{"condition": 0, "counterbalance": 0, "assignmentId": "a50168323", "workerId": "w84344040", "hitId": "h92599787", "currenttrial": 13, "bonus": 0, "data": [{"uniqueid": "w84344040:a50168323", "current_trial": 0, "dateTime": 1693565358925, "trialdata": {"success": true, "trial_type": "fullscreen", "trial_index": 0, "time_elapsed": 2456, "internal_node_id": "0.0-0.0"}}, {"uniqueid": "w84344040:a50168323", "current_trial": 1, "dateTime": 1693565362324, "trialdata": {"view_history": [{"page_index": 0, "viewing_time": 3386}], "rt": 3386, "trial_id": "exp_instructions_control", "trial_type": "instructions", "trial_index": 1, "time_elapsed": 5856, "internal_node_id": "0.0-1.0"}}, {"uniqueid": "w84344040:a50168323", "current_trial": 2, "dateTime": 1693565414745, "trialdata": {"view_history": [{"page_index": 0, "viewing_time": 20213}, {"page_index": 1, "viewing_time": 23528}, {"page_index": 2, "viewing_time": 4066}, {"page_index": 3, "viewing_time": 4614}], "rt": 52420, "trial_id": "mouselab_instructions_1_control", "trial_type": "instructions", "trial_index": 2, "time_elapsed": 58277, "internal_node_id": "0.0-2.0-1.0"}}, {"uniqueid": "w84344040:a50168323", "current_trial": 3, "dateTime": 1693565441465, "trialdata": {"revealed_states": [], "clicked_states": ["1", "2", "3", "8", "9"], "num_clicks_accrued": [0, 0, 0, 0, 0, 0, 0, 0, 0, 0, 0, 0, 0], "stateRewards": ["", 10, -10, -10, -10, -10, -10, 10, -10, 10, 10, 10, 10, -10, 10, 10, 10, -10, -10, 10, -10, -10, 10, -10, 10, -10, -10, -10, 10, 10, -10, 10, -10, 10], "withholdReward": false, "trial_id": "practice_1", "block": "test", "trialIndex": 0, "score": -9, "costs": -2.5, "simulationMode": [null, null, null, null, null], "rewards": [10, -10, -10, -10, 10], "path": ["0", "0", "1", "2", "3", "8", "9"], "rt": [17736, 496, 272, 110, 83], "actions": ["up", "up", "up", "left", "up"], "actionTimes": [20112, 21105, 21881, 22503, 23075], "queries": {"click": {"state": {"target": ["1", "2", "3", "8", "9"], "time": [5454, 7949, 10066, 12646, 13767]}, "edge": {"target": [], "time": []}}, "mouseover": {"state": {"target": ["1", "2", "3", "4", "5", "8", "9", "10", "10", "11", "8", "1"], "time": [4196, 5792, 8241, 10725, 11458, 11908, 12957, 14725, 16574, 16724, 17823, 18048]}, "edge": {"target": [], "time": []}}, "mouseout": {"state": {"target": ["0", "1", "2", "3", "4", "5", "3", "8", "9", "8", "10", "10", "11", "8", "1"], "time": [4073, 5741, 7958, 10508, 11382, 11847, 11893, 12875, 14325, 14541, 16205, 16624, 17791, 17858, 18125]}, "edge": {"target": [], "time": []}}}, "displayed_time": "23.58", "trialTime": 26282, "trial_type": "mouselab-mdp", "trial_index": 3, "time_elapsed": 84996, "internal_node_id": "0.0-2.0-2.0-0.0"}}, {"uniqueid": "w84344040:a50168323", "current_trial": 4, "dateTime": 1693565456248, "trialdata": {"revealed_states": [], "clicked_states": ["23"], "num_clicks_accrued": [0, 0, 0, 0, 0, 0, 0, 0, 0, 0, 0, 0, 0], "stateRewards": ["", -10, 10, 10, -10, 10, -10, -10, 10, 10, 10, -10, -10, -10, 10, 10, -10, -10, 10, 10, -10, -10, 10, 10, 10, -10, 10, -10, 10, 10, -10, 10, -10, 10], "withholdReward": false, "trial_id": "practice_2", "block": "test", "trialIndex": 1, "score": -7, "costs": -0.5, "simulationMode": [null, null, null, null, null], "rewards": [10, 10, -10, -10, -10], "path": ["0", "0", "23", "24", "25", "30", "32"], "rt": [3937, 2102, 223, 521, 399], "actions": ["left", "left", "left", "down", "down"], "actionTimes": [7599, 10204, 10925, 11939, 12852], "queries": {"click": {"state": {"target": ["23"], "time": [5037]}, "edge": {"target": [], "time": []}}, "mouseover": {"state": {"target": ["0", "23", "24", "25", "24", "24"], "time": [4141, 4738, 5251, 5918, 6285, 6703]}, "edge": {"target": [], "time": []}}, "mouseout": {"state": {"target": ["1", "0", "23", "24", "25", "24", "24"], "time": [3170, 4562, 5201, 5718, 6226, 6508, 7817]}, "edge": {"target": [], "time": []}}}, "displayed_time": "13.35", "trialTime": 14557, "trial_type": "mouselab-mdp", "trial_index": 4, "time_elapsed": 99780, "internal_node_id": "0.0-2.0-2.0-1.0"}}, {"uniqueid": "w84344040:a50168323", "current_trial": 5, "dateTime": 1693565465690, "trialdata": {"view_history": [{"page_index": 0, "viewing_time": 4337}, {"page_index": 1, "viewing_time": 5102}], "rt": 9440, "trial_id": "mouselab_instructions_2_control", "trial_type": "instructions", "trial_index": 5, "time_elapsed": 109222, "internal_node_id": "0.0-2.0-3.0"}}, {"uniqueid": "w84344040:a50168323", "current_trial": 6, "dateTime": 1693565491995, "trialdata": {"rt": 26301, "response": {"Q0": "The cost for clicking on nodes may vary between nodes.", "Q1": "The better I perform the higher my bonus will be.", "Q2": "No, the structure of the web will be different each time.", "Q3": "To get the highest total score.", "Q4": "Only before moving the spider.", "Q5": "3 seconds"}, "question_order": [0, 1, 2, 3, 4, 5], "correct": {"Q0": "The cost for clicking on nodes may vary between nodes.", "Q1": "The better I perform the higher my bonus will be.", "Q2": "No, the amount of cash at each node of the web may be different each time.", "Q3": "To get the highest total score.", "Q4": "Only before moving the spider.", "Q5": "3 seconds"}, "trial_id": "mouselab_quiz_control", "trial_type": "survey-multi-choice", "trial_index": 6, "time_elapsed": 135527, "internal_node_id": "0.0-2.0-4.0"}}, {"uniqueid": "w84344040:a50168323", "current_trial": 7, "dateTime": 1693565498975, "trialdata": {"success": true, "trial_type": "fullscreen", "trial_index": 7, "time_elapsed": 142507, "internal_node_id": "0.0-2.1-0.1-0.1"}}, {"uniqueid": "w84344040:a50168323", "current_trial": 8, "dateTime": 1693565584068, "trialdata": {"view_history": [{"page_index": 0, "viewing_time": 25051}, {"page_index": 1, "viewing_time": 29420}, {"page_index": 2, "viewing_time": 5174}, {"page_index": 3, "viewing_time": 25440}], "rt": 85085, "trial_id": "mouselab_instructions_1_control", "trial_type": "instructions", "trial_index": 8, "time_elapsed": 227600, "internal_node_id": "0.0-2.1-1.1"}}, {"uniqueid": "w84344040:a50168323", "current_trial": 9, "dateTime": 1693565629821, "trialdata": {"revealed_states": [], "clicked_states": ["12", "13", "14", "19", "21", "23", "24", "25", "30", "32", "1", "2", "3", "8", "10", "4", "6", "7", "5", "9", "26", "27"], "num_clicks_accrued": [0, 0, 0, 0, 0, 0, 0, 0, 0, 0, 0, 0, 0], "stateRewards": ["", 10, -10, -10, -10, -10, -10, 10, -10, 10, 10, 10, 10, -10, 10, 10, 10, -10, -10, 10, -10, -10, 10, -10, 10, -10, -10, -10, 10, 10, -10, 10, -10, 10], "withholdReward": false, "trial_id": "practice_1", "block": "test", "trialIndex": 2, "score": -37.5, "costs": -11, "simulationMode": [null, null, null, null, null], "rewards": [-10, 10, -10, -10, -10], "path": ["0", "0", "23", "24", "25", "26", "27"], "rt": [38194, 979, 68, 110, 11], "actions": ["left", "left", "left", "up", "up"], "actionTimes": [39872, 41341, 41913, 42523, 43023], "queries": {"click": {"state": {"target": ["12", "13", "14", "19", "21", "23", "24", "25", "30", "32", "1", "2", "3", "8", "10", "4", "6", "7", "5", "9", "26", "27"], "time": [2459, 4251, 5787, 8280, 9894, 12692, 14059, 15380, 16817, 18256, 20775, 22067, 24031, 25461, 26806, 28308, 29750, 31103, 32521, 33828, 34879, 36268]}, "edge": {"target": [], "time": []}}, "mouseover": {"state": {"target": ["12", "13", "14", "13", "14", "19", "21", "19", "21", "23", "23", "24", "25", "30", "32", "31", "0", "1", "2", "10", "3", "8", "10", "4", "7", "6", "7", "5", "9", "8", "10", "26", "27", "23", "1"], "time": [2197, 2679, 3179, 3396, 4678, 6062, 7150, 7877, 8661, 12064, 12398, 13078, 14545, 15711, 17278, 19145, 20413, 20629, 21328, 22394, 23870, 24810, 25744, 27694, 28711, 29511, 30061, 32213, 33411, 34093, 34243, 34510, 35443, 37277, 37795]}, "edge": {"target": [], "time": []}}, "mouseout": {"state": {"target": ["0", "12", "13", "14", "13", "14", "19", "21", "19", "21", "21", "21", "23", "23", "24", "25", "30", "32", "31", "0", "1", "2", "10", "3", "8", "10", "4", "7", "6", "7", "7", "7", "5", "9", "8", "10", "26", "27", "23", "1"], "time": [2146, 2630, 3113, 3313, 4595, 5995, 6981, 7833, 8595, 10001, 10495, 11447, 12113, 12995, 14395, 15678, 17211, 18388, 19178, 20445, 21211, 22361, 23662, 24744, 25711, 27427, 28627, 29463, 29994, 31183, 31427, 31610, 32894, 34077, 34126, 34310, 35344, 36577, 37647, 37946]}, "edge": {"target": [], "time": []}}}, "displayed_time": "43.55", "trialTime": 45516, "trial_type": "mouselab-mdp", "trial_index": 9, "time_elapsed": 273352, "internal_node_id": "0.0-2.1-2.1-0.1"}}, {"uniqueid": "w84344040:a50168323", "current_trial": 10, "dateTime": 1693565657429, "trialdata": {"revealed_states": [], "clicked_states": ["12", "13", "14", "15", "17", "23", "25", "24", "26", "29"], "num_clicks_accrued": [0, 0, 0, 0, 0, 0, 0, 0, 0, 0, 0, 0, 0], "stateRewards": ["", -10, 10, 10, -10, 10, -10, -10, 10, 10, 10, -10, -10, -10, 10, 10, -10, -10, 10, 10, -10, -10, 10, 10, 10, -10, 10, -10, 10, 10, -10, 10, -10, 10], "withholdReward": false, "trial_id": "practice_2", "block": "test", "trialIndex": 3, "score": 28.5, "costs": -5, "simulationMode": [null, null, null, null, null], "rewards": [10, 10, -10, 10, 10], "path": ["0", "0", "23", "24", "25", "26", "29"], "rt": [19490, 296, 46, 151, 703], "actions": ["left", "left", "left", "up", "left"], "actionTimes": [20758, 21559, 22126, 22797, 24016], "queries": {"click": {"state": {"target": ["12", "13", "14", "15", "17", "23", "25", "24", "26", "29"], "time": [3770, 5166, 6502, 7981, 9257, 11175, 13121, 14907, 16661, 17953]}, "edge": {"target": [], "time": []}}, "mouseover": {"state": {"target": ["12", "13", "14", "19", "15", "17", "1", "23", "24", "25", "24", "26", "29", "26", "29", "23"], "time": [3000, 4095, 5661, 6878, 7914, 8694, 10731, 10871, 11377, 12278, 13528, 15394, 16346, 16511, 17228, 18994]}, "edge": {"target": [], "time": []}}, "mouseout": {"state": {"target": ["12", "13", "14", "19", "14", "15", "17", "1", "23", "24", "25", "24", "26", "29", "26", "29", "26", "23"], "time": [4028, 5461, 6778, 7633, 7695, 8544, 9745, 10748, 11360, 12244, 13478, 15245, 16245, 16472, 17145, 18444, 18511, 26128]}, "edge": {"target": [], "time": []}}}, "displayed_time": "24.53", "trialTime": 27375, "trial_type": "mouselab-mdp", "trial_index": 10, "time_elapsed": 300960, "internal_node_id": "0.0-2.1-2.1-1.1"}}, {"uniqueid": "w84344040:a50168323", "current_trial": 11, "dateTime": 1693565678290, "trialdata": {"view_history": [{"page_index": 0, "viewing_time": 19023}, {"page_index": 1, "viewing_time": 1836}], "rt": 20859, "trial_id": "mouselab_instructions_2_control", "trial_type": "instructions", "trial_index": 11, "time_elapsed": 321822, "internal_node_id": "0.0-2.1-3.1"}}, {"uniqueid": "w84344040:a50168323", "current_trial": 12, "dateTime": 1693565708533, "trialdata": {"rt": 30240, "response": {"Q0": "The cost for clicking on nodes may vary between nodes.", "Q1": "The better I perform the higher my bonus will be.", "Q2": "No, the structure of the web will be different each time.", "Q3": "To get the highest total score.", "Q4": "Only before moving the spider.", "Q5": "3 seconds"}, "question_order": [0, 1, 2, 3, 4, 5], "correct": {"Q0": "The cost for clicking on nodes may vary between nodes.", "Q1": "The better I perform the higher my bonus will be.", "Q2": "No, the amount of cash at each node of the web may be different each time.", "Q3": "To get the highest total score.", "Q4": "Only before moving the spider.", "Q5": "3 seconds"}, "trial_id": "mouselab_quiz_control", "trial_type": "survey-multi-choice", "trial_index": 12, "time_elapsed": 352065, "internal_node_id": "0.0-2.1-4.1"}}], "questiondata": {"params": {"CODE": "C6DMOQA6", "MIN_TIME": 14, "inspectCost": 1, "startTime": "Fri Sep 01 2023 11:49:15 GMT+0100 (British Summer Time)", "bonusRate": 0.002, "variance": "1_2_4_8_44", "branching": "31123"}}, "eventdata": [{"eventtype": "initialized", "value": null, "timestamp": 1693565355284, "interval": 0}, {"eventtype": "window_resize", "value": [1366, 670], "timestamp": 1693565355284, "interval": 0}, {"eventtype": "window_resize", "value": [1366, 670], "timestamp": 1693565355595, "interval": 311}, {"eventtype": "window_resize", "value": [1366, 768], "timestamp": 1693565358139, "interval": 2544}, {"eventtype": "focus", "value": "off", "timestamp": 1693565496008, "interval": 137869}, {"eventtype": "focus", "value": "on", "timestamp": 1693565496008, "interval": 0}, {"eventtype": "window_resize", "value": [1366, 670], "timestamp": 1693565496215, "interval": 207}, {"eventtype": "window_resize", "value": [1366, 768], "timestamp": 1693565498187, "interval": 1972}, {"eventtype": "focus", "value": "off", "timestamp": 1693565710853, "interval": 212666}, {"eventtype": "focus", "value": "on", "timestamp": 1693565710854, "interval": 1}, {"eventtype": "window_resize", "value": [1366, 670], "timestamp": 1693565711060, "interval": 206}], "useragent": "Mozilla/5.0 (Windows NT 10.0; Win64; x64) AppleWebKit/537.36 (KHTML, like Gecko) Chrome/116.0.0.0 Safari/537.36", "mode": "live", "id": "w84344040:a50168323", "status": "user data saved", "Beginhit": "2023-09-01 10:49:14.070091", "Beginexp": "2023-09-01 10:49:19.117757", "Endhit": null, "psiturkStatus": 6, "browser": "<redacted>", "platform": "windows", "language": "en-US", "excludeReason": "quizfail"}