{"condition": 0, "counterbalance": 0, "assignmentId": "a56932449", "workerId": "w57550074", "hitId": "h13732749", "currenttrial": 55, "bonus": 0, "data": [{"uniqueid": "w57550074:a56932449", "current_trial": 0, "dateTime": 1693389219853, "trialdata": {"success": true, "trial_type": "fullscreen", "trial_index": 0, "time_elapsed": 5633, "internal_node_id": "0.0-0.0"}}, {"uniqueid": "w57550074:a56932449", "current_trial": 1, "dateTime": 1693389239128, "trialdata": {"view_history": [{"page_index": 0, "viewing_time": 19265}], "rt": 19266, "trial_id": "exp_instructions_control", "trial_type": "instructions", "trial_index": 1, "time_elapsed": 24908, "internal_node_id": "0.0-1.0"}}, {"uniqueid": "w57550074:a56932449", "current_trial": 2, "dateTime": 1693389464648, "trialdata": {"view_history": [{"page_index": 0, "viewing_time": 56658}, {"page_index": 1, "viewing_time": 97016}, {"page_index": 2, "viewing_time": 12305}, {"page_index": 3, "viewing_time": 59534}], "rt": 225513, "trial_id": "mouselab_instructions_1_control", "trial_type": "instructions", "trial_index": 2, "time_elapsed": 250428, "internal_node_id": "0.0-2.0-1.0"}}, {"uniqueid": "w57550074:a56932449", "current_trial": 3, "dateTime": 1693389508987, "trialdata": {"revealed_states": [], "clicked_states": ["12", "23", "1", "24", "25", "26", "27", "13", "14", "15", "17"], "num_clicks_accrued": [0, 0, 0, 0, 0, 0, 0, 0, 0, 0, 0, 0, 0], "stateRewards": ["", -10, -10, 10, 10, 10, 10, 10, -10, -10, 10, -10, -10, -10, 10, 10, 10, -10, -10, 10, 10, 10, 10, 10, -10, 10, -10, 10, -10, -10, -10, 10, -10, 10], "withholdReward": false, "trial_id": "practice_1", "block": "test", "trialIndex": 0, "score": -12, "costs": -5.5, "simulationMode": [null, null, null, null, null], "rewards": [-10, -10, 10, 10, -10], "path": ["0", "0", "12", "13", "14", "15", "17"], "rt": [28933, 654, 98, 539, 61], "actions": ["right", "right", "right", "up", "right"], "actionTimes": [30690, 31840, 32451, 33509, 34080], "queries": {"click": {"state": {"target": ["12", "23", "1", "24", "25", "26", "27", "13", "14", "15", "17"], "time": [4053, 5887, 7844, 12459, 15669, 16845, 18177, 21288, 23129, 25046, 26303]}, "edge": {"target": [], "time": []}}, "mouseover": {"state": {"target": ["12", "12", "0", "23", "1", "23", "24", "23", "25", "26", "27", "28", "0", "12", "1", "12", "13", "14", "15", "17", "17", "13", "12", "12"], "time": [2739, 3305, 5054, 5373, 6704, 11037, 12053, 13685, 15254, 16287, 17702, 19120, 19637, 19701, 20002, 20734, 20901, 21970, 23703, 25535, 25786, 28019, 28402, 29456]}, "edge": {"target": [], "time": []}}, "mouseout": {"state": {"target": ["0", "12", "12", "0", "23", "1", "1", "23", "23", "24", "23", "25", "26", "27", "28", "0", "12", "1", "12", "13", "14", "15", "17", "17", "13", "12", "12"], "time": [2621, 2869, 4870, 5088, 6096, 8060, 8454, 9790, 11985, 13624, 14969, 16170, 17553, 19053, 19201, 19667, 19940, 20520, 20819, 21820, 23569, 25503, 25603, 27519, 28367, 28451, 37335]}, "edge": {"target": [], "time": []}}}, "displayed_time": "34.58", "trialTime": 43240, "trial_type": "mouselab-mdp", "trial_index": 3, "time_elapsed": 294766, "internal_node_id": "0.0-2.0-2.0-0.0"}}, {"uniqueid": "w57550074:a56932449", "current_trial": 4, "dateTime": 1693389526152, "trialdata": {"revealed_states": [], "clicked_states": ["23", "1", "12"], "num_clicks_accrued": [0, 0, 0, 0, 0, 0, 0, 0, 0, 0, 0, 0, 0], "stateRewards": ["", -10, 10, -10, 10, -10, -10, 10, 10, -10, 10, -10, 10, 10, 10, -10, 10, -10, -10, 10, 10, -10, 10, -10, 10, 10, -10, 10, 10, -10, -10, -10, 10, -10], "withholdReward": false, "trial_id": "practice_2", "block": "test", "trialIndex": 1, "score": 32, "costs": -1.5, "simulationMode": [null, null, null, null, null], "rewards": [10, 10, 10, -10, 10], "path": ["0", "0", "12", "13", "14", "15", "16"], "rt": [6106, 473, 402, 549, 391], "actions": ["right", "right", "right", "up", "up"], "actionTimes": [9398, 10387, 11298, 12362, 13253], "queries": {"click": {"state": {"target": ["23", "1", "12"], "time": [4979, 5988, 7203]}, "edge": {"target": [], "time": []}}, "mouseover": {"state": {"target": ["23", "1", "12"], "time": [4415, 5579, 6730]}, "edge": {"target": [], "time": []}}, "mouseout": {"state": {"target": ["0", "23", "1"], "time": [4034, 5430, 6446]}, "edge": {"target": [], "time": []}}}, "displayed_time": "13.76", "trialTime": 16948, "trial_type": "mouselab-mdp", "trial_index": 4, "time_elapsed": 311931, "internal_node_id": "0.0-2.0-2.0-1.0"}}, {"uniqueid": "w57550074:a56932449", "current_trial": 5, "dateTime": 1693389598943, "trialdata": {"view_history": [{"page_index": 0, "viewing_time": 26859}, {"page_index": 1, "viewing_time": 45929}], "rt": 72789, "trial_id": "mouselab_instructions_2_control", "trial_type": "instructions", "trial_index": 5, "time_elapsed": 384723, "internal_node_id": "0.0-2.0-3.0"}}, {"uniqueid": "w57550074:a56932449", "current_trial": 6, "dateTime": 1693389632818, "trialdata": {"rt": 33865, "response": {"Q0": "The cost for clicking on nodes may vary between nodes.", "Q1": "The better I perform the higher my bonus will be.", "Q2": "No, the amount of cash at each node of the web may be different each time.", "Q3": "To get the highest total score.", "Q4": "Only before moving the spider.", "Q5": "3 seconds"}, "question_order": [0, 1, 2, 3, 4, 5], "correct": {"Q0": "The cost for clicking on nodes may vary between nodes.", "Q1": "The better I perform the higher my bonus will be.", "Q2": "No, the amount of cash at each node of the web may be different each time.", "Q3": "To get the highest total score.", "Q4": "Only before moving the spider.", "Q5": "3 seconds"}, "trial_id": "mouselab_quiz_control", "trial_type": "survey-multi-choice", "trial_index": 6, "time_elapsed": 418598, "internal_node_id": "0.0-2.0-4.0"}}, {"uniqueid": "w57550074:a56932449", "current_trial": 7, "dateTime": 1693389640352, "trialdata": {"rt": 7526, "response": {"Q0": "No"}, "question_order": [0], "trial_id": "repeat_check", "trial_type": "survey-multi-choice", "trial_index": 7, "time_elapsed": 426131, "internal_node_id": "0.0-4.0-0.0"}}, {"uniqueid": "w57550074:a56932449", "current_trial": 8, "dateTime": 1693389657774, "trialdata": {"rt": 17411, "stimulus": "\n<h1> Get ready to start the game! </h1>\n\nThank you for reading the instructions. Get ready start with the 40 rounds of this game.\n<br><br>\nIf you need to take a break, feel free to take one after the end of a round, before continuing to the next one.\n<br><br>\nRemember, the more money the spider gets, the bigger your bonus will be!\n<br><br>\n<div style='text-align: center;'>Press <code>space</code> to begin.</div>\n\n<br><br>\n(If, at any point, the <code>space</code> key does not take you to the next page, click once on the text and try again.)", "response": " ", "trial_id": "mdp_ready", "trial_type": "html-keyboard-response", "trial_index": 8, "time_elapsed": 443554, "internal_node_id": "0.0-6.0-0.0"}}, {"uniqueid": "w57550074:a56932449", "current_trial": 9, "dateTime": 1693389676974, "trialdata": {"revealed_states": [], "clicked_states": ["12", "1"], "num_clicks_accrued": [0, 0, 0, 0, 0, 0, 0, 0, 0, 0, 0, 0, 0], "stateRewards": ["", -1, 2, -6, 6, -82, -19, -39, -16, -83, 11, -33, -2, -2, 4, -6, -82, -1, -19, -6, -10, -67, -41, -2, 1, -7, 16, -23, -78, -52, 14, 31, -71, 74], "withholdReward": false, "trial_id": "mdp_trial_1", "block": "test", "trialIndex": 2, "score": -72.8, "costs": -2.8, "simulationMode": [null, null, null, null, null], "rewards": [-2, 1, -7, 16, -78], "path": ["0", "0", "23", "24", "25", "26", "28"], "rt": [6867, 406, 351, 557, 971], "actions": ["left", "left", "left", "up", "right"], "actionTimes": [9608, 10528, 11390, 12461, 13942], "queries": {"click": {"state": {"target": ["12", "1"], "time": [4048, 5561]}, "edge": {"target": [], "time": []}}, "mouseover": {"state": {"target": ["12", "13", "1", "23"], "time": [3621, 4739, 5195, 6572]}, "edge": {"target": [], "time": []}}, "mouseout": {"state": {"target": ["0", "12", "13", "1", "23", "15", "17"], "time": [1803, 4588, 4842, 6305, 8643, 16126, 16140]}, "edge": {"target": [], "time": []}}}, "displayed_time": "16.74", "trialTime": 18985, "trial_type": "mouselab-mdp", "trial_index": 9, "time_elapsed": 462753, "internal_node_id": "0.0-6.0-1.0-0.0"}}, {"uniqueid": "w57550074:a56932449", "current_trial": 10, "dateTime": 1693389696131, "trialdata": {"revealed_states": [], "clicked_states": ["1", "12", "23"], "num_clicks_accrued": [0, 0, 0, 0, 0, 0, 0, 0, 0, 0, 0, 0, 0], "stateRewards": ["", -2, -3, 7, -13, 60, 9, 37, -6, 37, 20, 1, 2, -2, -8, 6, -80, -31, -10, -7, 70, -65, -44, -1, 1, 7, 6, -11, 73, -85, 16, -21, 47, 34], "withholdReward": false, "trial_id": "mdp_trial_2", "block": "test", "trialIndex": 3, "score": -84.2, "costs": -4.199999999999999, "simulationMode": [null, null, null, null, null, null], "rewards": [2, -2, -8, -7, -65], "path": ["0", "0", "12", "13", "14", "19", "21"], "rt": [6317, 265, 340, 113, 561, 611], "actions": ["right", "right", "right", "right", "down", "down"], "actionTimes": [8748, 9016, 9870, 10494, 11574, 12691], "queries": {"click": {"state": {"target": ["1", "12", "23"], "time": [4133, 5738, 7873]}, "edge": {"target": [], "time": []}}, "mouseover": {"state": {"target": ["1", "12", "0", "23"], "time": [3202, 4980, 6197, 6429]}, "edge": {"target": [], "time": []}}, "mouseout": {"state": {"target": ["13", "12", "1", "12", "0", "23", "0"], "time": [1713, 1812, 4680, 6163, 6314, 14528, 14562]}, "edge": {"target": [], "time": []}}}, "displayed_time": "16.43", "trialTime": 18918, "trial_type": "mouselab-mdp", "trial_index": 10, "time_elapsed": 481911, "internal_node_id": "0.0-6.0-1.0-1.0"}}, {"uniqueid": "w57550074:a56932449", "current_trial": 11, "dateTime": 1693389716334, "trialdata": {"revealed_states": [], "clicked_states": [], "num_clicks_accrued": [0, 0, 0, 0, 0, 0, 0, 0, 0, 0, 0, 0, 0], "stateRewards": ["", -1, 2, 7, 8, 75, 67, -11, 6, 52, -17, 38, -1, 4, -8, 14, 74, -37, -17, -12, 52, 55, 71, -2, -1, -5, 2, 21, 6, -88, -14, 64, -61, -47], "withholdReward": false, "trial_id": "mdp_trial_3", "block": "test", "trialIndex": 4, "score": 66, "costs": 0, "simulationMode": [null, null, null, null, null], "rewards": [-1, 2, 7, 6, 52], "path": ["0", "0", "1", "2", "3", "8", "9"], "rt": [1277, 67, 377, 1446, 858], "actions": ["up", "up", "up", "left", "up"], "actionTimes": [4105, 4676, 5568, 7522, 8883], "queries": {"click": {"state": {"target": [], "time": []}, "edge": {"target": [], "time": []}}, "mouseover": {"state": {"target": [], "time": []}, "edge": {"target": [], "time": []}}, "mouseout": {"state": {"target": ["16", "18", "0", "13", "14"], "time": [1712, 1923, 11589, 11624, 11640]}, "edge": {"target": [], "time": []}}}, "displayed_time": "16.83", "trialTime": 19966, "trial_type": "mouselab-mdp", "trial_index": 11, "time_elapsed": 502112, "internal_node_id": "0.0-6.0-1.0-2.0"}}, {"uniqueid": "w57550074:a56932449", "current_trial": 12, "dateTime": 1693389739270, "trialdata": {"revealed_states": [], "clicked_states": ["1", "2", "4"], "num_clicks_accrued": [0, 0, 0, 0, 0, 0, 0, 0, 0, 0, 0, 0, 0], "stateRewards": ["", -1, -3, -5, -14, -13, -47, 79, 8, -60, -64, 41, -1, 2, 3, 13, -46, 61, -79, -11, -64, -65, 23, 1, -2, 6, -14, 46, 32, 21, 7, 75, -66, 15], "withholdReward": false, "trial_id": "mdp_trial_4", "block": "test", "trialIndex": 5, "score": 22.8, "costs": -4.199999999999999, "simulationMode": [null, null, null, null, null], "rewards": [1, -2, 6, 7, 15], "path": ["0", "0", "23", "24", "25", "30", "33"], "rt": [9854, 306, 245, 1121, 35], "actions": ["left", "left", "left", "down", "left"], "actionTimes": [13937, 14748, 15501, 17126, 17656], "queries": {"click": {"state": {"target": ["1", "2", "4"], "time": [5281, 6927, 9795]}, "edge": {"target": [], "time": []}}, "mouseover": {"state": {"target": ["1", "2", "3", "4", "2"], "time": [4686, 6006, 7605, 9304, 11957]}, "edge": {"target": [], "time": []}}, "mouseout": {"state": {"target": ["0", "1", "2", "3", "4", "2", "18", "15", "17"], "time": [4556, 5722, 7422, 9190, 10672, 11987, 19937, 19986, 20070]}, "edge": {"target": [], "time": []}}}, "displayed_time": "18.17", "trialTime": 22684, "trial_type": "mouselab-mdp", "trial_index": 12, "time_elapsed": 525049, "internal_node_id": "0.0-6.0-1.0-3.0"}}, {"uniqueid": "w57550074:a56932449", "current_trial": 13, "dateTime": 1693389758867, "trialdata": {"revealed_states": [], "clicked_states": [], "num_clicks_accrued": [0, 0, 0, 0, 0, 0, 0, 0, 0, 0, 0, 0, 0], "stateRewards": ["", 2, -1, -3, 16, -3, -16, -62, -1, 13, -26, 43, -1, 4, 3, -9, -54, -37, -3, -12, -71, -68, -57, 1, -3, 2, -9, 2, -2, -9, -11, 84, -52, 55], "withholdReward": false, "trial_id": "mdp_trial_5", "block": "test", "trialIndex": 6, "score": -48, "costs": 0, "simulationMode": [null, null, null, null, null], "rewards": [2, -1, -3, 16, -62], "path": ["0", "0", "1", "2", "3", "4", "7"], "rt": [1404, 98, 297, 475, 186], "actions": ["up", "up", "up", "right", "down"], "actionTimes": [4129, 4732, 5545, 6527, 7217], "queries": {"click": {"state": {"target": [], "time": []}, "edge": {"target": [], "time": []}}, "mouseover": {"state": {"target": [], "time": []}, "edge": {"target": [], "time": []}}, "mouseout": {"state": {"target": ["0", "18", "15"], "time": [13622, 13664, 13682]}, "edge": {"target": [], "time": []}}}, "displayed_time": "16.73", "trialTime": 19345, "trial_type": "mouselab-mdp", "trial_index": 13, "time_elapsed": 544647, "internal_node_id": "0.0-6.0-1.0-4.0"}}, {"uniqueid": "w57550074:a56932449", "current_trial": 14, "dateTime": 1693389777040, "trialdata": {"revealed_states": [], "clicked_states": [], "num_clicks_accrued": [0, 0, 0, 0, 0, 0, 0, 0, 0, 0, 0, 0, 0], "stateRewards": ["", -2, 2, 2, -6, 9, 37, 50, -13, -7, -18, -75, -2, -4, 4, 7, 23, -57, -66, -7, -81, -48, -76, 1, 1, -8, 1, 51, -2, 70, 14, 59, 71, -37], "withholdReward": false, "trial_id": "mdp_trial_6", "block": "test", "trialIndex": 7, "score": -85, "costs": 0, "simulationMode": [null, null, null, null, null], "rewards": [-2, -4, 4, -7, -76], "path": ["0", "0", "12", "13", "14", "19", "22"], "rt": [1328, 405, 182, 89, 391], "actions": ["right", "right", "right", "down", "left"], "actionTimes": [3739, 4660, 5353, 5963, 6865], "queries": {"click": {"state": {"target": [], "time": []}, "edge": {"target": [], "time": []}}, "mouseover": {"state": {"target": [], "time": []}, "edge": {"target": [], "time": []}}, "mouseout": {"state": {"target": ["18"], "time": [1459]}, "edge": {"target": [], "time": []}}}, "displayed_time": "16.41", "trialTime": 17906, "trial_type": "mouselab-mdp", "trial_index": 14, "time_elapsed": 562820, "internal_node_id": "0.0-6.0-1.0-5.0"}}, {"uniqueid": "w57550074:a56932449", "current_trial": 15, "dateTime": 1693389799766, "trialdata": {"revealed_states": [], "clicked_states": ["12", "23", "1", "26", "11", "6"], "num_clicks_accrued": [0, 0, 0, 0, 0, 0, 0, 0, 0, 0, 0, 0, 0], "stateRewards": ["", 2, -4, -8, -15, 71, -43, -41, 7, -17, 20, 67, -1, -1, -4, 6, 37, -24, -47, 9, 34, 57, 45, 1, 2, -4, -5, -23, 88, -5, 13, -40, 43, 44], "withholdReward": false, "trial_id": "mdp_trial_7", "block": "test", "trialIndex": 8, "score": 55.6, "costs": -8.4, "simulationMode": [null, null, null, null, null, null], "rewards": [2, -4, -8, 7, 67], "path": ["0", "0", "1", "2", "3", "8", "11"], "rt": [12781, 267, 462, 76, 167, 406], "actions": ["up", "up", "up", "up", "left", "left"], "actionTimes": [13917, 14186, 15162, 15742, 16417, 17338], "queries": {"click": {"state": {"target": ["12", "23", "1", "26", "11", "6"], "time": [2510, 4100, 5891, 8291, 10483, 12716]}, "edge": {"target": [], "time": []}}, "mouseover": {"state": {"target": ["12", "0", "23", "1", "28", "26", "10", "2", "4", "9", "11", "8", "3", "4", "6"], "time": [1804, 2966, 3300, 4731, 6515, 6865, 9115, 9148, 9215, 9665, 10047, 10982, 11033, 11082, 11349]}, "edge": {"target": [], "time": []}}, "mouseout": {"state": {"target": ["0", "12", "0", "23", "1", "28", "26", "10", "2", "4", "9", "11", "8", "3", "4", "6"], "time": [545, 2954, 3033, 4647, 6449, 6781, 9048, 9132, 9165, 9348, 9864, 10701, 11016, 11065, 11164, 18527]}, "edge": {"target": [], "time": []}}}, "displayed_time": "17.85", "trialTime": 22443, "trial_type": "mouselab-mdp", "trial_index": 15, "time_elapsed": 585545, "internal_node_id": "0.0-6.0-1.0-6.0"}}, {"uniqueid": "w57550074:a56932449", "current_trial": 16, "dateTime": 1693389821256, "trialdata": {"revealed_states": [], "clicked_states": ["21", "17", "16", "9", "5"], "num_clicks_accrued": [0, 0, 0, 0, 0, 0, 0, 0, 0, 0, 0, 0, 0], "stateRewards": ["", -2, -1, -2, -15, 87, 57, 29, -10, 77, -80, -7, 1, -3, 6, 14, -11, 87, -59, 4, -71, 16, -11, 2, 2, -7, 2, -47, 61, 50, 14, -20, 17, 81], "withholdReward": false, "trial_id": "mdp_trial_8", "block": "test", "trialIndex": 9, "score": 60, "costs": -7, "simulationMode": [null, null, null, null, null], "rewards": [-2, -1, -2, -15, 87], "path": ["0", "0", "1", "2", "3", "4", "5"], "rt": [12607, 55, 45, 350, 133], "actions": ["up", "up", "up", "right", "up"], "actionTimes": [14881, 15447, 16001, 16857, 17507], "queries": {"click": {"state": {"target": ["21", "17", "16", "9", "5"], "time": [3784, 6229, 8041, 10483, 12073]}, "edge": {"target": [], "time": []}}, "mouseover": {"state": {"target": ["12", "13", "14", "19", "21", "17", "16", "4", "9", "5"], "time": [2695, 2714, 2826, 3025, 3307, 4364, 7208, 9475, 10107, 11108]}, "edge": {"target": [], "time": []}}, "mouseout": {"state": {"target": ["18", "1", "0", "12", "13", "14", "19", "21", "17", "16", "4", "9", "5"], "time": [1341, 1407, 2686, 2706, 2773, 2876, 3174, 4176, 6709, 9375, 9591, 10695, 18882]}, "edge": {"target": [], "time": []}}}, "displayed_time": "18.03", "trialTime": 21210, "trial_type": "mouselab-mdp", "trial_index": 16, "time_elapsed": 607034, "internal_node_id": "0.0-6.0-1.0-7.0"}}, {"uniqueid": "w57550074:a56932449", "current_trial": 17, "dateTime": 1693389849808, "trialdata": {"revealed_states": [], "clicked_states": ["32", "33", "21", "20", "17", "27"], "num_clicks_accrued": [0, 0, 0, 0, 0, 0, 0, 0, 0, 0, 0, 0, 0], "stateRewards": ["", -2, -2, -3, -6, -15, -11, 41, -12, -63, -76, 2, -2, -3, 8, 9, -36, -2, -18, -16, -32, -85, -17, -2, 1, 5, -16, 82, 35, -88, -1, 80, -82, -20], "withholdReward": false, "trial_id": "mdp_trial_9", "block": "test", "trialIndex": 10, "score": 61.6, "costs": -8.4, "simulationMode": [null, null, null, null, null], "rewards": [-2, 1, 5, -16, 82], "path": ["0", "0", "23", "24", "25", "26", "27"], "rt": [16391, 60, 445, 37, 421], "actions": ["left", "left", "left", "up", "up"], "actionTimes": [19211, 19790, 20743, 21284, 22217], "queries": {"click": {"state": {"target": ["32", "33", "21", "20", "17", "27"], "time": [3765, 5824, 9239, 11248, 13311, 16635]}, "edge": {"target": [], "time": []}}, "mouseover": {"state": {"target": ["32", "33", "30", "31", "13", "19", "21", "20", "18", "15", "17", "15", "18", "1", "28", "26", "27"], "time": [3179, 4482, 6398, 6531, 8346, 8613, 8796, 10030, 11783, 12048, 12231, 13815, 13847, 13902, 14231, 14264, 16299]}, "edge": {"target": [], "time": []}}, "mouseout": {"state": {"target": ["17", "0", "32", "33", "30", "31", "13", "19", "21", "20", "18", "15", "17", "15", "18", "1", "28", "26", "27", "10", "2", "7", "16"], "time": [879, 3063, 4264, 6348, 6481, 8280, 8429, 8730, 9749, 11680, 11798, 12100, 13798, 13831, 13864, 13931, 14247, 16162, 24714, 25265, 25312, 25428, 25869]}, "edge": {"target": [], "time": []}}}, "displayed_time": "22.73", "trialTime": 28218, "trial_type": "mouselab-mdp", "trial_index": 17, "time_elapsed": 635586, "internal_node_id": "0.0-6.0-1.0-8.0"}}, {"uniqueid": "w57550074:a56932449", "current_trial": 18, "dateTime": 1693389874657, "trialdata": {"revealed_states": [], "clicked_states": ["9", "5", "7", "10", "29", "33", "32"], "num_clicks_accrued": [0, 0, 0, 0, 0, 0, 0, 0, 0, 0, 0, 0, 0], "stateRewards": ["", -2, 1, -3, -16, -39, -52, 30, -7, -41, -59, 11, 2, 1, 8, 2, -11, -26, -42, -13, 87, -59, -48, -1, -1, -1, 16, -79, 31, 50, -1, -84, 34, -82], "withholdReward": false, "trial_id": "mdp_trial_10", "block": "test", "trialIndex": 11, "score": 53.2, "costs": -9.8, "simulationMode": [null, null, null, null, null], "rewards": [-1, -1, -1, 16, 50], "path": ["0", "0", "23", "24", "25", "26", "29"], "rt": [16684, 78, 112, 335, 149], "actions": ["left", "left", "left", "up", "left"], "actionTimes": [18534, 19125, 19757, 20597, 21260], "queries": {"click": {"state": {"target": ["9", "5", "7", "10", "29", "33", "32"], "time": [3071, 5034, 7343, 9462, 11762, 14045, 16230]}, "edge": {"target": [], "time": []}}, "mouseover": {"state": {"target": ["2", "3", "9", "5", "6", "16", "17", "7", "2", "10", "26", "29", "33", "32"], "time": [2210, 2245, 2681, 3930, 5463, 5597, 5996, 6629, 7778, 7879, 10212, 11117, 13063, 15212]}, "edge": {"target": [], "time": []}}, "mouseout": {"state": {"target": ["23", "0", "2", "3", "9", "5", "6", "16", "17", "7", "2", "10", "26", "29", "33", "32", "21"], "time": [1217, 2182, 2228, 2261, 3496, 5430, 5498, 5630, 6246, 7746, 7829, 9673, 10546, 12712, 14963, 22094, 22260]}, "edge": {"target": [], "time": []}}}, "displayed_time": "21.78", "trialTime": 24588, "trial_type": "mouselab-mdp", "trial_index": 18, "time_elapsed": 660436, "internal_node_id": "0.0-6.0-1.0-9.0"}}, {"uniqueid": "w57550074:a56932449", "current_trial": 19, "dateTime": 1693389892360, "trialdata": {"revealed_states": [], "clicked_states": ["21", "20", "22"], "num_clicks_accrued": [0, 0, 0, 0, 0, 0, 0, 0, 0, 0, 0, 0, 0], "stateRewards": ["", -1, 3, -7, 16, -32, -74, -48, 2, 10, 15, -30, 1, 1, -2, 10, 12, -83, 67, 13, -66, 47, 65, -2, 4, 2, -14, -8, -57, 24, 9, 65, 12, 46], "withholdReward": false, "trial_id": "mdp_trial_11", "block": "test", "trialIndex": 12, "score": 73.8, "costs": -4.199999999999999, "simulationMode": [null, null, null, null, null], "rewards": [1, 1, -2, 13, 65], "path": ["0", "0", "12", "13", "14", "19", "22"], "rt": [9199, 5, 62, 233, 233], "actions": ["right", "right", "right", "down", "left"], "actionTimes": [10661, 11171, 11744, 12498, 13249], "queries": {"click": {"state": {"target": ["21", "20", "22"], "time": [3159, 5482, 7441]}, "edge": {"target": [], "time": []}}, "mouseover": {"state": {"target": ["0", "12", "13", "14", "19", "21", "20", "22", "14", "17"], "time": [2168, 2197, 2247, 2265, 2563, 2814, 4065, 6300, 7949, 8035]}, "edge": {"target": [], "time": []}}, "mouseout": {"state": {"target": ["0", "0", "12", "13", "14", "19", "21", "20", "22", "14", "17"], "time": [1033, 2183, 2231, 2263, 2313, 2664, 3370, 5865, 7882, 7999, 15169]}, "edge": {"target": [], "time": []}}}, "displayed_time": "15.46", "trialTime": 17443, "trial_type": "mouselab-mdp", "trial_index": 19, "time_elapsed": 678140, "internal_node_id": "0.0-6.0-1.0-10.0"}}, {"uniqueid": "w57550074:a56932449", "current_trial": 20, "dateTime": 1693389919458, "trialdata": {"revealed_states": [], "clicked_states": ["29", "9", "5", "28", "33", "32", "21"], "num_clicks_accrued": [0, 0, 0, 0, 0, 0, 0, 0, 0, 0, 0, 0, 0], "stateRewards": ["", 1, -3, -4, -11, -56, 61, -47, -16, -28, -9, 69, -2, -3, -4, -8, 40, -86, 59, -4, 80, 27, 54, -1, 3, -1, 8, 67, 23, 50, 6, 83, -43, -29], "withholdReward": false, "trial_id": "mdp_trial_12", "block": "test", "trialIndex": 13, "score": 49.2, "costs": -9.8, "simulationMode": [null, null, null, null, null], "rewards": [-1, 3, -1, 8, 50], "path": ["0", "0", "23", "24", "25", "26", "29"], "rt": [17803, 42, 175, 414, 16], "actions": ["left", "left", "left", "up", "left"], "actionTimes": [20027, 20579, 21262, 22183, 22703], "queries": {"click": {"state": {"target": ["29", "9", "5", "28", "33", "32", "21"], "time": [3482, 5546, 8070, 10332, 12338, 14359, 16997]}, "edge": {"target": [], "time": []}}, "mouseover": {"state": {"target": ["28", "26", "29", "27", "8", "9", "5", "8", "10", "28", "25", "30", "33", "32", "21"], "time": [2770, 2818, 3151, 3869, 4186, 4420, 7624, 8834, 8967, 9334, 10886, 10940, 11602, 13153, 16577]}, "edge": {"target": [], "time": []}}, "mouseout": {"state": {"target": ["14", "13", "12", "28", "26", "29", "27", "8", "9", "5", "8", "10", "28", "25", "30", "33", "32", "21"], "time": [489, 517, 619, 2787, 3057, 3838, 3903, 4203, 7467, 8637, 8885, 9035, 10836, 10903, 10955, 12903, 14886, 18301]}, "edge": {"target": [], "time": []}}}, "displayed_time": "23.23", "trialTime": 26831, "trial_type": "mouselab-mdp", "trial_index": 20, "time_elapsed": 705238, "internal_node_id": "0.0-6.0-1.0-11.0"}}, {"uniqueid": "w57550074:a56932449", "current_trial": 21, "dateTime": 1693389943428, "trialdata": {"revealed_states": [], "clicked_states": ["29", "9", "5", "21"], "num_clicks_accrued": [0, 0, 0, 0, 0, 0, 0, 0, 0, 0, 0, 0, 0], "stateRewards": ["", 2, -1, -1, 7, 11, -40, -22, -2, 69, 37, 8, -2, 4, -8, -12, -2, -72, -3, -12, 17, 63, 12, 1, 3, -7, 6, 25, 61, 61, -9, 28, -17, 27], "withholdReward": false, "trial_id": "mdp_trial_13", "block": "test", "trialIndex": 14, "score": 61.4, "costs": -5.6, "simulationMode": [null, null, null, null, null], "rewards": [2, -1, -1, -2, 69], "path": ["0", "0", "1", "2", "3", "8", "9"], "rt": [11307, 388, 260, 185, 1094], "actions": ["up", "up", "up", "left", "up"], "actionTimes": [14030, 14930, 15701, 16393, 18001], "queries": {"click": {"state": {"target": ["29", "9", "5", "21"], "time": [3924, 6015, 8453, 10984]}, "edge": {"target": [], "time": []}}, "mouseover": {"state": {"target": ["23", "28", "26", "29", "26", "8", "9", "5", "4", "7", "13", "21"], "time": [3012, 3073, 3156, 3374, 4407, 4825, 5275, 7141, 8991, 9574, 9775, 10642]}, "edge": {"target": [], "time": []}}, "mouseout": {"state": {"target": ["0", "0", "23", "28", "26", "29", "26", "8", "9", "5", "4", "7", "13", "21"], "time": [1894, 2998, 3026, 3123, 3189, 4375, 4426, 4858, 6658, 8961, 9091, 9592, 9958, 11212]}, "edge": {"target": [], "time": []}}}, "displayed_time": "18.51", "trialTime": 23703, "trial_type": "mouselab-mdp", "trial_index": 21, "time_elapsed": 729207, "internal_node_id": "0.0-6.0-1.0-12.0"}}, {"uniqueid": "w57550074:a56932449", "current_trial": 22, "dateTime": 1693389966512, "trialdata": {"revealed_states": [], "clicked_states": ["20", "22", "21", "17", "16"], "num_clicks_accrued": [0, 0, 0, 0, 0, 0, 0, 0, 0, 0, 0, 0, 0], "stateRewards": ["", 2, -1, 5, 8, 75, -35, -77, 1, -9, -81, -58, 1, 2, -7, 5, 77, -16, 19, 16, -10, -18, 40, -2, 3, 7, -5, 64, 1, -62, 10, 27, 10, 65], "withholdReward": false, "trial_id": "mdp_trial_14", "block": "test", "trialIndex": 15, "score": 71, "costs": -7, "simulationMode": [null, null, null, null, null], "rewards": [1, 2, -7, 5, 77], "path": ["0", "0", "12", "13", "14", "15", "16"], "rt": [12988, 119, 95, 272, 500], "actions": ["right", "right", "right", "up", "up"], "actionTimes": [14822, 15454, 16066, 16856, 17868], "queries": {"click": {"state": {"target": ["20", "22", "21", "17", "16"], "time": [3012, 5144, 7018, 9076, 12284]}, "edge": {"target": [], "time": []}}, "mouseover": {"state": {"target": ["15", "17", "20", "22", "22", "21", "17", "16", "16", "1", "28", "26", "29"], "time": [2223, 2268, 2619, 3486, 3889, 5736, 7835, 9752, 11976, 12852, 12918, 13001, 13371]}, "edge": {"target": [], "time": []}}, "mouseout": {"state": {"target": ["15", "18", "15", "17", "20", "22", "22", "21", "17", "16", "16", "1", "28", "26", "29", "26"], "time": [1023, 1068, 2237, 2334, 3436, 3602, 5557, 7635, 9569, 9919, 12769, 12869, 12935, 13235, 19640, 19667]}, "edge": {"target": [], "time": []}}}, "displayed_time": "18.37", "trialTime": 22803, "trial_type": "mouselab-mdp", "trial_index": 22, "time_elapsed": 752292, "internal_node_id": "0.0-6.0-1.0-13.0"}}, {"uniqueid": "w57550074:a56932449", "current_trial": 23, "dateTime": 1693389991962, "trialdata": {"revealed_states": [], "clicked_states": ["32", "33", "29"], "num_clicks_accrued": [0, 0, 0, 0, 0, 0, 0, 0, 0, 0, 0, 0, 0], "stateRewards": ["", 1, 2, -5, 14, 54, -14, -25, 16, -5, -87, 78, -1, 1, 3, -3, 52, 53, 53, -10, 73, -69, -48, 2, 3, 1, 8, -62, -7, 85, 7, 82, 52, -28], "withholdReward": false, "trial_id": "mdp_trial_15", "block": "test", "trialIndex": 16, "score": 94.8, "costs": -4.199999999999999, "simulationMode": [null, null, null, null, null], "rewards": [2, 3, 1, 8, 85], "path": ["0", "0", "23", "24", "25", "26", "29"], "rt": [9122, 926, 526, 324, 286], "actions": ["left", "left", "left", "up", "left"], "actionTimes": [15106, 16539, 17573, 18403, 19198], "queries": {"click": {"state": {"target": ["32", "33", "29"], "time": [7548, 9916, 12252]}, "edge": {"target": [], "time": []}}, "mouseover": {"state": {"target": ["30", "32", "33", "29", "27"], "time": [6746, 7174, 9367, 11045, 12996]}, "edge": {"target": [], "time": []}}, "mouseout": {"state": {"target": ["20", "22", "12", "30", "32", "33", "29", "27", "18", "15", "17"], "time": [4447, 4544, 4830, 6766, 8163, 10995, 12454, 14455, 22560, 22594, 22644]}, "edge": {"target": [], "time": []}}}, "displayed_time": "19.98", "trialTime": 25162, "trial_type": "mouselab-mdp", "trial_index": 23, "time_elapsed": 777741, "internal_node_id": "0.0-6.0-1.0-14.0"}}, {"uniqueid": "w57550074:a56932449", "current_trial": 24, "dateTime": 1693390026083, "trialdata": {"revealed_states": [], "clicked_states": ["5", "9", "11", "10", "1", "17", "20", "21"], "num_clicks_accrued": [0, 0, 0, 0, 0, 0, 0, 0, 0, 0, 0, 0, 0], "stateRewards": ["", -1, -1, 7, -15, -43, -21, -84, -9, -45, -66, 2, 1, -2, 2, 8, -27, 44, -52, -5, -84, 11, 53, 1, 4, -4, 16, 83, -82, -15, -16, 68, -43, 81], "withholdReward": false, "trial_id": "mdp_trial_16", "block": "test", "trialIndex": 17, "score": 41.8, "costs": -11.200000000000001, "simulationMode": [null, null, null, null, null], "rewards": [1, -2, 2, 8, 44], "path": ["0", "0", "12", "13", "14", "15", "17"], "rt": [17837, 106, 174, 278, 953], "actions": ["right", "right", "right", "up", "right"], "actionTimes": [20710, 21330, 22015, 22804, 24277], "queries": {"click": {"state": {"target": ["5", "9", "11", "10", "1", "17", "20", "21"], "time": [3991, 5871, 7727, 9566, 11239, 13506, 15891, 17995]}, "edge": {"target": [], "time": []}}, "mouseover": {"state": {"target": ["1", "5", "9", "11", "10", "1", "12", "22", "19", "17", "20", "21"], "time": [3185, 3572, 4541, 6390, 8374, 10107, 11892, 11925, 12357, 12790, 14747, 17439]}, "edge": {"target": [], "time": []}}, "mouseout": {"state": {"target": ["17", "0", "0", "1", "5", "9", "11", "10", "1", "12", "22", "19", "17", "20", "21", "21"], "time": [824, 1494, 2493, 3198, 4391, 6341, 8074, 9958, 11857, 11911, 11957, 12407, 14458, 16974, 18213, 19893]}, "edge": {"target": [], "time": []}}}, "displayed_time": "24.77", "trialTime": 33831, "trial_type": "mouselab-mdp", "trial_index": 24, "time_elapsed": 811862, "internal_node_id": "0.0-6.0-1.0-15.0"}}, {"uniqueid": "w57550074:a56932449", "current_trial": 25, "dateTime": 1693390043856, "trialdata": {"revealed_states": [], "clicked_states": ["32", "33", "31", "28"], "num_clicks_accrued": [0, 0, 0, 0, 0, 0, 0, 0, 0, 0, 0, 0, 0], "stateRewards": ["", 2, -1, 3, -12, -83, 6, -33, 9, 28, 24, -50, -2, -1, -2, -5, -87, 37, 82, 12, 80, -5, 10, -2, -3, -6, 9, 22, -1, 16, 9, 77, -62, 58], "withholdReward": false, "trial_id": "mdp_trial_17", "block": "test", "trialIndex": 18, "score": 69.4, "costs": -5.6, "simulationMode": [null, null, null, null, null], "rewards": [-2, -3, -6, 9, 77], "path": ["0", "0", "23", "24", "25", "30", "31"], "rt": [10236, 335, 246, 248, 84], "actions": ["left", "left", "left", "down", "right"], "actionTimes": [11838, 12678, 13439, 14191, 14793], "queries": {"click": {"state": {"target": ["32", "33", "31", "28"], "time": [3124, 5141, 7788, 9985]}, "edge": {"target": [], "time": []}}, "mouseover": {"state": {"target": ["32", "33", "30", "31", "24", "28"], "time": [2724, 4459, 5676, 5797, 8275, 8709]}, "edge": {"target": [], "time": []}}, "mouseout": {"state": {"target": ["0", "32", "33", "30", "31", "24"], "time": [2051, 4276, 5658, 5743, 8225, 8292]}, "edge": {"target": [], "time": []}}}, "displayed_time": "15.60", "trialTime": 17424, "trial_type": "mouselab-mdp", "trial_index": 25, "time_elapsed": 829635, "internal_node_id": "0.0-6.0-1.0-16.0"}}, {"uniqueid": "w57550074:a56932449", "current_trial": 26, "dateTime": 1693390070709, "trialdata": {"revealed_states": [], "clicked_states": ["5", "9", "29", "33", "31", "32", "21", "20"], "num_clicks_accrued": [0, 0, 0, 0, 0, 0, 0, 0, 0, 0, 0, 0, 0], "stateRewards": ["", 2, 3, -1, 6, 44, -4, -59, -14, -3, 64, 16, 1, -3, 3, 6, 3, 49, 19, 3, -49, -14, -86, 1, 2, -3, -8, -33, 14, 32, -13, -77, -47, -67], "withholdReward": false, "trial_id": "mdp_trial_18", "block": "test", "trialIndex": 19, "score": 42.8, "costs": -11.200000000000001, "simulationMode": [null, null, null, null, null, null], "rewards": [2, 3, -1, 6, 44], "path": ["0", "0", "1", "2", "3", "4", "5"], "rt": [18479, 628, 228, 64, 436, 102], "actions": ["up", "up", "up", "up", "right", "up"], "actionTimes": [20511, 21143, 21876, 22446, 23401, 24020], "queries": {"click": {"state": {"target": ["5", "9", "29", "33", "31", "32", "21", "20"], "time": [3892, 5851, 7894, 10183, 12117, 14323, 16236, 19112]}, "edge": {"target": [], "time": []}}, "mouseover": {"state": {"target": ["5", "9", "11", "29", "33", "30", "31", "32", "21", "20"], "time": [2834, 4382, 6666, 7098, 9700, 10715, 10917, 13198, 15198, 18763]}, "edge": {"target": [], "time": []}}, "mouseout": {"state": {"target": ["28", "23", "0", "5", "9", "11", "29", "33", "30", "31", "32", "21", "21"], "time": [1136, 1298, 2380, 4104, 6599, 6699, 9114, 10393, 10820, 12881, 14932, 16454, 17664]}, "edge": {"target": [], "time": []}}}, "displayed_time": "24.53", "trialTime": 26549, "trial_type": "mouselab-mdp", "trial_index": 26, "time_elapsed": 856488, "internal_node_id": "0.0-6.0-1.0-17.0"}}, {"uniqueid": "w57550074:a56932449", "current_trial": 27, "dateTime": 1693390089854, "trialdata": {"revealed_states": [], "clicked_states": ["21", "20"], "num_clicks_accrued": [0, 0, 0, 0, 0, 0, 0, 0, 0, 0, 0, 0, 0], "stateRewards": ["", -2, -3, -3, 9, 79, 67, 22, -15, -56, 27, -85, -2, 4, -4, -15, -20, -32, 60, 15, 71, 57, 17, 1, 2, -8, 15, -37, -81, 82, 15, 21, -3, 2], "withholdReward": false, "trial_id": "mdp_trial_19", "block": "test", "trialIndex": 20, "score": 67.2, "costs": -2.8, "simulationMode": [null, null, null, null, null], "rewards": [-2, 4, -4, 15, 57], "path": ["0", "0", "12", "13", "14", "19", "21"], "rt": [5714, 193, 227, 72, 5], "actions": ["right", "right", "right", "down", "down"], "actionTimes": [8308, 9012, 9747, 10323, 10823], "queries": {"click": {"state": {"target": ["21", "20"], "time": [3727, 5705]}, "edge": {"target": [], "time": []}}, "mouseover": {"state": {"target": ["12", "19", "21", "20", "17"], "time": [2951, 3174, 3333, 4473, 7084]}, "edge": {"target": [], "time": []}}, "mouseout": {"state": {"target": ["20", "19", "0", "12", "19", "21", "20", "17", "20"], "time": [822, 867, 2923, 3001, 3284, 3939, 6533, 16433, 18049]}, "edge": {"target": [], "time": []}}}, "displayed_time": "16.59", "trialTime": 18831, "trial_type": "mouselab-mdp", "trial_index": 27, "time_elapsed": 875633, "internal_node_id": "0.0-6.0-1.0-18.0"}}, {"uniqueid": "w57550074:a56932449", "current_trial": 28, "dateTime": 1693390113402, "trialdata": {"revealed_states": [], "clicked_states": ["21", "20", "16"], "num_clicks_accrued": [0, 0, 0, 0, 0, 0, 0, 0, 0, 0, 0, 0, 0], "stateRewards": ["", 2, -4, -4, 13, -80, 62, 13, -11, 57, -13, -44, 1, 4, 3, -4, -29, -88, 15, 16, -58, 68, -45, -1, -3, -1, -9, -44, -86, -19, -7, -36, 59, 66], "withholdReward": false, "trial_id": "mdp_trial_20", "block": "test", "trialIndex": 21, "score": 87.8, "costs": -4.199999999999999, "simulationMode": [null, null, null, null, null], "rewards": [1, 4, 3, 16, 68], "path": ["0", "0", "12", "13", "14", "19", "21"], "rt": [8910, 389, 243, 346, 702], "actions": ["right", "right", "right", "down", "down"], "actionTimes": [11202, 12092, 12845, 13699, 14921], "queries": {"click": {"state": {"target": ["21", "20", "16"], "time": [4939, 7083, 9053]}, "edge": {"target": [], "time": []}}, "mouseover": {"state": {"target": ["22", "21", "20", "17", "16"], "time": [3069, 4540, 5552, 8002, 8386]}, "edge": {"target": [], "time": []}}, "mouseout": {"state": {"target": ["14", "13", "12", "0", "22", "21", "20", "17"], "time": [740, 800, 1001, 2835, 3267, 5385, 7771, 8086]}, "edge": {"target": [], "time": []}}}, "displayed_time": "16.29", "trialTime": 23247, "trial_type": "mouselab-mdp", "trial_index": 28, "time_elapsed": 899181, "internal_node_id": "0.0-6.0-1.0-19.0"}}, {"uniqueid": "w57550074:a56932449", "current_trial": 29, "dateTime": 1693390139778, "trialdata": {"revealed_states": [], "clicked_states": ["32", "33", "21", "20"], "num_clicks_accrued": [0, 0, 0, 0, 0, 0, 0, 0, 0, 0, 0, 0, 0], "stateRewards": ["", 2, -1, 5, 6, 10, 86, 55, 10, -45, 63, -71, 1, -2, 5, -8, -50, -72, 36, 15, 61, 12, 33, -1, -4, 6, 5, 79, -56, -21, -16, -87, 60, -81], "withholdReward": false, "trial_id": "mdp_trial_21", "block": "test", "trialIndex": 22, "score": 74.4, "costs": -5.6, "simulationMode": [null, null, null, null, null], "rewards": [1, -2, 5, 15, 61], "path": ["0", "0", "12", "13", "14", "19", "20"], "rt": [11686, 327, 369, 328, 125], "actions": ["right", "right", "right", "down", "right"], "actionTimes": [13192, 14025, 14907, 15742, 16372], "queries": {"click": {"state": {"target": ["32", "33", "21", "20"], "time": [2881, 5156, 7923, 10000]}, "edge": {"target": [], "time": []}}, "mouseover": {"state": {"target": ["31", "32", "33", "30", "21", "20"], "time": [1981, 2501, 4147, 6845, 7554, 8796]}, "edge": {"target": [], "time": []}}, "mouseout": {"state": {"target": ["16", "0", "31", "32", "33", "30", "21", "20"], "time": [471, 1855, 2031, 3085, 6796, 6928, 8580, 25346]}, "edge": {"target": [], "time": []}}}, "displayed_time": "16.88", "trialTime": 26052, "trial_type": "mouselab-mdp", "trial_index": 29, "time_elapsed": 925557, "internal_node_id": "0.0-6.0-1.0-20.0"}}, {"uniqueid": "w57550074:a56932449", "current_trial": 30, "dateTime": 1693390166155, "trialdata": {"revealed_states": [], "clicked_states": ["9", "6", "7", "10", "29", "33"], "num_clicks_accrued": [0, 0, 0, 0, 0, 0, 0, 0, 0, 0, 0, 0, 0], "stateRewards": ["", 2, 3, -6, -5, -3, 55, 40, 11, 61, 11, 51, 2, -4, -6, 9, -25, 29, -15, -6, 7, -77, -2, -2, -4, 1, 14, -43, -1, 56, -12, -54, 41, -74], "withholdReward": false, "trial_id": "mdp_trial_22", "block": "test", "trialIndex": 23, "score": 62.6, "costs": -8.4, "simulationMode": [null, null, null, null, null], "rewards": [2, 3, -6, 11, 61], "path": ["0", "0", "1", "2", "3", "8", "9"], "rt": [15521, 64, 364, 16, 349], "actions": ["up", "up", "up", "left", "up"], "actionTimes": [17514, 18094, 18958, 19477, 20361], "queries": {"click": {"state": {"target": ["9", "6", "7", "10", "29", "33"], "time": [4225, 6255, 8721, 10803, 12887, 15535]}, "edge": {"target": [], "time": []}}, "mouseover": {"state": {"target": ["9", "9", "4", "6", "7", "2", "1", "7", "2", "10", "28", "29", "33"], "time": [3444, 3778, 4796, 4933, 7129, 7329, 7695, 8212, 9295, 9361, 11345, 11728, 14693]}, "edge": {"target": [], "time": []}}, "mouseout": {"state": {"target": ["14", "22", "0", "9", "9", "4", "6", "7", "2", "1", "7", "2", "10", "28", "29", "33", "32", "21"], "time": [932, 1202, 1527, 3481, 4679, 4862, 7079, 7279, 7379, 7927, 9279, 9329, 11328, 11379, 14245, 23727, 23776, 23876]}, "edge": {"target": [], "time": []}}}, "displayed_time": "20.88", "trialTime": 25978, "trial_type": "mouselab-mdp", "trial_index": 30, "time_elapsed": 951934, "internal_node_id": "0.0-6.0-1.0-21.0"}}, {"uniqueid": "w57550074:a56932449", "current_trial": 31, "dateTime": 1693390192516, "trialdata": {"revealed_states": [], "clicked_states": ["32", "33", "29", "27"], "num_clicks_accrued": [0, 0, 0, 0, 0, 0, 0, 0, 0, 0, 0, 0, 0], "stateRewards": ["", 1, 1, -3, 2, 22, -25, -11, -5, 50, 49, 3, 1, -1, 8, 14, -85, -30, 57, -6, -39, -16, 59, -2, -1, 5, 5, 59, -16, 8, 4, 67, 56, -9], "withholdReward": false, "trial_id": "mdp_trial_23", "block": "test", "trialIndex": 24, "score": 60.4, "costs": -5.6, "simulationMode": [null, null, null, null, null], "rewards": [-2, -1, 5, 5, 59], "path": ["0", "0", "23", "24", "25", "26", "27"], "rt": [11445, 203, 447, 477, 87], "actions": ["left", "left", "left", "up", "up"], "actionTimes": [18118, 18830, 19791, 20786, 21379], "queries": {"click": {"state": {"target": ["32", "33", "29", "27"], "time": [8460, 10569, 12907, 15255]}, "edge": {"target": [], "time": []}}, "mouseover": {"state": {"target": ["0", "31", "32", "33", "29", "27", "27"], "time": [7183, 7569, 7643, 9876, 12178, 13943, 14826]}, "edge": {"target": [], "time": []}}, "mouseout": {"state": {"target": ["12", "0", "31", "32", "33", "29", "27", "27", "2", "7", "16"], "time": [5758, 7199, 7583, 9677, 11759, 13526, 14192, 17558, 24425, 24440, 24474]}, "edge": {"target": [], "time": []}}}, "displayed_time": "21.90", "trialTime": 26038, "trial_type": "mouselab-mdp", "trial_index": 31, "time_elapsed": 978294, "internal_node_id": "0.0-6.0-1.0-22.0"}}, {"uniqueid": "w57550074:a56932449", "current_trial": 32, "dateTime": 1693390221348, "trialdata": {"revealed_states": [], "clicked_states": ["9", "5", "6", "17", "20", "21", "22", "32"], "num_clicks_accrued": [0, 0, 0, 0, 0, 0, 0, 0, 0, 0, 0, 0, 0], "stateRewards": ["", 2, -4, 1, -12, -59, -53, -74, 16, -88, -66, 66, 1, -2, 8, -9, -14, 22, 25, -1, -39, 47, -14, -1, -1, -2, 1, -4, 52, -26, 15, -7, 46, 43], "withholdReward": false, "trial_id": "mdp_trial_24", "block": "test", "trialIndex": 25, "score": 41.8, "costs": -11.200000000000001, "simulationMode": [null, null, null, null, null], "rewards": [1, -2, 8, -1, 47], "path": ["0", "0", "12", "13", "14", "19", "21"], "rt": [20163, 51, 240, 434, 264], "actions": ["right", "right", "right", "down", "down"], "actionTimes": [22462, 23023, 23793, 24739, 25518], "queries": {"click": {"state": {"target": ["9", "5", "6", "17", "20", "21", "22", "32"], "time": [4892, 7834, 9695, 11614, 13639, 15540, 17840, 20519]}, "edge": {"target": [], "time": []}}, "mouseover": {"state": {"target": ["2", "3", "8", "9", "5", "5", "5", "6", "18", "15", "17", "20", "21", "22", "31", "30", "32"], "time": [4154, 4187, 4321, 4488, 5437, 5787, 7556, 8360, 10462, 10589, 10823, 12272, 14255, 16239, 19786, 19853, 20086]}, "edge": {"target": [], "time": []}}, "mouseout": {"state": {"target": ["0", "2", "3", "8", "9", "5", "5", "5", "6", "18", "15", "17", "20", "21", "22", "31", "30"], "time": [3840, 4171, 4221, 4455, 5337, 5737, 6791, 8223, 10172, 10476, 10709, 12056, 14172, 16155, 19696, 19820, 20037]}, "edge": {"target": [], "time": []}}}, "displayed_time": "26.02", "trialTime": 28485, "trial_type": "mouselab-mdp", "trial_index": 32, "time_elapsed": 1007127, "internal_node_id": "0.0-6.0-1.0-23.0"}}, {"uniqueid": "w57550074:a56932449", "current_trial": 33, "dateTime": 1693390239768, "trialdata": {"revealed_states": [], "clicked_states": ["32", "33"], "num_clicks_accrued": [0, 0, 0, 0, 0, 0, 0, 0, 0, 0, 0, 0, 0], "stateRewards": ["", -1, -4, -3, 1, -45, -67, -24, 14, 32, 22, 22, -1, 1, -5, -7, 72, 84, -79, -5, 19, -40, -2, -1, -2, 8, -3, 84, -25, -28, 11, 64, -66, 77], "withholdReward": false, "trial_id": "mdp_trial_25", "block": "test", "trialIndex": 26, "score": 90.2, "costs": -2.8, "simulationMode": [null, null, null, null, null], "rewards": [-1, -2, 8, 11, 77], "path": ["0", "0", "23", "24", "25", "30", "33"], "rt": [7258, 246, 283, 120, 369], "actions": ["left", "left", "left", "down", "left"], "actionTimes": [9875, 10633, 11434, 12054, 12938], "queries": {"click": {"state": {"target": ["32", "33"], "time": [4015, 6902]}, "edge": {"target": [], "time": []}}, "mouseover": {"state": {"target": ["32", "33", "29"], "time": [3519, 5701, 8054]}, "edge": {"target": [], "time": []}}, "mouseout": {"state": {"target": ["32", "31", "0", "32", "33", "29"], "time": [1687, 1717, 2991, 5618, 7116, 9267]}, "edge": {"target": [], "time": []}}}, "displayed_time": "16.62", "trialTime": 18088, "trial_type": "mouselab-mdp", "trial_index": 33, "time_elapsed": 1025547, "internal_node_id": "0.0-6.0-1.0-24.0"}}, {"uniqueid": "w57550074:a56932449", "current_trial": 34, "dateTime": 1693390276530, "trialdata": {"revealed_states": [], "clicked_states": ["32", "31", "33", "27", "29", "28", "21", "20", "22"], "num_clicks_accrued": [0, 0, 0, 0, 0, 0, 0, 0, 0, 0, 0, 0, 0], "stateRewards": ["", 1, -4, 6, -3, 40, 76, -51, 5, -24, -63, 44, -2, -2, 8, 1, 76, -85, -58, 10, 59, 20, 11, -2, 3, -3, 3, -82, -10, 54, -7, -57, -6, -32], "withholdReward": false, "trial_id": "mdp_trial_26", "block": "test", "trialIndex": 27, "score": 60.4, "costs": -12.600000000000001, "simulationMode": [null, null, null, null, null], "rewards": [-2, -2, 8, 10, 59], "path": ["0", "0", "12", "13", "14", "19", "20"], "rt": [26401, 71, 26, 389, 23], "actions": ["right", "right", "right", "down", "right"], "actionTimes": [31468, 32046, 32583, 33478, 34014], "queries": {"click": {"state": {"target": ["32", "31", "33", "27", "29", "28", "21", "20", "22"], "time": [6387, 9114, 12772, 16188, 18583, 20433, 22636, 25434, 29034]}, "edge": {"target": [], "time": []}}, "mouseover": {"state": {"target": ["31", "32", "31", "30", "33", "27", "29", "26", "28", "23", "0", "22", "21", "20", "19", "22"], "time": [5639, 5956, 7357, 11775, 11922, 15273, 18055, 19240, 19573, 20990, 21389, 21473, 22085, 23423, 26274, 26689]}, "edge": {"target": [], "time": []}}, "mouseout": {"state": {"target": ["14", "0", "31", "32", "31", "30", "33", "27", "29", "29", "26", "28", "23", "0", "22", "21", "20", "19"], "time": [3055, 5584, 5656, 7174, 11760, 11839, 14770, 17957, 18789, 19208, 19323, 20939, 21090, 21406, 21489, 23224, 26207, 26490]}, "edge": {"target": [], "time": []}}}, "displayed_time": "34.52", "trialTime": 36439, "trial_type": "mouselab-mdp", "trial_index": 34, "time_elapsed": 1062309, "internal_node_id": "0.0-6.0-1.0-25.0"}}, {"uniqueid": "w57550074:a56932449", "current_trial": 35, "dateTime": 1693390293933, "trialdata": {"revealed_states": [], "clicked_states": [], "num_clicks_accrued": [0, 0, 0, 0, 0, 0, 0, 0, 0, 0, 0, 0, 0], "stateRewards": ["", 2, 3, 3, 10, 19, -21, 6, 9, 54, 68, 16, 2, 2, -6, -8, 40, -2, -75, -2, -42, 55, 59, -1, 2, 4, -14, 11, -34, -30, -6, 61, -53, 13], "withholdReward": false, "trial_id": "mdp_trial_27", "block": "test", "trialIndex": 28, "score": 30, "costs": 0, "simulationMode": [null, null, null, null, null], "rewards": [2, 2, -6, -8, 40], "path": ["0", "0", "12", "13", "14", "15", "16"], "rt": [9811, 253, 490, 536, 479], "actions": ["right", "right", "right", "up", "up"], "actionTimes": [11428, 12184, 13190, 14235, 15229], "queries": {"click": {"state": {"target": [], "time": []}, "edge": {"target": [], "time": []}}, "mouseover": {"state": {"target": ["32", "32", "21"], "time": [5718, 7215, 8499]}, "edge": {"target": [], "time": []}}, "mouseout": {"state": {"target": ["22", "0", "32", "32", "21"], "time": [499, 2433, 6886, 8409, 8513]}, "edge": {"target": [], "time": []}}}, "displayed_time": "15.75", "trialTime": 17053, "trial_type": "mouselab-mdp", "trial_index": 35, "time_elapsed": 1079712, "internal_node_id": "0.0-6.0-1.0-26.0"}}, {"uniqueid": "w57550074:a56932449", "current_trial": 36, "dateTime": 1693390319786, "trialdata": {"revealed_states": [], "clicked_states": ["32", "27", "28", "29", "33", "31"], "num_clicks_accrued": [0, 0, 0, 0, 0, 0, 0, 0, 0, 0, 0, 0, 0], "stateRewards": ["", -2, -4, 4, -11, -63, -60, -7, 2, -14, 81, -43, -1, -1, -5, 7, 10, 69, 40, 8, -83, 52, 60, 1, 2, 5, -5, 16, 64, 14, -3, 29, 7, -51], "withholdReward": false, "trial_id": "mdp_trial_28", "block": "test", "trialIndex": 29, "score": 58.6, "costs": -8.4, "simulationMode": [null, null, null, null, null], "rewards": [1, 2, 5, -5, 64], "path": ["0", "0", "23", "24", "25", "26", "28"], "rt": [14698, 26, 70, 862, 77], "actions": ["left", "left", "left", "up", "right"], "actionTimes": [18187, 18715, 19306, 20690, 21280], "queries": {"click": {"state": {"target": ["32", "27", "28", "29", "33", "31"], "time": [4702, 7247, 9224, 11375, 13859, 15872]}, "edge": {"target": [], "time": []}}, "mouseover": {"state": {"target": ["32", "30", "25", "26", "27", "26", "28", "26", "29", "33", "30", "31", "31"], "time": [4208, 5455, 5857, 6089, 6848, 8238, 8455, 9804, 10104, 13386, 14773, 14854, 15038]}, "edge": {"target": [], "time": []}}, "mouseout": {"state": {"target": ["13", "12", "0", "32", "30", "25", "26", "27", "26", "28", "26", "29", "33", "30", "31", "31"], "time": [2555, 2653, 3878, 5271, 5793, 6055, 6154, 8204, 8355, 9755, 9954, 12952, 14754, 14822, 14888, 24839]}, "edge": {"target": [], "time": []}}}, "displayed_time": "21.79", "trialTime": 25509, "trial_type": "mouselab-mdp", "trial_index": 36, "time_elapsed": 1105564, "internal_node_id": "0.0-6.0-1.0-27.0"}}, {"uniqueid": "w57550074:a56932449", "current_trial": 37, "dateTime": 1693390353882, "trialdata": {"revealed_states": [], "clicked_states": ["5", "16", "6", "11", "9", "10", "27", "29"], "num_clicks_accrued": [0, 0, 0, 0, 0, 0, 0, 0, 0, 0, 0, 0, 0], "stateRewards": ["", 2, 3, 6, -12, -29, 12, 87, 4, 35, -30, 67, 2, 3, -5, -9, 44, 69, -8, 1, 45, -8, 28, -2, -1, -8, 11, -12, -5, 81, 9, 87, 82, 88], "withholdReward": false, "trial_id": "mdp_trial_29", "block": "test", "trialIndex": 30, "score": 69.8, "costs": -11.200000000000001, "simulationMode": [null, null, null, null, null], "rewards": [-2, -1, -8, 11, 81], "path": ["0", "0", "23", "24", "25", "26", "29"], "rt": [20103, 20, 121, 398, 410], "actions": ["left", "left", "left", "up", "left"], "actionTimes": [22018, 22546, 23178, 24090, 25002], "queries": {"click": {"state": {"target": ["5", "16", "6", "11", "9", "10", "27", "29"], "time": [2980, 5025, 7653, 9702, 11891, 14565, 16940, 18964]}, "edge": {"target": [], "time": []}}, "mouseover": {"state": {"target": ["1", "5", "16", "6", "4", "3", "8", "11", "9", "9", "8", "10", "1", "26", "27", "29"], "time": [2116, 2593, 3819, 6244, 8526, 8576, 8609, 8892, 10266, 11215, 13908, 14208, 15345, 15783, 16280, 17992]}, "edge": {"target": [], "time": []}}, "mouseout": {"state": {"target": ["0", "1", "5", "16", "6", "4", "3", "8", "11", "9", "9", "8", "10", "1", "26", "27", "29", "25", "24", "23", "0", "12", "13", "14"], "time": [1246, 2143, 3426, 6026, 8493, 8561, 8592, 8650, 9906, 10289, 13892, 14125, 15109, 15542, 16081, 17858, 21429, 32131, 32156, 32172, 32189, 32206, 32222, 32240]}, "edge": {"target": [], "time": []}}}, "displayed_time": "25.51", "trialTime": 33712, "trial_type": "mouselab-mdp", "trial_index": 37, "time_elapsed": 1139661, "internal_node_id": "0.0-6.0-1.0-28.0"}}, {"uniqueid": "w57550074:a56932449", "current_trial": 38, "dateTime": 1693390381205, "trialdata": {"revealed_states": [], "clicked_states": ["21", "20", "17", "16", "6", "7", "5", "9"], "num_clicks_accrued": [0, 0, 0, 0, 0, 0, 0, 0, 0, 0, 0, 0, 0], "stateRewards": ["", 2, 4, -5, 7, 81, 35, 6, 11, 14, -72, 42, -1, 2, 3, -7, -77, -44, -40, -15, -85, 51, -32, -2, -1, -5, 7, -74, 47, 52, 16, -49, 48, -46], "withholdReward": false, "trial_id": "mdp_trial_30", "block": "test", "trialIndex": 31, "score": 77.8, "costs": -11.200000000000001, "simulationMode": [null, null, null, null, null], "rewards": [2, 4, -5, 7, 81], "path": ["0", "0", "1", "2", "3", "4", "5"], "rt": [18089, 99, 167, 367, 3], "actions": ["up", "up", "up", "right", "up"], "actionTimes": [20101, 20710, 21395, 22276, 22796], "queries": {"click": {"state": {"target": ["21", "20", "17", "16", "6", "7", "5", "9"], "time": [3192, 5145, 7188, 9284, 11674, 13876, 15897, 17805]}, "edge": {"target": [], "time": []}}, "mouseover": {"state": {"target": ["12", "22", "21", "20", "20", "17", "16", "6", "5", "6", "7", "4", "5", "9"], "time": [2383, 2426, 2794, 4131, 4748, 6511, 8377, 10210, 10661, 11344, 12394, 14843, 14943, 16961]}, "edge": {"target": [], "time": []}}, "mouseout": {"state": {"target": ["14", "12", "12", "22", "21", "20", "20", "17", "16", "6", "5", "6", "7", "4", "5", "5"], "time": [1065, 1343, 2395, 2477, 3710, 4350, 6061, 8128, 10078, 10244, 10694, 12144, 14777, 14877, 16099, 16611]}, "edge": {"target": [], "time": []}}}, "displayed_time": "23.31", "trialTime": 26955, "trial_type": "mouselab-mdp", "trial_index": 38, "time_elapsed": 1166983, "internal_node_id": "0.0-6.0-1.0-29.0"}}, {"uniqueid": "w57550074:a56932449", "current_trial": 39, "dateTime": 1693390409379, "trialdata": {"revealed_states": [], "clicked_states": ["32", "33", "29", "27", "21"], "num_clicks_accrued": [0, 0, 0, 0, 0, 0, 0, 0, 0, 0, 0, 0, 0], "stateRewards": ["", 1, 1, -3, 7, 49, 78, 26, -5, 26, 48, -43, -1, -3, 2, -5, 4, -1, -60, 10, -35, 51, 81, -2, 1, -7, -5, -39, -86, -54, 4, -3, 74, 77], "withholdReward": false, "trial_id": "mdp_trial_31", "block": "test", "trialIndex": 32, "score": 66, "costs": -7, "simulationMode": [null, null, null, null, null], "rewards": [-2, 1, -7, 4, 77], "path": ["0", "0", "23", "24", "25", "30", "33"], "rt": [15529, 393, 498, 205, 178], "actions": ["left", "left", "left", "down", "left"], "actionTimes": [22150, 23051, 24054, 24779, 25468], "queries": {"click": {"state": {"target": ["32", "33", "29", "27", "21"], "time": [8027, 10897, 13631, 15633, 19512]}, "edge": {"target": [], "time": []}}, "mouseover": {"state": {"target": ["30", "32", "33", "29", "27", "28", "0", "22", "21"], "time": [7339, 7655, 10340, 13021, 14790, 17839, 18238, 18608, 19189]}, "edge": {"target": [], "time": []}}, "mouseout": {"state": {"target": ["9", "10", "0", "0", "30", "32", "33", "29", "27", "28", "0", "22"], "time": [5223, 5322, 5371, 7212, 7507, 10015, 12692, 14656, 17574, 18172, 18255, 18637]}, "edge": {"target": [], "time": []}}}, "displayed_time": "25.97", "trialTime": 27809, "trial_type": "mouselab-mdp", "trial_index": 39, "time_elapsed": 1195158, "internal_node_id": "0.0-6.0-1.0-30.0"}}, {"uniqueid": "w57550074:a56932449", "current_trial": 40, "dateTime": 1693390442885, "trialdata": {"revealed_states": [], "clicked_states": ["9", "5", "6", "16", "17", "20", "21", "22", "32", "31", "33"], "num_clicks_accrued": [0, 0, 0, 0, 0, 0, 0, 0, 0, 0, 0, 0, 0], "stateRewards": ["", 1, 2, 8, -2, 23, -69, -18, -16, 54, -21, 71, -1, -4, 7, 11, 43, -6, 88, 6, -55, 72, 43, 1, -3, -2, -1, 68, -31, -54, 4, -8, 25, -2], "withholdReward": false, "trial_id": "mdp_trial_32", "block": "test", "trialIndex": 33, "score": 64.6, "costs": -15.400000000000002, "simulationMode": [null, null, null, null, null], "rewards": [-1, -4, 7, 6, 72], "path": ["0", "0", "12", "13", "14", "19", "21"], "rt": [23553, 116, 197, 239, 35], "actions": ["right", "right", "right", "down", "down"], "actionTimes": [25469, 26095, 26808, 27566, 28113], "queries": {"click": {"state": {"target": ["9", "5", "6", "16", "17", "20", "21", "22", "32", "31", "33"], "time": [2920, 5116, 6764, 8592, 10629, 12780, 14695, 16590, 19170, 21253, 23532]}, "edge": {"target": [], "time": []}}, "mouseover": {"state": {"target": ["2", "3", "9", "5", "5", "6", "16", "16", "17", "20", "21", "22", "32", "31", "30", "33"], "time": [2351, 2371, 2628, 3512, 4760, 5762, 7394, 7945, 9262, 12460, 13745, 15612, 18661, 20710, 21861, 22133]}, "edge": {"target": [], "time": []}}, "mouseout": {"state": {"target": ["21", "22", "12", "2", "3", "9", "5", "5", "6", "16", "16", "16", "17", "20", "21", "22", "32", "31", "30"], "time": [449, 760, 1132, 2366, 2427, 3328, 4412, 5529, 7279, 7579, 8800, 9079, 12112, 13261, 14906, 18278, 19392, 21827, 22061]}, "edge": {"target": [], "time": []}}}, "displayed_time": "28.63", "trialTime": 33137, "trial_type": "mouselab-mdp", "trial_index": 40, "time_elapsed": 1228663, "internal_node_id": "0.0-6.0-1.0-31.0"}}, {"uniqueid": "w57550074:a56932449", "current_trial": 41, "dateTime": 1693390463873, "trialdata": {"revealed_states": [], "clicked_states": [], "num_clicks_accrued": [0, 0, 0, 0, 0, 0, 0, 0, 0, 0, 0, 0, 0], "stateRewards": ["", 2, -2, -8, 9, -20, 55, -58, 14, 42, 2, 36, 1, -3, -5, 5, -58, 57, 60, 16, 57, 30, -70, -2, 1, 3, 10, 59, 23, 77, -13, -26, 88, -72], "withholdReward": false, "trial_id": "mdp_trial_33", "block": "test", "trialIndex": 34, "score": 66, "costs": 0, "simulationMode": [null, null, null, null, null], "rewards": [1, -3, -5, 16, 57], "path": ["0", "0", "12", "13", "14", "19", "20"], "rt": [9149, 248, 228, 157, 141], "actions": ["right", "right", "right", "down", "right"], "actionTimes": [14047, 14814, 15557, 16226, 16888], "queries": {"click": {"state": {"target": [], "time": []}, "edge": {"target": [], "time": []}}, "mouseover": {"state": {"target": ["28", "11", "9", "9", "8", "2", "12", "22", "21"], "time": [5649, 6067, 6213, 10837, 11804, 11830, 11895, 12244, 12362]}, "edge": {"target": [], "time": []}}, "mouseout": {"state": {"target": ["33", "31", "0", "0", "28", "11", "9", "9", "8", "2", "12", "22"], "time": [1548, 1963, 2751, 4481, 5747, 6082, 10496, 11800, 11817, 11846, 12201, 12278]}, "edge": {"target": [], "time": []}}}, "displayed_time": "18.90", "trialTime": 20629, "trial_type": "mouselab-mdp", "trial_index": 41, "time_elapsed": 1249651, "internal_node_id": "0.0-6.0-1.0-32.0"}}, {"uniqueid": "w57550074:a56932449", "current_trial": 42, "dateTime": 1693390483937, "trialdata": {"revealed_states": [], "clicked_states": ["32", "33", "31", "29"], "num_clicks_accrued": [0, 0, 0, 0, 0, 0, 0, 0, 0, 0, 0, 0, 0], "stateRewards": ["", 2, 4, 4, -8, -36, -33, 38, 16, -51, 57, 57, 1, 3, 4, -6, 45, 68, 87, 1, 63, 24, -55, -2, 2, -6, -13, -63, -50, 8, 2, 80, 6, 60], "withholdReward": false, "trial_id": "mdp_trial_34", "block": "test", "trialIndex": 35, "score": 70.4, "costs": -5.6, "simulationMode": [null, null, null, null, null], "rewards": [-2, 2, -6, 2, 80], "path": ["0", "0", "23", "24", "25", "30", "31"], "rt": [9279, 490, 244, 116, 18], "actions": ["left", "left", "left", "down", "right"], "actionTimes": [11753, 12760, 13512, 14132, 14668], "queries": {"click": {"state": {"target": ["32", "33", "31", "29"], "time": [3713, 6196, 8011, 10207]}, "edge": {"target": [], "time": []}}, "mouseover": {"state": {"target": ["23", "31", "32", "33", "30", "31", "25", "29"], "time": [2973, 3066, 3401, 4550, 6837, 7039, 8566, 8849]}, "edge": {"target": [], "time": []}}, "mouseout": {"state": {"target": ["21", "23", "31", "32", "33", "30", "31", "25"], "time": [788, 3023, 3166, 3922, 6800, 6967, 8533, 8649]}, "edge": {"target": [], "time": []}}}, "displayed_time": "16.48", "trialTime": 19648, "trial_type": "mouselab-mdp", "trial_index": 42, "time_elapsed": 1269716, "internal_node_id": "0.0-6.0-1.0-33.0"}}, {"uniqueid": "w57550074:a56932449", "current_trial": 43, "dateTime": 1693390504926, "trialdata": {"revealed_states": [], "clicked_states": ["32", "33"], "num_clicks_accrued": [0, 0, 0, 0, 0, 0, 0, 0, 0, 0, 0, 0, 0], "stateRewards": ["", -1, 4, -8, 12, 14, 69, -8, 5, -72, -14, 56, -1, -1, -1, 9, 67, 19, 11, -9, -88, -58, 3, 2, -4, -8, 4, 62, 77, -74, 5, -31, 65, 88], "withholdReward": false, "trial_id": "mdp_trial_35", "block": "test", "trialIndex": 36, "score": 80.2, "costs": -2.8, "simulationMode": [null, null, null, null, null], "rewards": [2, -4, -8, 5, 88], "path": ["0", "0", "23", "24", "25", "30", "33"], "rt": [6356, 155, 530, 67, 528], "actions": ["left", "left", "left", "down", "left"], "actionTimes": [11658, 12331, 13374, 13942, 14986], "queries": {"click": {"state": {"target": ["32", "33"], "time": [7225, 8790]}, "edge": {"target": [], "time": []}}, "mouseover": {"state": {"target": ["31", "32", "33"], "time": [5844, 5907, 8393]}, "edge": {"target": [], "time": []}}, "mouseout": {"state": {"target": ["29", "26", "26", "28", "23", "0", "31", "32", "33"], "time": [1292, 1374, 1424, 1930, 2024, 5782, 5864, 7943, 9976]}, "edge": {"target": [], "time": []}}}, "displayed_time": "19.30", "trialTime": 20581, "trial_type": "mouselab-mdp", "trial_index": 43, "time_elapsed": 1290705, "internal_node_id": "0.0-6.0-1.0-34.0"}}, {"uniqueid": "w57550074:a56932449", "current_trial": 44, "dateTime": 1693390530597, "trialdata": {"revealed_states": [], "clicked_states": ["21", "20", "17", "16", "18"], "num_clicks_accrued": [0, 0, 0, 0, 0, 0, 0, 0, 0, 0, 0, 0, 0], "stateRewards": ["", -2, -4, -6, 12, -58, -70, -80, 2, 16, -88, -62, 1, 2, -5, 11, 77, -35, -44, -5, 18, -83, 87, 1, -3, -5, 13, -44, -21, -86, 10, -52, 8, 29], "withholdReward": false, "trial_id": "mdp_trial_36", "block": "test", "trialIndex": 37, "score": 79, "costs": -7, "simulationMode": [null, null, null, null, null], "rewards": [1, 2, -5, 11, 77], "path": ["0", "0", "12", "13", "14", "15", "16"], "rt": [11435, 101, 133, 456, 442], "actions": ["right", "right", "right", "up", "up"], "actionTimes": [14905, 15528, 16170, 17142, 18096], "queries": {"click": {"state": {"target": ["21", "20", "17", "16", "18"], "time": [4676, 6901, 8821, 10777, 13054]}, "edge": {"target": [], "time": []}}, "mouseover": {"state": {"target": ["12", "22", "21", "20", "17", "16", "18"], "time": [3774, 3970, 4170, 6203, 7687, 9489, 11841]}, "edge": {"target": [], "time": []}}, "mouseout": {"state": {"target": ["20", "14", "12", "12", "22", "21", "20", "17", "16", "18", "15"], "time": [352, 2638, 2684, 3905, 4070, 5819, 7369, 9425, 11752, 24283, 24300]}, "edge": {"target": [], "time": []}}}, "displayed_time": "18.60", "trialTime": 25215, "trial_type": "mouselab-mdp", "trial_index": 44, "time_elapsed": 1316376, "internal_node_id": "0.0-6.0-1.0-35.0"}}, {"uniqueid": "w57550074:a56932449", "current_trial": 45, "dateTime": 1693390559113, "trialdata": {"revealed_states": [], "clicked_states": ["32", "33", "29", "27", "9", "5", "6"], "num_clicks_accrued": [0, 0, 0, 0, 0, 0, 0, 0, 0, 0, 0, 0, 0], "stateRewards": ["", 1, -2, -8, -3, 31, -84, -55, -14, 15, -58, 17, -2, -3, 7, 7, -12, 48, 67, 4, -44, -68, 46, 2, 3, -5, -7, 76, 27, 5, 11, 57, 52, 59], "withholdReward": false, "trial_id": "mdp_trial_37", "block": "test", "trialIndex": 38, "score": 59.2, "costs": -9.8, "simulationMode": [null, null, null, null, null], "rewards": [2, 3, -5, -7, 76], "path": ["0", "0", "23", "24", "25", "26", "27"], "rt": [17854, 191, 222, 428, 216], "actions": ["left", "left", "left", "up", "up"], "actionTimes": [20179, 20882, 21612, 22556, 23290], "queries": {"click": {"state": {"target": ["32", "33", "29", "27", "9", "5", "6"], "time": [3449, 5604, 7834, 10990, 13788, 16157, 18286]}, "edge": {"target": [], "time": []}}, "mouseover": {"state": {"target": ["31", "32", "33", "29", "26", "27", "8", "9", "5", "6"], "time": [2690, 3021, 4179, 6972, 10238, 10421, 12537, 13304, 15664, 17830]}, "edge": {"target": [], "time": []}}, "mouseout": {"state": {"target": ["15", "18", "0", "31", "32", "33", "29", "26", "27", "8", "9", "5", "6", "6"], "time": [888, 1289, 2612, 2756, 4023, 6456, 10156, 10321, 12308, 13039, 15430, 17339, 18509, 18889]}, "edge": {"target": [], "time": []}}}, "displayed_time": "23.81", "trialTime": 28084, "trial_type": "mouselab-mdp", "trial_index": 45, "time_elapsed": 1344891, "internal_node_id": "0.0-6.0-1.0-36.0"}}, {"uniqueid": "w57550074:a56932449", "current_trial": 46, "dateTime": 1693390595991, "trialdata": {"revealed_states": [], "clicked_states": ["21", "20", "17", "16", "18", "6", "7", "5", "9", "11", "10"], "num_clicks_accrued": [0, 0, 0, 0, 0, 0, 0, 0, 0, 0, 0, 0, 0], "stateRewards": ["", 1, 3, 1, -13, 52, -28, 67, -14, 3, 63, -70, -1, -4, 7, -11, -10, 47, -18, 6, 69, -9, -61, 2, 3, -6, 10, 63, -34, 40, -6, -79, -35, -32], "withholdReward": false, "trial_id": "mdp_trial_38", "block": "test", "trialIndex": 39, "score": 22.599999999999998, "costs": -15.400000000000002, "simulationMode": [null, null, null, null, null], "rewards": [-1, -4, 7, -11, 47], "path": ["0", "0", "12", "13", "14", "15", "17"], "rt": [26320, 24, 154, 247, 489], "actions": ["right", "right", "right", "up", "right"], "actionTimes": [30551, 31087, 31748, 32511, 33516], "queries": {"click": {"state": {"target": ["21", "20", "17", "16", "18", "6", "7", "5", "9", "11", "10"], "time": [5499, 7513, 9985, 12126, 14126, 16088, 18127, 20459, 24024, 26163, 28094]}, "edge": {"target": [], "time": []}}, "mouseover": {"state": {"target": ["21", "20", "17", "16", "18", "6", "7", "4", "5", "9", "9", "11", "10"], "time": [5079, 6261, 9437, 11311, 13012, 15146, 16778, 18713, 18985, 22960, 23562, 25512, 27262]}, "edge": {"target": [], "time": []}}, "mouseout": {"state": {"target": ["17", "20", "21", "12", "0", "21", "20", "17", "16", "18", "6", "7", "4", "5", "9", "9", "11", "10"], "time": [983, 1299, 1367, 2795, 4688, 6016, 9032, 11229, 12862, 14761, 16663, 18648, 18824, 22744, 23062, 25278, 27044, 29261]}, "edge": {"target": [], "time": []}}}, "displayed_time": "34.03", "trialTime": 36419, "trial_type": "mouselab-mdp", "trial_index": 46, "time_elapsed": 1381769, "internal_node_id": "0.0-6.0-1.0-37.0"}}, {"uniqueid": "w57550074:a56932449", "current_trial": 47, "dateTime": 1693390625594, "trialdata": {"revealed_states": [], "clicked_states": ["32", "33", "31", "27", "29", "10", "9", "11"], "num_clicks_accrued": [0, 0, 0, 0, 0, 0, 0, 0, 0, 0, 0, 0, 0], "stateRewards": ["", -2, 2, 8, -6, -25, 3, 87, 2, -62, -2, 74, -2, -1, 2, -1, 79, 49, -37, -14, 5, 67, -9, -1, 2, -2, 5, 15, 38, 32, -14, -38, -38, 30], "withholdReward": false, "trial_id": "mdp_trial_39", "block": "test", "trialIndex": 40, "score": 72.8, "costs": -11.200000000000001, "simulationMode": [null, null, null, null, null], "rewards": [-2, 2, 8, 2, 74], "path": ["0", "0", "1", "2", "3", "8", "11"], "rt": [19572, 4, 319, 296, 413], "actions": ["up", "up", "up", "left", "left"], "actionTimes": [21184, 21700, 22525, 23336, 24260], "queries": {"click": {"state": {"target": ["32", "33", "31", "27", "29", "10", "9", "11"], "time": [3029, 4997, 6850, 8829, 10744, 14363, 16317, 18318]}, "edge": {"target": [], "time": []}}, "mouseover": {"state": {"target": ["0", "31", "32", "33", "30", "31", "26", "27", "29", "26", "28", "2", "1", "2", "10", "8", "9", "11", "8", "7"], "time": [2238, 2339, 2406, 4257, 5574, 5739, 7624, 7824, 9940, 11506, 11640, 12824, 12989, 13778, 13938, 15156, 15473, 17178, 18844, 19566]}, "edge": {"target": [], "time": []}}, "mouseout": {"state": {"target": ["0", "31", "32", "33", "30", "31", "26", "27", "29", "26", "28", "2", "1", "2", "10", "8", "9", "11", "8", "7", "12", "21", "20"], "time": [2272, 2372, 4024, 5540, 5690, 7508, 7740, 9426, 11440, 11590, 11707, 12839, 13407, 13888, 15123, 15190, 16811, 18822, 18873, 26891, 27038, 28506, 28538]}, "edge": {"target": [], "time": []}}}, "displayed_time": "24.77", "trialTime": 29220, "trial_type": "mouselab-mdp", "trial_index": 47, "time_elapsed": 1411373, "internal_node_id": "0.0-6.0-1.0-38.0"}}, {"uniqueid": "w57550074:a56932449", "current_trial": 48, "dateTime": 1693390673101, "trialdata": {"revealed_states": [], "clicked_states": ["21", "20", "17", "16", "18", "22", "31", "32", "33", "29", "28", "27", "11", "9", "5", "6", "7", "10"], "num_clicks_accrued": [0, 0, 0, 0, 0, 0, 0, 0, 0, 0, 0, 0, 0], "stateRewards": ["", -1, 4, -5, 9, 29, -75, -42, -16, 24, -28, -41, 2, -3, 1, 10, 60, 47, 55, -1, -53, 22, -40, 2, -3, -6, 4, -26, 44, 54, 15, -76, 42, 14], "withholdReward": false, "trial_id": "mdp_trial_40", "block": "test", "trialIndex": 41, "score": 44.80000000000001, "costs": -25.199999999999992, "simulationMode": [null, null, null, null, null], "rewards": [2, -3, 1, 10, 60], "path": ["0", "0", "12", "13", "14", "15", "16"], "rt": [39130, 26, 276, 205, 177], "actions": ["right", "right", "right", "up", "up"], "actionTimes": [40609, 41167, 41936, 42648, 43347], "queries": {"click": {"state": {"target": ["21", "20", "17", "16", "18", "22", "31", "32", "33", "29", "28", "27", "11", "9", "5", "6", "7", "10"], "time": [2770, 5156, 7060, 8969, 10848, 13026, 15133, 17164, 19218, 21391, 23717, 25679, 27949, 29870, 31786, 33881, 35915, 37882]}, "edge": {"target": [], "time": []}}, "mouseover": {"state": {"target": ["21", "21", "20", "20", "17", "16", "15", "13", "18", "13", "22", "31", "32", "33", "29", "26", "28", "27", "10", "10", "11", "9", "5", "6", "7", "7", "2", "10"], "time": [1900, 2483, 3361, 4837, 6026, 7978, 9427, 9545, 10031, 12144, 12425, 13932, 16243, 18678, 20210, 23024, 23258, 24576, 26610, 27010, 27594, 28542, 30626, 32559, 34475, 34814, 36359, 36493]}, "edge": {"target": [], "time": []}}, "mouseout": {"state": {"target": ["20", "22", "0", "21", "21", "20", "20", "17", "16", "15", "13", "18", "13", "22", "31", "32", "33", "29", "26", "28", "27", "10", "10", "11", "9", "5", "6", "7", "7", "2", "10", "15"], "time": [480, 530, 1716, 2134, 3193, 3515, 5727, 7270, 9354, 9462, 9864, 12111, 12294, 13694, 16060, 18127, 19898, 22942, 23142, 24475, 26392, 26693, 27110, 28442, 30459, 32293, 34392, 34559, 36325, 36409, 39962, 44941]}, "edge": {"target": [], "time": []}}}, "displayed_time": "43.86", "trialTime": 47083, "trial_type": "mouselab-mdp", "trial_index": 48, "time_elapsed": 1458881, "internal_node_id": "0.0-6.0-1.0-39.0"}}, {"uniqueid": "w57550074:a56932449", "current_trial": 49, "dateTime": 1693390744754, "trialdata": {"rt": 71648, "response": {"Q0": "$-2 to $2", "Q1": "$-16 to $16", "Q2": "$-88 to $88", "Q3": "The cost was always $1.4.", "Q4": "Slightly motivated"}, "question_order": [0, 1, 2, 3, 4], "trial_id": "final_quiz_control", "trial_type": "survey-multi-choice", "trial_index": 49, "time_elapsed": 1530534, "internal_node_id": "0.0-6.0-2.0"}}, {"uniqueid": "w57550074:a56932449", "current_trial": 50, "dateTime": 1693390844278, "trialdata": {"rt": 99511, "response": {"Q0": "I opened the final nodules only as they seemed to have a greater determination of how much I would end up with. The higher the final node was, I went for it.", "Q1": "Yes. I initially opened random nodes and then once I got the hang of the game, I devised my above strategy.", "Q2": "It wasn't difficult at all."}, "trial_id": "self_report_control", "trial_type": "survey-text", "trial_index": 50, "time_elapsed": 1630058, "internal_node_id": "0.0-6.0-3.0"}}, {"uniqueid": "w57550074:a56932449", "current_trial": 51, "dateTime": 1693390871867, "trialdata": {"rt": 27584, "response": {"gender": "female", "age": "28", "colorblind": "0", "effort": "1"}, "trial_type": "survey-html-form", "trial_index": 51, "time_elapsed": 1657646, "internal_node_id": "0.0-6.0-4.0"}}, {"uniqueid": "w57550074:a56932449", "current_trial": 52, "dateTime": 1693390891715, "trialdata": {"rt": 19839, "response": {"Q0": "No.", "Q1": "No", "Q2": "N/A"}, "trial_type": "survey-text", "trial_index": 52, "time_elapsed": 1677494, "internal_node_id": "0.0-6.0-5.0"}}, {"uniqueid": "w57550074:a56932449", "current_trial": 53, "dateTime": 1693390914058, "trialdata": {"rt": 22334, "stimulus": "<h1>Completion Code Instructions (1/2)</h1>\n<br><br><br><br>\nYou have reached the end of the experiment! The completion code consists of two parts: (1) a code with 2 characters (2) a code with 6 characters. On this page, you will receive the second part of the code. The first part of the completion code will be on the next page.\n<br><br>\nThe second part of your completion code is: <b>EWEK22</b>\n<br><br>\nPlease note this down. Then, press 'Finish HIT' in order to find the first part of your completion code. Once the data has been saved, you will receive this code either in this window or in the original browser window where you started the experiment.\n", "response": 0, "trial_type": "html-button-response", "trial_index": 53, "time_elapsed": 1699838, "internal_node_id": "0.0-6.0-6.0"}}, {"uniqueid": "w57550074:a56932449", "current_trial": 54, "dateTime": 1693390915068, "trialdata": {"success": true, "trial_type": "fullscreen", "trial_index": 54, "time_elapsed": 1700848, "internal_node_id": "0.0-7.0"}}], "questiondata": {"params": {"CODE": "C6DMOQA6", "MIN_TIME": 14, "inspectCost": 1, "startTime": "Wed Aug 30 2023 11:53:32 GMT+0200 (South Africa Standard Time)", "bonusRate": 0.002, "variance": "1_2_4_8_44", "branching": "31123"}, "final_score": 1940}, "eventdata": [{"eventtype": "initialized", "value": null, "timestamp": 1693389211724, "interval": 0}, {"eventtype": "window_resize", "value": [1366, 662], "timestamp": 1693389211724, "interval": 0}, {"eventtype": "window_resize", "value": [1366, 662], "timestamp": 1693389212239, "interval": 515}, {"eventtype": "window_resize", "value": [1366, 768], "timestamp": 1693389219096, "interval": 6857}, {"eventtype": "window_resize", "value": [1366, 662], "timestamp": 1693390914328, "interval": 1695232}], "useragent": "Mozilla/5.0 (Windows NT 10.0; Win64; x64) AppleWebKit/537.36 (KHTML, like Gecko) Chrome/116.0.0.0 Safari/537.36", "mode": "live", "id": "w57550074:a56932449", "status": "user data saved", "Beginhit": "2023-08-30 09:53:29.56197", "Beginexp": "2023-08-30 09:53:40.982654", "Endhit": "2023-08-30 10:21:57.479314", "psiturkStatus": 3, "browser": "<redacted>", "platform": "windows", "language": "en-ZA"}