{"condition": 1, "counterbalance": 0, "assignmentId": "a23500955", "workerId": "w62606780", "hitId": "h63416659", "currenttrial": 68, "bonus": 0, "data": [{"uniqueid": "w62606780:a23500955", "current_trial": 0, "dateTime": 1693564641724, "trialdata": {"success": true, "trial_type": "fullscreen", "trial_index": 0, "time_elapsed": 2072, "internal_node_id": "0.0-0.0"}}, {"uniqueid": "w62606780:a23500955", "current_trial": 1, "dateTime": 1693564668940, "trialdata": {"view_history": [{"page_index": 0, "viewing_time": 27212}], "rt": 27213, "trial_id": "exp_instructions_misaligned", "trial_type": "instructions", "trial_index": 1, "time_elapsed": 29288, "internal_node_id": "0.0-1.0"}}, {"uniqueid": "w62606780:a23500955", "current_trial": 2, "dateTime": 1693565217435, "trialdata": {"view_history": [{"page_index": 0, "viewing_time": 107700}, {"page_index": 1, "viewing_time": 368295}, {"page_index": 2, "viewing_time": 25584}, {"page_index": 3, "viewing_time": 46912}], "rt": 548492, "trial_id": "mouselab_instructions_1_misaligned", "trial_type": "instructions", "trial_index": 2, "time_elapsed": 577783, "internal_node_id": "0.0-2.0-1.0"}}, {"uniqueid": "w62606780:a23500955", "current_trial": 3, "dateTime": 1693565292755, "trialdata": {"revealed_states": [], "clicked_states": ["1", "2", "8", "9", "12", "23", "24", "26"], "num_clicks_accrued": [0, 0, 0, 0, 0, 0, 0, 0, 0, 0, 0, 0, 0], "stateRewards": ["", -10, 10, -10, -10, 10, -10, -10, 10, -10, -10, -10, -10, 10, -10, 10, -10, 10, 10, -10, 10, -10, -10, -10, 10, 10, 10, -10, -10, 10, -10, -10, -10, 10], "withholdReward": false, "trial_id": "practice_1", "block": "test", "trialIndex": 0, "score": -10.5, "costs": -4, "simulationMode": [null, null, null, null, null], "rewards": [-10, 10, -10, -10, 10], "path": ["0", "0", "1", "2", "3", "4", "5"], "rt": [54155, 2959, 686, 574, 662], "actions": ["up", "up", "up", "right", "up"], "actionTimes": [57850, 61299, 62480, 63565, 64735], "queries": {"click": {"state": {"target": ["1", "2", "8", "9", "12", "23", "24", "26"], "time": [7405, 11158, 13936, 15565, 26165, 28517, 29981, 34234]}, "edge": {"target": [], "time": []}}, "mouseover": {"state": {"target": ["1", "7", "2", "3", "8", "10", "9", "3", "3", "9", "8", "8", "2", "1", "12", "0", "23", "24", "25", "26", "27", "1", "7", "5", "8", "10", "23", "0", "2", "7", "7", "7", "18", "12", "1", "2", "3", "4", "7", "22"], "time": [6939, 10327, 10675, 13189, 13339, 14673, 15341, 16073, 16923, 20310, 20944, 22890, 25523, 25677, 25928, 27342, 27388, 29873, 30571, 31508, 34589, 37144, 37223, 39389, 39810, 39839, 39904, 40156, 41072, 41472, 41806, 41872, 42237, 42343, 44271, 45074, 45227, 46422, 47909, 49743]}, "edge": {"target": [], "time": []}}, "mouseout": {"state": {"target": ["0", "1", "7", "2", "3", "8", "10", "8", "9", "3", "3", "9", "8", "8", "2", "1", "12", "12", "0", "23", "24", "25", "26", "27", "1", "7", "5", "8", "10", "23", "0", "2", "7", "7", "7", "18", "12", "1", "2", "3", "4", "7", "22"], "time": [6589, 8694, 10506, 12879, 13274, 14623, 15140, 15240, 16006, 16140, 17008, 20407, 22608, 23992, 25593, 25688, 27039, 27328, 27372, 29539, 30489, 31394, 34440, 35288, 37172, 37240, 39422, 39823, 39855, 39921, 40238, 41427, 41488, 41855, 41905, 42272, 43972, 44538, 45105, 46358, 47589, 48689, 49791]}, "edge": {"target": [], "time": []}}}, "displayed_time": "65.24", "trialTime": 73883, "trial_type": "mouselab-mdp", "trial_index": 3, "time_elapsed": 653102, "internal_node_id": "0.0-2.0-2.0-0.0"}}, {"uniqueid": "w62606780:a23500955", "current_trial": 4, "dateTime": 1693565411857, "trialdata": {"revealed_states": [], "clicked_states": ["25", "2", "1", "4", "8", "9", "12", "13", "14", "15", "23", "24", "26", "27", "19", "21", "30", "32", "31", "33", "22", "20", "7", "6", "3", "10"], "num_clicks_accrued": [0, 0, 0, 0, 0, 0, 0, 0, 0, 0, 0, 0, 0], "stateRewards": ["", 10, -10, -10, 10, -10, -10, -10, -10, -10, -10, -10, -10, -10, -10, 10, -10, 10, -10, 10, -10, -10, 10, -10, -10, -10, 10, 10, -10, -10, 10, -10, 10, -10], "withholdReward": false, "trial_id": "practice_2", "block": "test", "trialIndex": 1, "score": -19.5, "costs": -13, "simulationMode": [null, null, null, null, null], "rewards": [-10, -10, -10, 10, 10], "path": ["0", "0", "23", "24", "25", "26", "27"], "rt": [106457, 386, 358, 597, 171], "actions": ["left", "left", "left", "up", "up"], "actionTimes": [111111, 111987, 112842, 113932, 114606], "queries": {"click": {"state": {"target": ["25", "2", "1", "4", "8", "9", "12", "13", "14", "15", "23", "24", "26", "27", "19", "21", "30", "32", "31", "33", "22", "20", "7", "6", "3", "10"], "time": [13410, 15511, 16726, 20649, 23088, 26496, 35446, 38270, 40122, 41930, 43614, 45028, 50854, 52919, 58672, 60981, 62408, 63939, 73814, 75375, 77435, 79093, 85493, 87831, 89289, 91595]}, "edge": {"target": [], "time": []}}, "mouseover": {"state": {"target": ["26", "27", "26", "25", "25", "24", "23", "1", "2", "1", "3", "4", "3", "8", "8", "3", "9", "5", "6", "7", "7", "2", "3", "10", "28", "25", "24", "23", "0", "12", "13", "14", "13", "14", "15", "0", "24", "23", "24", "25", "24", "23", "26", "28", "27", "12", "13", "14", "15", "14", "19", "21", "21", "32", "30", "32", "23", "0", "0", "31", "31", "30", "33", "22", "19", "22", "19", "20", "20", "13", "22", "7", "6", "2", "4", "6", "4", "3", "10", "8", "11", "10", "1", "12"], "time": [8204, 8842, 10104, 10237, 12708, 14521, 14669, 14753, 15022, 16625, 18254, 20442, 21887, 21952, 22253, 25621, 26004, 26986, 28069, 30622, 30972, 31573, 31737, 34253, 34340, 34669, 34971, 35019, 35053, 35174, 35975, 37502, 37820, 38920, 41071, 42469, 43035, 43436, 44137, 45518, 50122, 50168, 50634, 51284, 51701, 55285, 55417, 55735, 55972, 57968, 58339, 59118, 60740, 61618, 61867, 62901, 66606, 67293, 72050, 73267, 73702, 74300, 74533, 76883, 76952, 77269, 77733, 77833, 78183, 81902, 85037, 85268, 86066, 86949, 87199, 87334, 88349, 88799, 90066, 92816, 93283, 95851, 95953, 95998]}, "edge": {"target": [], "time": []}}, "mouseout": {"state": {"target": ["3", "3", "2", "1", "0", "26", "27", "26", "25", "25", "25", "24", "23", "1", "2", "1", "1", "2", "3", "4", "3", "8", "8", "3", "9", "5", "6", "7", "7", "2", "3", "10", "28", "25", "24", "23", "0", "12", "13", "14", "13", "14", "15", "0", "24", "23", "24", "25", "24", "23", "26", "28", "27", "12", "13", "14", "15", "14", "19", "21", "21", "32", "30", "30", "32", "23", "0", "0", "31", "31", "30", "33", "22", "19", "22", "19", "20", "20", "20", "13", "22", "7", "6", "7", "2", "4", "6", "4", "3", "10", "8", "11", "10", "1", "12"], "time": [3237, 3953, 4038, 4256, 5438, 8753, 10019, 10170, 12008, 13479, 14337, 14642, 14686, 14937, 16553, 16791, 17838, 17905, 18670, 21858, 21919, 22052, 23969, 25771, 26887, 27941, 28908, 30686, 31374, 31637, 34169, 34269, 34355, 34941, 35002, 35036, 35118, 35903, 37256, 37707, 38803, 40752, 42318, 42519, 43335, 43970, 45485, 50103, 50150, 50285, 51234, 51552, 54801, 55350, 55584, 55768, 57822, 58084, 58967, 60201, 61468, 61701, 62455, 62851, 64467, 67089, 69070, 73186, 73338, 74206, 74384, 75835, 76918, 77082, 77651, 77783, 78001, 79786, 81483, 82616, 85049, 85966, 86722, 86854, 87136, 87250, 88300, 88400, 89849, 91670, 92853, 95765, 95882, 95969, 96015]}, "edge": {"target": [], "time": []}}}, "displayed_time": "115.13", "trialTime": 118936, "trial_type": "mouselab-mdp", "trial_index": 4, "time_elapsed": 772204, "internal_node_id": "0.0-2.0-2.0-1.0"}}, {"uniqueid": "w62606780:a23500955", "current_trial": 5, "dateTime": 1693565715082, "trialdata": {"view_history": [{"page_index": 0, "viewing_time": 274826}, {"page_index": 1, "viewing_time": 16480}, {"page_index": 0, "viewing_time": 9568}, {"page_index": 1, "viewing_time": 2345}], "rt": 303219, "trial_id": "mouselab_instructions_2_misaligned", "trial_type": "instructions", "trial_index": 5, "time_elapsed": 1075430, "internal_node_id": "0.0-2.0-3.0"}}, {"uniqueid": "w62606780:a23500955", "current_trial": 6, "dateTime": 1693565755915, "trialdata": {"rt": 40829, "response": {"Q0": "The cost for clicking on nodes may vary between nodes.", "Q1": "The better I perform the higher my bonus will be.", "Q2": "No, the structure of the web will be different each time.", "Q3": "To get the highest total score.", "Q4": "Only before moving the spider.", "Q5": "3 seconds"}, "question_order": [0, 1, 2, 3, 4, 5], "correct": {"Q0": "The cost for clicking on nodes may vary between nodes.", "Q1": "The better I perform the higher my bonus will be.", "Q2": "No, the amount of cash at each node of the web may be different each time.", "Q3": "To get the highest total score.", "Q4": "Only before moving the spider.", "Q5": "3 seconds"}, "trial_id": "mouselab_quiz_misaligned", "trial_type": "survey-multi-choice", "trial_index": 6, "time_elapsed": 1116263, "internal_node_id": "0.0-2.0-4.0"}}, {"uniqueid": "w62606780:a23500955", "current_trial": 7, "dateTime": 1693565793874, "trialdata": {"success": true, "trial_type": "fullscreen", "trial_index": 7, "time_elapsed": 1154222, "internal_node_id": "0.0-2.1-0.1-0.1"}}, {"uniqueid": "w62606780:a23500955", "current_trial": 8, "dateTime": 1693565905217, "trialdata": {"view_history": [{"page_index": 0, "viewing_time": 73972}, {"page_index": 1, "viewing_time": 25512}, {"page_index": 2, "viewing_time": 3088}, {"page_index": 3, "viewing_time": 8768}], "rt": 111340, "trial_id": "mouselab_instructions_1_misaligned", "trial_type": "instructions", "trial_index": 8, "time_elapsed": 1265565, "internal_node_id": "0.0-2.1-1.1"}}, {"uniqueid": "w62606780:a23500955", "current_trial": 9, "dateTime": 1693566112936, "trialdata": {"revealed_states": [], "clicked_states": ["23", "24", "25", "26", "27", "12", "13", "14", "1", "2", "3", "4", "6", "8", "11", "9"], "num_clicks_accrued": [0, 0, 0, 0, 0, 0, 0, 0, 0, 0, 0, 0, 0], "stateRewards": ["", -10, 10, -10, -10, 10, -10, -10, 10, -10, -10, -10, -10, 10, -10, 10, -10, 10, 10, -10, 10, -10, -10, -10, 10, 10, 10, -10, -10, 10, -10, -10, -10, 10], "withholdReward": false, "trial_id": "practice_1", "block": "test", "trialIndex": 2, "score": 5.5, "costs": -8, "simulationMode": [null, null, null, null, null], "rewards": [-10, 10, 10, 10, -10], "path": ["0", "0", "23", "24", "25", "26", "27"], "rt": [141119, 260, 625, 810, 450], "actions": ["left", "left", "left", "up", "up"], "actionTimes": [145574, 146323, 147439, 148745, 149701], "queries": {"click": {"state": {"target": ["23", "24", "25", "26", "27", "12", "13", "14", "1", "2", "3", "4", "6", "8", "11", "9"], "time": [8026, 15229, 20075, 24089, 28354, 34438, 39715, 43861, 51419, 57073, 62683, 70600, 74691, 79956, 85146, 91690]}, "edge": {"target": [], "time": []}}, "mouseover": {"state": {"target": ["0", "23", "24", "25", "25", "26", "28", "27", "1", "0", "12", "13", "14", "14", "1", "2", "4", "2", "3", "4", "6", "4", "3", "8", "10", "11", "8", "8", "9", "3", "12", "23", "24", "23"], "time": [4547, 5923, 8251, 19486, 19917, 23868, 24433, 28084, 28701, 33566, 34266, 39199, 41055, 43717, 51086, 56000, 56103, 56888, 62231, 67232, 74514, 79532, 79597, 79652, 80581, 84897, 85396, 91152, 91297, 135897, 136495, 141348, 141861, 143260]}, "edge": {"target": [], "time": []}}, "mouseout": {"state": {"target": ["1", "0", "23", "24", "25", "25", "26", "28", "26", "27", "1", "0", "12", "13", "14", "14", "1", "2", "4", "2", "3", "4", "6", "4", "3", "8", "10", "11", "11", "8", "8", "9", "9", "3", "12", "23", "24", "23", "0", "13", "22", "21"], "time": [3852, 5768, 8218, 19455, 19622, 23484, 24401, 27851, 27987, 28429, 33154, 33733, 39153, 40971, 43037, 50719, 51515, 56070, 56152, 57199, 66814, 74365, 79348, 79581, 79631, 80514, 84580, 85229, 85364, 85430, 91229, 91751, 91813, 135978, 136561, 141728, 143029, 144261, 151327, 152499, 153045, 153314]}, "edge": {"target": [], "time": []}}}, "displayed_time": "150.20", "trialTime": 207545, "trial_type": "mouselab-mdp", "trial_index": 9, "time_elapsed": 1473284, "internal_node_id": "0.0-2.1-2.1-0.1"}}, {"uniqueid": "w62606780:a23500955", "current_trial": 10, "dateTime": 1693566221206, "trialdata": {"revealed_states": [], "clicked_states": ["12", "13", "14", "23", "24", "25", "1", "2", "3", "8", "10", "9", "11", "4", "6", "5", "7", "15", "16", "17", "18", "26", "28", "29", "27", "30", "32", "31"], "num_clicks_accrued": [0, 0, 0, 0, 0, 0, 0, 0, 0, 0, 0, 0, 0], "stateRewards": ["", 10, -10, -10, 10, -10, -10, -10, -10, -10, -10, -10, -10, -10, -10, 10, -10, 10, -10, 10, -10, -10, 10, -10, -10, -10, 10, 10, -10, -10, 10, -10, 10, -10], "withholdReward": false, "trial_id": "practice_2", "block": "test", "trialIndex": 3, "score": -20.5, "costs": -14, "simulationMode": [null, null, null, null, null], "rewards": [-10, -10, -10, 10, 10], "path": ["0", "0", "23", "24", "25", "30", "32"], "rt": [93171, 183, 498, 372, 165], "actions": ["left", "left", "left", "down", "down"], "actionTimes": [100547, 101239, 102235, 103127, 103801], "queries": {"click": {"state": {"target": ["12", "13", "14", "23", "24", "25", "1", "2", "3", "8", "10", "9", "11", "4", "6", "5", "7", "15", "16", "17", "18", "26", "28", "29", "27", "30", "32", "31"], "time": [14627, 18300, 19830, 21995, 23430, 25145, 27013, 28612, 35111, 39631, 41685, 45267, 47476, 49432, 53458, 58815, 63567, 72266, 73978, 76172, 77839, 81015, 82427, 83812, 85650, 90768, 92150, 95281]}, "edge": {"target": [], "time": []}}, "mouseover": {"state": {"target": ["0", "30", "24", "28", "10", "2", "1", "18", "18", "13", "12", "13", "14", "12", "0", "23", "24", "25", "0", "12", "1", "2", "3", "8", "10", "8", "9", "11", "8", "4", "6", "5", "5", "7", "21", "33", "33", "22", "15", "17", "16", "17", "15", "18", "14", "13", "12", "23", "24", "25", "26", "28", "29", "27", "26", "25", "30", "32", "31", "25", "30", "31", "22"], "time": [8628, 9239, 9356, 9390, 9423, 9774, 10228, 13893, 14028, 14056, 14372, 15089, 18807, 21472, 21524, 21807, 22389, 24789, 25806, 26174, 26843, 27488, 30311, 39372, 41241, 44525, 44670, 47255, 47904, 49110, 50004, 57837, 58404, 63421, 68237, 68720, 70028, 71790, 72007, 72553, 73671, 75819, 76703, 76852, 78386, 79619, 79702, 79853, 79902, 79985, 80352, 81636, 82786, 85518, 87835, 89452, 89669, 91503, 93918, 94687, 94803, 95073, 96735]}, "edge": {"target": [], "time": []}}, "mouseout": {"state": {"target": ["26", "7", "0", "0", "30", "24", "28", "10", "2", "1", "18", "18", "13", "12", "13", "14", "13", "12", "0", "23", "24", "25", "24", "23", "0", "12", "1", "2", "3", "8", "10", "10", "8", "9", "11", "11", "8", "4", "6", "5", "5", "7", "21", "33", "33", "22", "15", "17", "16", "17", "17", "15", "18", "14", "13", "12", "23", "24", "25", "26", "28", "26", "29", "27", "26", "25", "30", "30", "32", "32", "31", "25", "30", "31", "22"], "time": [2023, 6725, 7207, 8655, 9307, 9373, 9406, 9506, 10095, 13758, 13958, 14039, 14106, 14939, 18739, 21395, 21441, 21488, 21727, 22322, 24743, 25690, 25760, 25789, 25822, 26589, 27062, 30074, 39307, 40205, 41726, 41971, 44573, 47121, 47550, 47887, 47921, 49721, 57405, 57870, 58921, 63629, 68254, 68804, 70254, 71805, 72503, 72719, 74403, 76245, 76653, 76752, 78302, 79590, 79669, 79752, 79886, 79938, 80136, 81569, 82652, 82736, 85252, 87619, 87974, 89518, 90846, 91454, 92223, 93323, 94555, 94740, 94834, 96118, 97354]}, "edge": {"target": [], "time": []}}}, "displayed_time": "104.33", "trialTime": 108094, "trial_type": "mouselab-mdp", "trial_index": 10, "time_elapsed": 1581553, "internal_node_id": "0.0-2.1-2.1-1.1"}}, {"uniqueid": "w62606780:a23500955", "current_trial": 11, "dateTime": 1693566238857, "trialdata": {"view_history": [{"page_index": 0, "viewing_time": 16010}, {"page_index": 1, "viewing_time": 1632}], "rt": 17643, "trial_id": "mouselab_instructions_2_misaligned", "trial_type": "instructions", "trial_index": 11, "time_elapsed": 1599205, "internal_node_id": "0.0-2.1-3.1"}}, {"uniqueid": "w62606780:a23500955", "current_trial": 12, "dateTime": 1693566292225, "trialdata": {"rt": 53365, "response": {"Q0": "The cost for clicking on nodes may vary between nodes.", "Q1": "The better I perform the higher my bonus will be.", "Q2": "Yes.", "Q3": "To get the highest total score.", "Q4": "Only before moving the spider.", "Q5": "3 seconds"}, "question_order": [0, 1, 2, 3, 4, 5], "correct": {"Q0": "The cost for clicking on nodes may vary between nodes.", "Q1": "The better I perform the higher my bonus will be.", "Q2": "No, the amount of cash at each node of the web may be different each time.", "Q3": "To get the highest total score.", "Q4": "Only before moving the spider.", "Q5": "3 seconds"}, "trial_id": "mouselab_quiz_misaligned", "trial_type": "survey-multi-choice", "trial_index": 12, "time_elapsed": 1652573, "internal_node_id": "0.0-2.1-4.1"}}, {"uniqueid": "w62606780:a23500955", "current_trial": 13, "dateTime": 1693566312857, "trialdata": {"success": true, "trial_type": "fullscreen", "trial_index": 13, "time_elapsed": 1673205, "internal_node_id": "0.0-2.2-0.2-0.2"}}, {"uniqueid": "w62606780:a23500955", "current_trial": 14, "dateTime": 1693566479921, "trialdata": {"view_history": [{"page_index": 0, "viewing_time": 26380}, {"page_index": 1, "viewing_time": 86119}, {"page_index": 2, "viewing_time": 1153}, {"page_index": 3, "viewing_time": 53408}], "rt": 167061, "trial_id": "mouselab_instructions_1_misaligned", "trial_type": "instructions", "trial_index": 14, "time_elapsed": 1840269, "internal_node_id": "0.0-2.2-1.2"}}, {"uniqueid": "w62606780:a23500955", "current_trial": 15, "dateTime": 1693566539580, "trialdata": {"revealed_states": [], "clicked_states": ["5", "4", "3", "7", "2", "1", "8", "10", "9", "11", "12", "13", "14", "15", "16", "18", "23", "24", "25", "26", "27", "28", "29"], "num_clicks_accrued": [0, 0, 0, 0, 0, 0, 0, 0, 0, 0, 0, 0, 0], "stateRewards": ["", -10, 10, -10, -10, 10, -10, -10, 10, -10, -10, -10, -10, 10, -10, 10, -10, 10, 10, -10, 10, -10, -10, -10, 10, 10, 10, -10, -10, 10, -10, -10, -10, 10], "withholdReward": false, "trial_id": "practice_1", "block": "test", "trialIndex": 4, "score": 22, "costs": -11.5, "simulationMode": [null, null, null, null, null], "rewards": [-10, 10, 10, 10, 10], "path": ["0", "0", "23", "24", "25", "26", "29"], "rt": [50403, 524, 399, 483, 600], "actions": ["left", "left", "left", "up", "left"], "actionTimes": [52243, 53275, 54186, 55166, 56285], "queries": {"click": {"state": {"target": ["5", "4", "3", "7", "2", "1", "8", "10", "9", "11", "12", "13", "14", "15", "16", "18", "23", "24", "25", "26", "27", "28", "29"], "time": [3239, 5586, 6978, 9504, 10875, 12952, 16452, 18348, 20230, 22682, 25172, 26499, 28182, 29911, 31666, 35948, 39767, 41274, 42743, 44101, 45616, 47094, 49070]}, "edge": {"target": [], "time": []}}, "mouseover": {"state": {"target": ["2", "3", "5", "4", "3", "4", "3", "7", "2", "7", "2", "1", "0", "3", "8", "10", "9", "11", "11", "10", "12", "12", "13", "14", "15", "16", "18", "15", "17", "15", "15", "13", "1", "28", "24", "23", "24", "25", "25", "26", "27", "28", "26", "29", "25", "24"], "time": [2568, 2602, 2924, 3485, 4318, 5185, 6235, 8153, 8836, 9019, 10002, 11201, 13668, 15536, 15984, 18150, 19851, 22353, 22517, 24167, 24702, 24902, 25401, 27186, 29768, 30401, 35488, 36467, 36550, 38067, 38350, 38633, 39151, 39300, 39417, 39684, 40051, 41549, 41867, 43250, 44683, 46116, 48466, 48750, 50518, 50566]}, "edge": {"target": [], "time": []}}, "mouseout": {"state": {"target": ["0", "2", "3", "5", "4", "3", "4", "3", "7", "2", "7", "2", "1", "0", "1", "3", "8", "10", "8", "9", "11", "11", "11", "10", "12", "12", "13", "14", "15", "16", "15", "15", "18", "15", "17", "15", "15", "13", "18", "1", "28", "24", "23", "23", "24", "25", "25", "26", "27", "28", "28", "26", "29", "25", "24"], "time": [2369, 2585, 2890, 3402, 4085, 5035, 6052, 7324, 8703, 8974, 9935, 11140, 13435, 14707, 14767, 15838, 18068, 19772, 19818, 21900, 22401, 22805, 24134, 24183, 24733, 25352, 26818, 29651, 30268, 32050, 32200, 33834, 36400, 36516, 37955, 38133, 38483, 38705, 39000, 39183, 39317, 39589, 39838, 39984, 41516, 41733, 43100, 44534, 46050, 47105, 48417, 48700, 49500, 50533, 50600]}, "edge": {"target": [], "time": []}}}, "displayed_time": "56.79", "trialTime": 59482, "trial_type": "mouselab-mdp", "trial_index": 15, "time_elapsed": 1899927, "internal_node_id": "0.0-2.2-2.2-0.2"}}, {"uniqueid": "w62606780:a23500955", "current_trial": 16, "dateTime": 1693566581972, "trialdata": {"revealed_states": [], "clicked_states": ["12", "13", "14", "23", "24", "25", "1", "2", "3", "4", "8", "11", "7", "5", "6"], "num_clicks_accrued": [0, 0, 0, 0, 0, 0, 0, 0, 0, 0, 0, 0, 0], "stateRewards": ["", 10, -10, -10, 10, -10, -10, -10, -10, -10, -10, -10, -10, -10, -10, 10, -10, 10, -10, 10, -10, -10, 10, -10, -10, -10, 10, 10, -10, -10, 10, -10, 10, -10], "withholdReward": false, "trial_id": "practice_2", "block": "test", "trialIndex": 5, "score": -14, "costs": -7.5, "simulationMode": [null, null, null, null, null], "rewards": [10, -10, -10, 10, -10], "path": ["0", "0", "1", "2", "3", "4", "7"], "rt": [31097, 60, 171, 473, 672], "actions": ["up", "up", "up", "right", "down"], "actionTimes": [35905, 36467, 37128, 38114, 39300], "queries": {"click": {"state": {"target": ["12", "13", "14", "23", "24", "25", "1", "2", "3", "4", "8", "11", "7", "5", "6"], "time": [6491, 7810, 10299, 12704, 14048, 15683, 17757, 19291, 21144, 22709, 24075, 26006, 28970, 30295, 32336]}, "edge": {"target": [], "time": []}}, "mouseover": {"state": {"target": ["23", "23", "23", "12", "13", "13", "12", "13", "14", "14", "14", "13", "12", "0", "23", "24", "25", "1", "2", "3", "3", "4", "8", "11", "3", "4", "6", "4", "7", "4", "5", "6", "4"], "time": [5055, 5209, 5805, 5972, 5989, 6073, 6239, 6655, 7988, 8122, 10122, 12277, 12339, 12406, 12504, 13038, 14255, 17543, 18704, 20704, 20987, 22488, 23273, 25504, 26654, 26787, 26853, 27837, 28672, 29204, 29504, 32222, 33987]}, "edge": {"target": [], "time": []}}, "mouseout": {"state": {"target": ["0", "0", "23", "23", "23", "12", "13", "13", "12", "13", "14", "14", "14", "13", "12", "0", "23", "24", "25", "24", "1", "2", "3", "3", "4", "3", "8", "11", "8", "3", "4", "6", "4", "7", "4", "5", "6", "4", "2", "3"], "time": [4322, 5005, 5104, 5605, 5923, 5988, 6021, 6210, 6622, 7955, 8038, 9175, 12238, 12305, 12371, 12439, 12988, 14188, 17137, 17221, 18604, 20689, 20743, 22410, 23238, 23271, 25437, 26587, 26637, 26720, 26821, 27687, 28337, 29137, 29221, 30754, 33938, 34221, 40621, 40655]}, "edge": {"target": [], "time": []}}}, "displayed_time": "39.81", "trialTime": 42214, "trial_type": "mouselab-mdp", "trial_index": 16, "time_elapsed": 1942319, "internal_node_id": "0.0-2.2-2.2-1.2"}}, {"uniqueid": "w62606780:a23500955", "current_trial": 17, "dateTime": 1693566643816, "trialdata": {"view_history": [{"page_index": 0, "viewing_time": 59425}, {"page_index": 1, "viewing_time": 2416}], "rt": 61842, "trial_id": "mouselab_instructions_2_misaligned", "trial_type": "instructions", "trial_index": 17, "time_elapsed": 2004164, "internal_node_id": "0.0-2.2-3.2"}}, {"uniqueid": "w62606780:a23500955", "current_trial": 18, "dateTime": 1693566708146, "trialdata": {"rt": 64326, "response": {"Q0": "The cost for clicking on nodes may vary between nodes.", "Q1": "The better I perform the higher my bonus will be.", "Q2": "No, the amount of cash at each node of the web may be different each time.", "Q3": "To get the highest total score.", "Q4": "Only before moving the spider.", "Q5": "3 seconds"}, "question_order": [0, 1, 2, 3, 4, 5], "correct": {"Q0": "The cost for clicking on nodes may vary between nodes.", "Q1": "The better I perform the higher my bonus will be.", "Q2": "No, the amount of cash at each node of the web may be different each time.", "Q3": "To get the highest total score.", "Q4": "Only before moving the spider.", "Q5": "3 seconds"}, "trial_id": "mouselab_quiz_misaligned", "trial_type": "survey-multi-choice", "trial_index": 18, "time_elapsed": 2068494, "internal_node_id": "0.0-2.2-4.2"}}, {"uniqueid": "w62606780:a23500955", "current_trial": 19, "dateTime": 1693566713968, "trialdata": {"rt": 5813, "response": {"Q0": "No"}, "question_order": [0], "trial_id": "repeat_check", "trial_type": "survey-multi-choice", "trial_index": 19, "time_elapsed": 2074316, "internal_node_id": "0.0-4.0-0.0"}}, {"uniqueid": "w62606780:a23500955", "current_trial": 20, "dateTime": 1693566742436, "trialdata": {"rt": 28461, "stimulus": "\n<h1> Get ready to start the game! </h1>\n\nThank you for reading the instructions. Get ready start with the 40 rounds of this game.\n<br><br>\nIf you need to take a break, feel free to take one after the end of a round, before continuing to the next one.\n<br><br>\nRemember, the more money the spider gets, the bigger your bonus will be!\n<br><br>\n<div style='text-align: center;'>Press <code>space</code> to begin.</div>\n\n<br><br>\n(If, at any point, the <code>space</code> key does not take you to the next page, click once on the text and try again.)", "response": " ", "trial_id": "mdp_ready", "trial_type": "html-keyboard-response", "trial_index": 20, "time_elapsed": 2102784, "internal_node_id": "0.0-6.0-0.0"}}, {"uniqueid": "w62606780:a23500955", "current_trial": 21, "dateTime": 1693566772792, "trialdata": {"revealed_states": [], "clicked_states": [], "num_clicks_accrued": [0, 0, 0, 0, 0, 0, 0, 0, 0, 0, 0, 0, 0], "stateRewards": ["", -1, 3, -7, 16, -32, -74, -48, 2, 10, 15, -30, 1, 1, -2, 10, 12, -83, 67, 13, -66, 47, 65, -2, 4, 2, -14, -8, -57, 24, 9, 65, 12, 46], "withholdReward": false, "trial_id": "mdp_trial_1", "block": "test", "trialIndex": 6, "score": 78, "costs": 0, "simulationMode": [null, null, null, null, null], "rewards": [-2, 4, 2, 9, 65], "path": ["0", "0", "23", "24", "25", "30", "31"], "rt": [12463, 837, 669, 491, 372], "actions": ["left", "left", "left", "down", "right"], "actionTimes": [15631, 16958, 18139, 19148, 20015], "queries": {"click": {"state": {"target": [], "time": []}, "edge": {"target": [], "time": []}}, "mouseover": {"state": {"target": ["23", "24", "25", "23", "24", "25", "31"], "time": [3358, 3388, 3405, 4272, 7573, 10686, 12085]}, "edge": {"target": [], "time": []}}, "mouseout": {"state": {"target": ["25", "24", "23", "1", "23", "24", "25", "23", "24", "25", "31"], "time": [1735, 1752, 1772, 1937, 3386, 3403, 3419, 7553, 7587, 10953, 12323]}, "edge": {"target": [], "time": []}}}, "displayed_time": "20.52", "trialTime": 30156, "trial_type": "mouselab-mdp", "trial_index": 21, "time_elapsed": 2133139, "internal_node_id": "0.0-6.0-1.0-0.0"}}, {"uniqueid": "w62606780:a23500955", "current_trial": 22, "dateTime": 1693566806884, "trialdata": {"revealed_states": [], "clicked_states": ["23", "24", "25", "26", "12", "13", "14", "2", "3", "4", "6", "8", "11"], "num_clicks_accrued": [0, 0, 0, 0, 0, 0, 0, 0, 0, 0, 0, 0, 0], "stateRewards": ["", -2, -3, -5, 8, 27, 11, 43, -6, -24, -87, 69, -2, 1, 1, 9, 19, 48, -37, 9, -14, 45, 62, 1, 2, 1, 16, -81, -41, 22, 4, -6, -63, 47], "withholdReward": false, "trial_id": "mdp_trial_2", "block": "test", "trialIndex": 7, "score": 40.65, "costs": -12.35, "simulationMode": [null, null, null, null, null, null], "rewards": [-2, -3, -5, -6, 69], "path": ["0", "0", "1", "2", "3", "8", "11"], "rt": [20345, 273, 22, 1, 805, 249], "actions": ["up", "up", "up", "up", "left", "left"], "actionTimes": [21511, 21787, 22320, 22830, 24169, 24911], "queries": {"click": {"state": {"target": ["23", "24", "25", "26", "12", "13", "14", "2", "3", "4", "6", "8", "11"], "time": [2081, 4272, 4967, 6669, 8056, 9613, 11105, 12130, 13982, 14688, 15656, 18522, 19786]}, "edge": {"target": [], "time": []}}, "mouseover": {"state": {"target": ["23", "23", "24", "24", "25", "26", "28", "13", "12", "13", "14", "18", "2", "3", "1", "0", "1", "3", "4", "6", "8", "11", "1", "12"], "time": [1744, 1961, 2694, 4065, 4595, 6478, 7393, 7762, 7943, 8444, 10893, 11615, 11928, 12710, 13110, 13476, 13544, 13711, 14477, 15160, 16476, 19560, 20827, 20910]}, "edge": {"target": [], "time": []}}, "mouseout": {"state": {"target": ["0", "23", "23", "24", "24", "25", "26", "28", "13", "12", "13", "14", "14", "18", "2", "3", "2", "1", "0", "1", "3", "4", "6", "4", "3", "8", "11", "1", "12", "20"], "time": [1728, 1794, 2410, 3327, 4494, 6293, 7377, 7427, 7902, 8310, 9966, 11410, 11560, 11629, 12661, 13043, 13093, 13127, 13510, 13559, 14360, 15010, 16127, 16260, 16443, 19510, 20677, 20876, 20959, 28542]}, "edge": {"target": [], "time": []}}}, "displayed_time": "25.41", "trialTime": 33894, "trial_type": "mouselab-mdp", "trial_index": 22, "time_elapsed": 2167232, "internal_node_id": "0.0-6.0-1.0-1.0"}}, {"uniqueid": "w62606780:a23500955", "current_trial": 23, "dateTime": 1693566836568, "trialdata": {"revealed_states": [], "clicked_states": ["23", "24", "25", "1", "2", "3", "4", "6", "7", "5"], "num_clicks_accrued": [0, 0, 0, 0, 0, 0, 0, 0, 0, 0, 0, 0, 0], "stateRewards": ["", 1, 1, -2, 7, -31, -6, 76, 1, -36, -16, -53, 2, 1, 7, 13, -47, -10, 47, -7, 72, 46, -56, -2, -2, -2, 11, -80, 44, 38, 16, 67, 85, -78], "withholdReward": false, "trial_id": "mdp_trial_3", "block": "test", "trialIndex": 8, "score": 72.9, "costs": -10.1, "simulationMode": [null, null, null, null, null, null], "rewards": [1, 1, -2, 7, 76], "path": ["0", "0", "1", "2", "3", "4", "7"], "rt": [18783, 169, 21, 13, 602, 301], "actions": ["up", "up", "up", "up", "right", "down"], "actionTimes": [20189, 20361, 20913, 21453, 22591, 23407], "queries": {"click": {"state": {"target": ["23", "24", "25", "1", "2", "3", "4", "6", "7", "5"], "time": [2162, 3169, 4768, 7625, 8885, 10034, 10722, 11461, 15389, 18466]}, "edge": {"target": [], "time": []}}, "mouseover": {"state": {"target": ["0", "23", "24", "25", "26", "28", "2", "1", "2", "3", "4", "6", "7", "5", "4"], "time": [1724, 1974, 3005, 3755, 5238, 6179, 6606, 7421, 8188, 9705, 10455, 11105, 15022, 15954, 19388]}, "edge": {"target": [], "time": []}}, "mouseout": {"state": {"target": ["12", "0", "23", "23", "24", "24", "25", "26", "28", "2", "1", "2", "3", "4", "6", "6", "7", "5", "4", "12", "22"], "time": [888, 1788, 2223, 2738, 3287, 3572, 5072, 6176, 6189, 6723, 7685, 9489, 10393, 11038, 13989, 14723, 15804, 19223, 19425, 27188, 27222]}, "edge": {"target": [], "time": []}}}, "displayed_time": "23.92", "trialTime": 29488, "trial_type": "mouselab-mdp", "trial_index": 23, "time_elapsed": 2196915, "internal_node_id": "0.0-6.0-1.0-2.0"}}, {"uniqueid": "w62606780:a23500955", "current_trial": 24, "dateTime": 1693566863340, "trialdata": {"revealed_states": [], "clicked_states": ["12", "13", "14", "19", "21", "20", "22"], "num_clicks_accrued": [0, 0, 0, 0, 0, 0, 0, 0, 0, 0, 0, 0, 0], "stateRewards": ["", -2, -3, -3, 9, 79, 67, 22, -15, -56, 27, -85, -2, 4, -4, -15, -20, -32, 60, 15, 71, 57, 17, 1, 2, -8, 15, -37, -81, 82, 15, 21, -3, 2], "withholdReward": false, "trial_id": "mdp_trial_4", "block": "test", "trialIndex": 9, "score": 74.95, "costs": -9.05, "simulationMode": [null, null, null, null, null], "rewards": [-2, 4, -4, 15, 71], "path": ["0", "0", "12", "13", "14", "19", "20"], "rt": [18734, 393, 434, 422, 160], "actions": ["right", "right", "right", "down", "right"], "actionTimes": [20633, 21519, 22442, 23380, 24051], "queries": {"click": {"state": {"target": ["12", "13", "14", "19", "21", "20", "22"], "time": [2482, 3480, 4456, 5241, 6214, 9209, 12474]}, "edge": {"target": [], "time": []}}, "mouseover": {"state": {"target": ["0", "12", "12", "13", "14", "19", "21", "20", "22", "20", "20", "19", "22", "19", "14", "31", "30", "31", "24", "23", "24"], "time": [1940, 1991, 2392, 2756, 3824, 5040, 5690, 6724, 8107, 8257, 8491, 9523, 9673, 13040, 14340, 16256, 16557, 17222, 18342, 18558, 19157]}, "edge": {"target": [], "time": []}}, "mouseout": {"state": {"target": ["1", "2", "0", "0", "12", "12", "13", "14", "19", "21", "20", "19", "22", "19", "20", "20", "19", "22", "19", "14", "22", "31", "30", "31", "24", "23", "24"], "time": [1223, 1340, 1724, 1973, 2041, 2608, 3791, 4873, 5582, 6268, 7891, 7973, 8190, 8240, 8274, 9489, 9589, 12912, 13190, 14373, 15972, 16523, 17160, 17994, 18407, 18972, 19656]}, "edge": {"target": [], "time": []}}}, "displayed_time": "24.56", "trialTime": 26563, "trial_type": "mouselab-mdp", "trial_index": 24, "time_elapsed": 2223687, "internal_node_id": "0.0-6.0-1.0-3.0"}}, {"uniqueid": "w62606780:a23500955", "current_trial": 25, "dateTime": 1693566898711, "trialdata": {"revealed_states": [], "clicked_states": ["1", "2", "3", "8", "11", "4", "6", "5", "23", "24", "25", "26", "28", "29", "27"], "num_clicks_accrued": [0, 0, 0, 0, 0, 0, 0, 0, 0, 0, 0, 0, 0], "stateRewards": ["", 1, -4, -4, 8, 1, -79, 68, -10, -79, 8, -74, -1, -3, -6, 14, 43, 23, 9, 5, -51, 63, 61, -2, 4, 6, -10, 69, -32, 57, 15, -80, -80, -77], "withholdReward": false, "trial_id": "mdp_trial_5", "block": "test", "trialIndex": 10, "score": 47.35, "costs": -19.65, "simulationMode": [null, null, null, null, null, null], "rewards": [-2, 4, 6, -10, 69], "path": ["0", "0", "23", "24", "25", "26", "27"], "rt": [26055, 179, 76, 7, 546, 38], "actions": ["left", "left", "left", "left", "up", "up"], "actionTimes": [29962, 30144, 30736, 31263, 32319, 32879], "queries": {"click": {"state": {"target": ["1", "2", "3", "8", "11", "4", "6", "5", "23", "24", "25", "26", "28", "29", "27"], "time": [4416, 4912, 5953, 6572, 7496, 11672, 12572, 16130, 19258, 20017, 20697, 21496, 22217, 25146, 27936]}, "edge": {"target": [], "time": []}}, "mouseover": {"state": {"target": ["0", "1", "2", "3", "8", "11", "9", "10", "4", "6", "5", "4", "7", "18", "13", "12", "0", "23", "23", "24", "25", "26", "28", "29", "26", "27", "26", "25", "24"], "time": [3914, 4258, 4688, 5805, 6405, 7055, 8790, 10842, 11423, 12105, 16022, 16621, 16688, 16888, 17188, 17521, 17554, 17588, 18038, 19804, 20404, 21321, 21907, 23206, 25637, 25871, 28570, 28921, 29023]}, "edge": {"target": [], "time": []}}, "mouseout": {"state": {"target": ["21", "22", "13", "12", "12", "0", "1", "2", "3", "8", "11", "11", "9", "11", "10", "4", "6", "5", "4", "7", "18", "13", "12", "0", "23", "23", "24", "25", "26", "28", "26", "26", "26", "29", "26", "27", "26", "25", "24"], "time": [723, 1357, 2557, 2704, 3572, 4107, 4622, 5010, 6355, 6988, 7889, 8622, 9638, 10509, 11356, 12039, 15790, 16455, 16637, 16822, 16904, 17488, 17538, 17571, 17921, 19638, 20371, 21221, 21837, 22521, 22588, 22871, 23088, 25555, 25721, 28487, 28620, 28954, 29037]}, "edge": {"target": [], "time": []}}}, "displayed_time": "33.39", "trialTime": 35167, "trial_type": "mouselab-mdp", "trial_index": 25, "time_elapsed": 2259057, "internal_node_id": "0.0-6.0-1.0-4.0"}}, {"uniqueid": "w62606780:a23500955", "current_trial": 26, "dateTime": 1693566921141, "trialdata": {"revealed_states": [], "clicked_states": ["12", "13", "14", "19", "21", "20", "22"], "num_clicks_accrued": [0, 0, 0, 0, 0, 0, 0, 0, 0, 0, 0, 0, 0], "stateRewards": ["", 2, 3, -2, -8, -8, -41, 74, 15, -23, -80, 1, 1, 3, 3, -15, -63, -78, 67, 13, 75, -41, 86, 2, -2, 6, -3, -8, -49, 50, -6, 83, 74, 80], "withholdReward": false, "trial_id": "mdp_trial_6", "block": "test", "trialIndex": 11, "score": 96.95, "costs": -9.05, "simulationMode": [null, null, null, null, null, null], "rewards": [1, 3, 3, 13, 86], "path": ["0", "0", "12", "13", "14", "19", "22"], "rt": [13933, 524, 343, 289, 195, 330], "actions": ["right", "right", "right", "right", "down", "left"], "actionTimes": [16473, 17004, 17880, 18660, 19366, 20199], "queries": {"click": {"state": {"target": ["12", "13", "14", "19", "21", "20", "22"], "time": [4100, 4940, 5826, 6920, 8249, 11473, 14283]}, "edge": {"target": [], "time": []}}, "mouseover": {"state": {"target": ["0", "23", "24", "12", "13", "13", "12", "13", "14", "19", "21", "20", "19", "22"], "time": [2769, 3018, 3051, 3484, 3503, 3706, 3934, 4288, 5506, 6635, 7917, 10951, 11767, 11951]}, "edge": {"target": [], "time": []}}, "mouseout": {"state": {"target": ["0", "23", "24", "12", "13", "13", "12", "13", "14", "19", "19", "21", "21", "20", "19", "22"], "time": [2901, 3039, 3085, 3501, 3534, 3901, 4270, 5235, 6518, 6996, 7484, 8317, 10718, 11717, 11817, 21400]}, "edge": {"target": [], "time": []}}}, "displayed_time": "20.70", "trialTime": 22231, "trial_type": "mouselab-mdp", "trial_index": 26, "time_elapsed": 2281489, "internal_node_id": "0.0-6.0-1.0-5.0"}}, {"uniqueid": "w62606780:a23500955", "current_trial": 27, "dateTime": 1693566975112, "trialdata": {"revealed_states": [], "clicked_states": ["1", "2", "3", "4", "6", "8", "11", "9", "10", "5", "7", "12", "13", "14", "19", "21", "22", "20", "15", "16"], "num_clicks_accrued": [0, 0, 0, 0, 0, 0, 0, 0, 0, 0, 0, 0, 0], "stateRewards": ["", 2, 3, 8, 11, 25, -80, 6, -4, -56, 84, -23, -2, -4, -3, 4, -51, -9, -61, -15, -64, 67, -35, 1, -1, -7, -6, 83, 59, -15, 12, -79, 56, 41], "withholdReward": false, "trial_id": "mdp_trial_7", "block": "test", "trialIndex": 12, "score": 63.2, "costs": -29.799999999999997, "simulationMode": [null, null, null, null, null, null], "rewards": [2, 3, 8, -4, 84], "path": ["0", "0", "1", "2", "3", "8", "10"], "rt": [46068, 313, 374, 262, 218, 311], "actions": ["up", "up", "up", "up", "left", "down"], "actionTimes": [48011, 48330, 49217, 49974, 50709, 51537], "queries": {"click": {"state": {"target": ["1", "2", "3", "4", "6", "8", "11", "9", "10", "5", "7", "12", "13", "14", "19", "21", "22", "20", "15", "16"], "time": [3990, 4887, 5865, 7354, 8415, 12273, 13775, 16719, 19766, 23137, 26346, 29527, 30462, 31146, 32372, 34169, 37514, 40666, 43764, 45580]}, "edge": {"target": [], "time": []}}, "mouseover": {"state": {"target": ["23", "23", "13", "1", "28", "10", "3", "1", "2", "3", "4", "6", "4", "8", "11", "10", "8", "9", "8", "10", "3", "5", "4", "7", "12", "13", "14", "15", "19", "21", "22", "21", "19", "22", "19", "20", "14", "15", "16", "18"], "time": [2091, 2425, 2658, 2858, 3074, 3175, 3225, 3908, 4241, 5559, 6591, 8042, 11577, 12046, 12924, 14541, 15408, 15658, 17174, 17274, 20109, 20257, 23624, 23691, 28657, 30041, 30840, 31657, 32157, 32857, 33557, 33944, 36406, 36606, 38606, 38657, 41189, 41306, 44340, 46239]}, "edge": {"target": [], "time": []}}, "mouseout": {"state": {"target": ["23", "28", "10", "1", "0", "23", "23", "13", "1", "28", "10", "3", "1", "2", "3", "4", "6", "6", "4", "8", "11", "10", "8", "9", "8", "10", "3", "5", "4", "7", "7", "7", "12", "13", "14", "15", "14", "19", "19", "21", "22", "21", "21", "21", "19", "22", "19", "20", "14", "15", "16", "18"], "time": [1125, 1158, 1344, 1441, 2077, 2124, 2441, 2777, 2874, 3142, 3192, 3259, 4067, 5191, 6474, 7977, 8958, 11546, 11607, 12842, 14424, 15341, 15442, 17124, 17224, 20008, 20141, 23574, 23658, 27293, 28307, 28499, 29823, 30757, 31574, 31957, 32073, 32444, 32690, 33224, 33757, 34226, 34490, 34740, 36440, 38556, 38639, 41040, 41241, 44191, 46039, 47206]}, "edge": {"target": [], "time": []}}}, "displayed_time": "52.06", "trialTime": 53757, "trial_type": "mouselab-mdp", "trial_index": 27, "time_elapsed": 2335459, "internal_node_id": "0.0-6.0-1.0-6.0"}}, {"uniqueid": "w62606780:a23500955", "current_trial": 28, "dateTime": 1693567047538, "trialdata": {"revealed_states": [], "clicked_states": ["23", "24", "25", "30", "32", "31", "33", "22", "20", "21", "16", "17", "18", "7", "6", "5", "9", "11", "10", "28", "29"], "num_clicks_accrued": [0, 0, 0, 0, 0, 0, 0, 0, 0, 0, 0, 0, 0], "stateRewards": ["", 1, 2, 8, -2, 23, -69, -18, -16, 54, -21, 71, -1, -4, 7, 11, 43, -6, 88, 6, -55, 72, 43, 1, -3, -2, -1, 68, -31, -54, 4, -8, 25, -2], "withholdReward": false, "trial_id": "mdp_trial_8", "block": "test", "trialIndex": 13, "score": 61.85000000000001, "costs": -39.14999999999999, "simulationMode": [null, null, null, null, null], "rewards": [-1, -4, 7, 11, 88], "path": ["0", "0", "12", "13", "14", "15", "18"], "rt": [63545, 348, 1227, 284, 27], "actions": ["right", "right", "right", "up", "left"], "actionTimes": [66423, 67264, 68994, 69802, 70341], "queries": {"click": {"state": {"target": ["23", "24", "25", "30", "32", "31", "33", "22", "20", "21", "16", "17", "18", "7", "6", "5", "9", "11", "10", "28", "29"], "time": [3911, 4544, 5338, 7115, 8137, 11465, 14454, 17722, 21825, 25081, 29553, 32683, 35878, 38864, 42363, 45633, 48697, 51972, 55344, 58574, 61911]}, "edge": {"target": [], "time": []}}, "mouseover": {"state": {"target": ["0", "23", "24", "25", "26", "30", "32", "31", "30", "33", "30", "22", "19", "22", "19", "20", "21", "17", "16", "17", "15", "18", "2", "7", "6", "4", "3", "8", "11", "8", "5", "11", "9", "8", "10", "11", "10", "2", "1", "23", "24", "26", "27", "28", "26", "29", "29", "27"], "time": [2998, 3417, 4181, 4916, 6098, 6548, 7698, 8648, 11914, 12131, 14970, 15165, 15197, 15731, 18014, 18298, 22597, 25697, 27714, 29881, 32963, 33234, 36547, 37130, 40763, 42646, 42863, 43030, 43313, 43847, 43913, 46163, 46813, 49112, 49462, 49963, 52345, 56095, 56679, 56946, 57079, 57535, 57796, 58444, 59245, 59445, 59779, 62345]}, "edge": {"target": [], "time": []}}, "mouseout": {"state": {"target": ["0", "0", "0", "23", "24", "25", "26", "25", "30", "32", "31", "30", "33", "30", "31", "22", "19", "22", "19", "20", "21", "17", "16", "17", "15", "18", "2", "7", "6", "4", "3", "8", "11", "8", "5", "11", "9", "8", "10", "11", "10", "2", "1", "23", "24", "26", "27", "28", "26", "29", "29", "27"], "time": [2016, 2615, 3299, 4137, 4865, 5932, 6482, 6532, 7532, 8204, 11882, 11964, 14947, 14990, 15014, 15181, 15581, 17998, 18048, 22398, 25532, 25714, 29797, 32930, 33096, 36130, 36597, 39996, 42613, 42730, 42963, 43163, 43831, 43863, 45896, 46746, 49063, 49198, 49829, 52247, 56029, 56562, 56830, 57012, 57179, 57679, 58178, 59079, 59395, 59495, 62212, 65330]}, "edge": {"target": [], "time": []}}}, "displayed_time": "70.85", "trialTime": 72211, "trial_type": "mouselab-mdp", "trial_index": 28, "time_elapsed": 2407885, "internal_node_id": "0.0-6.0-1.0-7.0"}}, {"uniqueid": "w62606780:a23500955", "current_trial": 29, "dateTime": 1693567092682, "trialdata": {"revealed_states": [], "clicked_states": ["28", "27", "29", "33", "31", "32", "22", "20", "21", "17", "18"], "num_clicks_accrued": [0, 0, 0, 0, 0, 0, 0, 0, 0, 0, 0, 0, 0], "stateRewards": ["", 1, 2, 2, -15, -84, 28, -26, 13, 31, 86, 30, -2, 1, -1, -8, 66, -40, -1, -10, -32, 57, -17, 1, 2, -2, 9, -23, 77, 85, 12, -32, -62, -35], "withholdReward": false, "trial_id": "mdp_trial_9", "block": "test", "trialIndex": 14, "score": 71.35000000000001, "costs": -23.649999999999995, "simulationMode": [null, null, null, null, null], "rewards": [1, 2, -2, 9, 85], "path": ["0", "0", "23", "24", "25", "26", "29"], "rt": [38623, 391, 303, 145, 150], "actions": ["left", "left", "left", "up", "left"], "actionTimes": [40362, 41262, 42054, 42714, 43367], "queries": {"click": {"state": {"target": ["28", "27", "29", "33", "31", "32", "22", "20", "21", "17", "18"], "time": [3557, 7083, 10337, 14970, 18165, 21481, 24845, 27968, 31042, 34110, 37336]}, "edge": {"target": [], "time": []}}, "mouseover": {"state": {"target": ["23", "24", "24", "25", "26", "28", "26", "27", "26", "29", "25", "25", "30", "25", "33", "33", "30", "31", "32", "22", "14", "22", "19", "20", "20", "21", "19", "14", "15", "16", "17", "15", "18"], "time": [2003, 2069, 2451, 2701, 3035, 3334, 3851, 4036, 7884, 8051, 10667, 10985, 11284, 11834, 13603, 14805, 15784, 15984, 18551, 22050, 23900, 24636, 25250, 25334, 25749, 28433, 31399, 31449, 31490, 31700, 32333, 35066, 35167]}, "edge": {"target": [], "time": []}}, "mouseout": {"state": {"target": ["0", "23", "24", "24", "25", "26", "28", "26", "27", "26", "29", "25", "25", "30", "25", "33", "33", "30", "31", "32", "22", "14", "22", "19", "20", "20", "21", "19", "14", "15", "16", "17", "15"], "time": [1940, 2055, 2167, 2618, 3018, 3084, 3820, 3951, 7485, 7968, 10634, 10717, 11234, 11734, 13201, 14284, 15733, 15884, 18401, 21883, 22167, 24521, 25217, 25300, 25383, 28283, 31334, 31433, 31472, 31617, 32121, 34786, 35133]}, "edge": {"target": [], "time": []}}}, "displayed_time": "43.89", "trialTime": 44943, "trial_type": "mouselab-mdp", "trial_index": 29, "time_elapsed": 2453029, "internal_node_id": "0.0-6.0-1.0-8.0"}}, {"uniqueid": "w62606780:a23500955", "current_trial": 30, "dateTime": 1693567155063, "trialdata": {"revealed_states": [], "clicked_states": ["9", "11", "10", "5", "7", "29", "27", "32", "33", "21", "16", "17", "20", "18", "22"], "num_clicks_accrued": [0, 0, 0, 0, 0, 0, 0, 0, 0, 0, 0, 0, 0], "stateRewards": ["", 2, -1, -1, -9, -81, -30, 55, -6, 78, 25, 62, 2, 4, -1, 9, -85, 1, -19, 1, -60, 12, -34, 1, 4, -1, -13, -24, -16, -83, -8, 16, 43, 9], "withholdReward": false, "trial_id": "mdp_trial_10", "block": "test", "trialIndex": 15, "score": 39.75000000000001, "costs": -32.24999999999999, "simulationMode": [null, null, null, null, null], "rewards": [2, -1, -1, -6, 78], "path": ["0", "0", "1", "2", "3", "8", "9"], "rt": [55891, 148, 564, 225, 164], "actions": ["up", "up", "up", "left", "up"], "actionTimes": [57245, 57896, 58973, 59718, 60373], "queries": {"click": {"state": {"target": ["9", "11", "10", "5", "7", "29", "27", "32", "33", "21", "16", "17", "20", "18", "22"], "time": [2189, 5711, 9624, 12866, 16035, 20654, 23855, 27088, 30707, 34972, 38730, 42110, 45354, 49554, 52764]}, "edge": {"target": [], "time": []}}, "mouseover": {"state": {"target": ["1", "2", "3", "9", "11", "8", "3", "5", "5", "3", "10", "2", "4", "5", "7", "15", "15", "6", "23", "33", "29", "25", "25", "28", "27", "28", "24", "31", "32", "22", "31", "30", "33", "30", "31", "19", "20", "31", "31", "22", "19", "21", "19", "14", "15", "18", "31", "12", "15", "16", "17", "20", "19", "0", "11", "8", "3", "18", "13", "22", "10", "8", "9", "9", "7"], "time": [1527, 1593, 1646, 2010, 3110, 5960, 6027, 6177, 7110, 7843, 8077, 10677, 10827, 11577, 13426, 16644, 17243, 17493, 19643, 19842, 20469, 22443, 22730, 22895, 23476, 24160, 24228, 24309, 24709, 29343, 30264, 30292, 30579, 30880, 30894, 30976, 31009, 31526, 31777, 34343, 34508, 34728, 35359, 35476, 35525, 35575, 35942, 38192, 38241, 38480, 39808, 42809, 45642, 45742, 45908, 48626, 48676, 49345, 49841, 50241, 53158, 53191, 53225, 56341, 56424]}, "edge": {"target": [], "time": []}}, "mouseout": {"state": {"target": ["18", "15", "0", "1", "2", "3", "9", "11", "8", "3", "5", "5", "3", "10", "2", "4", "5", "7", "15", "15", "6", "7", "23", "33", "29", "25", "25", "28", "27", "28", "24", "31", "32", "22", "31", "30", "33", "30", "31", "19", "20", "31", "31", "22", "19", "21", "21", "19", "14", "15", "18", "31", "12", "15", "16", "17", "20", "19", "0", "11", "8", "3", "18", "13", "22", "10", "8", "9", "9", "7"], "time": [496, 814, 1483, 1560, 1632, 1694, 2410, 5910, 5993, 6093, 6293, 7793, 7878, 10060, 10744, 10878, 13143, 16443, 16661, 17293, 19559, 19593, 19676, 19961, 21027, 22476, 22776, 23160, 24109, 24192, 24276, 24427, 28776, 30111, 30276, 30309, 30859, 30893, 30910, 30993, 31412, 31576, 34246, 34359, 34611, 35014, 35159, 35459, 35509, 35558, 35592, 38142, 38209, 38427, 39109, 42425, 45624, 45664, 45758, 46064, 48662, 48692, 49791, 49875, 53075, 53174, 53208, 53258, 56358, 56440]}, "edge": {"target": [], "time": []}}}, "displayed_time": "60.90", "trialTime": 62154, "trial_type": "mouselab-mdp", "trial_index": 30, "time_elapsed": 2515410, "internal_node_id": "0.0-6.0-1.0-9.0"}}, {"uniqueid": "w62606780:a23500955", "current_trial": 31, "dateTime": 1693567195035, "trialdata": {"revealed_states": [], "clicked_states": ["6", "21", "16", "29", "27", "28", "33", "32", "31"], "num_clicks_accrued": [0, 0, 0, 0, 0, 0, 0, 0, 0, 0, 0, 0, 0], "stateRewards": ["", 2, -3, -8, 14, -7, -51, 73, 2, 36, 36, -43, -1, 3, -4, 1, 6, 87, -65, 15, 61, -42, -83, -1, 3, -2, -7, 30, -48, 35, 13, 26, 60, 78], "withholdReward": false, "trial_id": "mdp_trial_11", "block": "test", "trialIndex": 16, "score": 71.65, "costs": -19.349999999999998, "simulationMode": [null, null, null, null, null], "rewards": [-1, 3, -2, 13, 78], "path": ["0", "0", "23", "24", "25", "30", "33"], "rt": [33057, 196, 283, 168, 286], "actions": ["left", "left", "left", "down", "left"], "actionTimes": [34264, 34976, 35780, 36463, 37266], "queries": {"click": {"state": {"target": ["6", "21", "16", "29", "27", "28", "33", "32", "31"], "time": [2679, 6607, 9759, 13696, 17222, 20526, 23815, 27143, 30440]}, "edge": {"target": [], "time": []}}, "mouseover": {"state": {"target": ["23", "1", "2", "4", "6", "4", "5", "4", "18", "14", "19", "21", "20", "16", "20", "17", "15", "18", "1", "27", "29", "26", "27", "28", "25", "25", "24", "28", "24", "30", "33", "32", "31", "22"], "time": [2044, 2161, 2210, 2344, 2427, 3045, 3294, 5911, 6111, 6161, 6261, 6460, 7477, 7944, 10344, 11145, 11710, 11861, 13127, 13177, 13510, 14011, 14512, 17661, 18060, 18664, 18794, 18910, 20827, 20944, 21178, 24810, 28709, 31660]}, "edge": {"target": [], "time": []}}, "mouseout": {"state": {"target": ["12", "0", "23", "1", "2", "4", "6", "4", "5", "4", "18", "14", "19", "21", "20", "16", "20", "17", "15", "18", "1", "27", "29", "26", "27", "28", "25", "25", "24", "28", "24", "30", "33", "32", "31"], "time": [829, 1580, 2094, 2178, 2261, 2361, 3011, 3261, 5878, 5945, 6127, 6227, 6311, 7378, 7528, 10077, 10711, 11661, 11827, 11961, 13143, 13210, 13978, 14061, 17511, 17761, 18211, 18744, 18811, 20777, 20843, 21044, 24226, 27427, 30827]}, "edge": {"target": [], "time": []}}}, "displayed_time": "37.76", "trialTime": 39761, "trial_type": "mouselab-mdp", "trial_index": 31, "time_elapsed": 2555381, "internal_node_id": "0.0-6.0-1.0-10.0"}}, {"uniqueid": "w62606780:a23500955", "current_trial": 32, "dateTime": 1693567214470, "trialdata": {"revealed_states": [], "clicked_states": ["20", "5", "7"], "num_clicks_accrued": [0, 0, 0, 0, 0, 0, 0, 0, 0, 0, 0, 0, 0], "stateRewards": ["", -1, -3, -7, -4, -85, -70, 79, 8, 84, -66, 42, 2, -2, -3, -16, -54, -66, 68, -3, 21, -14, 7, -2, -1, -3, -8, 75, 80, 86, -7, -84, 73, -16], "withholdReward": false, "trial_id": "mdp_trial_12", "block": "test", "trialIndex": 17, "score": 57.55, "costs": -6.449999999999999, "simulationMode": [null, null, null, null, null], "rewards": [-1, -3, -7, -4, 79], "path": ["0", "0", "1", "2", "3", "4", "7"], "rt": [13708, 142, 206, 368, 95], "actions": ["up", "up", "up", "right", "down"], "actionTimes": [15182, 15818, 16531, 17402, 18005], "queries": {"click": {"state": {"target": ["20", "5", "7"], "time": [2896, 7555, 10744]}, "edge": {"target": [], "time": []}}, "mouseover": {"state": {"target": ["12", "13", "14", "20", "21", "23", "10", "8", "9", "5", "6", "18", "18", "7", "1", "24", "30", "33", "24"], "time": [1889, 1973, 2157, 2723, 3243, 6625, 6789, 6924, 6992, 7340, 7840, 7939, 8711, 9040, 11256, 11323, 11507, 11706, 14256]}, "edge": {"target": [], "time": []}}, "mouseout": {"state": {"target": ["22", "0", "12", "13", "14", "20", "21", "23", "10", "8", "9", "5", "6", "18", "18", "7", "1", "24", "30", "33", "24"], "time": [939, 1825, 1941, 2106, 2557, 3199, 3273, 6675, 6823, 6957, 7139, 7773, 7856, 7973, 8740, 11206, 11273, 11373, 11539, 14207, 14272]}, "edge": {"target": [], "time": []}}}, "displayed_time": "18.51", "trialTime": 19213, "trial_type": "mouselab-mdp", "trial_index": 32, "time_elapsed": 2574818, "internal_node_id": "0.0-6.0-1.0-11.0"}}, {"uniqueid": "w62606780:a23500955", "current_trial": 33, "dateTime": 1693567239967, "trialdata": {"revealed_states": [], "clicked_states": ["28", "18", "9", "20"], "num_clicks_accrued": [0, 0, 0, 0, 0, 0, 0, 0, 0, 0, 0, 0, 0], "stateRewards": ["", 2, -1, 5, 6, 10, 86, 55, 10, -45, 63, -71, 1, -2, 5, -8, -50, -72, 36, 15, 61, 12, 33, -1, -4, 6, 5, 79, -56, -21, -16, -87, 60, -81], "withholdReward": false, "trial_id": "mdp_trial_13", "block": "test", "trialIndex": 18, "score": 71.4, "costs": -8.6, "simulationMode": [null, null, null, null, null], "rewards": [1, -2, 5, 15, 61], "path": ["0", "0", "12", "13", "14", "19", "20"], "rt": [18505, 287, 214, 813, 302], "actions": ["right", "right", "right", "down", "right"], "actionTimes": [19896, 20692, 21417, 22733, 23539], "queries": {"click": {"state": {"target": ["28", "18", "9", "20"], "time": [2774, 5965, 10050, 14444]}, "edge": {"target": [], "time": []}}, "mouseover": {"state": {"target": ["1", "28", "24", "24", "28", "23", "23", "0", "12", "13", "18", "4", "9", "9", "2", "1", "15", "20", "21"], "time": [1920, 2151, 2284, 2517, 2600, 3134, 3968, 4017, 4050, 4100, 4201, 9517, 9634, 9884, 10435, 10501, 13950, 14170, 15084]}, "edge": {"target": [], "time": []}}, "mouseout": {"state": {"target": ["1", "1", "28", "24", "24", "28", "23", "23", "0", "12", "13", "18", "18", "4", "9", "9", "2", "1", "15", "20", "20", "21"], "time": [1001, 1969, 2234, 2401, 2567, 3084, 3317, 4000, 4034, 4067, 4134, 6339, 9467, 9534, 9717, 10334, 10467, 13617, 13967, 14491, 14767, 19050]}, "edge": {"target": [], "time": []}}}, "displayed_time": "24.05", "trialTime": 25268, "trial_type": "mouselab-mdp", "trial_index": 33, "time_elapsed": 2600313, "internal_node_id": "0.0-6.0-1.0-12.0"}}, {"uniqueid": "w62606780:a23500955", "current_trial": 34, "dateTime": 1693567256505, "trialdata": {"revealed_states": [], "clicked_states": ["32", "6"], "num_clicks_accrued": [0, 0, 0, 0, 0, 0, 0, 0, 0, 0, 0, 0, 0], "stateRewards": ["", -2, -1, -2, -15, 87, 57, 29, -10, 77, -80, -7, 1, -3, 6, 14, -11, 87, -59, 4, -71, 16, -11, 2, 2, -7, 2, -47, 61, 50, 14, -20, 17, 81], "withholdReward": false, "trial_id": "mdp_trial_14", "block": "test", "trialIndex": 19, "score": 32.7, "costs": -4.3, "simulationMode": [null, null, null, null, null], "rewards": [-2, -1, -2, -15, 57], "path": ["0", "0", "1", "2", "3", "4", "6"], "rt": [9955, 423, 212, 138, 285], "actions": ["up", "up", "up", "right", "right"], "actionTimes": [11240, 12169, 12890, 13550, 14346], "queries": {"click": {"state": {"target": ["32", "6"], "time": [2157, 6764]}, "edge": {"target": [], "time": []}}, "mouseover": {"state": {"target": ["32", "1", "2", "5", "4", "6", "7"], "time": [1996, 5827, 5846, 6044, 6243, 6610, 10310]}, "edge": {"target": [], "time": []}}, "mouseout": {"state": {"target": ["20", "13", "12", "0", "32", "1", "2", "5", "4", "6", "7"], "time": [612, 776, 809, 1576, 2222, 5844, 5860, 6209, 6527, 7026, 10327]}, "edge": {"target": [], "time": []}}}, "displayed_time": "15.29", "trialTime": 16318, "trial_type": "mouselab-mdp", "trial_index": 34, "time_elapsed": 2616852, "internal_node_id": "0.0-6.0-1.0-13.0"}}, {"uniqueid": "w62606780:a23500955", "current_trial": 35, "dateTime": 1693567283369, "trialdata": {"revealed_states": [], "clicked_states": ["17", "11", "9", "28", "29"], "num_clicks_accrued": [0, 0, 0, 0, 0, 0, 0, 0, 0, 0, 0, 0, 0], "stateRewards": ["", -2, -4, 6, 14, -34, 49, 36, -8, -3, 32, -4, 1, -2, 1, -8, -20, -71, -57, -7, -86, -62, -16, -2, -3, -5, 11, 23, -21, 53, 5, -5, 85, 73], "withholdReward": false, "trial_id": "mdp_trial_15", "block": "test", "trialIndex": 20, "score": 43.25, "costs": -10.75, "simulationMode": [null, null, null, null, null], "rewards": [-2, -3, -5, 11, 53], "path": ["0", "0", "23", "24", "25", "26", "29"], "rt": [19576, 170, 126, 215, 243], "actions": ["left", "left", "left", "up", "left"], "actionTimes": [23186, 23857, 24492, 25200, 25960], "queries": {"click": {"state": {"target": ["17", "11", "9", "28", "29"], "time": [4597, 8261, 11593, 15289, 18749]}, "edge": {"target": [], "time": []}}, "mouseover": {"state": {"target": ["12", "13", "14", "17", "18", "7", "3", "8", "11", "8", "9", "3", "10", "26", "28", "26", "27", "29", "27"], "time": [3834, 3866, 3898, 4399, 5382, 7866, 7900, 8032, 8165, 8537, 8765, 11899, 12065, 14916, 15132, 15648, 15981, 18599, 19181]}, "edge": {"target": [], "time": []}}, "mouseout": {"state": {"target": ["18", "12", "0", "12", "13", "14", "17", "18", "7", "3", "8", "11", "8", "9", "9", "3", "10", "26", "28", "26", "27", "29", "27"], "time": [981, 3248, 3765, 3864, 3881, 3948, 4865, 7832, 7887, 7982, 8083, 8312, 8582, 11654, 11848, 11965, 13982, 15101, 15598, 15882, 18448, 18981, 22132]}, "edge": {"target": [], "time": []}}}, "displayed_time": "26.47", "trialTime": 26637, "trial_type": "mouselab-mdp", "trial_index": 35, "time_elapsed": 2643716, "internal_node_id": "0.0-6.0-1.0-14.0"}}, {"uniqueid": "w62606780:a23500955", "current_trial": 36, "dateTime": 1693567305968, "trialdata": {"revealed_states": [], "clicked_states": ["30", "32", "31"], "num_clicks_accrued": [0, 0, 0, 0, 0, 0, 0, 0, 0, 0, 0, 0, 0], "stateRewards": ["", -2, 2, -4, -4, -59, 88, 62, -3, 69, -15, -34, 1, -2, -5, 7, -54, -20, 78, -16, -74, -53, -21, 2, -4, 2, 13, -8, -44, 26, 9, 72, 4, 17], "withholdReward": false, "trial_id": "mdp_trial_16", "block": "test", "trialIndex": 21, "score": 75.15, "costs": -5.85, "simulationMode": [null, null, null, null, null], "rewards": [2, -4, 2, 9, 72], "path": ["0", "0", "23", "24", "25", "30", "31"], "rt": [10119, 372, 196, 257, 223], "actions": ["left", "left", "left", "down", "right"], "actionTimes": [11729, 12625, 13323, 14102, 14817], "queries": {"click": {"state": {"target": ["30", "32", "31"], "time": [3168, 3851, 7352]}, "edge": {"target": [], "time": []}}, "mouseover": {"state": {"target": ["31", "32", "30", "32", "31", "33"], "time": [2075, 2491, 2974, 3641, 4441, 8758]}, "edge": {"target": [], "time": []}}, "mouseout": {"state": {"target": ["26", "23", "23", "0", "31", "32", "30", "32", "31", "33", "7", "4", "6", "7", "1", "0"], "time": [975, 1140, 1290, 1977, 2141, 2940, 3324, 3903, 7575, 10658, 16112, 16191, 16224, 20376, 20543, 20675]}, "edge": {"target": [], "time": []}}}, "displayed_time": "15.61", "trialTime": 22367, "trial_type": "mouselab-mdp", "trial_index": 36, "time_elapsed": 2666316, "internal_node_id": "0.0-6.0-1.0-15.0"}}, {"uniqueid": "w62606780:a23500955", "current_trial": 37, "dateTime": 1693567325124, "trialdata": {"revealed_states": [], "clicked_states": ["10", "6", "7"], "num_clicks_accrued": [0, 0, 0, 0, 0, 0, 0, 0, 0, 0, 0, 0, 0], "stateRewards": ["", -1, -2, 8, -6, -79, -6, 87, 9, -5, -66, -38, 2, 2, 5, -6, -82, 74, 85, -8, 67, -30, -15, 1, -2, -2, -2, 87, 64, 49, 7, 2, -38, -9], "withholdReward": false, "trial_id": "mdp_trial_17", "block": "test", "trialIndex": 22, "score": 79.55, "costs": -6.449999999999999, "simulationMode": [null, null, null, null, null], "rewards": [-1, -2, 8, -6, 87], "path": ["0", "0", "1", "2", "3", "4", "7"], "rt": [12883, 293, 173, 155, 218], "actions": ["up", "up", "up", "right", "down"], "actionTimes": [14649, 15442, 16123, 16772, 17502], "queries": {"click": {"state": {"target": ["10", "6", "7"], "time": [3573, 6741, 10085]}, "edge": {"target": [], "time": []}}, "mouseover": {"state": {"target": ["2", "3", "8", "10", "2", "4", "6", "7", "4"], "time": [2080, 2596, 3046, 3446, 4147, 4213, 4631, 7213, 10496]}, "edge": {"target": [], "time": []}}, "mouseout": {"state": {"target": ["2", "3", "8", "10", "2", "4", "6", "7", "4"], "time": [2096, 2980, 3396, 3864, 4163, 4479, 7079, 10412, 13464]}, "edge": {"target": [], "time": []}}}, "displayed_time": "18.02", "trialTime": 18945, "trial_type": "mouselab-mdp", "trial_index": 37, "time_elapsed": 2685471, "internal_node_id": "0.0-6.0-1.0-16.0"}}, {"uniqueid": "w62606780:a23500955", "current_trial": 38, "dateTime": 1693567347092, "trialdata": {"revealed_states": [], "clicked_states": ["17", "15", "14", "12", "13", "21"], "num_clicks_accrued": [0, 0, 0, 0, 0, 0, 0, 0, 0, 0, 0, 0, 0], "stateRewards": ["", -1, -3, 1, -4, -48, -63, -49, -2, -84, -19, 65, 2, -2, -2, -12, -4, 59, 9, 6, 75, 69, -13, -1, -3, -3, -2, -37, -68, -36, 13, 32, 18, -14], "withholdReward": false, "trial_id": "mdp_trial_18", "block": "test", "trialIndex": 23, "score": 66.1, "costs": -6.9, "simulationMode": [null, null, null, null, null], "rewards": [2, -2, -2, 6, 69], "path": ["0", "0", "12", "13", "14", "19", "21"], "rt": [16427, 131, 175, 473, 255], "actions": ["right", "right", "right", "down", "down"], "actionTimes": [17749, 18400, 19093, 20075, 20839], "queries": {"click": {"state": {"target": ["17", "15", "14", "12", "13", "21"], "time": [2380, 6776, 7754, 9072, 9960, 11033]}, "edge": {"target": [], "time": []}}, "mouseover": {"state": {"target": ["6", "16", "17", "15", "18", "14", "15", "14", "13", "12", "13", "19", "21", "22", "19", "19", "22", "19", "20", "19", "22", "19"], "time": [1933, 2015, 2250, 2832, 3066, 6165, 6533, 7132, 8515, 8766, 9784, 10517, 10716, 11449, 13015, 13300, 13415, 14049, 14131, 15766, 16183, 16632]}, "edge": {"target": [], "time": []}}, "mouseout": {"state": {"target": ["7", "1", "6", "16", "17", "15", "18", "14", "15", "14", "13", "12", "13", "19", "21", "22", "19", "19", "22", "19", "20", "19", "22", "19"], "time": [798, 881, 1982, 2066, 2749, 2918, 6065, 6398, 7016, 8382, 8632, 9649, 10415, 10665, 11086, 12974, 13115, 13365, 14000, 14082, 15716, 15964, 16582, 16685]}, "edge": {"target": [], "time": []}}}, "displayed_time": "21.34", "trialTime": 21751, "trial_type": "mouselab-mdp", "trial_index": 38, "time_elapsed": 2707440, "internal_node_id": "0.0-6.0-1.0-17.0"}}, {"uniqueid": "w62606780:a23500955", "current_trial": 39, "dateTime": 1693567381720, "trialdata": {"revealed_states": [], "clicked_states": ["27", "28", "32", "31", "33"], "num_clicks_accrued": [0, 0, 0, 0, 0, 0, 0, 0, 0, 0, 0, 0, 0], "stateRewards": ["", -1, 1, 8, -3, -24, 11, -65, -6, -77, 48, 44, -2, 1, -2, -7, -55, -35, 33, 8, -28, 19, -53, -1, -1, -5, -5, -70, 10, 44, 8, -58, -70, 51], "withholdReward": false, "trial_id": "mdp_trial_19", "block": "test", "trialIndex": 24, "score": 41.25, "costs": -10.75, "simulationMode": [null, null, null, null, null], "rewards": [-1, -1, -5, 8, 51], "path": ["0", "0", "23", "24", "25", "30", "33"], "rt": [25692, 233, 161, 210, 50], "actions": ["left", "left", "left", "down", "left"], "actionTimes": [29710, 30448, 31110, 31843, 32414], "queries": {"click": {"state": {"target": ["27", "28", "32", "31", "33"], "time": [5638, 8757, 13566, 16855, 20422]}, "edge": {"target": [], "time": []}}, "mouseover": {"state": {"target": ["1", "28", "24", "24", "27", "28", "29", "29", "25", "30", "32", "30", "31", "30", "33", "30", "22", "22", "13", "14", "13", "13", "14", "19", "22", "19"], "time": [4178, 4495, 4578, 5062, 5483, 6146, 9845, 12763, 13095, 13212, 13480, 13945, 14245, 17164, 17295, 20794, 21061, 21563, 23111, 23896, 25381, 25915, 26078, 26632, 27245, 27810]}, "edge": {"target": [], "time": []}}, "mouseout": {"state": {"target": ["0", "1", "28", "24", "24", "27", "28", "29", "29", "25", "30", "32", "30", "31", "30", "33", "30", "31", "22", "22", "13", "14", "13", "13", "14", "19", "22", "19"], "time": [3528, 4211, 4562, 4729, 5228, 5795, 9012, 12401, 12945, 13146, 13378, 13627, 14028, 17134, 17211, 20746, 20828, 20878, 21212, 21812, 23730, 24328, 25811, 26044, 26481, 27100, 27695, 28728]}, "edge": {"target": [], "time": []}}}, "displayed_time": "32.93", "trialTime": 34408, "trial_type": "mouselab-mdp", "trial_index": 39, "time_elapsed": 2742067, "internal_node_id": "0.0-6.0-1.0-18.0"}}, {"uniqueid": "w62606780:a23500955", "current_trial": 40, "dateTime": 1693567410818, "trialdata": {"revealed_states": [], "clicked_states": ["5", "20", "17", "16"], "num_clicks_accrued": [0, 0, 0, 0, 0, 0, 0, 0, 0, 0, 0, 0, 0], "stateRewards": ["", -2, -1, -5, 10, -36, -70, 68, -9, 86, 71, -10, 2, -4, 7, -7, 66, 44, -66, -13, -69, 43, 15, -2, 2, 6, -13, 62, 57, 50, -10, -69, 42, -72], "withholdReward": false, "trial_id": "mdp_trial_20", "block": "test", "trialIndex": 25, "score": 55.4, "costs": -8.6, "simulationMode": [null, null, null, null, null], "rewards": [2, -4, 7, -7, 66], "path": ["0", "0", "12", "13", "14", "15", "16"], "rt": [18724, 232, 132, 158, 97], "actions": ["right", "right", "right", "up", "up"], "actionTimes": [20080, 20832, 21485, 22157, 22762], "queries": {"click": {"state": {"target": ["5", "20", "17", "16"], "time": [2428, 7268, 11222, 15256]}, "edge": {"target": [], "time": []}}, "mouseover": {"state": {"target": ["1", "2", "9", "5", "7", "19", "19", "20", "19", "22", "14", "15", "17", "15", "18", "16", "18", "13", "13"], "time": [1533, 1584, 1767, 2115, 3048, 6031, 6214, 6876, 7614, 7697, 10664, 10764, 10930, 11614, 11831, 15081, 15714, 19097, 19481]}, "edge": {"target": [], "time": []}}, "mouseout": {"state": {"target": ["19", "14", "15", "16", "16", "18", "0", "0", "1", "2", "9", "5", "7", "19", "19", "20", "19", "22", "14", "15", "17", "15", "18", "16", "18", "13"], "time": [349, 483, 514, 548, 702, 764, 864, 1444, 1582, 1631, 2034, 2614, 5831, 6133, 6314, 7582, 7664, 10615, 10732, 10797, 11564, 11668, 14947, 15580, 18997, 19331]}, "edge": {"target": [], "time": []}}}, "displayed_time": "23.28", "trialTime": 28859, "trial_type": "mouselab-mdp", "trial_index": 40, "time_elapsed": 2771165, "internal_node_id": "0.0-6.0-1.0-19.0"}}, {"uniqueid": "w62606780:a23500955", "current_trial": 41, "dateTime": 1693567428447, "trialdata": {"revealed_states": [], "clicked_states": ["31"], "num_clicks_accrued": [0, 0, 0, 0, 0, 0, 0, 0, 0, 0, 0, 0, 0], "stateRewards": ["", -1, 3, 2, 9, 41, 4, -46, -12, -54, -87, -25, 2, 3, -1, 11, -77, 12, -33, -9, -32, 35, 72, 1, 3, -7, 4, 37, 65, -73, 6, 77, -43, 8], "withholdReward": false, "trial_id": "mdp_trial_21", "block": "test", "trialIndex": 26, "score": 77.85, "costs": -2.15, "simulationMode": [null, null, null, null, null], "rewards": [1, 3, -7, 6, 77], "path": ["0", "0", "23", "24", "25", "30", "31"], "rt": [7539, 274, 177, 157, 111], "actions": ["left", "left", "left", "down", "right"], "actionTimes": [9026, 9808, 10493, 11143, 11761], "queries": {"click": {"state": {"target": ["31"], "time": [4031]}, "edge": {"target": [], "time": []}}, "mouseover": {"state": {"target": ["23", "23", "24", "25", "26", "28", "31", "30", "31", "32", "32"], "time": [1815, 2048, 2416, 2631, 2897, 3115, 3564, 3680, 3848, 4531, 4631]}, "edge": {"target": [], "time": []}}, "mouseout": {"state": {"target": ["13", "12", "0", "23", "23", "24", "25", "26", "28", "31", "30", "31", "32"], "time": [765, 1064, 1495, 1864, 2348, 2539, 2881, 2914, 3150, 3581, 3713, 4331, 4564]}, "edge": {"target": [], "time": []}}}, "displayed_time": "15.49", "trialTime": 17389, "trial_type": "mouselab-mdp", "trial_index": 41, "time_elapsed": 2788794, "internal_node_id": "0.0-6.0-1.0-20.0"}}, {"uniqueid": "w62606780:a23500955", "current_trial": 42, "dateTime": 1693567451925, "trialdata": {"revealed_states": [], "clicked_states": ["5", "6", "7"], "num_clicks_accrued": [0, 0, 0, 0, 0, 0, 0, 0, 0, 0, 0, 0, 0], "stateRewards": ["", -2, 1, -7, 9, 8, 25, 61, -7, -17, 69, -81, 1, 4, -4, -11, 16, 67, 44, 3, 6, -45, -54, -2, 3, 6, -11, -15, 32, -47, 3, -39, -6, -88], "withholdReward": false, "trial_id": "mdp_trial_22", "block": "test", "trialIndex": 27, "score": 55.55, "costs": -6.449999999999999, "simulationMode": [null, null, null, null, null], "rewards": [-2, 1, -7, 9, 61], "path": ["0", "0", "1", "2", "3", "4", "7"], "rt": [17170, 36, 308, 195, 317], "actions": ["up", "up", "up", "right", "down"], "actionTimes": [18965, 19516, 20321, 21008, 21829], "queries": {"click": {"state": {"target": ["5", "6", "7"], "time": [3336, 11350, 14837]}, "edge": {"target": [], "time": []}}, "mouseover": {"state": {"target": ["1", "4", "5", "6", "6", "4", "3", "8", "9", "3", "7", "8", "9", "2"], "time": [2277, 2710, 2877, 3761, 10918, 11977, 12377, 12496, 12927, 13194, 13377, 15327, 15378, 18343]}, "edge": {"target": [], "time": []}}, "mouseout": {"state": {"target": ["32", "0", "1", "4", "5", "6", "6", "6", "4", "3", "8", "9", "3", "7", "8", "9"], "time": [844, 2244, 2294, 2727, 3628, 4328, 11596, 11927, 12060, 12463, 12827, 13129, 13227, 15177, 15343, 18161]}, "edge": {"target": [], "time": []}}}, "displayed_time": "22.33", "trialTime": 23232, "trial_type": "mouselab-mdp", "trial_index": 42, "time_elapsed": 2812272, "internal_node_id": "0.0-6.0-1.0-21.0"}}, {"uniqueid": "w62606780:a23500955", "current_trial": 43, "dateTime": 1693567469255, "trialdata": {"revealed_states": [], "clicked_states": ["32"], "num_clicks_accrued": [0, 0, 0, 0, 0, 0, 0, 0, 0, 0, 0, 0, 0], "stateRewards": ["", 1, 1, -3, 7, 49, 78, 26, -5, 26, 48, -43, -1, -3, 2, -5, 4, -1, -60, 10, -35, 51, 81, -2, 1, -7, -5, -39, -86, -54, 4, -3, 74, 77], "withholdReward": false, "trial_id": "mdp_trial_23", "block": "test", "trialIndex": 28, "score": 67.85, "costs": -2.15, "simulationMode": [null, null, null, null, null], "rewards": [-2, 1, -7, 4, 74], "path": ["0", "0", "23", "24", "25", "30", "32"], "rt": [6008, 855, 141, 218, 98], "actions": ["left", "left", "left", "down", "down"], "actionTimes": [7905, 9265, 9902, 10613, 11227], "queries": {"click": {"state": {"target": ["32"], "time": [2829]}, "edge": {"target": [], "time": []}}, "mouseover": {"state": {"target": ["0", "12", "32", "24", "31", "31", "30"], "time": [2108, 2141, 2657, 3425, 3774, 5027, 7144]}, "edge": {"target": [], "time": []}}, "mouseout": {"state": {"target": ["2", "1", "0", "0", "0", "12", "32", "24", "31", "31"], "time": [825, 891, 924, 1692, 2125, 2174, 2924, 3591, 4325, 6626]}, "edge": {"target": [], "time": []}}}, "displayed_time": "15.90", "trialTime": 17078, "trial_type": "mouselab-mdp", "trial_index": 43, "time_elapsed": 2829603, "internal_node_id": "0.0-6.0-1.0-22.0"}}, {"uniqueid": "w62606780:a23500955", "current_trial": 44, "dateTime": 1693567502608, "trialdata": {"revealed_states": [], "clicked_states": ["27", "9", "5", "18", "17", "21", "20"], "num_clicks_accrued": [0, 0, 0, 0, 0, 0, 0, 0, 0, 0, 0, 0, 0], "stateRewards": ["", 1, 2, -5, 14, 54, -14, -25, 16, -5, -87, 78, -1, 1, 3, -3, 52, 53, 53, -10, 73, -69, -48, 2, 3, 1, 8, -62, -7, 85, 7, 82, 52, -28], "withholdReward": false, "trial_id": "mdp_trial_24", "block": "test", "trialIndex": 29, "score": 50.95, "costs": -15.05, "simulationMode": [null, null, null, null, null], "rewards": [-1, 1, 3, -10, 73], "path": ["0", "0", "12", "13", "14", "19", "20"], "rt": [26968, 389, 250, 384, 209], "actions": ["right", "right", "right", "down", "right"], "actionTimes": [28350, 29256, 30001, 30901, 31627], "queries": {"click": {"state": {"target": ["27", "9", "5", "18", "17", "21", "20"], "time": [3190, 6853, 10087, 13870, 17291, 20659, 23889]}, "edge": {"target": [], "time": []}}, "mouseover": {"state": {"target": ["7", "3", "24", "31", "25", "26", "27", "29", "8", "9", "5", "6", "14", "18", "7", "18", "13", "21", "21", "22", "13", "18", "15", "17", "21", "20", "19", "22", "22"], "time": [2315, 2416, 2532, 2582, 2782, 2898, 2981, 3799, 6432, 6748, 7165, 10482, 10682, 10932, 11165, 12748, 12767, 12815, 13054, 13315, 13449, 13732, 15731, 15948, 18415, 21448, 24133, 24352, 24848]}, "edge": {"target": [], "time": []}}, "mouseout": {"state": {"target": ["30", "0", "7", "3", "24", "31", "25", "26", "27", "27", "29", "8", "9", "5", "6", "14", "18", "7", "18", "13", "21", "21", "22", "13", "18", "15", "17", "21", "20", "19", "22"], "time": [502, 1817, 2351, 2470, 2548, 2753, 2867, 2966, 3236, 3516, 6367, 6448, 7082, 10371, 10498, 10899, 10965, 12682, 12765, 12782, 12833, 13134, 13382, 13582, 15681, 15881, 17948, 21231, 24131, 24182, 24597]}, "edge": {"target": [], "time": []}}}, "displayed_time": "32.13", "trialTime": 33071, "trial_type": "mouselab-mdp", "trial_index": 44, "time_elapsed": 2862955, "internal_node_id": "0.0-6.0-1.0-23.0"}}, {"uniqueid": "w62606780:a23500955", "current_trial": 45, "dateTime": 1693567523902, "trialdata": {"revealed_states": [], "clicked_states": ["9", "5", "7", "10"], "num_clicks_accrued": [0, 0, 0, 0, 0, 0, 0, 0, 0, 0, 0, 0, 0], "stateRewards": ["", 1, 2, 3, 16, 63, -25, 16, -4, -14, 82, -66, -1, -3, -3, -11, -14, 19, 46, 3, -34, -82, 66, -2, -3, 4, -5, -63, 77, -37, -1, -45, -41, 84], "withholdReward": false, "trial_id": "mdp_trial_25", "block": "test", "trialIndex": 30, "score": 75.4, "costs": -8.6, "simulationMode": [null, null, null, null, null], "rewards": [1, 2, 3, -4, 82], "path": ["0", "0", "1", "2", "3", "8", "10"], "rt": [14997, 163, 188, 28, 244], "actions": ["up", "up", "up", "left", "down"], "actionTimes": [16618, 17272, 17964, 18504, 19270], "queries": {"click": {"state": {"target": ["9", "5", "7", "10"], "time": [2452, 5614, 8884, 12285]}, "edge": {"target": [], "time": []}}, "mouseover": {"state": {"target": ["10", "8", "9", "2", "1", "2", "3", "5", "4", "7", "2", "10", "27"], "time": [2026, 2107, 2307, 2858, 2962, 3458, 3724, 4591, 5957, 6057, 9624, 9957, 13341]}, "edge": {"target": [], "time": []}}, "mouseout": {"state": {"target": ["22", "12", "0", "10", "8", "9", "2", "1", "2", "3", "5", "4", "7", "2", "10", "27"], "time": [790, 923, 1858, 2074, 2242, 2708, 2891, 3291, 3591, 3741, 5908, 6007, 9557, 9691, 13081, 15723]}, "edge": {"target": [], "time": []}}}, "displayed_time": "19.78", "trialTime": 21044, "trial_type": "mouselab-mdp", "trial_index": 45, "time_elapsed": 2884250, "internal_node_id": "0.0-6.0-1.0-24.0"}}, {"uniqueid": "w62606780:a23500955", "current_trial": 46, "dateTime": 1693567572703, "trialdata": {"revealed_states": [], "clicked_states": ["17", "16", "5", "7", "33", "31", "32", "21", "20", "22", "28", "29"], "num_clicks_accrued": [0, 0, 0, 0, 0, 0, 0, 0, 0, 0, 0, 0, 0], "stateRewards": ["", 2, -3, -4, -1, 25, -16, 16, 10, -71, -20, -55, 1, 3, -4, -9, 1, 32, 11, -6, 32, -50, -41, -1, 4, 4, -8, 7, -81, 70, 2, -52, 45, -10], "withholdReward": false, "trial_id": "mdp_trial_26", "block": "test", "trialIndex": 31, "score": 43.2, "costs": -25.799999999999994, "simulationMode": [null, null, null, null, null], "rewards": [-1, 4, 4, -8, 70], "path": ["0", "0", "23", "24", "25", "26", "29"], "rt": [43197, 367, 177, 84, 359], "actions": ["left", "left", "left", "up", "left"], "actionTimes": [44457, 45330, 46009, 46613, 47488], "queries": {"click": {"state": {"target": ["17", "16", "5", "7", "33", "31", "32", "21", "20", "22", "28", "29"], "time": [2112, 6164, 10372, 13695, 16895, 20046, 23164, 26574, 29873, 33166, 36885, 40192]}, "edge": {"target": [], "time": []}}, "mouseover": {"state": {"target": ["1", "17", "15", "18", "23", "24", "28", "18", "16", "15", "14", "18", "4", "5", "5", "7", "2", "25", "33", "30", "31", "31", "32", "21", "20", "19", "22", "13", "18", "1", "28", "26", "29", "29", "27", "26", "25"], "time": [1396, 1779, 2362, 2462, 2645, 2728, 5362, 5745, 5930, 6562, 6629, 7095, 9962, 9995, 10228, 11895, 14061, 14178, 14544, 17411, 17445, 17778, 20361, 23778, 27161, 30228, 30367, 34427, 34760, 36443, 36760, 37344, 37394, 37733, 40677, 43493, 43512]}, "edge": {"target": [], "time": []}}, "mouseout": {"state": {"target": ["10", "2", "1", "1", "17", "15", "18", "23", "24", "28", "18", "16", "15", "14", "18", "4", "5", "5", "5", "7", "2", "25", "33", "30", "31", "31", "32", "21", "20", "19", "22", "13", "18", "1", "28", "26", "29", "29", "27", "26", "25"], "time": [749, 779, 861, 1480, 2329, 2412, 2512, 2696, 2829, 5396, 5829, 6512, 6596, 6829, 9912, 9979, 10062, 10440, 10795, 14011, 14095, 14362, 17378, 17428, 17462, 20312, 23612, 26994, 30178, 30311, 34377, 34494, 36413, 36460, 37294, 37377, 37416, 40282, 43478, 43510, 43527]}, "edge": {"target": [], "time": []}}}, "displayed_time": "47.98", "trialTime": 48549, "trial_type": "mouselab-mdp", "trial_index": 46, "time_elapsed": 2933050, "internal_node_id": "0.0-6.0-1.0-25.0"}}, {"uniqueid": "w62606780:a23500955", "current_trial": 47, "dateTime": 1693567605547, "trialdata": {"revealed_states": [], "clicked_states": ["10", "28", "18", "17", "16", "32", "31", "33"], "num_clicks_accrued": [0, 0, 0, 0, 0, 0, 0, 0, 0, 0, 0, 0, 0], "stateRewards": ["", 2, -1, -3, 16, -3, -16, -62, -1, 13, -26, 43, -1, 4, 3, -9, -54, -37, -3, -12, -71, -68, -57, 1, -3, 2, -9, 2, -2, -9, -11, 84, -52, 55], "withholdReward": false, "trial_id": "mdp_trial_27", "block": "test", "trialIndex": 32, "score": 55.8, "costs": -17.2, "simulationMode": [null, null, null, null, null], "rewards": [1, -3, 2, -11, 84], "path": ["0", "0", "23", "24", "25", "30", "31"], "rt": [26578, 225, 277, 220, 103], "actions": ["left", "left", "left", "down", "right"], "actionTimes": [28617, 29337, 30106, 30834, 31448], "queries": {"click": {"state": {"target": ["10", "28", "18", "17", "16", "32", "31", "33"], "time": [2926, 6038, 9961, 13121, 16393, 19538, 22894, 25719]}, "edge": {"target": [], "time": []}}, "mouseover": {"state": {"target": ["3", "10", "28", "25", "28", "26", "18", "15", "17", "16", "15", "14", "19", "32", "31", "30", "33", "30"], "time": [2628, 2761, 3344, 3394, 3661, 8411, 9813, 10393, 10627, 14477, 16777, 16811, 16845, 17344, 20210, 23193, 23259, 26827]}, "edge": {"target": [], "time": []}}, "mouseout": {"state": {"target": ["23", "0", "3", "10", "28", "25", "28", "26", "18", "15", "17", "16", "15", "14", "19", "32", "31", "30", "33", "30"], "time": [1560, 1644, 2644, 3277, 3361, 3594, 8277, 8444, 10360, 10443, 13560, 16745, 16810, 16843, 16860, 20009, 23159, 23226, 26793, 26977]}, "edge": {"target": [], "time": []}}}, "displayed_time": "31.95", "trialTime": 32594, "trial_type": "mouselab-mdp", "trial_index": 47, "time_elapsed": 2965893, "internal_node_id": "0.0-6.0-1.0-26.0"}}, {"uniqueid": "w62606780:a23500955", "current_trial": 48, "dateTime": 1693567622224, "trialdata": {"revealed_states": [], "clicked_states": ["22", "20"], "num_clicks_accrued": [0, 0, 0, 0, 0, 0, 0, 0, 0, 0, 0, 0, 0], "stateRewards": ["", 1, 4, -8, -13, -13, -87, -77, -10, -44, 54, 42, 2, -3, -4, 12, -9, -80, 52, 9, 84, -2, -65, 1, -4, -5, -6, 8, 80, 32, 13, -59, -5, -13], "withholdReward": false, "trial_id": "mdp_trial_28", "block": "test", "trialIndex": 33, "score": 83.7, "costs": -4.3, "simulationMode": [null, null, null, null, null], "rewards": [2, -3, -4, 9, 84], "path": ["0", "0", "12", "13", "14", "19", "20"], "rt": [9227, 149, 146, 185, 95], "actions": ["right", "right", "right", "down", "right"], "actionTimes": [10591, 11261, 11920, 12610, 13202], "queries": {"click": {"state": {"target": ["22", "20"], "time": [3361, 6445]}, "edge": {"target": [], "time": []}}, "mouseover": {"state": {"target": ["23", "28", "0", "12", "13", "14", "19", "22", "19", "20", "21"], "time": [1555, 1655, 2088, 2172, 2204, 2438, 3104, 3322, 3671, 3871, 7088]}, "edge": {"target": [], "time": []}}, "mouseout": {"state": {"target": ["31", "0", "23", "28", "0", "12", "13", "14", "19", "22", "22", "19", "20"], "time": [740, 805, 1588, 1722, 2157, 2188, 2238, 2971, 3188, 3419, 3621, 3822, 6838]}, "edge": {"target": [], "time": []}}}, "displayed_time": "15.37", "trialTime": 16417, "trial_type": "mouselab-mdp", "trial_index": 48, "time_elapsed": 2982571, "internal_node_id": "0.0-6.0-1.0-27.0"}}, {"uniqueid": "w62606780:a23500955", "current_trial": 49, "dateTime": 1693567669206, "trialdata": {"revealed_states": [], "clicked_states": ["32", "5", "9", "11", "10", "7", "17", "18", "16", "22", "20"], "num_clicks_accrued": [0, 0, 0, 0, 0, 0, 0, 0, 0, 0, 0, 0, 0], "stateRewards": ["", -1, -4, -1, -5, -28, -23, -15, -15, -38, 59, -87, 2, 2, -5, 9, -55, -39, -71, -6, 85, -85, -11, -1, -2, 5, -10, 1, 25, 41, -4, 69, -35, 86], "withholdReward": false, "trial_id": "mdp_trial_29", "block": "test", "trialIndex": 34, "score": 54.35000000000001, "costs": -23.649999999999995, "simulationMode": [null, null, null, null, null], "rewards": [2, 2, -5, -6, 85], "path": ["0", "0", "12", "13", "14", "19", "20"], "rt": [41104, 334, 205, 37, 115], "actions": ["right", "right", "right", "down", "right"], "actionTimes": [42845, 43684, 44388, 44937, 45566], "queries": {"click": {"state": {"target": ["32", "5", "9", "11", "10", "7", "17", "18", "16", "22", "20"], "time": [2787, 7485, 11389, 15328, 18522, 21934, 25410, 28722, 32007, 35173, 38519]}, "edge": {"target": [], "time": []}}, "mouseover": {"state": {"target": ["24", "32", "23", "23", "31", "30", "25", "26", "11", "8", "5", "3", "10", "28", "24", "25", "26", "27", "9", "11", "26", "25", "30", "32", "11", "10", "7", "18", "13", "14", "17", "17", "14", "13", "12", "18", "16", "15", "14", "19", "21", "22", "19", "20", "20", "21"], "time": [2270, 2417, 3415, 5661, 6366, 6565, 6715, 6832, 6966, 7015, 7316, 7882, 7915, 7965, 7999, 10731, 10782, 10815, 11204, 11832, 12065, 12265, 12332, 13015, 14983, 15882, 19465, 22449, 22515, 24086, 24232, 25265, 25949, 26165, 26232, 26565, 29198, 32348, 32400, 32448, 32632, 33265, 35799, 35882, 36498, 38865]}, "edge": {"target": [], "time": []}}, "mouseout": {"state": {"target": ["21", "19", "13", "12", "24", "32", "23", "23", "31", "30", "25", "26", "11", "8", "5", "3", "10", "28", "24", "25", "26", "27", "9", "11", "26", "25", "30", "32", "11", "10", "7", "18", "13", "14", "17", "17", "14", "13", "12", "18", "16", "15", "14", "19", "21", "22", "19", "20", "20", "21"], "time": [981, 1048, 1149, 1165, 2289, 3115, 3465, 6233, 6450, 6598, 6816, 6883, 6982, 7048, 7816, 7899, 7932, 7982, 8015, 10766, 10798, 10849, 11756, 11848, 12165, 12298, 12382, 14585, 15782, 18981, 22348, 22482, 22532, 24148, 24415, 25799, 25982, 26198, 26249, 29032, 32315, 32382, 32415, 32532, 33198, 35748, 35848, 36082, 38815, 41964]}, "edge": {"target": [], "time": []}}}, "displayed_time": "46.07", "trialTime": 46728, "trial_type": "mouselab-mdp", "trial_index": 49, "time_elapsed": 3029553, "internal_node_id": "0.0-6.0-1.0-28.0"}}, {"uniqueid": "w62606780:a23500955", "current_trial": 50, "dateTime": 1693567727613, "trialdata": {"revealed_states": [], "clicked_states": ["7", "32", "27", "29", "28", "33", "31", "17", "11", "6", "10", "5", "21"], "num_clicks_accrued": [0, 0, 0, 0, 0, 0, 0, 0, 0, 0, 0, 0, 0], "stateRewards": ["", 1, -1, -7, -7, -22, 15, -13, 13, 26, -32, 38, -1, 1, -7, -4, 16, -62, 86, 12, -54, 56, 64, -2, -1, 6, 14, -57, 37, 62, -6, -25, 50, -70], "withholdReward": false, "trial_id": "mdp_trial_30", "block": "test", "trialIndex": 35, "score": 51.05000000000001, "costs": -27.949999999999992, "simulationMode": [null, null, null, null, null], "rewards": [-2, -1, 6, 14, 62], "path": ["0", "0", "23", "24", "25", "26", "29"], "rt": [50766, 35, 527, 1301, 354], "actions": ["left", "left", "left", "up", "left"], "actionTimes": [52379, 52913, 53972, 55763, 56618], "queries": {"click": {"state": {"target": ["7", "32", "27", "29", "28", "33", "31", "17", "11", "6", "10", "5", "21"], "time": [3222, 6611, 10622, 14267, 18302, 21760, 25358, 29255, 32433, 36279, 39659, 43057, 46680]}, "edge": {"target": [], "time": []}}, "mouseover": {"state": {"target": ["1", "2", "1", "7", "24", "31", "30", "32", "32", "30", "33", "27", "33", "29", "33", "25", "28", "25", "33", "30", "31", "14", "17", "14", "13", "8", "11", "8", "3", "4", "6", "4", "3", "10", "3", "5", "4", "7", "12", "22", "19", "21", "20"], "time": [2096, 2146, 2565, 2929, 3804, 4196, 5845, 6128, 6353, 10047, 10195, 10428, 11215, 14128, 14778, 17863, 18012, 18745, 19712, 22244, 22478, 28696, 29128, 29727, 29794, 30427, 30677, 33744, 35877, 36027, 36095, 36610, 38444, 38627, 40094, 40444, 43428, 43777, 43910, 44094, 44161, 44344, 47127]}, "edge": {"target": [], "time": []}}, "mouseout": {"state": {"target": ["19", "13", "0", "1", "2", "1", "7", "24", "31", "30", "32", "32", "30", "33", "27", "27", "33", "29", "33", "25", "28", "25", "33", "30", "31", "31", "14", "17", "14", "13", "8", "11", "8", "3", "4", "6", "6", "4", "3", "10", "3", "5", "4", "7", "12", "22", "19", "21", "20"], "time": [779, 833, 2049, 2112, 2297, 2866, 3496, 3829, 5829, 5862, 6213, 7045, 10061, 10262, 10685, 10946, 13883, 14512, 17812, 17895, 18611, 18878, 21850, 22329, 25427, 25678, 28710, 29628, 29744, 30028, 30444, 33660, 35846, 35979, 36060, 36338, 36563, 36660, 38527, 39723, 40146, 43377, 43477, 43810, 44027, 44127, 44178, 47014, 51711]}, "edge": {"target": [], "time": []}}}, "displayed_time": "57.12", "trialTime": 58148, "trial_type": "mouselab-mdp", "trial_index": 50, "time_elapsed": 3087960, "internal_node_id": "0.0-6.0-1.0-29.0"}}, {"uniqueid": "w62606780:a23500955", "current_trial": 51, "dateTime": 1693567770079, "trialdata": {"revealed_states": [], "clicked_states": ["21", "22", "20", "17", "18", "16", "5", "6", "7", "11"], "num_clicks_accrued": [0, 0, 0, 0, 0, 0, 0, 0, 0, 0, 0, 0, 0], "stateRewards": ["", 2, 3, -3, 4, 72, -28, 34, -12, 57, -64, -15, 2, 1, -4, -15, 2, 49, 31, -1, -42, -58, 31, -2, 1, -2, -13, -75, -19, -22, -6, 61, 10, -56], "withholdReward": false, "trial_id": "mdp_trial_31", "block": "test", "trialIndex": 36, "score": 56.5, "costs": -21.499999999999996, "simulationMode": [null, null, null, null, null], "rewards": [2, 3, -3, 4, 72], "path": ["0", "0", "1", "2", "3", "4", "5"], "rt": [35031, 199, 259, 57, 136], "actions": ["up", "up", "up", "right", "up"], "actionTimes": [38559, 39254, 40013, 40560, 41206], "queries": {"click": {"state": {"target": ["21", "22", "20", "17", "18", "16", "5", "6", "7", "11"], "time": [4237, 7463, 10864, 13972, 17231, 20783, 24025, 27552, 30929, 34640]}, "edge": {"target": [], "time": []}}, "mouseover": {"state": {"target": ["0", "12", "13", "14", "19", "21", "22", "19", "20", "15", "17", "15", "18", "16", "4", "5", "6", "7", "2", "10", "27", "27", "11", "9", "5", "6", "16"], "time": [3538, 3836, 3869, 3903, 4003, 4069, 5153, 7808, 8016, 11436, 12170, 14320, 14461, 17719, 21276, 21469, 24452, 27986, 31252, 31318, 31519, 31935, 32436, 35051, 37731, 37768, 37801]}, "edge": {"target": [], "time": []}}, "mouseout": {"state": {"target": ["19", "14", "13", "0", "0", "12", "13", "14", "19", "21", "22", "22", "19", "20", "15", "17", "15", "18", "16", "4", "5", "6", "7", "2", "10", "27", "27", "11", "9", "5", "6", "16"], "time": [1593, 1853, 1921, 3352, 3819, 3853, 3886, 3953, 4036, 4670, 7508, 7753, 7853, 11203, 11570, 14253, 14419, 17455, 21186, 21302, 24386, 27888, 31235, 31285, 31355, 31602, 32319, 34733, 35068, 37750, 37784, 37834]}, "edge": {"target": [], "time": []}}}, "displayed_time": "41.70", "trialTime": 42194, "trial_type": "mouselab-mdp", "trial_index": 51, "time_elapsed": 3130426, "internal_node_id": "0.0-6.0-1.0-30.0"}}, {"uniqueid": "w62606780:a23500955", "current_trial": 52, "dateTime": 1693567790128, "trialdata": {"revealed_states": [], "clicked_states": ["31", "10", "29"], "num_clicks_accrued": [0, 0, 0, 0, 0, 0, 0, 0, 0, 0, 0, 0, 0], "stateRewards": ["", 1, 2, -8, 9, 18, -83, -11, 6, -64, -48, 17, -2, -2, -5, -3, -24, -3, -86, -2, 48, -41, -22, -2, 4, 7, 8, 81, 13, -48, 10, 61, 19, 57], "withholdReward": false, "trial_id": "mdp_trial_32", "block": "test", "trialIndex": 37, "score": 73.55, "costs": -6.449999999999999, "simulationMode": [null, null, null, null, null], "rewards": [-2, 4, 7, 10, 61], "path": ["0", "0", "23", "24", "25", "30", "31"], "rt": [13518, 127, 237, 213, 113], "actions": ["left", "left", "left", "down", "right"], "actionTimes": [15934, 16574, 17327, 18054, 18691], "queries": {"click": {"state": {"target": ["31", "10", "29"], "time": [3609, 8203, 12226]}, "edge": {"target": [], "time": []}}, "mouseover": {"state": {"target": ["23", "24", "25", "30", "31", "30", "30", "0", "12", "0", "1", "2", "8", "10", "2", "1", "28", "26", "29", "25", "33"], "time": [2626, 2659, 3005, 3221, 3422, 4088, 4938, 5038, 5221, 7071, 7121, 7187, 7392, 7823, 8555, 11659, 11871, 11972, 12088, 12671, 12904]}, "edge": {"target": [], "time": []}}, "mouseout": {"state": {"target": ["0", "23", "24", "25", "30", "31", "30", "30", "0", "12", "0", "1", "2", "8", "10", "2", "1", "28", "26", "29", "25"], "time": [2573, 2648, 2704, 3188, 3356, 3954, 4104, 4971, 5104, 5638, 7087, 7171, 7271, 7606, 8504, 8571, 11680, 11938, 12037, 12555, 12787]}, "edge": {"target": [], "time": []}}}, "displayed_time": "19.21", "trialTime": 19795, "trial_type": "mouselab-mdp", "trial_index": 52, "time_elapsed": 3150475, "internal_node_id": "0.0-6.0-1.0-31.0"}}, {"uniqueid": "w62606780:a23500955", "current_trial": 53, "dateTime": 1693567810543, "trialdata": {"revealed_states": [], "clicked_states": ["21", "31", "7"], "num_clicks_accrued": [0, 0, 0, 0, 0, 0, 0, 0, 0, 0, 0, 0, 0], "stateRewards": ["", -2, -3, 8, -4, -30, 31, 69, 9, 66, 87, 64, -2, 2, 8, 5, 47, 16, -39, -8, -54, 51, -19, 1, -2, -2, -11, -25, -26, 43, -9, 19, -84, 86], "withholdReward": false, "trial_id": "mdp_trial_33", "block": "test", "trialIndex": 38, "score": 61.55, "costs": -6.449999999999999, "simulationMode": [null, null, null, null, null], "rewards": [-2, -3, 8, -4, 69], "path": ["0", "0", "1", "2", "3", "4", "7"], "rt": [14321, 199, 136, 203, 77], "actions": ["up", "up", "up", "right", "down"], "actionTimes": [16336, 17041, 17693, 18410, 19003], "queries": {"click": {"state": {"target": ["21", "31", "7"], "time": [3354, 7772, 11833]}, "edge": {"target": [], "time": []}}, "mouseover": {"state": {"target": ["12", "13", "14", "19", "21", "31", "30", "30", "24", "31", "30", "24", "1", "7", "1", "1"], "time": [2607, 2757, 2890, 2973, 3239, 3973, 4056, 6857, 7189, 7606, 8180, 11239, 11339, 11641, 12589, 15191]}, "edge": {"target": [], "time": []}}, "mouseout": {"state": {"target": ["33", "30", "31", "0", "12", "13", "14", "19", "21", "31", "30", "30", "24", "31", "30", "24", "1", "7", "7", "1", "1"], "time": [1240, 1291, 1389, 2561, 2706, 2823, 2923, 3089, 3397, 4023, 4156, 7007, 7523, 8107, 11173, 11261, 11379, 11910, 12272, 14709, 15206]}, "edge": {"target": [], "time": []}}}, "displayed_time": "19.52", "trialTime": 20145, "trial_type": "mouselab-mdp", "trial_index": 53, "time_elapsed": 3170890, "internal_node_id": "0.0-6.0-1.0-32.0"}}, {"uniqueid": "w62606780:a23500955", "current_trial": 54, "dateTime": 1693567826977, "trialdata": {"revealed_states": [], "clicked_states": ["6"], "num_clicks_accrued": [0, 0, 0, 0, 0, 0, 0, 0, 0, 0, 0, 0, 0], "stateRewards": ["", -1, 2, 7, 8, 75, 67, -11, 6, 52, -17, 38, -1, 4, -8, 14, 74, -37, -17, -12, 52, 55, 71, -2, -1, -5, 2, 21, 6, -88, -14, 64, -61, -47], "withholdReward": false, "trial_id": "mdp_trial_34", "block": "test", "trialIndex": 39, "score": 80.85, "costs": -2.15, "simulationMode": [null, null, null, null, null], "rewards": [-1, 2, 7, 8, 67], "path": ["0", "0", "1", "2", "3", "4", "6"], "rt": [5917, 196, 534, 126, 154], "actions": ["up", "up", "up", "right", "right"], "actionTimes": [7072, 7773, 8827, 9468, 10130], "queries": {"click": {"state": {"target": ["6"], "time": [2596]}, "edge": {"target": [], "time": []}}, "mouseover": {"state": {"target": ["4", "6", "4", "3", "10", "11", "28"], "time": [1824, 2228, 2840, 2890, 3223, 4574, 6240]}, "edge": {"target": [], "time": []}}, "mouseout": {"state": {"target": ["0", "4", "6", "4", "3", "10", "11", "28"], "time": [1695, 1841, 2807, 2873, 2907, 4408, 5690, 6274]}, "edge": {"target": [], "time": []}}}, "displayed_time": "15.16", "trialTime": 16164, "trial_type": "mouselab-mdp", "trial_index": 54, "time_elapsed": 3187324, "internal_node_id": "0.0-6.0-1.0-33.0"}}, {"uniqueid": "w62606780:a23500955", "current_trial": 55, "dateTime": 1693567853713, "trialdata": {"revealed_states": [], "clicked_states": ["28", "5", "33", "17", "18"], "num_clicks_accrued": [0, 0, 0, 0, 0, 0, 0, 0, 0, 0, 0, 0, 0], "stateRewards": ["", -1, 4, -5, 9, 29, -75, -42, -16, 24, -28, -41, 2, -3, 1, 10, 60, 47, 55, -1, -53, 22, -40, 2, -3, -6, 4, -26, 44, 54, 15, -76, 42, 14], "withholdReward": false, "trial_id": "mdp_trial_35", "block": "test", "trialIndex": 40, "score": 54.25, "costs": -10.75, "simulationMode": [null, null, null, null, null], "rewards": [2, -3, 1, 10, 55], "path": ["0", "0", "12", "13", "14", "15", "18"], "rt": [20615, 272, 203, 146, 229], "actions": ["right", "right", "right", "up", "left"], "actionTimes": [22441, 23207, 23920, 24579, 25312], "queries": {"click": {"state": {"target": ["28", "5", "33", "17", "18"], "time": [2657, 6719, 10704, 14775, 18248]}, "edge": {"target": [], "time": []}}, "mouseover": {"state": {"target": ["28", "26", "28", "24", "8", "5", "3", "10", "24", "31", "32", "33", "30", "31", "14", "17", "17", "15", "18", "15", "15"], "time": [2065, 2232, 2481, 3081, 6316, 6532, 6997, 7065, 7381, 7581, 7884, 8364, 11280, 14002, 14313, 14402, 14680, 15147, 15280, 20373, 21730]}, "edge": {"target": [], "time": []}}, "mouseout": {"state": {"target": ["1", "0", "28", "26", "28", "28", "24", "28", "8", "5", "5", "3", "10", "28", "24", "31", "32", "33", "30", "31", "14", "17", "17", "15", "18", "15", "17", "15"], "time": [1382, 1914, 2114, 2432, 2707, 3031, 6101, 6231, 6332, 6771, 6956, 7030, 7097, 7315, 7504, 7598, 8247, 11231, 11430, 14047, 14330, 14430, 15030, 15163, 20353, 20397, 21647, 21930]}, "edge": {"target": [], "time": []}}}, "displayed_time": "25.84", "trialTime": 26442, "trial_type": "mouselab-mdp", "trial_index": 55, "time_elapsed": 3214060, "internal_node_id": "0.0-6.0-1.0-34.0"}}, {"uniqueid": "w62606780:a23500955", "current_trial": 56, "dateTime": 1693567870161, "trialdata": {"revealed_states": [], "clicked_states": ["28", "11"], "num_clicks_accrued": [0, 0, 0, 0, 0, 0, 0, 0, 0, 0, 0, 0, 0], "stateRewards": ["", -2, 2, 5, -14, -56, 64, 84, -5, 52, 39, 85, -2, 1, 7, 8, 21, 29, -78, -9, -10, -69, 10, -2, -1, -7, 15, 72, 20, 41, -2, 52, 80, 22], "withholdReward": false, "trial_id": "mdp_trial_36", "block": "test", "trialIndex": 41, "score": 80.7, "costs": -4.3, "simulationMode": [null, null, null, null, null], "rewards": [-2, 2, 5, -5, 85], "path": ["0", "0", "1", "2", "3", "8", "11"], "rt": [8018, 105, 104, 71, 125], "actions": ["up", "up", "up", "left", "left"], "actionTimes": [9740, 10343, 10960, 11542, 12179], "queries": {"click": {"state": {"target": ["28", "11"], "time": [2347, 5592]}, "edge": {"target": [], "time": []}}, "mouseover": {"state": {"target": ["28", "26", "26", "11", "8", "4", "6"], "time": [1923, 2629, 3485, 3954, 5991, 6134, 6374]}, "edge": {"target": [], "time": []}}, "mouseout": {"state": {"target": ["0", "0", "28", "26", "26", "11", "8", "4", "6"], "time": [1085, 1807, 2591, 2685, 3519, 5952, 6020, 6184, 8984]}, "edge": {"target": [], "time": []}}}, "displayed_time": "15.72", "trialTime": 16163, "trial_type": "mouselab-mdp", "trial_index": 56, "time_elapsed": 3230508, "internal_node_id": "0.0-6.0-1.0-35.0"}}, {"uniqueid": "w62606780:a23500955", "current_trial": 57, "dateTime": 1693567886894, "trialdata": {"revealed_states": [], "clicked_states": ["32"], "num_clicks_accrued": [0, 0, 0, 0, 0, 0, 0, 0, 0, 0, 0, 0, 0], "stateRewards": ["", 1, 1, 6, -14, -40, 37, 16, -13, 33, -68, 49, 2, 4, 3, 6, 55, 27, 32, 10, -65, 20, -87, 2, 1, -6, -5, -42, 12, 29, -8, 16, 76, -33], "withholdReward": false, "trial_id": "mdp_trial_37", "block": "test", "trialIndex": 42, "score": 62.85, "costs": -2.15, "simulationMode": [null, null, null, null, null], "rewards": [2, 1, -6, -8, 76], "path": ["0", "0", "23", "24", "25", "30", "32"], "rt": [6757, 174, 186, 197, 178], "actions": ["left", "left", "left", "down", "down"], "actionTimes": [8630, 9320, 10017, 10725, 11407], "queries": {"click": {"state": {"target": ["32"], "time": [4374]}, "edge": {"target": [], "time": []}}, "mouseover": {"state": {"target": ["1", "2", "1", "0", "32", "31", "30", "32", "31", "22", "19", "20", "19"], "time": [2144, 2175, 2425, 2458, 2793, 3809, 4192, 4275, 4859, 5392, 5775, 6042, 8008]}, "edge": {"target": [], "time": []}}, "mouseout": {"state": {"target": ["18", "1", "2", "1", "0", "32", "31", "30", "32", "31", "22", "19", "20"], "time": [1346, 2159, 2226, 2442, 2475, 3542, 4043, 4209, 4432, 4894, 5475, 5992, 7992]}, "edge": {"target": [], "time": []}}}, "displayed_time": "15.87", "trialTime": 16452, "trial_type": "mouselab-mdp", "trial_index": 57, "time_elapsed": 3247241, "internal_node_id": "0.0-6.0-1.0-36.0"}}, {"uniqueid": "w62606780:a23500955", "current_trial": 58, "dateTime": 1693567910777, "trialdata": {"revealed_states": [], "clicked_states": ["7", "21", "22", "28"], "num_clicks_accrued": [0, 0, 0, 0, 0, 0, 0, 0, 0, 0, 0, 0, 0], "stateRewards": ["", 2, -4, 1, -12, -59, -53, -74, 16, -88, -66, 66, 1, -2, 8, -9, -14, 22, 25, -1, -39, 47, -14, -1, -1, -2, 1, -4, 52, -26, 15, -7, 46, 43], "withholdReward": false, "trial_id": "mdp_trial_38", "block": "test", "trialIndex": 43, "score": 40.4, "costs": -8.6, "simulationMode": [null, null, null, null, null], "rewards": [-1, -1, -2, 1, 52], "path": ["0", "0", "23", "24", "25", "26", "28"], "rt": [17562, 133, 160, 30, 155], "actions": ["left", "left", "left", "up", "right"], "actionTimes": [19378, 20013, 20690, 21229, 21886], "queries": {"click": {"state": {"target": ["7", "21", "22", "28"], "time": [3422, 7693, 11071, 15055]}, "edge": {"target": [], "time": []}}, "mouseover": {"state": {"target": ["12", "5", "6", "7", "2", "10", "2", "18", "20", "19", "21", "22", "22", "19", "20", "13", "12", "28", "26", "27", "27"], "time": [1996, 2697, 2845, 3346, 3929, 3979, 6662, 6711, 6811, 7013, 7563, 8128, 8512, 11762, 11951, 14528, 14561, 14829, 15482, 17628, 18060]}, "edge": {"target": [], "time": []}}, "mouseout": {"state": {"target": ["19", "1", "0", "12", "5", "6", "7", "7", "2", "10", "2", "18", "20", "19", "21", "22", "22", "19", "20", "13", "12", "28", "26", "27"], "time": [964, 1062, 1945, 2012, 2745, 3178, 3469, 3779, 3945, 6646, 6679, 6728, 6962, 7120, 7745, 8228, 11745, 11828, 14429, 14544, 14612, 15428, 15595, 17795]}, "edge": {"target": [], "time": []}}}, "displayed_time": "22.38", "trialTime": 23606, "trial_type": "mouselab-mdp", "trial_index": 58, "time_elapsed": 3271124, "internal_node_id": "0.0-6.0-1.0-37.0"}}, {"uniqueid": "w62606780:a23500955", "current_trial": 59, "dateTime": 1693567958454, "trialdata": {"revealed_states": [], "clicked_states": ["29", "33", "32", "31", "28", "27", "22", "20", "21", "17", "18"], "num_clicks_accrued": [0, 0, 0, 0, 0, 0, 0, 0, 0, 0, 0, 0, 0], "stateRewards": ["", -2, 1, 6, -2, -10, -78, -69, 14, -15, 7, -1, 1, -1, -2, 13, 77, 32, 87, 5, -74, 30, -26, 1, 3, 4, 12, 39, 54, -43, 2, 10, 23, 13], "withholdReward": false, "trial_id": "mdp_trial_39", "block": "test", "trialIndex": 44, "score": 74.35000000000001, "costs": -23.649999999999995, "simulationMode": [null, null, null, null, null], "rewards": [1, -1, -2, 13, 87], "path": ["0", "0", "12", "13", "14", "15", "18"], "rt": [39839, 123, 782, 306, 191], "actions": ["right", "right", "right", "up", "left"], "actionTimes": [41365, 41987, 43263, 44069, 44755], "queries": {"click": {"state": {"target": ["29", "33", "32", "31", "28", "27", "22", "20", "21", "17", "18"], "time": [2753, 5886, 9106, 12410, 15591, 18837, 23888, 27037, 30168, 33359, 36654]}, "edge": {"target": [], "time": []}}, "mouseover": {"state": {"target": ["28", "26", "29", "25", "24", "28", "10", "8", "28", "25", "30", "33", "30", "24", "23", "16", "13", "30", "32", "31", "31", "24", "28", "27", "1", "0", "21", "20", "15", "15", "14", "19", "14", "19", "22", "19", "20", "20", "21", "19", "14", "15", "17", "15", "18", "16"], "time": [1812, 2262, 2462, 3145, 3279, 3329, 3396, 3428, 3779, 3812, 3845, 4062, 6212, 6295, 6345, 6678, 8528, 8612, 8978, 9563, 10045, 12761, 12861, 16230, 19244, 19811, 20245, 22177, 22562, 22812, 22911, 23093, 23327, 23578, 23777, 24428, 24480, 24811, 27794, 30627, 30677, 30749, 31061, 33661, 33910, 37127]}, "edge": {"target": [], "time": []}}, "mouseout": {"state": {"target": ["27", "10", "1", "0", "28", "26", "29", "25", "24", "28", "10", "8", "28", "25", "30", "33", "30", "24", "23", "16", "13", "30", "32", "31", "31", "24", "28", "27", "1", "0", "21", "20", "15", "15", "14", "19", "14", "19", "22", "19", "20", "20", "21", "19", "14", "15", "17", "15", "18", "16", "18"], "time": [512, 815, 861, 1328, 2229, 2328, 3062, 3195, 3295, 3345, 3412, 3745, 3795, 3829, 4012, 6179, 6245, 6312, 6428, 6695, 8545, 8830, 9173, 9595, 12661, 12811, 15945, 19116, 19711, 19828, 22096, 22228, 22612, 22877, 23011, 23211, 23478, 23677, 24102, 24478, 24544, 27661, 30544, 30661, 30711, 30816, 33577, 33777, 36984, 39960, 46448]}, "edge": {"target": [], "time": []}}}, "displayed_time": "45.26", "trialTime": 47384, "trial_type": "mouselab-mdp", "trial_index": 59, "time_elapsed": 3318801, "internal_node_id": "0.0-6.0-1.0-38.0"}}, {"uniqueid": "w62606780:a23500955", "current_trial": 60, "dateTime": 1693567975536, "trialdata": {"revealed_states": [], "clicked_states": ["5", "6", "7"], "num_clicks_accrued": [0, 0, 0, 0, 0, 0, 0, 0, 0, 0, 0, 0, 0], "stateRewards": ["", 2, 3, -3, 12, -43, 81, -82, -15, 58, -7, -75, -1, -1, 3, -5, 50, -25, -8, 4, 66, 65, -66, 2, -4, 2, -1, -10, 10, 37, 11, 88, -37, 8], "withholdReward": false, "trial_id": "mdp_trial_40", "block": "test", "trialIndex": 45, "score": 88.55, "costs": -6.449999999999999, "simulationMode": [null, null, null, null, null], "rewards": [2, 3, -3, 12, 81], "path": ["0", "0", "1", "2", "3", "4", "6"], "rt": [11552, 110, 199, 110, 156], "actions": ["up", "up", "up", "right", "right"], "actionTimes": [12768, 13387, 14092, 14702, 15380], "queries"