{"condition": 0, "counterbalance": 0, "assignmentId": "a52181975", "workerId": "w70266858", "hitId": "h58927256", "currenttrial": 61, "bonus": 0, "data": [{"uniqueid": "w70266858:a52181975", "current_trial": 0, "dateTime": 1691161180647, "trialdata": {"success": true, "trial_type": "fullscreen", "trial_index": 0, "time_elapsed": 2515, "internal_node_id": "0.0-0.0"}}, {"uniqueid": "w70266858:a52181975", "current_trial": 1, "dateTime": 1691161193983, "trialdata": {"view_history": [{"page_index": 0, "viewing_time": 13329}], "rt": 13329, "trial_id": "exp_instructions_control", "trial_type": "instructions", "trial_index": 1, "time_elapsed": 15852, "internal_node_id": "0.0-1.0"}}, {"uniqueid": "w70266858:a52181975", "current_trial": 2, "dateTime": 1691161196523, "trialdata": {"success": true, "trial_type": "fullscreen", "trial_index": 2, "time_elapsed": 18391, "internal_node_id": "0.0-2.0-0.0"}}, {"uniqueid": "w70266858:a52181975", "current_trial": 3, "dateTime": 1691161541205, "trialdata": {"view_history": [{"page_index": 0, "viewing_time": 127870}, {"page_index": 1, "viewing_time": 104340}, {"page_index": 2, "viewing_time": 58909}, {"page_index": 3, "viewing_time": 53556}], "rt": 344675, "trial_id": "mouselab_instructions_1_control", "trial_type": "instructions", "trial_index": 3, "time_elapsed": 363074, "internal_node_id": "0.0-2.0-1.0"}}, {"uniqueid": "w70266858:a52181975", "current_trial": 4, "dateTime": 1691161580171, "trialdata": {"revealed_states": [], "clicked_states": ["9", "5", "4", "19", "25", "27", "29", "33"], "num_clicks_accrued": [0, 0, 0, 0, 0, 0, 0, 0, 0, 0, 0, 0, 0], "stateRewards": ["", 10, -10, -10, -10, 10, 10, 10, -10, -10, -10, 10, -10, 10, 10, 10, 10, -10, 10, -10, -10, 10, 10, -10, -10, 10, 10, -10, -10, -10, -10, 10, 10, 10], "withholdReward": false, "trial_id": "practice_1", "block": "test", "trialIndex": 0, "score": -10.5, "costs": -4, "simulationMode": [null, null, null, null, null], "rewards": [-10, -10, 10, -10, 10], "path": ["0", "0", "23", "24", "25", "30", "33"], "rt": [27795, 1816, 371, 167, 181], "actions": ["left", "left", "left", "down", "left"], "actionTimes": [28955, 31266, 32137, 32800, 33496], "queries": {"click": {"state": {"target": ["9", "5", "4", "19", "25", "27", "29", "33"], "time": [2948, 4842, 8366, 13715, 16455, 20155, 22082, 24462]}, "edge": {"target": [], "time": []}}, "mouseover": {"state": {"target": ["10", "8", "9", "5", "4", "14", "13", "2", "4", "7", "14", "19", "22", "0", "23", "24", "25", "24", "26", "27", "28", "23", "25", "29", "25", "31", "25", "25", "30", "33", "32", "32", "30"], "time": [2313, 2363, 2463, 3846, 5213, 5380, 6930, 7146, 7780, 8696, 12613, 13263, 15830, 15980, 16013, 16080, 16314, 19381, 19747, 20014, 20480, 20563, 21530, 21797, 22463, 22597, 23580, 23880, 23963, 24163, 24797, 25831, 26580]}, "edge": {"target": [], "time": []}}, "mouseout": {"state": {"target": ["12", "0", "10", "8", "9", "5", "4", "14", "13", "2", "4", "7", "14", "19", "19", "22", "0", "23", "24", "25", "24", "26", "27", "28", "23", "25", "29", "25", "31", "25", "25", "30", "33", "32", "32", "30"], "time": [496, 797, 2346, 2396, 3580, 5180, 5230, 6897, 6946, 7680, 8663, 8730, 12730, 14113, 15796, 15880, 15996, 16046, 16147, 17047, 19630, 19914, 20430, 20496, 20580, 21630, 22397, 22497, 23284, 23664, 23930, 24014, 24747, 24847, 26547, 27714]}, "edge": {"target": [], "time": []}}}, "displayed_time": "34.00", "trialTime": 37817, "trial_type": "mouselab-mdp", "trial_index": 4, "time_elapsed": 402039, "internal_node_id": "0.0-2.0-2.0-0.0"}}, {"uniqueid": "w70266858:a52181975", "current_trial": 5, "dateTime": 1691161634536, "trialdata": {"revealed_states": [], "clicked_states": ["32", "25", "27", "14", "21", "5", "9", "11", "3"], "num_clicks_accrued": [0, 0, 0, 0, 0, 0, 0, 0, 0, 0, 0, 0, 0], "stateRewards": ["", 10, -10, 10, 10, -10, 10, -10, -10, -10, -10, 10, 10, -10, -10, -10, 10, -10, -10, 10, -10, -10, 10, -10, -10, -10, -10, -10, 10, 10, -10, -10, 10, -10], "withholdReward": false, "trial_id": "practice_2", "block": "test", "trialIndex": 1, "score": 9, "costs": -4.5, "simulationMode": [null, null, null, null, null], "rewards": [10, -10, 10, -10, 10], "path": ["0", "0", "1", "2", "3", "8", "11"], "rt": [34471, 25, 20, 48, 132], "actions": ["up", "up", "up", "left", "left"], "actionTimes": [50317, 50833, 51376, 51922, 52554], "queries": {"click": {"state": {"target": ["32", "25", "27", "14", "21", "5", "9", "11", "3"], "time": [19230, 21984, 25231, 33491, 36300, 38838, 40460, 44222, 47479]}, "edge": {"target": [], "time": []}}, "mouseover": {"state": {"target": ["0", "24", "25", "30", "33", "32", "12", "1", "23", "24", "30", "25", "31", "24", "26", "27", "28", "23", "13", "12", "13", "14", "19", "21", "19", "15", "20", "21", "19", "15", "16", "4", "5", "2", "2", "8", "9", "8", "1", "1", "1", "10", "11", "8", "3", "2"], "time": [16987, 17371, 17471, 17970, 18254, 18855, 19887, 20071, 20687, 20721, 20787, 21454, 22421, 23771, 24837, 24921, 25587, 28289, 28871, 30438, 33038, 33354, 33987, 34087, 35037, 35239, 35539, 36054, 37138, 37254, 38322, 38538, 38671, 39254, 40155, 40254, 40338, 40737, 40821, 42505, 43771, 43887, 44088, 45939, 46121, 47971]}, "edge": {"target": [], "time": []}}, "mouseout": {"state": {"target": ["23", "0", "0", "24", "25", "30", "33", "32", "12", "1", "23", "24", "30", "25", "31", "24", "26", "27", "28", "23", "13", "12", "13", "14", "19", "21", "19", "15", "20", "21", "19", "14", "15", "16", "4", "5", "5", "2", "2", "8", "9", "8", "1", "1", "1", "10", "11", "11", "8", "3", "2"], "time": [15403, 15420, 17004, 17421, 17937, 18004, 18637, 19504, 19954, 20671, 20720, 20737, 21388, 22354, 22437, 24788, 24871, 25554, 25637, 28354, 29555, 33004, 33087, 33937, 34037, 34972, 35071, 35321, 35988, 37054, 37171, 37221, 37338, 38421, 38571, 38923, 39171, 39304, 40204, 40287, 40704, 40754, 40837, 42805, 43821, 43971, 44305, 44454, 46072, 47938, 48054]}, "edge": {"target": [], "time": []}}}, "displayed_time": "53.07", "trialTime": 54274, "trial_type": "mouselab-mdp", "trial_index": 5, "time_elapsed": 456404, "internal_node_id": "0.0-2.0-2.0-1.0"}}, {"uniqueid": "w70266858:a52181975", "current_trial": 6, "dateTime": 1691161682621, "trialdata": {"view_history": [{"page_index": 0, "viewing_time": 33578}, {"page_index": 1, "viewing_time": 14504}], "rt": 48082, "trial_id": "mouselab_instructions_2_control", "trial_type": "instructions", "trial_index": 6, "time_elapsed": 504490, "internal_node_id": "0.0-2.0-3.0"}}, {"uniqueid": "w70266858:a52181975", "current_trial": 7, "dateTime": 1691161742695, "trialdata": {"rt": 60070, "response": {"Q0": "The cost for clicking on nodes may vary between nodes.", "Q1": "The better I perform the higher my bonus will be.", "Q2": "No, the amount of cash at each node of the web may be different each time.", "Q3": "To get the highest total score.", "Q4": "Any time during the round.", "Q5": "3 seconds"}, "question_order": [0, 1, 2, 3, 4, 5], "correct": {"Q0": "The cost for clicking on nodes may vary between nodes.", "Q1": "The better I perform the higher my bonus will be.", "Q2": "No, the amount of cash at each node of the web may be different each time.", "Q3": "To get the highest total score.", "Q4": "Only before moving the spider.", "Q5": "3 seconds"}, "trial_id": "mouselab_quiz_control", "trial_type": "survey-multi-choice", "trial_index": 7, "time_elapsed": 564564, "internal_node_id": "0.0-2.0-4.0"}}, {"uniqueid": "w70266858:a52181975", "current_trial": 8, "dateTime": 1691161748449, "trialdata": {"success": true, "trial_type": "fullscreen", "trial_index": 8, "time_elapsed": 570318, "internal_node_id": "0.0-2.1-0.1"}}, {"uniqueid": "w70266858:a52181975", "current_trial": 9, "dateTime": 1691161838797, "trialdata": {"view_history": [{"page_index": 0, "viewing_time": 40280}, {"page_index": 1, "viewing_time": 46312}, {"page_index": 2, "viewing_time": 1395}, {"page_index": 3, "viewing_time": 2359}], "rt": 90346, "trial_id": "mouselab_instructions_1_control", "trial_type": "instructions", "trial_index": 9, "time_elapsed": 660666, "internal_node_id": "0.0-2.1-1.1"}}, {"uniqueid": "w70266858:a52181975", "current_trial": 10, "dateTime": 1691161853093, "trialdata": {"revealed_states": [], "clicked_states": ["9"], "num_clicks_accrued": [0, 0, 0, 0, 0, 0, 0, 0, 0, 0, 0, 0, 0], "stateRewards": ["", 10, -10, -10, -10, 10, 10, 10, -10, -10, -10, 10, -10, 10, 10, 10, 10, -10, 10, -10, -10, 10, 10, -10, -10, 10, 10, -10, -10, -10, -10, 10, 10, 10], "withholdReward": false, "trial_id": "practice_1", "block": "test", "trialIndex": 2, "score": 13, "costs": -0.5, "simulationMode": [null, null, null, null, null], "rewards": [-10, 10, 10, 10, -10], "path": ["0", "0", "12", "13", "14", "15", "17"], "rt": [4029, 3500, 184, 300, 278], "actions": ["right", "right", "right", "up", "right"], "actionTimes": [5454, 9454, 10151, 10965, 11760], "queries": {"click": {"state": {"target": ["9"], "time": [2356]}, "edge": {"target": [], "time": []}}, "mouseover": {"state": {"target": ["1", "8", "9", "5", "4", "7", "4", "7", "13"], "time": [1914, 2098, 2182, 2915, 3665, 3748, 4382, 4515, 4814]}, "edge": {"target": [], "time": []}}, "mouseout": {"state": {"target": ["12", "0", "1", "8", "9", "5", "4", "7", "4", "7", "13", "14", "14"], "time": [881, 1848, 1931, 2114, 2565, 3651, 3715, 4332, 4482, 4548, 4831, 7299, 8202]}, "edge": {"target": [], "time": []}}}, "displayed_time": "12.27", "trialTime": 14205, "trial_type": "mouselab-mdp", "trial_index": 10, "time_elapsed": 674962, "internal_node_id": "0.0-2.1-2.1-0.1"}}, {"uniqueid": "w70266858:a52181975", "current_trial": 11, "dateTime": 1691161862856, "trialdata": {"revealed_states": [], "clicked_states": ["32"], "num_clicks_accrued": [0, 0, 0, 0, 0, 0, 0, 0, 0, 0, 0, 0, 0], "stateRewards": ["", 10, -10, 10, 10, -10, 10, -10, -10, -10, -10, 10, 10, -10, -10, -10, 10, -10, -10, 10, -10, -10, 10, -10, -10, -10, -10, -10, 10, 10, -10, -10, 10, -10], "withholdReward": false, "trial_id": "practice_2", "block": "test", "trialIndex": 3, "score": -27, "costs": -0.5, "simulationMode": [null, null, null, null, null], "rewards": [-10, -10, -10, -10, 10], "path": ["0", "0", "23", "24", "25", "30", "32"], "rt": [4443, 117, 83, 17, 109], "actions": ["left", "left", "left", "down", "down"], "actionTimes": [5695, 6319, 6920, 7437, 8062], "queries": {"click": {"state": {"target": ["32"], "time": [2666]}, "edge": {"target": [], "time": []}}, "mouseover": {"state": {"target": ["30", "32", "22", "19", "21"], "time": [2135, 2302, 3268, 3335, 3902]}, "edge": {"target": [], "time": []}}, "mouseout": {"state": {"target": ["0", "30", "32", "22", "19"], "time": [1768, 2168, 3018, 3301, 3451]}, "edge": {"target": [], "time": []}}}, "displayed_time": "8.57", "trialTime": 9670, "trial_type": "mouselab-mdp", "trial_index": 11, "time_elapsed": 684725, "internal_node_id": "0.0-2.1-2.1-1.1"}}, {"uniqueid": "w70266858:a52181975", "current_trial": 12, "dateTime": 1691161874030, "trialdata": {"view_history": [{"page_index": 0, "viewing_time": 9481}, {"page_index": 1, "viewing_time": 1690}], "rt": 11171, "trial_id": "mouselab_instructions_2_control", "trial_type": "instructions", "trial_index": 12, "time_elapsed": 695899, "internal_node_id": "0.0-2.1-3.1"}}, {"uniqueid": "w70266858:a52181975", "current_trial": 13, "dateTime": 1691161894072, "trialdata": {"rt": 20039, "response": {"Q0": "The cost for clicking on nodes may vary between nodes.", "Q1": "The better I perform the higher my bonus will be.", "Q2": "No, the amount of cash at each node of the web may be different each time.", "Q3": "To get the highest total score.", "Q4": "Only before moving the spider.", "Q5": "3 seconds"}, "question_order": [0, 1, 2, 3, 4, 5], "correct": {"Q0": "The cost for clicking on nodes may vary between nodes.", "Q1": "The better I perform the higher my bonus will be.", "Q2": "No, the amount of cash at each node of the web may be different each time.", "Q3": "To get the highest total score.", "Q4": "Only before moving the spider.", "Q5": "3 seconds"}, "trial_id": "mouselab_quiz_control", "trial_type": "survey-multi-choice", "trial_index": 13, "time_elapsed": 715941, "internal_node_id": "0.0-2.1-4.1"}}, {"uniqueid": "w70266858:a52181975", "current_trial": 14, "dateTime": 1691161911368, "trialdata": {"rt": 17289, "stimulus": "\n<h1> Get ready to start the game! </h1>\n\nThank you for reading the instructions. Get ready start with the 40 rounds of this game.\n<br><br>\nIf you need to take a break, feel free to take one after the end of a round, before continuing to the next one.\n<br><br>\nRemember, the more money the spider gets, the bigger your bonus will be!\n<br><br>\n<div style='text-align: center;'>Press <code>space</code> to begin.</div>\n\n<br><br>\n(If, at any point, the <code>space</code> key does not take you to the next page, click once on the text and try again.)", "response": " ", "trial_id": "mdp_ready", "trial_type": "html-keyboard-response", "trial_index": 14, "time_elapsed": 733237, "internal_node_id": "0.0-4.0-0.0"}}, {"uniqueid": "w70266858:a52181975", "current_trial": 15, "dateTime": 1691161929993, "trialdata": {"revealed_states": [], "clicked_states": ["9", "33"], "num_clicks_accrued": [0, 0, 0, 0, 0, 0, 0, 0, 0, 0, 0, 0, 0], "stateRewards": ["", 1, 4, 5, 8, -55, -11, 8, 16, -37, 77, -22, -2, 3, -8, -10, 45, 87, -67, 4, 17, -33, -22, -1, -3, 7, 6, -39, -85, 75, -1, 7, -48, 45], "withholdReward": false, "trial_id": "mdp_trial_1", "block": "test", "trialIndex": 4, "score": 44.2, "costs": -2.8, "simulationMode": [null, null, null, null, null], "rewards": [-1, -3, 7, -1, 45], "path": ["0", "0", "23", "24", "25", "30", "33"], "rt": [11547, 24, 285, 28, 94], "actions": ["left", "left", "left", "down", "left"], "actionTimes": [14022, 14560, 15338, 15880, 16480], "queries": {"click": {"state": {"target": ["9", "33"], "time": [4374, 7917]}, "edge": {"target": [], "time": []}}, "mouseover": {"state": {"target": ["0", "0", "1", "2", "9", "2", "1", "24", "30", "30", "33", "32", "22", "14", "14", "31", "25", "24", "25", "26", "27"], "time": [2852, 3834, 3884, 3917, 4118, 4851, 6801, 6884, 6985, 7434, 7769, 8184, 10034, 10117, 10534, 10717, 11035, 11234, 11851, 12751, 13019]}, "edge": {"target": [], "time": []}}, "mouseout": {"state": {"target": ["0", "0", "0", "1", "2", "9", "2", "1", "24", "30", "30", "33", "32", "22", "14", "14", "31", "25", "24", "25", "26"], "time": [2302, 3385, 3851, 3900, 3934, 4784, 4884, 6817, 6917, 7184, 7651, 8117, 8201, 10051, 10134, 10567, 10751, 11184, 11818, 12717, 12817]}, "edge": {"target": [], "time": []}}}, "displayed_time": "17.00", "trialTime": 18522, "trial_type": "mouselab-mdp", "trial_index": 15, "time_elapsed": 751862, "internal_node_id": "0.0-4.0-1.0-0.0"}}, {"uniqueid": "w70266858:a52181975", "current_trial": 16, "dateTime": 1691161952345, "trialdata": {"revealed_states": [], "clicked_states": ["20", "9", "5", "33", "27", "13", "14"], "num_clicks_accrued": [0, 0, 0, 0, 0, 0, 0, 0, 0, 0, 0, 0, 0], "stateRewards": ["", -1, 3, -5, -2, -13, -9, -34, -7, -81, 32, 35, -2, -2, 1, -14, -32, 81, 7, 4, 82, 56, -8, -1, 3, -8, 6, -24, -24, -53, 2, 38, 61, 54], "withholdReward": false, "trial_id": "mdp_trial_2", "block": "test", "trialIndex": 5, "score": 73.2, "costs": -9.8, "simulationMode": [null, null, null, null, null], "rewards": [-2, -2, 1, 4, 82], "path": ["0", "0", "12", "13", "14", "19", "20"], "rt": [15366, 173, 171, 119, 184], "actions": ["right", "right", "right", "down", "right"], "actionTimes": [17914, 18592, 19257, 19887, 20585], "queries": {"click": {"state": {"target": ["20", "9", "5", "33", "27", "13", "14"], "time": [3875, 5400, 7663, 9400, 10962, 13323, 15278]}, "edge": {"target": [], "time": []}}, "mouseover": {"state": {"target": ["12", "13", "17", "20", "19", "13", "7", "3", "9", "5", "3", "26", "25", "33", "32", "30", "25", "26", "27", "29", "26", "28", "12", "13", "13", "19", "14", "19", "21"], "time": [3283, 3333, 3516, 3683, 4383, 4450, 4616, 4750, 5050, 6617, 8100, 8283, 8516, 8833, 9884, 10483, 10516, 10583, 10783, 11700, 12600, 12650, 12800, 12866, 13117, 14117, 15035, 15583, 15767]}, "edge": {"target": [], "time": []}}, "mouseout": {"state": {"target": ["27", "27", "28", "23", "0", "12", "13", "17", "20", "19", "13", "7", "3", "9", "5", "3", "26", "25", "33", "32", "30", "25", "26", "27", "29", "26", "28", "12", "13", "13", "19", "14", "19", "21"], "time": [799, 2149, 2199, 2249, 2333, 3316, 3349, 3600, 4349, 4400, 4466, 4649, 4866, 6400, 8067, 8133, 8333, 8600, 9766, 9950, 10500, 10550, 10616, 11600, 12583, 12633, 12683, 12833, 12916, 13616, 14450, 15516, 15683, 16800]}, "edge": {"target": [], "time": []}}}, "displayed_time": "21.10", "trialTime": 22256, "trial_type": "mouselab-mdp", "trial_index": 16, "time_elapsed": 774213, "internal_node_id": "0.0-4.0-1.0-1.0"}}, {"uniqueid": "w70266858:a52181975", "current_trial": 17, "dateTime": 1691161971791, "trialdata": {"revealed_states": [], "clicked_states": ["21", "32", "9", "5", "3"], "num_clicks_accrued": [0, 0, 0, 0, 0, 0, 0, 0, 0, 0, 0, 0, 0], "stateRewards": ["", -1, 1, 6, -6, 70, 66, 67, -16, -75, -35, 37, -1, 4, 4, -6, 47, -9, 63, 15, 21, -63, 13, 1, 3, -6, 10, 79, -29, 18, -15, 9, -67, -19], "withholdReward": false, "trial_id": "mdp_trial_3", "block": "test", "trialIndex": 6, "score": 63, "costs": -7, "simulationMode": [null, null, null, null, null], "rewards": [-1, 1, 6, -6, 70], "path": ["0", "0", "1", "2", "3", "4", "5"], "rt": [12420, 97, 330, 136, 134], "actions": ["up", "up", "up", "right", "up"], "actionTimes": [14239, 14843, 15677, 16331, 16980], "queries": {"click": {"state": {"target": ["21", "32", "9", "5", "3"], "time": [3158, 4739, 6410, 8572, 11581]}, "edge": {"target": [], "time": []}}, "mouseover": {"state": {"target": ["0", "22", "19", "20", "21", "31", "30", "33", "32", "33", "27", "8", "9", "5", "6", "16", "17", "17", "16", "6", "5", "6", "16", "15", "17", "17", "15", "7", "2", "3", "2", "1", "0"], "time": [2212, 2345, 2377, 2678, 2994, 3694, 3727, 3794, 4194, 5377, 5927, 6044, 6128, 6844, 7577, 7627, 7694, 8211, 8245, 8294, 8428, 9077, 9294, 9411, 10344, 10661, 10961, 11078, 11277, 11495, 12044, 12161, 12294]}, "edge": {"target": [], "time": []}}, "mouseout": {"state": {"target": ["0", "0", "22", "19", "20", "21", "31", "30", "33", "32", "33", "27", "8", "9", "5", "6", "16", "17", "17", "16", "6", "5", "6", "16", "15", "17", "17", "15", "7", "2", "3", "3", "2", "1", "0"], "time": [1127, 2261, 2361, 2411, 2927, 3544, 3711, 3761, 3878, 5310, 5727, 5944, 6077, 6711, 7527, 7594, 7661, 7744, 8244, 8260, 8310, 9011, 9161, 9327, 9495, 10428, 10944, 10977, 11228, 11428, 11676, 12011, 12111, 12211, 12344]}, "edge": {"target": [], "time": []}}}, "displayed_time": "17.48", "trialTime": 19347, "trial_type": "mouselab-mdp", "trial_index": 17, "time_elapsed": 793660, "internal_node_id": "0.0-4.0-1.0-2.0"}}, {"uniqueid": "w70266858:a52181975", "current_trial": 18, "dateTime": 1691161990667, "trialdata": {"revealed_states": [], "clicked_states": ["33", "27", "16", "25"], "num_clicks_accrued": [0, 0, 0, 0, 0, 0, 0, 0, 0, 0, 0, 0, 0], "stateRewards": ["", -1, 2, -6, 6, 43, 78, 78, -2, 55, -29, -17, -2, -4, 1, -15, 13, 7, -79, 8, -28, -68, 36, -1, -3, 3, -16, 84, -18, 87, 10, 32, 13, -81], "withholdReward": false, "trial_id": "mdp_trial_4", "block": "test", "trialIndex": 7, "score": 61.4, "costs": -5.6, "simulationMode": [null, null, null, null, null], "rewards": [-1, -3, 3, -16, 84], "path": ["0", "0", "23", "24", "25", "26", "27"], "rt": [9884, 144, 327, 79, 54], "actions": ["left", "left", "left", "up", "up"], "actionTimes": [13419, 14066, 14900, 15484, 16044], "queries": {"click": {"state": {"target": ["33", "27", "16", "25"], "time": [4469, 6359, 7934, 11363]}, "edge": {"target": [], "time": []}}, "mouseover": {"state": {"target": ["23", "24", "25", "33", "29", "27", "1", "18", "15", "16", "7", "28", "26", "26", "25", "31"], "time": [3871, 3904, 3954, 4221, 5004, 5671, 6921, 6971, 7021, 7254, 8804, 8871, 8904, 9087, 9221, 12021]}, "edge": {"target": [], "time": []}}, "mouseout": {"state": {"target": ["0", "23", "24", "25", "33", "29", "27", "1", "18", "15", "16", "7", "28", "26", "26", "25", "31"], "time": [3121, 3887, 3921, 3987, 4542, 5604, 6787, 6937, 7004, 7054, 8754, 8821, 8888, 8938, 9171, 11971, 12037]}, "edge": {"target": [], "time": []}}}, "displayed_time": "17.54", "trialTime": 18781, "trial_type": "mouselab-mdp", "trial_index": 18, "time_elapsed": 812535, "internal_node_id": "0.0-4.0-1.0-3.0"}}, {"uniqueid": "w70266858:a52181975", "current_trial": 19, "dateTime": 1691162016705, "trialdata": {"revealed_states": [], "clicked_states": ["20", "5", "33", "27", "25", "14", "3"], "num_clicks_accrued": [0, 0, 0, 0, 0, 0, 0, 0, 0, 0, 0, 0, 0], "stateRewards": ["", -1, 2, 6, 11, 21, -21, -21, -6, 48, -71, 88, -1, -3, 3, 7, 64, 2, 9, -4, 37, -67, 72, 2, 2, -8, -8, -10, 71, -40, -3, 73, 80, 47], "withholdReward": false, "trial_id": "mdp_trial_5", "block": "test", "trialIndex": 8, "score": 22.2, "costs": -9.8, "simulationMode": [null, null, null, null, null], "rewards": [-1, -3, 3, -4, 37], "path": ["0", "0", "12", "13", "14", "19", "20"], "rt": [20478, 39, 131, 1, 90], "actions": ["right", "right", "right", "down", "right"], "actionTimes": [22134, 22683, 23325, 23844, 24450], "queries": {"click": {"state": {"target": ["20", "5", "33", "27", "25", "14", "3"], "time": [2726, 4566, 7501, 10362, 13953, 16031, 19122]}, "edge": {"target": [], "time": []}}, "mouseover": {"state": {"target": ["12", "22", "21", "20", "14", "4", "5", "4", "7", "3", "9", "11", "27", "29", "29", "33", "30", "31", "30", "25", "26", "27", "26", "31", "32", "31", "31", "30", "30", "25", "31", "22", "14", "13", "12", "12", "7", "4", "4", "3", "2", "12", "22", "19"], "time": [1958, 2058, 2124, 2575, 3224, 3391, 3558, 5324, 5491, 5675, 6425, 6674, 6824, 6891, 7125, 7358, 8274, 9741, 9841, 9874, 9958, 10058, 10908, 10991, 12408, 12725, 13501, 13542, 13675, 13808, 14524, 15308, 15859, 16691, 16808, 18075, 18491, 18558, 18758, 18959, 19675, 19841, 21158, 21376]}, "edge": {"target": [], "time": []}}, "mouseout": {"state": {"target": ["0", "12", "22", "21", "20", "14", "4", "5", "4", "7", "3", "9", "11", "27", "29", "29", "33", "30", "31", "30", "25", "26", "27", "26", "31", "32", "31", "31", "30", "30", "25", "31", "22", "14", "13", "12", "12", "7", "4", "4", "3", "2", "12", "22"], "time": [1174, 1974, 2075, 2174, 3158, 3241, 3491, 5274, 5358, 5574, 5691, 6608, 6708, 6841, 6908, 7241, 8241, 8308, 9791, 9858, 9924, 10024, 10891, 10941, 11024, 12625, 12758, 13541, 13574, 13724, 14441, 14708, 15341, 16641, 16758, 16824, 18275, 18525, 18625, 18892, 19641, 19691, 20075, 21175]}, "edge": {"target": [], "time": []}}}, "displayed_time": "24.96", "trialTime": 25941, "trial_type": "mouselab-mdp", "trial_index": 19, "time_elapsed": 838573, "internal_node_id": "0.0-4.0-1.0-4.0"}}, {"uniqueid": "w70266858:a52181975", "current_trial": 20, "dateTime": 1691162043322, "trialdata": {"revealed_states": [], "clicked_states": ["25", "9", "20", "21", "16", "17", "14", "5"], "num_clicks_accrued": [0, 0, 0, 0, 0, 0, 0, 0, 0, 0, 0, 0, 0], "stateRewards": ["", -1, 2, 5, -6, 13, -64, -47, 8, -79, -80, -33, 1, 2, -2, -16, 56, -71, -10, 3, 29, 44, 85, -1, 4, 5, 4, -36, -56, 19, 8, 52, -13, -2], "withholdReward": false, "trial_id": "mdp_trial_6", "block": "test", "trialIndex": 9, "score": 29.799999999999997, "costs": -11.200000000000001, "simulationMode": [null, null, null, null, null], "rewards": [1, 2, -2, -16, 56], "path": ["0", "0", "12", "13", "14", "15", "16"], "rt": [20976, 96, 258, 242, 57], "actions": ["right", "right", "right", "up", "up"], "actionTimes": [22090, 22703, 23471, 24232, 24799], "queries": {"click": {"state": {"target": ["25", "9", "20", "21", "16", "17", "14", "5"], "time": [2124, 4466, 6586, 8663, 10453, 12258, 16024, 19465]}, "edge": {"target": [], "time": []}}, "mouseover": {"state": {"target": ["31", "25", "24", "1", "3", "9", "11", "27", "26", "28", "2", "4", "6", "15", "20", "21", "21", "19", "14", "15", "16", "17", "15", "18", "1", "2", "5", "7", "18", "13", "14", "1", "28", "26", "29", "29", "28", "10", "3", "7", "5", "4", "7", "13", "20"], "time": [1787, 1904, 2420, 2520, 3054, 4287, 5004, 5087, 5387, 5453, 5587, 5670, 6137, 6237, 6404, 7204, 8338, 9087, 9137, 9187, 9270, 11137, 12903, 12937, 13037, 13220, 13470, 14822, 15238, 15705, 15854, 16521, 16772, 16871, 16905, 18305, 18521, 18621, 18738, 19088, 19355, 19838, 19888, 20021, 20138]}, "edge": {"target": [], "time": []}}, "mouseout": {"state": {"target": ["19", "12", "0", "31", "25", "24", "1", "3", "9", "11", "27", "26", "28", "2", "4", "6", "15", "20", "21", "21", "19", "14", "15", "16", "17", "15", "18", "1", "2", "5", "7", "18", "13", "14", "1", "28", "26", "29", "29", "28", "10", "3", "7", "5", "5", "4", "7", "13", "20", "20"], "time": [620, 670, 1520, 1820, 2166, 2437, 2637, 4203, 4920, 5020, 5120, 5437, 5487, 5603, 5720, 6153, 6270, 7120, 7304, 9037, 9120, 9153, 9220, 11054, 12887, 12920, 12953, 13120, 13303, 14538, 15204, 15288, 15807, 16421, 16554, 16854, 16904, 16938, 18338, 18571, 18671, 19005, 19104, 19541, 19788, 19871, 19921, 20054, 20188, 25971]}, "edge": {"target": [], "time": []}}}, "displayed_time": "25.32", "trialTime": 26519, "trial_type": "mouselab-mdp", "trial_index": 20, "time_elapsed": 865190, "internal_node_id": "0.0-4.0-1.0-5.0"}}, {"uniqueid": "w70266858:a52181975", "current_trial": 21, "dateTime": 1691162062313, "trialdata": {"revealed_states": [], "clicked_states": ["33", "5", "20", "16", "9", "27"], "num_clicks_accrued": [0, 0, 0, 0, 0, 0, 0, 0, 0, 0, 0, 0, 0], "stateRewards": ["", 1, -3, -6, -5, 47, 80, -29, 11, -71, 10, -29, -2, 3, -6, 12, 2, -78, -6, 8, 34, -16, -5, -1, 3, 3, -13, 84, -36, -62, -3, -27, 66, 15], "withholdReward": false, "trial_id": "mdp_trial_7", "block": "test", "trialIndex": 10, "score": 67.6, "costs": -8.4, "simulationMode": [null, null, null, null, null], "rewards": [-1, 3, 3, -13, 84], "path": ["0", "0", "23", "24", "25", "26", "27"], "rt": [13850, 22, 37, 1, 75], "actions": ["left", "left", "left", "up", "up"], "actionTimes": [14993, 15531, 16061, 16591, 17182], "queries": {"click": {"state": {"target": ["33", "5", "20", "16", "9", "27"], "time": [2480, 4480, 6274, 8370, 10237, 12039]}, "edge": {"target": [], "time": []}}, "mouseover": {"state": {"target": ["0", "31", "30", "33", "30", "0", "1", "4", "5", "18", "19", "21", "20", "21", "15", "16", "7", "8", "9", "8", "10", "24", "25", "26", "27", "29", "26"], "time": [1521, 1854, 1921, 2321, 2854, 4004, 4038, 4171, 4305, 5271, 5388, 5572, 6021, 6921, 8204, 8271, 9021, 9138, 9405, 10654, 10721, 10888, 11021, 11138, 11238, 12588, 14204]}, "edge": {"target": [], "time": []}}, "mouseout": {"state": {"target": ["22", "0", "0", "31", "30", "33", "30", "0", "1", "4", "5", "18", "19", "21", "20", "21", "15", "16", "7", "8", "9", "8", "10", "24", "25", "26", "27", "29", "26", "24"], "time": [654, 704, 1554, 1888, 2055, 2771, 2921, 4021, 4054, 4204, 5171, 5304, 5438, 5671, 6804, 7888, 8238, 8938, 9054, 9221, 10638, 10704, 10754, 10938, 11055, 11205, 12454, 14171, 14272, 18338]}, "edge": {"target": [], "time": []}}}, "displayed_time": "17.69", "trialTime": 18893, "trial_type": "mouselab-mdp", "trial_index": 21, "time_elapsed": 884181, "internal_node_id": "0.0-4.0-1.0-6.0"}}, {"uniqueid": "w70266858:a52181975", "current_trial": 22, "dateTime": 1691162078802, "trialdata": {"revealed_states": [], "clicked_states": ["29", "9", "5", "33"], "num_clicks_accrued": [0, 0, 0, 0, 0, 0, 0, 0, 0, 0, 0, 0, 0], "stateRewards": ["", -2, 2, 3, -7, 76, 63, 21, 15, 35, -8, -44, 1, 1, -2, -12, 23, 24, 76, -9, 46, 66, -49, -2, -1, 7, 12, 40, -71, -45, -6, 38, -49, 46], "withholdReward": false, "trial_id": "mdp_trial_8", "block": "test", "trialIndex": 11, "score": 66.4, "costs": -5.6, "simulationMode": [null, null, null, null, null], "rewards": [-2, 2, 3, -7, 76], "path": ["0", "0", "1", "2", "3", "4", "5"], "rt": [9791, 38, 143, 164, 26], "actions": ["up", "up", "up", "right", "up"], "actionTimes": [11083, 11637, 12309, 12981, 13525], "queries": {"click": {"state": {"target": ["29", "9", "5", "33"], "time": [2413, 4301, 6116, 7889]}, "edge": {"target": [], "time": []}}, "mouseover": {"state": {"target": ["24", "25", "29", "26", "8", "9", "5", "3", "10", "24", "30", "33", "30", "31"], "time": [1980, 2013, 2297, 2814, 2964, 3130, 4930, 6647, 6697, 6780, 6914, 7014, 8547, 8647]}, "edge": {"target": [], "time": []}}, "mouseout": {"state": {"target": ["23", "0", "0", "24", "25", "29", "26", "8", "9", "5", "3", "10", "24", "30", "33", "30", "31", "22"], "time": [864, 947, 1798, 1997, 2080, 2780, 2847, 3030, 4714, 6580, 6664, 6714, 6814, 6947, 8514, 8614, 8697, 15597]}, "edge": {"target": [], "time": []}}}, "displayed_time": "15.29", "trialTime": 16391, "trial_type": "mouselab-mdp", "trial_index": 22, "time_elapsed": 900670, "internal_node_id": "0.0-4.0-1.0-7.0"}}, {"uniqueid": "w70266858:a52181975", "current_trial": 23, "dateTime": 1691162103993, "trialdata": {"revealed_states": [], "clicked_states": ["17", "5", "16", "21", "20", "32", "27"], "num_clicks_accrued": [0, 0, 0, 0, 0, 0, 0, 0, 0, 0, 0, 0, 0], "stateRewards": ["", 2, -4, -4, 13, -80, 62, 13, -11, 57, -13, -44, 1, 4, 3, -4, -29, -88, 15, 16, -58, 68, -45, -1, -3, -1, -9, -44, -86, -19, -7, -36, 59, 66], "withholdReward": false, "trial_id": "mdp_trial_9", "block": "test", "trialIndex": 12, "score": 82.2, "costs": -9.8, "simulationMode": [null, null, null, null, null], "rewards": [1, 4, 3, 16, 68], "path": ["0", "0", "12", "13", "14", "19", "21"], "rt": [19586, 21, 411, 77, 174], "actions": ["right", "right", "right", "down", "down"], "actionTimes": [21205, 21743, 22650, 23233, 23930], "queries": {"click": {"state": {"target": ["17", "5", "16", "21", "20", "32", "27"], "time": [3306, 5429, 7428, 9290, 13110, 15510, 18655]}, "edge": {"target": [], "time": []}}, "mouseover": {"state": {"target": ["14", "17", "15", "4", "5", "9", "6", "16", "16", "15", "14", "19", "21", "21", "20", "19", "22", "30", "32", "20", "19", "19", "14", "13", "19", "20", "19", "22", "31", "30", "33", "32", "30", "33", "33", "29", "27", "28"], "time": [2688, 2988, 4271, 4504, 4905, 6154, 6871, 6971, 7222, 7888, 7954, 8021, 8154, 8771, 9754, 10504, 10538, 10771, 11371, 11554, 12155, 12321, 12404, 12738, 12871, 12938, 13454, 13504, 13638, 13704, 13955, 15288, 16504, 16721, 17789, 18221, 18505, 19055]}, "edge": {"target": [], "time": []}}, "mouseout": {"state": {"target": ["0", "14", "17", "15", "4", "5", "9", "6", "16", "16", "15", "14", "19", "21", "21", "20", "19", "22", "30", "32", "20", "19", "19", "14", "13", "19", "20", "19", "22", "31", "30", "33", "32", "30", "33", "33", "29", "27", "28"], "time": [2205, 2838, 4188, 4354, 4604, 6021, 6771, 6921, 7039, 7837, 7921, 7988, 8088, 8354, 9638, 10471, 10521, 10554, 10905, 11388, 12105, 12204, 12338, 12655, 12838, 12904, 13421, 13488, 13521, 13671, 13771, 15204, 15604, 16654, 16788, 18071, 18321, 19021, 19072]}, "edge": {"target": [], "time": []}}}, "displayed_time": "24.42", "trialTime": 25089, "trial_type": "mouselab-mdp", "trial_index": 23, "time_elapsed": 925861, "internal_node_id": "0.0-4.0-1.0-8.0"}}, {"uniqueid": "w70266858:a52181975", "current_trial": 24, "dateTime": 1691162128568, "trialdata": {"revealed_states": [], "clicked_states": ["33", "5", "17", "21", "9", "27", "29"], "num_clicks_accrued": [0, 0, 0, 0, 0, 0, 0, 0, 0, 0, 0, 0, 0], "stateRewards": ["", -1, -3, 3, 5, 56, 39, 50, -1, -80, 33, -46, 1, -2, -6, -8, 87, 48, 54, -11, -20, -64, -54, -2, 3, -7, -3, 12, 88, 35, -16, -46, -70, -3], "withholdReward": false, "trial_id": "mdp_trial_10", "block": "test", "trialIndex": 13, "score": 50.2, "costs": -9.8, "simulationMode": [null, null, null, null, null], "rewards": [-1, -3, 3, 5, 56], "path": ["0", "0", "1", "2", "3", "4", "5"], "rt": [18451, 91, 292, 156, 176], "actions": ["up", "up", "up", "right", "up"], "actionTimes": [19673, 20276, 21078, 21742, 22430], "queries": {"click": {"state": {"target": ["33", "5", "17", "21", "9", "27", "29"], "time": [2966, 5513, 7494, 9919, 12157, 13987, 15838]}, "edge": {"target": [], "time": []}}, "mouseover": {"state": {"target": ["0", "31", "30", "33", "32", "23", "2", "3", "5", "5", "4", "7", "12", "14", "17", "20", "21", "12", "1", "10", "9", "8", "26", "29", "27", "26", "29", "26", "23", "0"], "time": [1806, 2383, 2516, 2850, 3233, 4867, 4950, 4983, 5117, 5384, 5850, 5917, 6133, 7050, 7384, 8066, 9700, 10650, 10717, 10817, 11200, 12617, 12800, 13133, 13350, 14384, 14500, 16267, 16400, 16867]}, "edge": {"target": [], "time": []}}, "mouseout": {"state": {"target": ["0", "0", "31", "30", "33", "32", "23", "2", "3", "5", "5", "5", "4", "7", "12", "14", "17", "20", "21", "12", "1", "10", "9", "8", "26", "29", "27", "26", "29", "26", "23", "0"], "time": [1317, 1833, 2467, 2616, 3183, 3266, 4900, 4966, 5033, 5200, 5586, 5817, 5900, 5967, 6233, 7133, 7883, 8133, 10483, 10667, 10767, 10883, 12583, 12650, 13000, 13233, 14334, 14400, 16234, 16283, 16433, 18583]}, "edge": {"target": [], "time": []}}}, "displayed_time": "22.94", "trialTime": 24477, "trial_type": "mouselab-mdp", "trial_index": 24, "time_elapsed": 950437, "internal_node_id": "0.0-4.0-1.0-9.0"}}, {"uniqueid": "w70266858:a52181975", "current_trial": 25, "dateTime": 1691162149752, "trialdata": {"revealed_states": [], "clicked_states": ["33", "20", "16", "9", "5", "27", "29"], "num_clicks_accrued": [0, 0, 0, 0, 0, 0, 0, 0, 0, 0, 0, 0, 0], "stateRewards": ["", -1, -3, -6, -2, -7, 80, -45, -3, -38, -72, 76, 2, 1, 7, 4, -62, 14, -74, 14, -87, -21, -88, -2, 1, -7, -10, 66, 56, -76, 10, -29, -72, -70], "withholdReward": false, "trial_id": "mdp_trial_11", "block": "test", "trialIndex": 14, "score": 38.2, "costs": -9.8, "simulationMode": [null, null, null, null, null], "rewards": [-2, 1, -7, -10, 66], "path": ["0", "0", "23", "24", "25", "26", "27"], "rt": [15920, 2, 183, 124, 57], "actions": ["left", "left", "left", "up", "up"], "actionTimes": [17497, 18012, 18709, 19352, 19917], "queries": {"click": {"state": {"target": ["33", "20", "16", "9", "5", "27", "29"], "time": [2503, 4424, 6481, 8668, 10453, 12245, 14044]}, "edge": {"target": [], "time": []}}, "mouseover": {"state": {"target": ["0", "31", "33", "20", "19", "14", "16", "15", "22", "13", "7", "4", "9", "5", "8", "27", "29", "25", "30"], "time": [1975, 2158, 2392, 3359, 5975, 6042, 6326, 6909, 7925, 8042, 8175, 8259, 8525, 9159, 11009, 11442, 12810, 14926, 16126]}, "edge": {"target": [], "time": []}}, "mouseout": {"state": {"target": ["0", "31", "33", "20", "19", "14", "16", "15", "22", "13", "7", "4", "9", "9", "5", "8", "27", "29", "25", "30"], "time": [1992, 2175, 2792, 4959, 6008, 6092, 6859, 6942, 8009, 8092, 8225, 8342, 8721, 9009, 10909, 11025, 12693, 14842, 15026, 16159]}, "edge": {"target": [], "time": []}}}, "displayed_time": "20.44", "trialTime": 21086, "trial_type": "mouselab-mdp", "trial_index": 25, "time_elapsed": 971620, "internal_node_id": "0.0-4.0-1.0-10.0"}}, {"uniqueid": "w70266858:a52181975", "current_trial": 26, "dateTime": 1691162176273, "trialdata": {"revealed_states": [], "clicked_states": ["32", "5", "21", "16", "9", "17", "20", "27", "29"], "num_clicks_accrued": [0, 0, 0, 0, 0, 0, 0, 0, 0, 0, 0, 0, 0], "stateRewards": ["", 1, -3, 4, 13, -72, 52, 5, 5, -58, 5, 14, 2, 1, 3, -14, -86, -4, 73, 6, -58, -50, 49, 2, -3, -4, 2, 33, -41, 42, -11, 81, 45, 53], "withholdReward": false, "trial_id": "mdp_trial_12", "block": "test", "trialIndex": 15, "score": 16.4, "costs": -12.600000000000001, "simulationMode": [null, null, null, null, null], "rewards": [2, -3, -4, -11, 45], "path": ["0", "0", "23", "24", "25", "30", "32"], "rt": [20375, 295, 345, 366, 33], "actions": ["left", "left", "left", "down", "down"], "actionTimes": [21604, 22404, 23253, 24124, 24675], "queries": {"click": {"state": {"target": ["32", "5", "21", "16", "9", "17", "20", "27", "29"], "time": [2452, 5057, 7439, 9315, 11107, 13245, 15060, 16839, 18782]}, "edge": {"target": [], "time": []}}, "mouseover": {"state": {"target": ["0", "32", "21", "19", "18", "4", "5", "4", "18", "13", "19", "21", "19", "14", "16", "4", "3", "9", "3", "7", "15", "17", "20", "19", "12", "23", "28", "26", "27", "29", "26", "25", "31"], "time": [1790, 2374, 3323, 4623, 4672, 4739, 4907, 5656, 5789, 5839, 7006, 7273, 8089, 8156, 8406, 9840, 9872, 10006, 11873, 11939, 12089, 12206, 13756, 15473, 15556, 15623, 15706, 15756, 16040, 17473, 19423, 19939, 20089]}, "edge": {"target": [], "time": []}}, "mouseout": {"state": {"target": ["0", "0", "32", "21", "19", "18", "4", "5", "4", "18", "13", "19", "21", "19", "14", "16", "4", "3", "9", "3", "7", "15", "17", "20", "19", "12", "23", "28", "26", "27", "29", "29", "26", "25", "31"], "time": [1039, 1806, 2889, 4589, 4639, 4689, 4789, 5606, 5696, 5806, 6957, 7239, 8022, 8139, 8223, 9756, 9856, 9890, 11823, 11906, 11973, 12156, 13589, 15439, 15489, 15573, 15639, 15723, 15939, 17389, 18863, 19357, 19523, 19973, 20156]}, "edge": {"target": [], "time": []}}}, "displayed_time": "25.21", "trialTime": 26420, "trial_type": "mouselab-mdp", "trial_index": 26, "time_elapsed": 998141, "internal_node_id": "0.0-4.0-1.0-11.0"}}, {"uniqueid": "w70266858:a52181975", "current_trial": 27, "dateTime": 1691162197570, "trialdata": {"revealed_states": [], "clicked_states": ["32", "5", "17", "16", "21", "29", "27"], "num_clicks_accrued": [0, 0, 0, 0, 0, 0, 0, 0, 0, 0, 0, 0, 0], "stateRewards": ["", 1, 2, -8, 9, 18, -83, -11, 6, -64, -48, 17, -2, -2, -5, -3, -24, -3, -86, -2, 48, -41, -22, -2, 4, 7, 8, 81, 13, -48, 10, 61, 19, 57], "withholdReward": false, "trial_id": "mdp_trial_13", "block": "test", "trialIndex": 16, "score": 88.2, "costs": -9.8, "simulationMode": [null, null, null, null, null], "rewards": [-2, 4, 7, 8, 81], "path": ["0", "0", "23", "24", "25", "26", "27"], "rt": [15951, 40, 276, 125, 66], "actions": ["left", "left", "left", "up", "up"], "actionTimes": [17037, 17586, 18373, 19004, 19580], "queries": {"click": {"state": {"target": ["32", "5", "17", "16", "21", "29", "27"], "time": [2127, 3909, 5910, 8819, 10687, 12523, 14356]}, "edge": {"target": [], "time": []}}, "mouseover": {"state": {"target": ["31", "30", "32", "6", "5", "4", "7", "18", "14", "17", "14", "15", "16", "15", "14", "20", "21", "0", "23", "28", "26", "29", "27", "26", "33"], "time": [1578, 1645, 1762, 2978, 3128, 4578, 4629, 4695, 4812, 5312, 6562, 8578, 8679, 9095, 9162, 9312, 9678, 11228, 11278, 11345, 11462, 11662, 13162, 15128, 15362]}, "edge": {"target": [], "time": []}}, "mouseout": {"state": {"target": ["0", "31", "30", "32", "6", "5", "4", "7", "18", "14", "17", "14", "15", "16", "15", "14", "20", "21", "0", "23", "28", "26", "29", "27", "26"], "time": [978, 1611, 1661, 2495, 3011, 4562, 4612, 4645, 4745, 4895, 6495, 6729, 8628, 9045, 9128, 9212, 9328, 11028, 11262, 11295, 11412, 11578, 13028, 15095, 15162]}, "edge": {"target": [], "time": []}}}, "displayed_time": "20.10", "trialTime": 21189, "trial_type": "mouselab-mdp", "trial_index": 27, "time_elapsed": 1019438, "internal_node_id": "0.0-4.0-1.0-12.0"}}, {"uniqueid": "w70266858:a52181975", "current_trial": 28, "dateTime": 1691162214738, "trialdata": {"revealed_states": [], "clicked_states": ["27"], "num_clicks_accrued": [0, 0, 0, 0, 0, 0, 0, 0, 0, 0, 0, 0, 0], "stateRewards": ["", -1, -3, -7, -4, -85, -70, 79, 8, 84, -66, 42, 2, -2, -3, -16, -54, -66, 68, -3, 21, -14, 7, -2, -1, -3, -8, 75, 80, 86, -7, -84, 73, -16], "withholdReward": false, "trial_id": "mdp_trial_14", "block": "test", "trialIndex": 17, "score": 59.6, "costs": -1.4, "simulationMode": [null, null, null, null, null], "rewards": [-2, -1, -3, -8, 75], "path": ["0", "0", "23", "24", "25", "26", "27"], "rt": [4269, 3, 383, 51, 157], "actions": ["left", "left", "left", "up", "up"], "actionTimes": [5632, 6171, 7068, 7636, 8309], "queries": {"click": {"state": {"target": ["27"], "time": [2046]}, "edge": {"target": [], "time": []}}, "mouseover": {"state": {"target": ["28", "27", "28", "23"], "time": [1767, 1868, 2517, 2567]}, "edge": {"target": [], "time": []}}, "mouseout": {"state": {"target": ["33", "30", "31", "28", "27", "28", "23", "32"], "time": [833, 866, 900, 1800, 2484, 2534, 2584, 11234]}, "edge": {"target": [], "time": []}}}, "displayed_time": "15.37", "trialTime": 17062, "trial_type": "mouselab-mdp", "trial_index": 28, "time_elapsed": 1036607, "internal_node_id": "0.0-4.0-1.0-13.0"}}, {"uniqueid": "w70266858:a52181975", "current_trial": 29, "dateTime": 1691162232072, "trialdata": {"revealed_states": [], "clicked_states": ["27"], "num_clicks_accrued": [0, 0, 0, 0, 0, 0, 0, 0, 0, 0, 0, 0, 0], "stateRewards": ["", -1, -2, 8, -6, -79, -6, 87, 9, -5, -66, -38, 2, 2, 5, -6, -82, 74, 85, -8, 67, -30, -15, 1, -2, -2, -2, 87, 64, 49, 7, 2, -38, -9], "withholdReward": false, "trial_id": "mdp_trial_15", "block": "test", "trialIndex": 18, "score": 80.6, "costs": -1.4, "simulationMode": [null, null, null, null, null], "rewards": [1, -2, -2, -2, 87], "path": ["0", "0", "23", "24", "25", "26", "27"], "rt": [4111, 59, 42, 103, 73], "actions": ["left", "left", "left", "up", "up"], "actionTimes": [5916, 6491, 7041, 7636, 8221], "queries": {"click": {"state": {"target": ["27"], "time": [3060]}, "edge": {"target": [], "time": []}}, "mouseover": {"state": {"target": ["0", "23", "24", "29", "27", "26", "24", "31"], "time": [2315, 2397, 2430, 2547, 2765, 3547, 3614, 3647]}, "edge": {"target": [], "time": []}}, "mouseout": {"state": {"target": ["31", "23", "0", "23", "24", "29", "27", "26", "24", "31"], "time": [1080, 1364, 2330, 2414, 2464, 2597, 3514, 3564, 3630, 3680]}, "edge": {"target": [], "time": []}}}, "displayed_time": "15.81", "trialTime": 17227, "trial_type": "mouselab-mdp", "trial_index": 29, "time_elapsed": 1053940, "internal_node_id": "0.0-4.0-1.0-14.0"}}, {"uniqueid": "w70266858:a52181975", "current_trial": 30, "dateTime": 1691162266228, "trialdata": {"revealed_states": [], "clicked_states": ["27", "29", "16", "17", "21", "20", "5", "9", "32", "33"], "num_clicks_accrued": [0, 0, 0, 0, 0, 0, 0, 0, 0, 0, 0, 0, 0], "stateRewards": ["", -2, -3, -5, 8, 27, 11, 43, -6, -24, -87, 69, -2, 1, 1, 9, 19, 48, -37, 9, -14, 45, 62, 1, 2, 1, 16, -81, -41, 22, 4, -6, -63, 47], "withholdReward": false, "trial_id": "mdp_trial_16", "block": "test", "trialIndex": 19, "score": 43, "costs": -14.000000000000002, "simulationMode": [null, null, null, null, null], "rewards": [-2, 1, 1, 9, 48], "path": ["0", "0", "12", "13", "14", "15", "17"], "rt": [28035, 733, 84, 44, 182], "actions": ["right", "right", "right", "up", "right"], "actionTimes": [29257, 30500, 31101, 31662, 32366], "queries": {"click": {"state": {"target": ["27", "29", "16", "17", "21", "20", "5", "9", "32", "33"], "time": [1911, 5088, 7663, 9606, 13336, 15646, 18847, 20864, 24014, 25976]}, "edge": {"target": [], "time": []}}, "mouseover": {"state": {"target": ["23", "28", "27", "26", "33", "32", "29", "25", "16", "17", "4", "5", "4", "18", "13", "19", "21", "20", "14", "18", "7", "4", "5", "9", "2", "1", "0", "23", "31", "32", "33", "30"], "time": [1515, 1582, 1749, 2282, 4282, 4365, 4948, 5465, 7199, 8265, 10382, 10965, 12682, 12799, 12865, 12948, 13099, 14916, 18482, 18515, 18549, 18599, 18699, 19232, 21499, 21565, 22982, 23065, 23349, 23882, 24699, 26616]}, "edge": {"target": [], "time": []}}, "mouseout": {"state": {"target": ["0", "23", "28", "27", "26", "33", "32", "29", "25", "16", "17", "4", "5", "4", "18", "13", "19", "21", "20", "14", "18", "7", "4", "5", "5", "9", "2", "1", "0", "23", "31", "32", "33", "30", "22", "19"], "time": [1499, 1548, 1615, 2249, 2299, 4332, 4766, 5432, 5482, 8199, 10115, 10399, 12649, 12715, 12848, 12882, 13032, 13965, 16399, 18499, 18532, 18565, 18666, 18939, 19166, 21399, 21549, 21616, 23032, 23183, 23650, 24599, 26599, 26649, 33165, 33199]}, "edge": {"target": [], "time": []}}}, "displayed_time": "32.88", "trialTime": 34031, "trial_type": "mouselab-mdp", "trial_index": 30, "time_elapsed": 1088096, "internal_node_id": "0.0-4.0-1.0-15.0"}}, {"uniqueid": "w70266858:a52181975", "current_trial": 31, "dateTime": 1691162282825, "trialdata": {"revealed_states": [], "clicked_states": ["20"], "num_clicks_accrued": [0, 0, 0, 0, 0, 0, 0, 0, 0, 0, 0, 0, 0], "stateRewards": ["", -2, -3, -3, 9, 79, 67, 22, -15, -56, 27, -85, -2, 4, -4, -15, -20, -32, 60, 15, 71, 57, 17, 1, 2, -8, 15, -37, -81, 82, 15, 21, -3, 2], "withholdReward": false, "trial_id": "mdp_trial_17", "block": "test", "trialIndex": 20, "score": 82.6, "costs": -1.4, "simulationMode": [null, null, null, null, null], "rewards": [-2, 4, -4, 15, 71], "path": ["0", "0", "12", "13", "14", "19", "20"], "rt": [4465, 17, 125, 676, 228], "actions": ["right", "right", "right", "down", "right"], "actionTimes": [5590, 6117, 6758, 7943, 8678], "queries": {"click": {"state": {"target": ["20"], "time": [2290]}, "edge": {"target": [], "time": []}}, "mouseover": {"state": {"target": ["0", "22", "21", "20", "21"], "time": [1165, 1765, 1898, 2214, 4665]}, "edge": {"target": [], "time": []}}, "mouseout": {"state": {"target": ["21", "13", "12", "0", "22", "21", "20", "21"], "time": [648, 798, 915, 1631, 1815, 1915, 2615, 4698]}, "edge": {"target": [], "time": []}}}, "displayed_time": "15.13", "trialTime": 16479, "trial_type": "mouselab-mdp", "trial_index": 31, "time_elapsed": 1104693, "internal_node_id": "0.0-4.0-1.0-16.0"}}, {"uniqueid": "w70266858:a52181975", "current_trial": 32, "dateTime": 1691162306585, "trialdata": {"revealed_states": [], "clicked_states": ["21", "9", "32", "33", "27", "29", "17", "16"], "num_clicks_accrued": [0, 0, 0, 0, 0, 0, 0, 0, 0, 0, 0, 0, 0], "stateRewards": ["", -2, 1, -7, 9, 8, 25, 61, -7, -17, 69, -81, 1, 4, -4, -11, 16, 67, 44, 3, 6, -45, -54, -2, 3, 6, -11, -15, 32, -47, 3, -39, -6, -88], "withholdReward": false, "trial_id": "mdp_trial_18", "block": "test", "trialIndex": 21, "score": 45.8, "costs": -11.200000000000001, "simulationMode": [null, null, null, null, null], "rewards": [1, 4, -4, -11, 67], "path": ["0", "0", "12", "13", "14", "15", "17"], "rt": [17948, 1, 20, 81, 489], "actions": ["right", "right", "right", "up", "right"], "actionTimes": [19390, 19905, 20441, 21035, 22026], "queries": {"click": {"state": {"target": ["21", "9", "32", "33", "27", "29", "17", "16"], "time": [2476, 4544, 7055, 9137, 10990, 12784, 14576, 16420]}, "edge": {"target": [], "time": []}}, "mouseover": {"state": {"target": ["22", "21", "20", "20", "14", "2", "8", "9", "11", "25", "33", "32", "33", "29", "26", "27", "26", "29", "26", "28", "15", "17", "16", "15", "13", "12"], "time": [2119, 2269, 2985, 3452, 3702, 3852, 4086, 4303, 4952, 5069, 5286, 6953, 7936, 9786, 9952, 10102, 11686, 11852, 13202, 13252, 13452, 13586, 15202, 17102, 17169, 17202]}, "edge": {"target": [], "time": []}}, "mouseout": {"state": {"target": ["0", "22", "21", "20", "20", "14", "2", "8", "9", "11", "25", "33", "32", "33", "29", "26", "27", "26", "29", "26", "28", "15", "17", "16", "15", "13", "12"], "time": [1952, 2169, 2885, 3069, 3502, 3735, 3885, 4136, 4902, 4985, 5119, 6852, 7669, 9569, 9919, 10002, 11569, 11786, 13169, 13235, 13269, 13502, 15085, 17052, 17136, 17186, 17219]}, "edge": {"target": [], "time": []}}}, "displayed_time": "22.54", "trialTime": 23643, "trial_type": "mouselab-mdp", "trial_index": 32, "time_elapsed": 1128454, "internal_node_id": "0.0-4.0-1.0-17.0"}}, {"uniqueid": "w70266858:a52181975", "current_trial": 33, "dateTime": 1691162323794, "trialdata": {"revealed_states": [], "clicked_states": ["20", "16"], "num_clicks_accrued": [0, 0, 0, 0, 0, 0, 0, 0, 0, 0, 0, 0, 0], "stateRewards": ["", -2, 2, 8, -6, -25, 3, 87, 2, -62, -2, 74, -2, -1, 2, -1, 79, 49, -37, -14, 5, 67, -9, -1, 2, -2, 5, 15, 38, 32, -14, -38, -38, 30], "withholdReward": false, "trial_id": "mdp_trial_19", "block": "test", "trialIndex": 22, "score": 74.2, "costs": -2.8, "simulationMode": [null, null, null, null, null], "rewards": [-2, -1, 2, -1, 79], "path": ["0", "0", "12", "13", "14", "15", "16"], "rt": [6312, 107, 34, 78, 45], "actions": ["right", "right", "right", "up", "up"], "actionTimes": [8030, 8653, 9179, 9774, 10324], "queries": {"click": {"state": {"target": ["20", "16"], "time": [2709, 5148]}, "edge": {"target": [], "time": []}}, "mouseover": {"state": {"target": ["12", "22", "19", "20", "19", "22", "13", "14", "15", "16", "16", "17", "18", "3", "9", "8"], "time": [2211, 2294, 2328, 2628, 3178, 3344, 3594, 3728, 4596, 4744, 5045, 5611, 5978, 6146, 6344, 7344]}, "edge": {"target": [], "time": []}}, "mouseout": {"state": {"target": ["0", "12", "22", "19", "20", "20", "19", "22", "13", "14", "15", "16", "16", "16", "17", "18", "3", "9", "8"], "time": [1561, 2228, 2311, 2378, 2778, 3128, 3261, 3478, 3644, 3745, 4711, 4895, 5247, 5544, 5694, 6011, 6228, 7312, 7361]}, "edge": {"target": [], "time": []}}}, "displayed_time": "15.72", "trialTime": 17093, "trial_type": "mouselab-mdp", "trial_index": 33, "time_elapsed": 1145663, "internal_node_id": "0.0-4.0-1.0-18.0"}}, {"uniqueid": "w70266858:a52181975", "current_trial": 34, "dateTime": 1691162341124, "trialdata": {"revealed_states": [], "clicked_states": ["16", "17", "9"], "num_clicks_accrued": [0, 0, 0, 0, 0, 0, 0, 0, 0, 0, 0, 0, 0], "stateRewards": ["", -2, 2, -4, -4, -59, 88, 62, -3, 69, -15, -34, 1, -2, -5, 7, -54, -20, 78, -16, -74, -53, -21, 2, -4, 2, 13, -8, -44, 26, 9, 72, 4, 17], "withholdReward": false, "trial_id": "mdp_trial_20", "block": "test", "trialIndex": 23, "score": 57.8, "costs": -4.199999999999999, "simulationMode": [null, null, null, null, null], "rewards": [-2, 2, -4, -3, 69], "path": ["0", "0", "1", "2", "3", "8", "9"], "rt": [8477, 221, 66, 176, 206], "actions": ["up", "up", "up", "left", "up"], "actionTimes": [9678, 10417, 10994, 11704, 12403], "queries": {"click": {"state": {"target": ["16", "17", "9"], "time": [2029, 4586, 6445]}, "edge": {"target": [], "time": []}}, "mouseover": {"state": {"target": ["18", "16", "28", "25", "33", "31", "13", "14", "17", "12", "28", "8", "9"], "time": [1810, 1927, 2710, 2760, 2860, 4193, 4277, 4310, 4377, 5077, 5193, 5477, 5577]}, "edge": {"target": [], "time": []}}, "mouseout": {"state": {"target": ["10", "1", "18", "16", "28", "25", "33", "31", "13", "14", "17", "12", "28", "8", "9"], "time": [810, 910, 1860, 2594, 2743, 2793, 2893, 4210, 4293, 4327, 5027, 5110, 5243, 5510, 8727]}, "edge": {"target": [], "time": []}}}, "displayed_time": "15.20", "trialTime": 17204, "trial_type": "mouselab-mdp", "trial_index": 34, "time_elapsed": 1162992, "internal_node_id": "0.0-4.0-1.0-19.0"}}, {"uniqueid": "w70266858:a52181975", "current_trial": 35, "dateTime": 1691162358978, "trialdata": {"revealed_states": [], "clicked_states": ["21", "32", "5"], "num_clicks_accrued": [0, 0, 0, 0, 0, 0, 0, 0, 0, 0, 0, 0, 0], "stateRewards": ["", 2, -4, 4, 9, 69, 9, -75, 12, -86, 66, 25, -1, 3, 2, -13, -88, -3, 1, 4, -69, 49, -84, 2, -1, 4, 2, -18, -81, -52, -15, -69, -54, 25], "withholdReward": false, "trial_id": "mdp_trial_21", "block": "test", "trialIndex": 24, "score": 75.8, "costs": -4.199999999999999, "simulationMode": [null, null, null, null, null], "rewards": [2, -4, 4, 9, 69], "path": ["0", "0", "1", "2", "3", "4", "5"], "rt": [11183, 69, 2, 32, 164], "actions": ["up", "up", "up", "right", "up"], "actionTimes": [12945, 13526, 14040, 14605, 15302], "queries": {"click": {"state": {"target": ["21", "32", "5"], "time": [2610, 7010, 9961]}, "edge": {"target": [], "time": []}}, "mouseover": {"state": {"target": ["12", "19", "21", "23", "24", "25", "33", "32", "30", "28", "10", "3", "5", "4", "0", "31", "31", "24", "28"], "time": [2169, 2269, 2470, 3136, 3203, 3369, 4321, 6987, 9036, 9136, 9203, 9270, 9503, 10619, 10753, 10869, 11453, 11654, 11769]}, "edge": {"target": [], "time": []}}, "mouseout": {"state": {"target": ["8", "10", "0", "12", "19", "21", "23", "24", "25", "33", "32", "30", "28", "10", "3", "5", "4", "0", "31", "31", "24", "28"], "time": [1136, 1202, 2153, 2186, 2403, 2969, 3186, 3219, 4069, 6420, 8204, 9070, 9170, 9236, 9336, 10603, 10653, 10769, 11120, 11470, 11736, 11819]}, "edge": {"target": [], "time": []}}}, "displayed_time": "15.82", "trialTime": 17735, "trial_type": "mouselab-mdp", "trial_index": 35, "time_elapsed": 1180846, "internal_node_id": "0.0-4.0-1.0-20.0"}}, {"uniqueid": "w70266858:a52181975", "current_trial": 36, "dateTime": 1691162375800, "trialdata": {"revealed_states": [], "clicked_states": ["9"], "num_clicks_accrued": [0, 0, 0, 0, 0, 0, 0, 0, 0, 0, 0, 0, 0], "stateRewards": ["", -2, 3, -1, -9, 44, 48, -37, -3, 71, -39, 87, -1, 3, -4, 4, -21, 59, -15, -8, -1, 28, -38, 2, 4, 4, 8, -85, -72, -63, 14, 58, 63, -46], "withholdReward": false, "trial_id": "mdp_trial_22", "block": "test", "trialIndex": 25, "score": 66.6, "costs": -1.4, "simulationMode": [null, null, null, null, null], "rewards": [-2, 3, -1, -3, 71], "path": ["0", "0", "1", "2", "3", "8", "9"], "rt": [4241, 20, 343, 443, 21], "actions": ["up", "up", "up", "left", "up"], "actionTimes": [5937, 6476, 7333, 8284, 8812], "queries": {"click": {"state": {"target": ["9"], "time": [2702]}, "edge": {"target": [], "time": []}}, "mouseover": {"state": {"target": ["1", "10", "8", "9"], "time": [2304, 2388, 2437, 2538]}, "edge": {"target": [], "time": []}}, "mouseout": {"state": {"target": ["0", "1", "10", "8", "9"], "time": [2237, 2337, 2404, 2487, 3221]}, "edge": {"target": [], "time": []}}}, "displayed_time": "15.70", "trialTime": 16709, "trial_type": "mouselab-mdp", "trial_index": 36, "time_elapsed": 1197668, "internal_node_id": "0.0-4.0-1.0-21.0"}}, {"uniqueid": "w70266858:a52181975", "current_trial": 37, "dateTime": 1691162392817, "trialdata": {"revealed_states": [], "clicked_states": ["21", "17", "16"], "num_clicks_accrued": [0, 0, 0, 0, 0, 0, 0, 0, 0, 0, 0, 0, 0], "stateRewards": ["", -2, -4, 2, 10, -17, 18, 73, 11, -32, 23, -13, -2, -4, 7, 12, -25, 66, -23, 15, 40, -76, -9, 1, 2, -7, -5, -20, 24, 3, -5, 16, -73, 70], "withholdReward": false, "trial_id": "mdp_trial_23", "block": "test", "trialIndex": 26, "score": 74.8, "costs": -4.199999999999999, "simulationMode": [null, null, null, null, null], "rewards": [-2, -4, 7, 12, 66], "path": ["0", "0", "12", "13", "14", "15", "17"], "rt": [9352, 103, 201, 101, 290], "actions": ["right", "right", "right", "up", "right"], "actionTimes": [10837, 11449, 12163, 12780, 13570], "queries": {"click": {"state": {"target": ["21", "17", "16"], "time": [2828, 5716, 8719]}, "edge": {"target": [], "time": []}}, "mouseover": {"state": {"target": ["19", "20", "21", "15", "17", "22", "15", "16", "18", "0"], "time": [2111, 2345, 2661, 5061, 5595, 7594, 8428, 8612, 9144, 9211]}, "edge": {"target": [], "time": []}}, "mouseout": {"state": {"target": ["1", "0", "19", "20", "21", "21", "15", "17", "22", "15", "16", "18", "0"], "time": [1027, 1945, 2161, 2545, 2845, 3278, 5094, 6011, 7627, 8529, 9111, 9161, 9227]}, "edge": {"target": [], "time": []}}}, "displayed_time": "15.48", "trialTime": 16899, "trial_type": "mouselab-mdp", "trial_index": 37, "time_elapsed": 1214685, "internal_node_id": "0.0-4.0-1.0-22.0"}}, {"uniqueid": "w70266858:a52181975", "current_trial": 38, "dateTime": 1691162409617, "trialdata": {"revealed_states": [], "clicked_states": ["33"], "num_clicks_accrued": [0, 0, 0, 0, 0, 0, 0, 0, 0, 0, 0, 0, 0], "stateRewards": ["", -2, -3, 4, 1, 33, -53, 15, 9, -12, 61, -6, -2, 4, 6, -11, 47, -43, -7, -11, 46, 23, -28, -1, -1, 3, -10, 11, 76, -76, 10, 18, -38, 87], "withholdReward": false, "trial_id": "mdp_trial_24", "block": "test", "trialIndex": 27, "score": 96.6, "costs": -1.4, "simulationMode": [null, null, null, null, null], "rewards": [-1, -1, 3, 10, 87], "path": ["0", "0", "23", "24", "25", "30", "33"], "rt": [3742, 119, 216, 375, 265], "actions": ["left", "left", "left", "down", "left"], "actionTimes": [5170, 5796, 6525, 7416, 8191], "queries": {"click": {"state": {"target": ["33"], "time": [2453]}, "edge": {"target": [], "time": []}}, "mouseover": {"state": {"target": ["0", "23", "30", "33", "32", "32"], "time": [1724, 1807, 2023, 2357, 2873, 4457]}, "edge": {"target": [], "time": []}}, "mouseout": {"state": {"target": ["12", "0", "0", "23", "30", "33", "32", "32"], "time": [1006, 1073, 1790, 1840, 2107, 2823, 2890, 9673]}, "edge": {"target": [], "time": []}}}, "displayed_time": "15.43", "trialTime": 16677, "trial_type": "mouselab-mdp", "trial_index": 38, "time_elapsed": 1231485, "internal_node_id": "0.0-4.0-1.0-23.0"}}, {"uniqueid": "w70266858:a52181975", "current_trial": 39, "dateTime": 1691162426451, "trialdata": {"revealed_states": [], "clicked_states": ["21", "33", "32"], "num_clicks_accrued": [0, 0, 0, 0, 0, 0, 0, 0, 0, 0, 0, 0, 0], "stateRewards": ["", -1, 1, -1, 2, 19, 85, -18, 2, -3, -26, 36, 2, 4, 7, -9, -18, 70, 72, -5, 35, -20, -28, 1, -2, -4, -3, -59, -11, -63, -2, -72, 59, -69], "withholdReward": false, "trial_id": "mdp_trial_25", "block": "test", "trialIndex": 28, "score": 47.8, "costs": -4.199999999999999, "simulationMode": [null, null, null, null, null], "rewards": [1, -2, -4, -2, 59], "path": ["0", "0", "23", "24", "25", "30", "32"], "rt": [9460, 148, 219, 181, 330], "actions": ["left", "left", "left", "down", "down"], "actionTimes": [10898, 11550, 12271, 12966, 13815], "queries": {"click": {"state": {"target": ["21", "33", "32"], "time": [2751, 5402, 7641]}, "edge": {"target": [], "time": []}}, "mouseover": {"state": {"target": ["0", "21", "31", "24", "33", "32"], "time": [1952, 2567, 3567, 5068, 5267, 7517]}, "edge": {"target": [], "time": []}}, "mouseout": {"state": {"target": ["0", "0", "21", "31", "24", "33", "32"], "time": [1300, 2267, 3384, 3617, 5100, 6150, 7692]}, "edge": {"target": [], "time": []}}}, "displayed_time": "15.44", "trialTime": 16703, "trial_type": "mouselab-mdp", "trial_index": 39, "time_elapsed": 1248319, "internal_node_id": "0.0-4.0-1.0-24.0"}}, {"uniqueid": "w70266858:a52181975", "current_trial": 40, "dateTime": 1691162447147, "trialdata": {"revealed_states": [], "clicked_states": ["32", "9", "17", "5", "16", "20"], "num_clicks_accrued": [0, 0, 0, 0, 0, 0, 0, 0, 0, 0, 0, 0, 0], "stateRewards": ["", -1, -4, -1, -5, -28, -23, -15, -15, -38, 59, -87, 2, 2, -5, 9, -55, -39, -71, -6, 85, -85, -11, -1, -2, 5, -10, 1, 25, 41, -4, 69, -35, 86], "withholdReward": false, "trial_id": "mdp_trial_26", "block": "test", "trialIndex": 29, "score": 69.6, "costs": -8.4, "simulationMode": [null, null, null, null, null], "rewards": [2, 2, -5, -6, 85], "path": ["0", "0", "12", "13", "14", "19", "20"], "rt": [14496, 123, 169, 144, 252], "actions": ["right", "right", "right", "down", "right"], "actionTimes": [15920, 16549, 17229, 17869, 18628], "queries": {"click": {"state": {"target": ["32", "9", "17", "5", "16", "20"], "time": [2627, 5304, 7131, 9283, 11116, 13048]}, "edge": {"target": [], "time": []}}, "mouseover": {"state": {"target": ["0", "31", "32", "23", "28", "8", "9", "5", "6", "16", "17", "15", "18", "7", "6", "5", "4", "16", "15", "14", "19", "21", "20", "19", "22", "23", "24", "26", "27"], "time": [2075, 2241, 2441, 4824, 4874, 5024, 5091, 5774, 6174, 6274, 6357, 7741, 7791, 8124, 8291, 8708, 9758, 10124, 11691, 11741, 11824, 11958, 12391, 13391, 13458, 13591, 13791, 13891, 14108]}, "edge": {"target": [], "time": []}}, "mouseout": {"state": {"target": ["0", "31", "32", "23", "28", "8", "9", "5", "6", "16", "17", "15", "18", "7", "6", "5", "4", "16", "15", "14", "19", "21", "20", "19", "22", "23", "24", "26", "27"], "time": [2091, 2374, 3074, 4841, 4908, 5041, 5741, 5791, 6224, 6291, 7708, 7774, 7841, 8158, 8624, 9724, 9774, 11658, 11724, 11791, 11891, 12191, 13358, 13424, 13474, 13724, 13809, 14041, 15174]}, "edge": {"target": [], "time": []}}}, "displayed_time": "19.14", "trialTime": 20574, "trial_type": "mouselab-mdp", "trial_index": 40, "time_elapsed": 1269015, "internal_node_id": "0.0-4.0-1.0-25.0"}}, {"uniqueid": "w70266858:a52181975", "current_trial": 41, "dateTime": 1691162463123, "trialdata": {"revealed_states": [], "clicked_states": ["21", "20", "17"], "num_clicks_accrued": [0, 0, 0, 0, 0, 0, 0, 0, 0, 0, 0, 0, 0], "stateRewards": ["", -2, -1, -2, -15, 87, 57, 29, -10, 77, -80, -7, 1, -3, 6, 14, -11, 87, -59, 4, -71, 16, -11, 2, 2, -7, 2, -47, 61, 50, 14, -20, 17, 81], "withholdReward": false, "trial_id": "mdp_trial_27", "block": "test", "trialIndex": 30, "score": 100.8, "costs": -4.199999999999999, "simulationMode": [null, null, null, null, null], "rewards": [1, -3, 6, 14, 87], "path": ["0", "0", "12", "13", "14", "15", "17"], "rt": [7550, 57, 16, 211, 464], "actions": ["right", "right", "right", "up", "right"], "actionTimes": [9045, 9617, 10143, 10856, 11825], "queries": {"click": {"state": {"target": ["21", "20", "17"], "time": [2370, 4461, 6289]}, "edge": {"target": [], "time": []}}, "mouseover": {"state": {"target": ["0", "21", "20", "14", "18", "16", "17", "16"], "time": [1678, 2142, 2909, 4975, 5092, 5275, 5942, 6926]}, "edge": {"target": [], "time": []}}, "mouseout": {"state": {"target": ["1", "12", "0", "21", "21", "20", "14", "18", "16", "17", "16", "18", "13", "22"], "time": [775, 909, 1926, 2457, 2792, 4892, 5025, 5142, 5592, 6351, 13042, 13159, 13192, 13225]}, "edge": {"target": [], "time": []}}}, "displayed_time": "15.50", "trialTime": 15850, "trial_type": "mouselab-mdp", "trial_index": 41, "time_elapsed": 1284991, "internal_node_id": "0.0-4.0-1.0-26.0"}}, {"uniqueid": "w70266858:a52181975", "current_trial": 42, "dateTime": 1691162491506, "trialdata": {"revealed_states": [], "clicked_states": ["32", "5", "29", "17", "9", "20", "21", "33", "18"], "num_clicks_accrued": [0, 0, 0, 0, 0, 0, 0, 0, 0, 0, 0, 0, 0], "stateRewards": ["", -1, 2, -2, 13, -56, -28, 10, 14, 53, -80, -29, 1, -3, -3, -14, 14, 9, -40, -9, 18, 18, 48, 1, 1, 1, -9, 64, -39, -9, 7, -52, -78, 7], "withholdReward": false, "trial_id": "mdp_trial_28", "block": "test", "trialIndex": 31, "score": 53.4, "costs": -12.600000000000001, "simulationMode": [null, null, null, null, null], "rewards": [-1, 2, -2, 14, 53], "path": ["0", "0", "1", "2", "3", "8", "9"], "rt": [22486, 103, 47, 40, 99], "actions": ["up", "up", "up", "left", "up"], "actionTimes": [24093, 24713, 25257, 25817, 26426], "queries": {"click": {"state": {"target": ["32", "5", "29", "17", "9", "20", "21", "33", "18"], "time": [2799, 4671, 6468, 8307, 10387, 12663, 15936, 17733, 21498]}, "edge": {"target": [], "time": []}}, "mouseover": {"state": {"target": ["30", "32", "30", "26", "8", "5", "11", "27", "26", "29", "12", "13", "17", "14", "13", "1", "10", "8", "9", "8", "2", "1", "13", "19", "20", "20", "19", "22", "31", "30", "21", "31", "30", "33", "30", "23", "1", "16", "18", "2", "18"], "time": [2359, 2660, 3359, 3475, 3609, 3892, 5592, 5709, 5792, 6126, 7392, 7459, 7625, 9392, 9459, 9659, 9876, 10009, 10226, 11009, 11209, 11292, 11509, 11676, 11759, 12177, 14894, 14976, 15409, 15475, 15827, 16459, 16492, 16575, 18326, 18442, 19809, 20109, 20626, 21076, 21326]}, "edge": {"target": [], "time": []}}, "mouseout": {"state": {"target": ["0", "30", "32", "30", "26", "8", "5", "11", "27", "26", "29", "12", "13", "17", "14", "13", "1", "10", "8", "9", "8", "2", "1", "13", "19", "20", "20", "19", "22", "31", "30", "21", "31", "30", "33", "30", "23", "1", "16", "18", "2", "18"], "time": [2242, 2425, 3275, 3375, 3525, 3642, 5275, 5642, 5742, 5826, 7175, 7425, 7475, 9109, 9442, 9492, 9692, 9942, 10109, 10909, 11092, 11225, 11359, 11576, 11692, 11926, 14809, 14959, 15009, 15442, 15492, 16013, 16476, 16542, 18293, 18359, 18492, 19826, 20559, 20676, 21209, 21596]}, "edge": {"target": [], "time": []}}}, "displayed_time": "26.94", "trialTime": 28267, "trial_type": "mouselab-mdp", "trial_index": 42, "time_elapsed": 1313374, "internal_node_id": "0.0-4.0-1.0-27.0"}}, {"uniqueid": "w70266858:a52181975", "current_trial": 43, "dateTime": 1691162515109, "trialdata": {"revealed_states": [], "clicked_states": ["33", "9", "5", "17", "16", "18", "20", "21"], "num_clicks_accrued": [0, 0, 0, 0, 0, 0, 0, 0, 0, 0, 0, 0, 0], "stateRewards": ["", -1, 3, 8, 10, -86, 61, -36, 10, 17, -60, 24, -1, -3, 3, 11, 50, 60, 33, -3, -20, 58, -6, 1, -4, -4, 13, -70, -71, 43, 14, 52, 82, -11], "withholdReward": false, "trial_id": "mdp_trial_29", "block": "test", "trialIndex": 32, "score": 58.8, "costs": -11.200000000000001, "simulationMode": [null, null, null, null, null], "rewards": [-1, -3, 3, 11, 60], "path": ["0", "0", "12", "13", "14", "15", "17"], "rt": [17362, 125, 194, 29, 186], "actions": ["right", "right", "right", "up", "right"], "actionTimes": [19002, 19618, 20320, 20855, 21546], "queries": {"click": {"state": {"target": ["33", "9", "5", "17", "16", "18", "20", "21"], "time": [3455, 5194, 6818, 8593, 10414, 12533, 14373, 16329]}, "edge": {"target": [], "time": []}}, "mouseover": {"state": {"target": ["23", "24", "25", "33", "33", "24", "10", "9", "5", "5", "5", "4", "15", "17", "15", "16", "15", "14", "13", "18", "13", "14", "19", "20", "21", "22", "31", "32"], "time": [2291, 2341, 2391, 2474, 3192, 3891, 4008, 4328, 5808, 6158, 6424, 7324, 7610, 7691, 9275, 9641, 10974, 11058, 12142, 12476, 13008, 13058, 13091, 13474, 15091, 17024, 17375, 17674]}, "edge": {"target": [], "time": []}}, "mouseout": {"state": {"target": ["0", "23", "24", "25", "33", "33", "24", "10", "9", "5", "5", "5", "4", "15", "17", "15", "16", "15", "14", "13", "18", "13", "14", "19", "20", "21", "22", "31", "32"], "time": [2274, 2324, 2374, 2408, 2625, 3791, 3924, 4024, 5741, 5874, 6291, 7275, 7341, 7641, 9241, 9291, 10924, 11024, 11941, 12209, 12941, 13024, 13074, 13108, 14841, 16891, 17058, 17458, 22325]}, "edge": {"target": [], "time": []}}}, "displayed_time": "22.06", "trialTime": 23487, "trial_type": "mouselab-mdp", "trial_index": 43, "time_elapsed": 1336978, "internal_node_id": "0.0-4.0-1.0-28.0"}}, {"uniqueid": "w70266858:a52181975", "current_trial": 44, "dateTime": 1691162538091, "trialdata": {"revealed_states": [], "clicked_states": ["21", "9", "33", "17", "16", "27", "29"], "num_clicks_accrued": [0, 0, 0, 0, 0, 0, 0, 0, 0, 0, 0, 0, 0], "stateRewards": ["", 2, -3, 5, -14, -63, -9, -24, -11, -54, -43, 68, 2, -2, -4, 7, -64, 30, 47, 12, -74, 11, 86, 1, -3, 3, 10, -71, -42, -52, -1, -29, -16, 69], "withholdReward": false, "trial_id": "mdp_trial_30", "block": "test", "trialIndex": 33, "score": 59.2, "costs": -9.8, "simulationMode": [null, null, null, null, null], "rewards": [1, -3, 3, -1, 69], "path": ["0", "0", "23", "24", "25", "30", "33"], "rt": [17216, 104, 14, 116, 258], "actions": ["left", "left", "left", "down", "left"], "actionTimes": [18474, 19097, 19624, 20259, 21034], "queries": {"click": {"state": {"target": ["21", "9", "33", "17", "16", "27", "29"], "time": [2059, 4114, 6107, 7969, 10468, 12358, 14163]}, "edge": {"target": [], "time": []}}, "mouseover": {"state": {"target": ["0", "21", "10", "8", "9", "8", "24", "33", "14", "17", "15", "12", "0", "31", "30", "31", "0", "12", "18", "16", "18", "23", "28", "27", "29", "26", "23", "12", "13", "14", "19", "20", "20"], "time": [1394, 1909, 2892, 2992, 3175, 4658, 4825, 5625, 7192, 7358, 8725, 8809, 8858, 9009, 9292, 9809, 10009, 10075, 10209, 10442, 11126, 11392, 11609, 11909, 12925, 16075, 16159, 16209, 16259, 16325, 16942, 16992, 17294]}, "edge": {"target": [], "time": []}}, "mouseout": {"state": {"target": ["0", "21", "10", "8", "9", "9", "8", "24", "33", "14", "17", "15", "12", "0", "31", "30", "31", "0", "12", "18", "16", "18", "23", "28", "27", "29", "26", "23", "12", "13", "14", "19", "20", "20"], "time": [1526, 2392, 2942, 3075, 4199, 4642, 4675, 5342, 6826, 7242, 8697, 8742, 8842, 8875, 9158, 9759, 9875, 10042, 10142, 10275, 11019, 11175, 11442, 11675, 12792, 16059, 16092, 16175, 16242, 16292, 16342, 16959, 17042, 17359]}, "edge": {"target": [], "time": []}}}, "displayed_time": "21.53", "trialTime": 22867, "trial_type": "mouselab-mdp", "trial_index": 44, "time_elapsed": 1359959, "internal_node_id": "0.0-4.0-1.0-29.0"}}, {"uniqueid": "w70266858:a52181975", "current_trial": 45, "dateTime": 1691162564674, "trialdata": {"revealed_states": [], "clicked_states": ["21", "20", "17", "16", "6", "5", "9", "29", "33", "32"], "num_clicks_accrued": [0, 0, 0, 0, 0, 0, 0, 0, 0, 0, 0, 0, 0], "stateRewards": ["", 2, -2, -3, 10, -4, -1, -11, -8, -9, -36, -78, 2, 1, 7, -7, 44, -1, -31, -1, 26, 47, 83, 2, -4, -4, -6, -52, -76, -81, -1, -59, 45, 67], "withholdReward": false, "trial_id": "mdp_trial_31", "block": "test", "trialIndex": 34, "score": 46, "costs": -14.000000000000002, "simulationMode": [null, null, null, null, null], "rewards": [2, -4, -4, -1, 67], "path": ["0", "0", "23", "24", "25", "30", "33"], "rt": [20945, 41, 77, 3, 249], "actions": ["left", "left", "left", "down", "left"], "actionTimes": [22442, 22999, 23585, 24078, 24841], "queries": {"click": {"state": {"target": ["21", "20", "17", "16", "6", "5", "9", "29", "33", "32"], "time": [2533, 4946, 6854, 8631, 10879, 12728, 14594, 16429, 18291, 20078]}, "edge": {"target": [], "time": []}}, "mouseover": {"state": {"target": ["22", "21", "19", "14", "17", "20", "17", "16", "6", "5", "9", "8", "11", "27", "26", "29", "33", "32"], "time": [2273, 2373, 3039, 3106, 3256, 4773, 5639, 7390, 9356, 11540, 13373, 15090, 15256, 15440, 15490, 15873, 17040, 18990]}, "edge": {"target": [], "time": []}}, "mouseout": {"state": {"target": ["0", "22", "21", "19", "14", "17", "20", "17", "16", "6", "5", "9", "8", "11", "27", "26", "29", "33", "32"], "time": [1973, 2339, 2973, 3073, 3123, 4673, 5456, 6971, 9223, 11373, 13273, 15023, 15140, 15340, 15456, 15556, 16856, 18873, 21573]}, "edge": {"target": [], "time": []}}}, "displayed_time": "25.36", "trialTime": 26465, "trial_type": "mouselab-mdp", "trial_index": 45, "time_elapsed": 1386542, "internal_node_id": "0.0-4.0-1.0-30.0"}}, {"uniqueid": "w70266858:a52181975", "current_trial": 46, "dateTime": 1691162592389, "trialdata": {"revealed_states": [], "clicked_states": ["21", "9", "5", "6", "7", "10", "11", "27", "29"], "num_clicks_accrued": [0, 0, 0, 0, 0, 0, 0, 0, 0, 0, 0, 0, 0], "stateRewards": ["", 1, 2, -6, -13, -51, 22, -4, -12, -44, -12, 6, -2, -2, -2, -14, -46, -4, -77, -2, 36, -79, 41, 2, -4, 2, -6, -55, 59, 70, -5, 39, -19, 24], "withholdReward": false, "trial_id": "mdp_trial_32", "block": "test", "trialIndex": 35, "score": 51.4, "costs": -12.600000000000001, "simulationMode": [null, null, null, null, null], "rewards": [2, -4, 2, -6, 70], "path": ["0", "0", "23", "24", "25", "26", "29"], "rt": [20852, 157, 188, 93, 167], "actions": ["left", "left", "left", "up", "left"], "actionTimes": [22346, 23016, 23712, 24322, 24993], "queries": {"click": {"state": {"target": ["21", "9", "5", "6", "7", "10", "11", "27", "29"], "time": [2916, 4996, 6869, 9202, 11323, 13169, 14988, 17641, 19395]}, "edge": {"target": [], "time": []}}, "mouseover": {"state": {"target": ["21", "23", "10", "8", "9", "5", "4", "7", "7", "6", "7", "2", "10", "10", "11", "28", "26", "27", "29", "33"], "time": [2808, 3673, 4139, 4256, 4322, 5523, 7573, 7745, 8790, 9023, 9873, 11757, 11807, 12640, 13740, 15957, 16640, 17057, 18490, 20373]}, "edge": {"target": [], "time": []}}, "mouseout": {"state": {"target": ["21", "22", "23", "21", "23", "10", "8", "9", "5", "4", "7", "7", "6", "7", "2", "10", "10", "11", "11", "28", "26", "27", "29"], "time": [739, 805, 956, 3306, 3723, 4189, 4273, 5456, 7507, 7673, 7857, 8807, 9557, 11740, 11790, 11823, 13623, 15110, 15707, 16390, 16941, 18290, 20040]}, "edge": {"target": [], "time": []}}}, "displayed_time": "25.51", "trialTime": 27599, "trial_type": "mouselab-mdp", "trial_index": 46, "time_elapsed": 1414258, "internal_node_id": "0.0-4.0-1.0-31.0"}}, {"uniqueid": "w70266858:a52181975", "current_trial": 47, "dateTime": 1691162608940, "trialdata": {"revealed_states": [], "clicked_states": ["29", "33", "20"], "num_clicks_accrued": [0, 0, 0, 0, 0, 0, 0, 0, 0, 0, 0, 0, 0], "stateRewards": ["", -2, 1, -5, 2, -68, 80, 33, 10, 67, -59, 20, -1, -3, 3, 14, 74, -2, 24, -16, 63, 80, 46, -1, 4, 6, 12, 83, -38, -43, -4, 43, 14, -79], "withholdReward": false, "trial_id": "mdp_trial_33", "block": "test", "trialIndex": 36, "score": 41.8, "costs": -4.199999999999999, "simulationMode": [null, null, null, null, null], "rewards": [-1, -3, 3, -16, 63], "path": ["0", "0", "12", "13", "14", "19", "20"], "rt": [9841, 147, 116, 74, 163], "actions": ["right", "right", "right", "down", "right"], "actionTimes": [11254, 11908, 12525, 13116, 13773], "queries": {"click": {"state": {"target": ["29", "33", "20"], "time": [2842, 5378, 7787]}, "edge": {"target": [], "time": []}}, "mouseover": {"state": {"target": ["12", "19", "22", "31", "30", "29", "25", "24", "31", "33", "30", "21", "20", "20"], "time": [1957, 2124, 2274, 2374, 2407, 2674, 3191, 3224, 5024, 5175, 5691, 7325, 7458, 7675]}, "edge": {"target": [], "time": []}}, "mouseout": {"state": {"target": ["33", "30", "31", "0", "12", "19", "22", "31", "30", "29", "29", "29", "25", "24", "31", "33", "30", "21", "20", "20"], "time": [691, 891, 940, 1924, 1991, 2241, 2291, 2391, 2441, 2896, 3077, 3158, 3207, 3241, 5058, 5433, 5708, 7358, 7508, 8524]}, "edge": {"target": [], "time": []}}}, "displayed_time": "15.41", "trialTime": 16429, "trial_type": "mouselab-mdp", "trial_index": 47, "time_elapsed": 1430807, "internal_node_id": "0.0-4.0-1.0-32.0"}}, {"uniqueid": "w70266858:a52181975", "current_trial": 48, "dateTime": 1691162625369, "trialdata": {"revealed_states": [], "clicked_states": ["21", "16"], "num_clicks_accrued": [0, 0, 0, 0, 0, 0, 0, 0, 0, 0, 0, 0, 0], "stateRewards": ["", 1, 1, 1, 15, -76, 52, -32, 14, -57, 37, 49, 1, -4, -3, 6, 83, -76, 25, 9, 36, -1, -17, -1, 4, 4, -2, -22, -21, 58, -15, -57, 49, -24], "withholdReward": false, "trial_id": "mdp_trial_34", "block": "test", "trialIndex": 37, "score": 80.2, "costs": -2.8, "simulationMode": [null, null, null, null, null], "rewards": [1, -4, -3, 6, 83], "path": ["0", "0", "12", "13", "14", "15", "16"], "rt": [5440, 31, 84, 291, 132], "actions": ["right", "right", "right", "up", "up"], "actionTimes": [6425, 6970, 7541, 8347, 8972], "queries": {"click": {"state": {"target": ["21", "16"], "time": [1485, 3687]}, "edge": {"target": [], "time": []}}, "mouseover": {"state": {"target": ["0", "22", "21", "17", "16", "13", "17"], "time": [1188, 1288, 1372, 3321, 3522, 4172, 5505]}, "edge": {"target": [], "time": []}}, "mouseout": {"state": {"target": ["0", "0", "22", "21", "17", "16", "13", "17", "17", "15", "13"], "time": [838, 1205, 1305, 1525, 3355, 4088, 4205, 9855, 10123, 11305, 11555]}, "edge": {"target": [], "time": []}}}, "displayed_time": "14.99", "trialTime": 16307, "trial_type": "mouselab-mdp", "trial_index": 48, "time_elapsed": 1447237, "internal_node_id": "0.0-4.0-1.0-33.0"}}, {"uniqueid": "w70266858:a52181975", "current_trial": 49, "dateTime": 1691162648897, "trialdata": {"revealed_states": [], "clicked_states": ["9", "16", "17", "29", "33", "20", "32"], "num_clicks_accrued": [0, 0, 0, 0, 0, 0, 0, 0, 0, 0, 0, 0, 0], "stateRewards": ["", 2, -1, 5, 6, 10, 86, 55, 10, -45, 63, -71, 1, -2, 5, -8, -50, -72, 36, 15, 61, 12, 33, -1, -4, 6, 5, 79, -56, -21, -16, -87, 60, -81], "withholdReward": false, "trial_id": "mdp_trial_35", "block": "test", "trialIndex": 38, "score": 70.2, "costs": -9.8, "simulationMode": [null, null, null, null, null], "rewards": [1, -2, 5, 15, 61], "path": ["0", "0", "12", "13", "14", "19", "20"], "rt": [17179, 160, 182, 556, 64], "actions": ["right", "right", "right", "down", "right"], "actionTimes": [18526, 19197, 19886, 20958, 21534], "queries": {"click": {"state": {"target": ["9", "16", "17", "29", "33", "20", "32"], "time": [2241, 4530, 6295, 8721, 10627, 13287, 15617]}, "edge": {"target": [], "time": []}}, "mouseover": {"state": {"target": ["8", "9", "3", "2", "12", "15", "16", "17", "17", "15", "12", "0", "31", "25", "26", "29", "25", "33", "30", "32", "20", "21", "32"], "time": [1968, 2118, 2801, 2835, 4135, 4251, 4335, 5069, 6102, 6684, 6756, 6785, 6918, 8318, 8401, 8651, 9501, 10151, 11184, 12834, 13118, 13751, 14384]}, "edge": {"target": [], "time": []}}, "mouseout": {"state": {"target": ["12", "0", "8", "9", "3", "2", "12", "15", "16", "17", "17", "15", "12", "0", "31", "25", "26", "29", "29", "25", "33", "30", "32", "20", "21", "32"], "time": [868, 1018, 2034, 2718, 2818, 2868, 4168, 4268, 4951, 5118, 6651, 6701, 6784, 6818, 8252, 8368, 8451, 8847, 9301, 9702, 11151, 11234, 12851, 13618, 13934, 16668]}, "edge": {"target": [], "time": []}}}, "displayed_time": "22.05", "trialTime": 23381, "trial_type": "mouselab-mdp", "trial_index": 49, "time_elapsed": 1470766, "internal_node_id": "0.0-4.0-1.0-34.0"}}, {"uniqueid": "w70266858:a52181975", "current_trial": 50, "dateTime": 1691162677067, "trialdata": {"revealed_states": [], "clicked_states": ["21", "16", "17", "9", "29", "25", "33", "27", "32"], "num_clicks_accrued": [0, 0, 0, 0, 0, 0, 0, 0, 0, 0, 0, 0, 0], "stateRewards": ["", 1, 1, -2, 7, -31, -6, 76, 1, -36, -16, -53, 2, 1, 7, 13, -47, -10, 47, -7, 72, 46, -56, -2, -2, -2, 11, -80, 44, 38, 16, 67, 85, -78], "withholdReward": false, "trial_id": "mdp_trial_36", "block": "test", "trialIndex": 39, "score": 82.4, "costs": -12.600000000000001, "simulationMode": [null, null, null, null, null], "rewards": [-2, -2, -2, 16, 85], "path": ["0", "0", "23", "24", "25", "30", "32"], "rt": [21336, 236, 45, 136, 919], "actions": ["left", "left", "left", "down", "down"], "actionTimes": [22532, 23273, 23831, 24489, 25904], "queries": {"click": {"state": {"target": ["21", "16", "17", "9", "29", "25", "33", "27", "32"], "time": [2610, 4803, 6636, 8882, 11022, 13532, 15397, 18017, 19716]}, "edge": {"target": [], "time": []}}, "mouseover": {"state": {"target": ["0", "22", "19", "21", "20", "17", "16", "17", "15", "18", "10", "8", "9", "11", "27", "26", "29", "33", "30", "25", "30", "33", "30", "28", "11", "27", "32", "30", "31"], "time": [1535, 1851, 1934, 2518, 3518, 3684, 4752, 5868, 7368, 7451, 7801, 8535, 8701, 9951, 10168, 10368, 10886, 11934, 12251, 12468, 14185, 15136, 15818, 17435, 17636, 17935, 18785, 20919, 21385]}, "edge": {"target": [], "time": []}}, "mouseout": {"state": {"target": ["0", "0", "22", "19", "21", "20", "17", "16", "17", "15", "18", "10", "8", "9", "9", "11", "27", "26", "29", "33", "30", "25", "30", "33", "30", "28", "11", "27", "27", "32", "30", "31"], "time": [1034, 1601, 1884, 1985, 3434, 3551, 4585, 5701, 7318, 7418, 7485, 8302, 8635, 8902, 9802, 10051, 10284, 10485, 11651, 12168, 12318, 14085, 14285, 15785, 15868, 17468, 17818, 18110, 18385, 20502, 21335, 21851]}, "edge": {"target": [], "time": []}}}, "displayed_time": "26.42", "trialTime": 28033, "trial_type": "mouselab-mdp", "trial_index": 50, "time_elapsed": 1498936, "internal_node_id": "0.0-4.0-1.0-35.0"}}, {"uniqueid": "w70266858:a52181975", "current_trial": 51, "dateTime": 1691162693236, "trialdata": {"revealed_states": [], "clicked_states": ["21", "9", "32"], "num_clicks_accrued": [0, 0, 0, 0, 0, 0, 0, 0, 0, 0, 0, 0, 0], "stateRewards": ["", 2, 1, -3, 7, 46, 11, -36, 16, 71, 5, 1, 2, -2, -8, -3, -4, 6, 55, 7, 68, -54, 2, 1, 1, 6, -6, 42, -4, -84, -11, -65, 63, 25], "withholdReward": false, "trial_id": "mdp_trial_37", "block": "test", "trialIndex": 40, "score": 82.8, "costs": -4.199999999999999, "simulationMode": [null, null, null, null, null], "rewards": [2, 1, -3, 16, 71], "path": ["0", "0", "1", "2", "3", "8", "9"], "rt": [7587, 92, 597, 208, 10], "actions": ["up", "up", "up", "left", "up"], "actionTimes": [8711, 9315, 10420, 11165, 11699], "queries": {"click": {"state": {"target": ["21", "9", "32"], "time": [2032, 3863, 5837]}, "edge": {"target": [], "time": []}}, "mouseover": {"state": {"target": ["0", "21", "31", "11", "9", "11", "26", "25", "30", "32"], "time": [1440, 1822, 2638, 2888, 3188, 4555, 4688, 4772, 4939, 5155]}, "edge": {"target": [], "time": []}}, "mouseout": {"state": {"target": ["0", "0", "21", "31", "11", "9", "11", "26", "25", "30", "32"], "time": [988, 1489, 2459, 2688, 2972, 4505, 4605, 4722, 4838, 5072, 6805]}, "edge": {"target": [], "time": []}}}, "displayed_time": "15.12", "trialTime": 16039, "trial_type": "mouselab-mdp", "trial_index": 51, "time_elapsed": 1515104, "internal_node_id": "0.0-4.0-1.0-36.0"}}, {"uniqueid": "w70266858:a52181975", "current_trial": 52, "dateTime": 1691162712433, "trialdata": {"revealed_states": [], "clicked_states": ["21", "29", "33", "17", "9", "5"], "num_clicks_accrued": [0, 0, 0, 0, 0, 0, 0, 0, 0, 0, 0, 0, 0], "stateRewards": ["", -2, -2, -7, -13, -10, 49, -68, -1, 84, 70, 88, 1, 4, 4, 12, -57, 25, 30, 8, -1, -77, 57, 2, 3, 2, 3, -18, -80, 23, -15, -41, 70, 11], "withholdReward": false, "trial_id": "mdp_trial_38", "block": "test", "trialIndex": 41, "score": 63.6, "costs": -8.4, "simulationMode": [null, null, null, null, null], "rewards": [-2, -2, -7, -1, 84], "path": ["0", "0", "1", "2", "3", "8", "9"], "rt": [13116, 39, 107, 169, 86], "actions": ["up", "up", "up", "left", "up"], "actionTimes": [14472, 15014, 15616, 16327, 16928], "queries": {"click": {"state": {"target": ["21", "29", "33", "17", "9", "5"], "time": [2224, 4019, 5974, 8111, 10667, 12512]}, "edge": {"target": [], "time": []}}, "mouseover": {"state": {"target": ["0", "22", "21", "31", "25", "29", "33", "33", "30", "31", "12", "13", "17", "15", "7", "4", "9", "5"], "time": [1525, 1890, 2107, 2807, 2924, 3324, 4690, 5174, 6974, 7074, 7391, 7474, 7974, 8624, 9707, 9807, 10540, 11157]}, "edge": {"target": [], "time": []}}, "mouseout": {"state": {"target": ["0", "0", "22", "21", "31", "25", "29", "33", "33", "30", "31", "12", "13", "17", "15", "7", "4", "9", "5", "4"], "time": [1090, 1774, 1957, 2312, 2857, 2990, 4557, 4757, 6941, 7007, 7141, 7424, 7524, 8590, 8657, 9757, 10042, 10755, 18141, 18274]}, "edge": {"target": [], "time": []}}}, "displayed_time": "17.44", "trialTime": 19055, "trial_type": "mouselab-mdp", "trial_index": 52, "time_elapsed": 1534301, "internal_node_id": "0.0-4.0-1.0-37.0"}}, {"uniqueid": "w70266858:a52181975", "current_trial": 53, "dateTime": 1691162734695, "trialdata": {"revealed_states": [], "clicked_states": ["21", "9", "5", "33", "29", "27", "17", "16"], "num_clicks_accrued": [0, 0, 0, 0, 0, 0, 0, 0, 0, 0, 0, 0, 0], "stateRewards": ["", 2, -3, -2, 14, -4, 85, 46, 15, -28, 41, 31, -1, -1, -1, 5, 62, 79, 57, 12, -73, -64, 86, -1, 1, -3, -5, 68, 11, -32, 8, -80, -21, -56], "withholdReward": false, "trial_id": "mdp_trial_39", "block": "test", "trialIndex": 42, "score": 69.8, "costs": -11.200000000000001, "simulationMode": [null, null, null, null, null], "rewards": [-1, -1, -1, 5, 79], "path": ["0", "0", "12", "13", "14", "15", "17"], "rt": [16218, 156, 84, 131, 313], "actions": ["right", "right", "right", "up", "right"], "actionTimes": [17538, 18199, 18777, 19424, 20240], "queries": {"click": {"state": {"target": ["21", "9", "5", "33", "29", "27", "17", "16"], "time": [2373, 4041, 5907, 7750, 9471, 11327, 13099, 15677]}, "edge": {"target": [], "time": []}}, "mouseover": {"state": {"target": ["22", "21", "22", "9", "5", "3", "8", "10", "28", "25", "30", "33", "29", "29", "25", "24", "26", "27", "24", "22", "19", "17", "16"], "time": [1874, 2042, 2657, 3007, 4874, 6424, 6458, 6491, 6541, 6608, 6674, 6874, 8441, 8691, 10058, 10174, 10491, 10674, 11874, 12057, 12108, 12358, 14324]}, "edge": {"target": [], "time": []}}, "mouseout": {"state": {"target": ["0", "0", "22", "21", "22", "9", "5", "3", "8", "10", "28", "25", "30", "33", "29", "29", "29", "25", "24", "26", "27", "24", "22", "19", "17", "16", "19"], "time": [824, 1774, 1924, 2607, 2674, 4674, 6357, 6441, 6474, 6508, 6558, 6624, 6808, 8308, 8524, 9561, 10024, 10091, 10358, 10574, 11741, 11891, 12091, 12157, 13841, 16158, 21224]}, "edge": {"target": [], "time": []}}}, "displayed_time": "20.76", "trialTime": 22119, "trial_type": "mouselab-mdp", "trial_index": 53, "time_elapsed": 1556563, "internal_node_id": "0.0-4.0-1.0-38.0"}}, {"uniqueid": "w70266858:a52181975", "current_trial": 54, "dateTime": 1691162751414, "trialdata": {"revealed_states": [], "clicked_states": ["21", "33", "17"], "num_clicks_accrued": [0, 0, 0, 0, 0, 0, 0, 0, 0, 0, 0, 0, 0], "stateRewards": ["", -2, -4, 6, 14, -34, 49, 36, -8, -3, 32, -4, 1, -2, 1, -8, -20, -71, -57, -7, -86, -62, -16, -2, -3, -5, 11, 23, -21, 53, 5, -5, 85, 73], "withholdReward": false, "trial_id": "mdp_trial_40", "block": "test", "trialIndex": 43, "score": 63.8, "costs": -4.199999999999999, "simulationMode": [null, null, null, null, null], "rewards": [-2, -3, -5, 5, 73], "path": ["0", "0", "23", "24", "25", "30", "33"], "rt": [6386, 79, 152, 61, 62], "actions": ["left", "left", "left", "down", "left"], "actionTimes": [7821, 8409, 9067, 9643, 10193], "queries": {"click": {"state": {"target": ["21", "33", "17"], "time": [2069, 3870, 5546]}, "edge": {"target": [], "time": []}}, "mouseover": {"state": {"target": ["21", "23", "28", "30", "33", "19", "17", "14", "31", "32"], "time": [1980, 2547, 2613, 3247, 3665, 4630, 4980, 6397, 6597, 6947]}, "edge": {"target": [], "time": []}}, "mouseout": {"state": {"target": ["0", "21", "23", "28", "30", "33", "19", "17", "14", "31", "32"], "time": [1780, 2397, 2580, 2680, 3297, 4280, 4663, 6314, 6414, 6613, 7064]}, "edge": {"target": [], "time": []}}}, "displayed_time": "15.43", "trialTime": 16577, "trial_type": "mouselab-mdp", "trial_index": 54, "time_elapsed": 1573283, "internal_node_id": "0.0-4.0-1.0-39.0"}}, {"uniqueid": "w70266858:a52181975", "current_trial": 55, "dateTime": 1691162907892, "trialdata": {"rt": 156474, "response": {"Q0": "$-2 to $2", "Q1": "$-16 to $16", "Q2": "$-88 to $88", "Q3": "The cost for clicking on nodes varied between nodes.", "Q4": "Very motivated"}, "question_order": [0, 1, 2, 3, 4], "trial_id": "final_quiz_control", "trial_type": "survey-multi-choice", "trial_index": 55, "time_elapsed": 1729761, "internal_node_id": "0.0-4.0-2.0"}}, {"uniqueid": "w70266858:a52181975", "current_trial": 56, "dateTime": 1691163106373, "trialdata": {"rt": 198475, "response": {"Q0": "Mostly click on the end(furthest) nodes and avoid clicking on nodes closest to the middle and then choose the path that leads to the node with the highest value.", "Q1": "I improved my strategy by not exploring any more nodes if I found a node with a very high value (>70)", "Q2": "the delay between clicking and the value being shown"}, "trial_id": "self_report_control", "trial_type": "survey-text", "trial_index": 56, "time_elapsed": 1928242, "internal_node_id": "0.0-4.0-3.0"}}, {"uniqueid": "w70266858:a52181975", "current_trial": 57, "dateTime": 1691163134954, "trialdata": {"rt": 28578, "response": {"gender": "male", "age": "23", "colorblind": "0", "effort": "0"}, "trial_type": "survey-html-form", "trial_index": 57, "time_elapsed": 1956823, "internal_node_id": "0.0-4.0-4.0"}}, {"uniqueid": "w70266858:a52181975", "current_trial": 58, "dateTime": 1691163172459, "trialdata": {"rt": 37501, "response": {"Q0": "No", "Q1": "yes", "Q2": ""}, "trial_type": "survey-text", "trial_index": 58, "time_elapsed": 1994328, "internal_node_id": "0.0-4.0-5.0"}}, {"uniqueid": "w70266858:a52181975", "current_trial": 59, "dateTime": 1691163182416, "trialdata": {"rt": 9953, "stimulus": "Press 'Finish HIT' in order to reach the completion code. Once the data has been saved, you will receive the code either in this window or in the original browser window where you started the experiment.\n", "response": 0, "trial_type": "html-button-response", "trial_index": 59, "time_elapsed": 2004285, "internal_node_id": "0.0-5.0"}}, {"uniqueid": "w70266858:a52181975", "current_trial": 60, "dateTime": 1691163183420, "trialdata": {"success": true, "trial_type": "fullscreen", "trial_index": 60, "time_elapsed": 2005289, "internal_node_id": "0.0-6.0"}}], "questiondata": {"params": {"CODE": "C6DMOQA6", "MIN_TIME": 14, "inspectCost": 1, "startTime": "Fri Aug 04 2023 16:59:35 GMT+0200 (South Africa Standard Time)", "bonusRate": 0.002, "variance": "1_2_4_8_44", "branching": "31123"}, "final_score": 2502}, "eventdata": [{"eventtype": "initialized", "value": null, "timestamp": 1691161175049, "interval": 0}, {"eventtype": "window_resize", "value": [1920, 974], "timestamp": 1691161175049, "interval": 0}, {"eventtype": "window_resize", "value": [1920, 974], "timestamp": 1691161175600, "interval": 551}, {"eventtype": "window_resize", "value": [1920, 1080], "timestamp": 1691161179851, "interval": 4251}, {"eventtype": "focus", "value": "off", "timestamp": 1691161746267, "interval": 566416}, {"eventtype": "focus", "value": "on", "timestamp": 1691161746268, "interval": 1}, {"eventtype": "window_resize", "value": [1920, 974], "timestamp": 1691161746472, "interval": 204}, {"eventtype": "window_resize", "value": [1920, 1080], "timestamp": 1691161747658, "interval": 1186}, {"eventtype": "focus", "value": "off", "timestamp": 1691161749156, "interval": 1498}, {"eventtype": "window_resize", "value": [1920, 1079], "timestamp": 1691161749366, "interval": 210}, {"eventtype": "focus", "value": "on", "timestamp": 1691161749827, "interval": 461}, {"eventtype": "window_resize", "value": [1920, 1080], "timestamp": 1691161750034, "interval": 207}, {"eventtype": "window_resize", "value": [1920, 974], "timestamp": 1691163182631, "interval": 1432597}], "useragent": "Mozilla/5.0 (Windows NT 10.0; Win64; x64) AppleWebKit/537.36 (KHTML, like Gecko) Chrome/115.0.0.0 Safari/537.36", "mode": "live", "id": "w70266858:a52181975", "status": "user data saved", "Beginhit": "2023-08-04 14:59:33.961241", "Beginexp": "2023-08-04 14:59:43.269658", "Endhit": "2023-08-04 15:33:07.124549", "psiturkStatus": 3, "browser": "<redacted>", "platform": "windows", "language": "en-US", "excludeReason": "alreadyparticipated"}