{"condition": 1, "counterbalance": 0, "assignmentId": "a72632068", "workerId": "w53737873", "hitId": "h37638483", "currenttrial": 56, "bonus": 0, "data": [{"uniqueid": "w53737873:a72632068", "current_trial": 0, "dateTime": 1693482718782, "trialdata": {"success": true, "trial_type": "fullscreen", "trial_index": 0, "time_elapsed": 37914, "internal_node_id": "0.0-0.0"}}, {"uniqueid": "w53737873:a72632068", "current_trial": 1, "dateTime": 1693482761229, "trialdata": {"view_history": [{"page_index": 0, "viewing_time": 42435}], "rt": 42437, "trial_id": "exp_instructions_misaligned", "trial_type": "instructions", "trial_index": 1, "time_elapsed": 80360, "internal_node_id": "0.0-1.0"}}, {"uniqueid": "w53737873:a72632068", "current_trial": 2, "dateTime": 1693483212272, "trialdata": {"view_history": [{"page_index": 0, "viewing_time": 165804}, {"page_index": 1, "viewing_time": 168827}, {"page_index": 2, "viewing_time": 49631}, {"page_index": 3, "viewing_time": 66778}], "rt": 451040, "trial_id": "mouselab_instructions_1_misaligned", "trial_type": "instructions", "trial_index": 2, "time_elapsed": 531404, "internal_node_id": "0.0-2.0-1.0"}}, {"uniqueid": "w53737873:a72632068", "current_trial": 3, "dateTime": 1693483292646, "trialdata": {"revealed_states": [], "clicked_states": ["23", "24", "25", "26", "28"], "num_clicks_accrued": [0, 0, 0, 0, 0, 0, 0, 0, 0, 0, 0, 0, 0], "stateRewards": ["", 10, 10, 10, 10, 10, -10, -10, -10, 10, -10, 10, -10, -10, -10, 10, 10, -10, -10, -10, -10, 10, 10, -10, 10, -10, 10, 10, 10, -10, -10, -10, -10, 10], "withholdReward": false, "trial_id": "practice_1", "block": "test", "trialIndex": 0, "score": 11, "costs": -2.5, "simulationMode": [null, null, null, null, null], "rewards": [-10, 10, -10, 10, 10], "path": ["0", "0", "23", "24", "25", "26", "28"], "rt": [61204, 295, 206, 1023, 531], "actions": ["left", "left", "left", "up", "right"], "actionTimes": [70076, 70867, 71576, 73110, 74152], "queries": {"click": {"state": {"target": ["23", "24", "25", "26", "28"], "time": [10146, 11176, 12241, 13465, 22133]}, "edge": {"target": [], "time": []}}, "mouseover": {"state": {"target": ["23", "24", "25", "26", "28", "28", "23", "23", "24", "24", "25", "26", "1", "25", "23", "0", "19", "20"], "time": [9704, 10589, 11807, 13026, 13892, 21610, 23494, 39691, 39935, 40987, 41118, 43203, 47005, 54041, 58610, 62596, 62896, 62962]}, "edge": {"target": [], "time": []}}, "mouseout": {"state": {"target": ["0", "23", "24", "25", "26", "28", "28", "23", "23", "24", "24", "25", "26", "1", "25", "23", "0", "19", "20"], "time": [7319, 10456, 11758, 12455, 13874, 15156, 22963, 28433, 39734, 40106, 41018, 41301, 43403, 47205, 54908, 58927, 62712, 62929, 62979]}, "edge": {"target": [], "time": []}}}, "displayed_time": "74.66", "trialTime": 79150, "trial_type": "mouselab-mdp", "trial_index": 3, "time_elapsed": 611777, "internal_node_id": "0.0-2.0-2.0-0.0"}}, {"uniqueid": "w53737873:a72632068", "current_trial": 4, "dateTime": 1693483392300, "trialdata": {"revealed_states": [], "clicked_states": ["1", "2", "3", "8", "9"], "num_clicks_accrued": [0, 0, 0, 0, 0, 0, 0, 0, 0, 0, 0, 0, 0], "stateRewards": ["", 10, -10, 10, -10, -10, 10, 10, 10, -10, -10, -10, -10, 10, 10, -10, -10, 10, -10, -10, 10, 10, 10, 10, -10, -10, -10, 10, -10, -10, 10, -10, 10, 10], "withholdReward": false, "trial_id": "practice_2", "block": "test", "trialIndex": 1, "score": 11, "costs": -2.5, "simulationMode": [null, null, null, null, null], "rewards": [10, -10, 10, 10, -10], "path": ["0", "0", "1", "2", "3", "8", "9"], "rt": [31518, 278, 386, 1335, 855], "actions": ["up", "up", "up", "left", "up"], "actionTimes": [81499, 82287, 83178, 85009, 86364], "queries": {"click": {"state": {"target": ["1", "2", "3", "8", "9"], "time": [51839, 53005, 58711, 60859, 61924]}, "edge": {"target": [], "time": []}}, "mouseover": {"state": {"target": ["1", "2", "3", "8", "9"], "time": [51322, 52274, 58243, 60359, 61478]}, "edge": {"target": [], "time": []}}, "mouseout": {"state": {"target": ["16", "1", "2", "3", "8", "9"], "time": [1915, 52225, 58092, 60326, 61378, 94396]}, "edge": {"target": [], "time": []}}}, "displayed_time": "86.86", "trialTime": 99067, "trial_type": "mouselab-mdp", "trial_index": 4, "time_elapsed": 711431, "internal_node_id": "0.0-2.0-2.0-1.0"}}, {"uniqueid": "w53737873:a72632068", "current_trial": 5, "dateTime": 1693483480848, "trialdata": {"view_history": [{"page_index": 0, "viewing_time": 67966}, {"page_index": 1, "viewing_time": 20576}], "rt": 88543, "trial_id": "mouselab_instructions_2_misaligned", "trial_type": "instructions", "trial_index": 5, "time_elapsed": 799980, "internal_node_id": "0.0-2.0-3.0"}}, {"uniqueid": "w53737873:a72632068", "current_trial": 6, "dateTime": 1693483570990, "trialdata": {"rt": 90132, "response": {"Q0": "The cost for clicking on nodes may vary between nodes.", "Q1": "The better I perform the higher my bonus will be.", "Q2": "No, the amount of cash at each node of the web may be different each time.", "Q3": "To get the highest total score.", "Q4": "Only before moving the spider.", "Q5": "3 seconds"}, "question_order": [0, 1, 2, 3, 4, 5], "correct": {"Q0": "The cost for clicking on nodes may vary between nodes.", "Q1": "The better I perform the higher my bonus will be.", "Q2": "No, the amount of cash at each node of the web may be different each time.", "Q3": "To get the highest total score.", "Q4": "Only before moving the spider.", "Q5": "3 seconds"}, "trial_id": "mouselab_quiz_misaligned", "trial_type": "survey-multi-choice", "trial_index": 6, "time_elapsed": 890122, "internal_node_id": "0.0-2.0-4.0"}}, {"uniqueid": "w53737873:a72632068", "current_trial": 7, "dateTime": 1693483583735, "trialdata": {"rt": 12732, "response": {"Q0": "No"}, "question_order": [0], "trial_id": "repeat_check", "trial_type": "survey-multi-choice", "trial_index": 7, "time_elapsed": 902867, "internal_node_id": "0.0-4.0-0.0"}}, {"uniqueid": "w53737873:a72632068", "current_trial": 8, "dateTime": 1693483611413, "trialdata": {"rt": 27666, "stimulus": "\n<h1> Get ready to start the game! </h1>\n\nThank you for reading the instructions. Get ready start with the 40 rounds of this game.\n<br><br>\nIf you need to take a break, feel free to take one after the end of a round, before continuing to the next one.\n<br><br>\nRemember, the more money the spider gets, the bigger your bonus will be!\n<br><br>\n<div style='text-align: center;'>Press <code>space</code> to begin.</div>\n\n<br><br>\n(If, at any point, the <code>space</code> key does not take you to the next page, click once on the text and try again.)", "response": " ", "trial_id": "mdp_ready", "trial_type": "html-keyboard-response", "trial_index": 8, "time_elapsed": 930544, "internal_node_id": "0.0-6.0-0.0"}}, {"uniqueid": "w53737873:a72632068", "current_trial": 9, "dateTime": 1693483678701, "trialdata": {"revealed_states": [], "clicked_states": ["1", "2", "10", "8"], "num_clicks_accrued": [0, 0, 0, 0, 0, 0, 0, 0, 0, 0, 0, 0, 0], "stateRewards": ["", -1, -3, -3, 1, -38, 2, -53, -2, -1, -81, 70, -1, 1, -5, -9, 46, 15, 35, -1, -22, 38, 59, -2, 4, -8, 13, 1, -83, -43, 4, 76, 13, 48], "withholdReward": false, "trial_id": "mdp_trial_1", "block": "test", "trialIndex": 2, "score": -93.8, "costs": -3.8, "simulationMode": [null, null, null, null, null], "rewards": [-1, -3, -3, -2, -81], "path": ["0", "0", "1", "2", "3", "8", "10"], "rt": [19754, 2009, 12331, 4224, 4174], "actions": ["up", "up", "up", "left", "down"], "actionTimes": [31952, 34466, 47309, 52040, 56729], "queries": {"click": {"state": {"target": ["1", "2", "10", "8"], "time": [13780, 15734, 17819, 21133]}, "edge": {"target": [], "time": []}}, "mouseover": {"state": {"target": ["1", "2", "3", "8", "10", "8", "11", "9"], "time": [13210, 15127, 16248, 16812, 17328, 18330, 22864, 23365]}, "edge": {"target": [], "time": []}}, "mouseout": {"state": {"target": ["3", "2", "1", "1", "2", "3", "8", "10", "8", "11", "9", "0", "10", "7"], "time": [1703, 4654, 4854, 15011, 15934, 16746, 17245, 18020, 21345, 23297, 27216, 43024, 62470, 62532]}, "edge": {"target": [], "time": []}}}, "displayed_time": "57.24", "trialTime": 66678, "trial_type": "mouselab-mdp", "trial_index": 9, "time_elapsed": 997832, "internal_node_id": "0.0-6.0-1.0-0.0"}}, {"uniqueid": "w53737873:a72632068", "current_trial": 10, "dateTime": 1693483705176, "trialdata": {"revealed_states": [], "clicked_states": ["12", "13", "14", "15", "17"], "num_clicks_accrued": [0, 0, 0, 0, 0, 0, 0, 0, 0, 0, 0, 0, 0], "stateRewards": ["", 1, 1, -7, -9, -44, 24, -83, -15, 44, -24, 72, -2, -3, 4, -5, 57, 55, 29, -11, 22, 12, -25, -1, 2, 7, 12, 33, -8, 47, -4, 8, 50, -4], "withholdReward": false, "trial_id": "mdp_trial_2", "block": "test", "trialIndex": 3, "score": 44.25, "costs": -4.75, "simulationMode": [null, null, null, null, null], "rewards": [-2, -3, 4, -5, 55], "path": ["0", "0", "12", "13", "14", "15", "17"], "rt": [15429, 346, 822, 784, 969], "actions": ["right", "right", "right", "up", "right"], "actionTimes": [18049, 18904, 20254, 21533, 23002], "queries": {"click": {"state": {"target": ["12", "13", "14", "15", "17"], "time": [4119, 5262, 6337, 7324, 8426]}, "edge": {"target": [], "time": []}}, "mouseover": {"state": {"target": ["12", "13", "14", "15", "17", "15", "12", "12", "18", "12"], "time": [3304, 4857, 5842, 6806, 8007, 12279, 12391, 13768, 16209, 16592]}, "edge": {"target": [], "time": []}}, "mouseout": {"state": {"target": ["15", "12", "13", "13", "14", "15", "17", "17", "15", "12", "12", "18", "12"], "time": [818, 4757, 5462, 5758, 6546, 7530, 8638, 12274, 12292, 13074, 13792, 16292, 16809]}, "edge": {"target": [], "time": []}}}, "displayed_time": "23.50", "trialTime": 25855, "trial_type": "mouselab-mdp", "trial_index": 10, "time_elapsed": 1024306, "internal_node_id": "0.0-6.0-1.0-1.0"}}, {"uniqueid": "w53737873:a72632068", "current_trial": 11, "dateTime": 1693483730168, "trialdata": {"revealed_states": [], "clicked_states": ["23", "24", "25", "26", "29"], "num_clicks_accrued": [0, 0, 0, 0, 0, 0, 0, 0, 0, 0, 0, 0, 0], "stateRewards": ["", -2, -1, -4, -15, -14, -67, 32, -3, -59, 63, 31, 2, -1, -7, -15, 71, -66, -27, -3, -54, -39, 72, 2, 1, 1, -13, 77, -40, 35, -9, 35, 75, 57], "withholdReward": false, "trial_id": "mdp_trial_3", "block": "test", "trialIndex": 4, "score": 21.25, "costs": -4.75, "simulationMode": [null, null, null, null, null], "rewards": [2, 1, 1, -13, 35], "path": ["0", "0", "23", "24", "25", "26", "29"], "rt": [14651, 315, 302, 911, 432], "actions": ["left", "left", "left", "up", "left"], "actionTimes": [17139, 17960, 18762, 20171, 21109], "queries": {"click": {"state": {"target": ["23", "24", "25", "26", "29"], "time": [3853, 5122, 6486, 7882, 8991]}, "edge": {"target": [], "time": []}}, "mouseover": {"state": {"target": ["23", "24", "25", "26", "29"], "time": [3248, 4501, 5885, 7386, 8486]}, "edge": {"target": [], "time": []}}, "mouseout": {"state": {"target": ["23", "24", "25", "26", "29"], "time": [4068, 5340, 6707, 8436, 12640]}, "edge": {"target": [], "time": []}}}, "displayed_time": "21.61", "trialTime": 24331, "trial_type": "mouselab-mdp", "trial_index": 11, "time_elapsed": 1049300, "internal_node_id": "0.0-6.0-1.0-2.0"}}, {"uniqueid": "w53737873:a72632068", "current_trial": 12, "dateTime": 1693483763101, "trialdata": {"revealed_states": [], "clicked_states": ["1", "2", "3", "8", "11"], "num_clicks_accrued": [0, 0, 0, 0, 0, 0, 0, 0, 0, 0, 0, 0, 0], "stateRewards": ["", -1, -3, 1, -4, -48, -63, -49, -2, -84, -19, 65, 2, -2, -2, -12, -4, 59, 9, 6, 75, 69, -13, -1, -3, -3, -2, -37, -68, -36, 13, 32, 18, -14], "withholdReward": false, "trial_id": "mdp_trial_4", "block": "test", "trialIndex": 5, "score": 55.25, "costs": -4.75, "simulationMode": [null, null, null, null, null], "rewards": [-1, -3, 1, -2, 65], "path": ["0", "0", "1", "2", "3", "8", "11"], "rt": [16970, 262, 61, 458, 701], "actions": ["up", "up", "up", "left", "left"], "actionTimes": [24920, 25688, 26252, 27215, 28426], "queries": {"click": {"state": {"target": ["1", "2", "3", "8", "11"], "time": [10482, 11608, 13182, 14465, 16482]}, "edge": {"target": [], "time": []}}, "mouseover": {"state": {"target": ["1", "2", "3", "8", "11", "10", "2", "1", "16"], "time": [9911, 11031, 12587, 14089, 15965, 18418, 18471, 18869, 19172]}, "edge": {"target": [], "time": []}}, "mouseout": {"state": {"target": ["19", "22", "0", "1", "2", "3", "8", "8", "11", "11", "10", "2", "1", "16"], "time": [1222, 5957, 6824, 10914, 12430, 14016, 15233, 15798, 16689, 18301, 18438, 18580, 18895, 19206]}, "edge": {"target": [], "time": []}}}, "displayed_time": "28.94", "trialTime": 32295, "trial_type": "mouselab-mdp", "trial_index": 12, "time_elapsed": 1082232, "internal_node_id": "0.0-6.0-1.0-3.0"}}, {"uniqueid": "w53737873:a72632068", "current_trial": 13, "dateTime": 1693483791256, "trialdata": {"revealed_states": [], "clicked_states": ["12", "13", "14", "19", "22"], "num_clicks_accrued": [0, 0, 0, 0, 0, 0, 0, 0, 0, 0, 0, 0, 0], "stateRewards": ["", 1, -3, -1, 9, -34, -40, 22, -7, 45, 53, -11, 2, 4, 5, 15, 21, 37, -49, -3, 80, -28, -34, 1, -3, 1, 1, -40, -6, -5, -16, -85, -86, 59], "withholdReward": false, "trial_id": "mdp_trial_5", "block": "test", "trialIndex": 6, "score": -30.75, "costs": -4.75, "simulationMode": [null, null, null, null, null], "rewards": [2, 4, 5, -3, -34], "path": ["0", "0", "12", "13", "14", "19", "22"], "rt": [16217, 223, 1331, 1209, 707], "actions": ["right", "right", "right", "down", "left"], "actionTimes": [18128, 18857, 20696, 22409, 23624], "queries": {"click": {"state": {"target": ["12", "13", "14", "19", "22"], "time": [3607, 4916, 5888, 8258, 9206]}, "edge": {"target": [], "time": []}}, "mouseover": {"state": {"target": ["12", "13", "14", "19", "22", "22"], "time": [3136, 4473, 5444, 7955, 8882, 15509]}, "edge": {"target": [], "time": []}}, "mouseout": {"state": {"target": ["18", "0", "12", "13", "14", "14", "19", "22", "22"], "time": [584, 2886, 3819, 5120, 6096, 6458, 8481, 13358, 15526]}, "edge": {"target": [], "time": []}}}, "displayed_time": "24.13", "trialTime": 27463, "trial_type": "mouselab-mdp", "trial_index": 13, "time_elapsed": 1110387, "internal_node_id": "0.0-6.0-1.0-4.0"}}, {"uniqueid": "w53737873:a72632068", "current_trial": 14, "dateTime": 1693483816012, "trialdata": {"revealed_states": [], "clicked_states": ["1", "2", "3", "4", "6"], "num_clicks_accrued": [0, 0, 0, 0, 0, 0, 0, 0, 0, 0, 0, 0, 0], "stateRewards": ["", 2, 3, 3, 10, 19, -21, 6, 9, 54, 68, 16, 2, 2, -6, -8, 40, -2, -75, -2, -42, 55, 59, -1, 2, 4, -14, 11, -34, -30, -6, 61, -53, 13], "withholdReward": false, "trial_id": "mdp_trial_6", "block": "test", "trialIndex": 7, "score": -7.75, "costs": -4.75, "simulationMode": [null, null, null, null, null], "rewards": [2, 3, 3, 10, -21], "path": ["0", "0", "1", "2", "3", "4", "6"], "rt": [15027, 293, 161, 674, 153], "actions": ["up", "up", "up", "right", "right"], "actionTimes": [17642, 18455, 19126, 20333, 20996], "queries": {"click": {"state": {"target": ["1", "2", "3", "4", "6"], "time": [4556, 5587, 6759, 8423, 9515]}, "edge": {"target": [], "time": []}}, "mouseover": {"state": {"target": ["1", "2", "3", "4", "6"], "time": [3707, 5061, 6295, 7427, 9062]}, "edge": {"target": [], "time": []}}, "mouseout": {"state": {"target": ["0", "1", "2", "3", "4", "6"], "time": [1788, 5009, 5799, 6967, 8626, 9722]}, "edge": {"target": [], "time": []}}}, "displayed_time": "21.50", "trialTime": 24044, "trial_type": "mouselab-mdp", "trial_index": 14, "time_elapsed": 1135143, "internal_node_id": "0.0-6.0-1.0-5.0"}}, {"uniqueid": "w53737873:a72632068", "current_trial": 15, "dateTime": 1693483836856, "trialdata": {"revealed_states": [], "clicked_states": [], "num_clicks_accrued": [0, 0, 0, 0, 0, 0, 0, 0, 0, 0, 0, 0, 0], "stateRewards": ["", 1, -4, 6, -3, 40, 76, -51, 5, -24, -63, 44, -2, -2, 8, 1, 76, -85, -58, 10, 59, 20, 11, -2, 3, -3, 3, -82, -10, 54, -7, -57, -6, -32], "withholdReward": false, "trial_id": "mdp_trial_7", "block": "test", "trialIndex": 8, "score": -15, "costs": 0, "simulationMode": [null, null, null, null, null], "rewards": [-2, 3, -3, -7, -6], "path": ["0", "0", "23", "24", "25", "30", "32"], "rt": [8180, 210, 419, 917, 1383], "actions": ["left", "left", "left", "down", "down"], "actionTimes": [12071, 12823, 13752, 15168, 17051], "queries": {"click": {"state": {"target": [], "time": []}, "edge": {"target": [], "time": []}}, "mouseover": {"state": {"target": ["0", "23"], "time": [7509, 7608]}, "edge": {"target": [], "time": []}}, "mouseout": {"state": {"target": ["16", "18", "0", "23"], "time": [2055, 2121, 7526, 9059]}, "edge": {"target": [], "time": []}}}, "displayed_time": "17.89", "trialTime": 20109, "trial_type": "mouselab-mdp", "trial_index": 15, "time_elapsed": 1155987, "internal_node_id": "0.0-6.0-1.0-6.0"}}, {"uniqueid": "w53737873:a72632068", "current_trial": 16, "dateTime": 1693483858833, "trialdata": {"revealed_states": [], "clicked_states": ["1", "2", "3", "4", "7"], "num_clicks_accrued": [0, 0, 0, 0, 0, 0, 0, 0, 0, 0, 0, 0, 0], "stateRewards": ["", 1, 1, 6, -14, -40, 37, 16, -13, 33, -68, 49, 2, 4, 3, 6, 55, 27, 32, 10, -65, 20, -87, 2, 1, -6, -5, -42, 12, 29, -8, 16, 76, -33], "withholdReward": false, "trial_id": "mdp_trial_8", "block": "test", "trialIndex": 9, "score": 5.25, "costs": -4.75, "simulationMode": [null, null, null, null, null], "rewards": [1, 1, 6, -14, 16], "path": ["0", "0", "1", "2", "3", "4", "7"], "rt": [12080, 154, 451, 1052, 718], "actions": ["up", "up", "up", "right", "down"], "actionTimes": [13837, 14493, 15455, 17007, 18236], "queries": {"click": {"state": {"target": ["1", "2", "3", "4", "7"], "time": [3236, 4136, 5129, 6086, 6980]}, "edge": {"target": [], "time": []}}, "mouseover": {"state": {"target": ["1", "2", "3", "4", "7"], "time": [2594, 3645, 4664, 5615, 6602]}, "edge": {"target": [], "time": []}}, "mouseout": {"state": {"target": ["0", "1", "2", "3", "4"], "time": [708, 3514, 4346, 5351, 6550]}, "edge": {"target": [], "time": []}}}, "displayed_time": "18.76", "trialTime": 21232, "trial_type": "mouselab-mdp", "trial_index": 16, "time_elapsed": 1177964, "internal_node_id": "0.0-6.0-1.0-7.0"}}, {"uniqueid": "w53737873:a72632068", "current_trial": 17, "dateTime": 1693483883590, "trialdata": {"revealed_states": [], "clicked_states": ["1", "2", "3", "8", "9"], "num_clicks_accrued": [0, 0, 0, 0, 0, 0, 0, 0, 0, 0, 0, 0, 0], "stateRewards": ["", -2, -3, -6, -7, 9, 16, 65, 5, -41, 20, -25, -1, -4, 1, -11, -49, -4, 71, 1, 39, -62, 52, -2, -3, 7, -9, -28, -70, 84, 8, 24, -58, 82], "withholdReward": false, "trial_id": "mdp_trial_9", "block": "test", "trialIndex": 10, "score": -51.75, "costs": -4.75, "simulationMode": [null, null, null, null, null], "rewards": [-2, -3, -6, 5, -41], "path": ["0", "0", "1", "2", "3", "8", "9"], "rt": [13694, 245, 137, 1188, 685], "actions": ["up", "up", "up", "left", "up"], "actionTimes": [16024, 16782, 17425, 19124, 20305], "queries": {"click": {"state": {"target": ["1", "2", "3", "8", "9"], "time": [4760, 5604, 6492, 7311, 8319]}, "edge": {"target": [], "time": []}}, "mouseover": {"state": {"target": ["1", "2", "3", "8", "9", "8", "10"], "time": [3854, 5141, 6008, 6918, 7824, 12529, 12746]}, "edge": {"target": [], "time": []}}, "mouseout": {"state": {"target": ["7", "1", "1", "0", "1", "2", "3", "8", "9", "8", "10"], "time": [919, 984, 1287, 3187, 4966, 5907, 6864, 7746, 12429, 12629, 12979]}, "edge": {"target": [], "time": []}}}, "displayed_time": "20.80", "trialTime": 24004, "trial_type": "mouselab-mdp", "trial_index": 17, "time_elapsed": 1202721, "internal_node_id": "0.0-6.0-1.0-8.0"}}, {"uniqueid": "w53737873:a72632068", "current_trial": 18, "dateTime": 1693483905521, "trialdata": {"revealed_states": [], "clicked_states": ["12", "13", "14", "15", "18"], "num_clicks_accrued": [0, 0, 0, 0, 0, 0, 0, 0, 0, 0, 0, 0, 0], "stateRewards": ["", 1, 4, -4, 14, 35, 51, 19, -13, 54, 78, -74, -2, -1, -3, 13, -11, -42, -73, -15, -24, -3, -69, 2, -1, 5, 16, -27, 73, 58, 9, -60, 5, -60], "withholdReward": false, "trial_id": "mdp_trial_10", "block": "test", "trialIndex": 11, "score": -70.75, "costs": -4.75, "simulationMode": [null, null, null, null, null], "rewards": [-2, -1, -3, 13, -73], "path": ["0", "0", "12", "13", "14", "15", "18"], "rt": [12109, 314, 257, 463, 91], "actions": ["right", "right", "right", "up", "left"], "actionTimes": [13594, 14416, 15175, 16148, 16744], "queries": {"click": {"state": {"target": ["12", "13", "14", "15", "18"], "time": [2904, 4094, 5759, 6972, 7864]}, "edge": {"target": [], "time": []}}, "mouseover": {"state": {"target": ["12", "13", "14", "15", "18"], "time": [2457, 3711, 4695, 6396, 7332]}, "edge": {"target": [], "time": []}}, "mouseout": {"state": {"target": ["12", "13", "14", "15", "18"], "time": [3116, 4411, 5968, 7297, 20649]}, "edge": {"target": [], "time": []}}}, "displayed_time": "17.26", "trialTime": 21140, "trial_type": "mouselab-mdp", "trial_index": 18, "time_elapsed": 1224652, "internal_node_id": "0.0-6.0-1.0-9.0"}}, {"uniqueid": "w53737873:a72632068", "current_trial": 19, "dateTime": 1693483925290, "trialdata": {"revealed_states": [], "clicked_states": ["23", "24", "25", "26", "27"], "num_clicks_accrued": [0, 0, 0, 0, 0, 0, 0, 0, 0, 0, 0, 0, 0], "stateRewards": ["", 1, 2, -3, 6, -88, 74, -45, 7, -46, 40, -77, 1, -4, 4, 3, 22, -25, -59, 8, -83, 19, -60, -1, -1, -1, -8, 26, -29, 64, -7, -88, -51, -55], "withholdReward": false, "trial_id": "mdp_trial_11", "block": "test", "trialIndex": 12, "score": 10.25, "costs": -4.75, "simulationMode": [null, null, null, null, null], "rewards": [-1, -1, -1, -8, 26], "path": ["0", "0", "23", "24", "25", "26", "27"], "rt": [9881, 264, 979, 1107, 353], "actions": ["left", "left", "left", "up", "up"], "actionTimes": [11224, 11990, 13476, 15081, 15945], "queries": {"click": {"state": {"target": ["23", "24", "25", "26", "27"], "time": [2606, 3456, 4727, 5896, 7780]}, "edge": {"target": [], "time": []}}, "mouseover": {"state": {"target": ["23", "24", "25", "26", "27"], "time": [2132, 3099, 4275, 5543, 6727]}, "edge": {"target": [], "time": []}}, "mouseout": {"state": {"target": ["23", "24", "25", "26"], "time": [2808, 3656, 4925, 6114]}, "edge": {"target": [], "time": []}}}, "displayed_time": "16.45", "trialTime": 18975, "trial_type": "mouselab-mdp", "trial_index": 19, "time_elapsed": 1244421, "internal_node_id": "0.0-6.0-1.0-10.0"}}, {"uniqueid": "w53737873:a72632068", "current_trial": 20, "dateTime": 1693483952578, "trialdata": {"revealed_states": [], "clicked_states": [], "num_clicks_accrued": [0, 0, 0, 0, 0, 0, 0, 0, 0, 0, 0, 0, 0], "stateRewards": ["", -1, 3, 8, 9, -53, 20, -84, 2, -28, -62, -31, -1, -2, -7, 2, 51, 58, 45, -4, -17, -41, 36, 2, -2, -7, -15, 29, -54, -37, -16, -43, 65, -17], "withholdReward": false, "trial_id": "mdp_trial_12", "block": "test", "trialIndex": 13, "score": 42, "costs": 0, "simulationMode": [null, null, null, null, null], "rewards": [2, -2, -7, -16, 65], "path": ["0", "0", "23", "24", "25", "30", "32"], "rt": [8028, 800, 310, 1032, 309], "actions": ["left", "left", "left", "down", "down"], "actionTimes": [10368, 11677, 12498, 14027, 14839], "queries": {"click": {"state": {"target": [], "time": []}, "edge": {"target": [], "time": []}}, "mouseover": {"state": {"target": ["0"], "time": [6171]}, "edge": {"target": [], "time": []}}, "mouseout": {"state": {"target": ["27", "0"], "time": [950, 6521]}, "edge": {"target": [], "time": []}}}, "displayed_time": "16.36", "trialTime": 26559, "trial_type": "mouselab-mdp", "trial_index": 20, "time_elapsed": 1271710, "internal_node_id": "0.0-6.0-1.0-11.0"}}, {"uniqueid": "w53737873:a72632068", "current_trial": 21, "dateTime": 1693483976397, "trialdata": {"revealed_states": [], "clicked_states": [], "num_clicks_accrued": [0, 0, 0, 0, 0, 0, 0, 0, 0, 0, 0, 0, 0], "stateRewards": ["", 1, 1, -2, 7, -31, -6, 76, 1, -36, -16, -53, 2, 1, 7, 13, -47, -10, 47, -7, 72, 46, -56, -2, -2, -2, 11, -80, 44, 38, 16, 67, 85, -78], "withholdReward": false, "trial_id": "mdp_trial_13", "block": "test", "trialIndex": 14, "score": -24, "costs": 0, "simulationMode": [null, null, null, null, null], "rewards": [1, 1, -2, 7, -31], "path": ["0", "0", "1", "2", "3", "4", "5"], "rt": [4535, 58, 183, 940, 1132], "actions": ["up", "up", "up", "right", "up"], "actionTimes": [11529, 12084, 12777, 14217, 15860], "queries": {"click": {"state": {"target": [], "time": []}, "edge": {"target": [], "time": []}}, "mouseover": {"state": {"target": ["1"], "time": [8419]}, "edge": {"target": [], "time": []}}, "mouseout": {"state": {"target": ["0"], "time": [6393]}, "edge": {"target": [], "time": []}}}, "displayed_time": "21.01", "trialTime": 23045, "trial_type": "mouselab-mdp", "trial_index": 21, "time_elapsed": 1295528, "internal_node_id": "0.0-6.0-1.0-12.0"}}, {"uniqueid": "w53737873:a72632068", "current_trial": 22, "dateTime": 1693483996292, "trialdata": {"revealed_states": [], "clicked_states": [], "num_clicks_accrued": [0, 0, 0, 0, 0, 0, 0, 0, 0, 0, 0, 0, 0], "stateRewards": ["", -1, 2, 7, 8, 75, 67, -11, 6, 52, -17, 38, -1, 4, -8, 14, 74, -37, -17, -12, 52, 55, 71, -2, -1, -5, 2, 21, 6, -88, -14, 64, -61, -47], "withholdReward": false, "trial_id": "mdp_trial_14", "block": "test", "trialIndex": 15, "score": -94, "costs": 0, "simulationMode": [null, null, null, null, null], "rewards": [-2, -1, -5, 2, -88], "path": ["0", "0", "23", "24", "25", "26", "29"], "rt": [8551, 249, 525, 719, 1269], "actions": ["left", "left", "left", "up", "left"], "actionTimes": [10568, 11329, 12354, 13582, 15349], "queries": {"click": {"state": {"target": [], "time": []}, "edge": {"target": [], "time": []}}, "mouseover": {"state": {"target": ["0"], "time": [4358]}, "edge": {"target": [], "time": []}}, "mouseout": {"state": {"target": ["1", "0"], "time": [738, 4377]}, "edge": {"target": [], "time": []}}}, "displayed_time": "16.04", "trialTime": 19070, "trial_type": "mouselab-mdp", "trial_index": 22, "time_elapsed": 1315423, "internal_node_id": "0.0-6.0-1.0-13.0"}}, {"uniqueid": "w53737873:a72632068", "current_trial": 23, "dateTime": 1693484019584, "trialdata": {"revealed_states": [], "clicked_states": [], "num_clicks_accrued": [0, 0, 0, 0, 0, 0, 0, 0, 0, 0, 0, 0, 0], "stateRewards": ["", 1, -4, -4, 8, 1, -79, 68, -10, -79, 8, -74, -1, -3, -6, 14, 43, 23, 9, 5, -51, 63, 61, -2, 4, 6, -10, 69, -32, 57, 15, -80, -80, -77], "withholdReward": false, "trial_id": "mdp_trial_15", "block": "test", "trialIndex": 16, "score": 58, "costs": 0, "simulationMode": [null, null, null, null, null], "rewards": [-1, -3, -6, 5, 63], "path": ["0", "0", "12", "13", "14", "19", "21"], "rt": [6818, 57, 6, 1296, 368], "actions": ["right", "right", "right", "down", "down"], "actionTimes": [8482, 9039, 9555, 11377, 12252], "queries": {"click": {"state": {"target": [], "time": []}, "edge": {"target": [], "time": []}}, "mouseover": {"state": {"target": [], "time": []}, "edge": {"target": [], "time": []}}, "mouseout": {"state": {"target": [], "time": []}, "edge": {"target": [], "time": []}}}, "displayed_time": "15.70", "trialTime": 22323, "trial_type": "mouselab-mdp", "trial_index": 23, "time_elapsed": 1338715, "internal_node_id": "0.0-6.0-1.0-14.0"}}, {"uniqueid": "w53737873:a72632068", "current_trial": 24, "dateTime": 1693484036998, "trialdata": {"revealed_states": [], "clicked_states": [], "num_clicks_accrued": [0, 0, 0, 0, 0, 0, 0, 0, 0, 0, 0, 0, 0], "stateRewards": ["", 2, 3, -3, 4, 72, -28, 34, -12, 57, -64, -15, 2, 1, -4, -15, 2, 49, 31, -1, -42, -58, 31, -2, 1, -2, -13, -75, -19, -22, -6, 61, 10, -56], "withholdReward": false, "trial_id": "mdp_trial_16", "block": "test", "trialIndex": 17, "score": -25, "costs": 0, "simulationMode": [null, null, null, null, null], "rewards": [2, 3, -3, -12, -15], "path": ["0", "0", "1", "2", "3", "8", "11"], "rt": [4567, 141, 125, 1200, 1504], "actions": ["up", "up", "up", "left", "left"], "actionTimes": [5623, 6263, 6899, 8607, 10613], "queries": {"click": {"state": {"target": [], "time": []}, "edge": {"target": [], "time": []}}, "mouseover": {"state": {"target": ["1", "23"], "time": [2015, 3301]}, "edge": {"target": [], "time": []}}, "mouseout": {"state": {"target": ["0", "1", "23"], "time": [1848, 3283, 3383]}, "edge": {"target": [], "time": []}}}, "displayed_time": "15.06", "trialTime": 16452, "trial_type": "mouselab-mdp", "trial_index": 24, "time_elapsed": 1356129, "internal_node_id": "0.0-6.0-1.0-15.0"}}, {"uniqueid": "w53737873:a72632068", "current_trial": 25, "dateTime": 1693484055849, "trialdata": {"revealed_states": [], "clicked_states": [], "num_clicks_accrued": [0, 0, 0, 0, 0, 0, 0, 0, 0, 0, 0, 0, 0], "stateRewards": ["", 2, -4, 7, 3, 23, -42, 4, 7, -81, -33, 7, -2, -4, 5, -1, 50, -57, -14, -13, -14, 44, 55, -2, -2, 5, -2, 33, 1, 57, -13, -7, 58, 87], "withholdReward": false, "trial_id": "mdp_trial_17", "block": "test", "trialIndex": 18, "score": 12, "costs": 0, "simulationMode": [null, null, null, null, null], "rewards": [2, -4, 7, 3, 4], "path": ["0", "0", "1", "2", "3", "4", "7"], "rt": [6476, 358, 356, 888, 2341], "actions": ["up", "up", "up", "right", "down"], "actionTimes": [8549, 9408, 10274, 11671, 14508], "queries": {"click": {"state": {"target": [], "time": []}, "edge": {"target": [], "time": []}}, "mouseover": {"state": {"target": ["23"], "time": [4545]}, "edge": {"target": [], "time": []}}, "mouseout": {"state": {"target": [], "time": []}, "edge": {"target": [], "time": []}}}, "displayed_time": "16.09", "trialTime": 17905, "trial_type": "mouselab-mdp", "trial_index": 25, "time_elapsed": 1374981, "internal_node_id": "0.0-6.0-1.0-16.0"}}, {"uniqueid": "w53737873:a72632068", "current_trial": 26, "dateTime": 1693484081908, "trialdata": {"revealed_states": [], "clicked_states": ["23", "24", "25", "30", "33"], "num_clicks_accrued": [0, 0, 0, 0, 0, 0, 0, 0, 0, 0, 0, 0, 0], "stateRewards": ["", -1, 2, -2, 5, 80, -61, -27, 12, 44, -26, -75, -2, -4, 1, -16, 42, -49, -50, 4, -44, 2, 80, -2, -2, 5, -2, 59, 10, 24, 7, -48, -86, -44], "withholdReward": false, "trial_id": "mdp_trial_18", "block": "test", "trialIndex": 19, "score": -40.75, "costs": -4.75, "simulationMode": [null, null, null, null, null], "rewards": [-2, -2, 5, 7, -44], "path": ["0", "0", "23", "24", "25", "30", "33"], "rt": [13210, 1813, 1092, 460, 703], "actions": ["left", "left", "left", "down", "left"], "actionTimes": [16347, 18666, 20263, 21231, 22441], "queries": {"click": {"state": {"target": ["23", "24", "25", "30", "33"], "time": [4391, 5362, 6776, 7787, 8746]}, "edge": {"target": [], "time": []}}, "mouseover": {"state": {"target": ["23", "24", "25", "30", "33"], "time": [3841, 4902, 6411, 7428, 8412]}, "edge": {"target": [], "time": []}}, "mouseout": {"state": {"target": ["23", "23", "24", "25", "30", "33"], "time": [2006, 4590, 5573, 7164, 8099, 8937]}, "edge": {"target": [], "time": []}}}, "displayed_time": "22.94", "trialTime": 25089, "trial_type": "mouselab-mdp", "trial_index": 26, "time_elapsed": 1401039, "internal_node_id": "0.0-6.0-1.0-17.0"}}, {"uniqueid": "w53737873:a72632068", "current_trial": 27, "dateTime": 1693484106908, "trialdata": {"revealed_states": [], "clicked_states": ["12", "13", "14"], "num_clicks_accrued": [0, 0, 0, 0, 0, 0, 0, 0, 0, 0, 0, 0, 0], "stateRewards": ["", 1, -2, -2, 10, -31, -77, 35, 9, -47, 8, 48, -2, 1, -4, -3, -26, -50, 43, -11, 76, -38, 17, 1, -1, 6, 10, 15, -9, 12, -8, 85, 11, -55], "withholdReward": false, "trial_id": "mdp_trial_19", "block": "test", "trialIndex": 20, "score": -55.05, "costs": -1.0499999999999998, "simulationMode": [null, null, null, null, null], "rewards": [-2, 1, -4, -11, -38], "path": ["0", "0", "12", "13", "14", "19", "21"], "rt": [14892, 7, 551, 767, 1307], "actions": ["right", "right", "right", "down", "down"], "actionTimes": [17185, 17696, 18770, 20052, 21862], "queries": {"click": {"state": {"target": ["12", "13", "14"], "time": [4783, 7335, 10157]}, "edge": {"target": [], "time": []}}, "mouseover": {"state": {"target": ["1", "12", "13", "14", "14", "14", "19", "13", "12"], "time": [3625, 4226, 6143, 9244, 9594, 13647, 13963, 15980, 16147]}, "edge": {"target": [], "time": []}}, "mouseout": {"state": {"target": ["33", "24", "23", "1", "12", "13", "13", "14", "14", "14", "19", "13"], "time": [872, 927, 955, 4029, 4845, 7556, 8712, 9281, 10377, 13796, 15864, 16063]}, "edge": {"target": [], "time": []}}}, "displayed_time": "22.37", "trialTime": 24059, "trial_type": "mouselab-mdp", "trial_index": 27, "time_elapsed": 1426039, "internal_node_id": "0.0-6.0-1.0-18.0"}}, {"uniqueid": "w53737873:a72632068", "current_trial": 28, "dateTime": 1693484126543, "trialdata": {"revealed_states": [], "clicked_states": [], "num_clicks_accrued": [0, 0, 0, 0, 0, 0, 0, 0, 0, 0, 0, 0, 0], "stateRewards": ["", -2, 4, -3, -13, 63, -36, 62, 11, 78, 34, -51, 2, -2, 8, -6, -40, -18, 31, 9, 64, 39, 79, 1, 4, -4, 15, -12, 76, 73, -10, -77, 86, -4], "withholdReward": false, "trial_id": "mdp_trial_20", "block": "test", "trialIndex": 21, "score": 81, "costs": 0, "simulationMode": [null, null, null, null, null], "rewards": [2, -2, 8, 9, 64], "path": ["0", "0", "12", "13", "14", "19", "20"], "rt": [6930, 228, 7, 1291, 1515], "actions": ["right", "right", "right", "down", "right"], "actionTimes": [8704, 9440, 9954, 11752, 13778], "queries": {"click": {"state": {"target": [], "time": []}, "edge": {"target": [], "time": []}}, "mouseover": {"state": {"target": [], "time": []}, "edge": {"target": [], "time": []}}, "mouseout": {"state": {"target": ["12"], "time": [567]}, "edge": {"target": [], "time": []}}}, "displayed_time": "15.78", "trialTime": 18678, "trial_type": "mouselab-mdp", "trial_index": 28, "time_elapsed": 1445674, "internal_node_id": "0.0-6.0-1.0-19.0"}}, {"uniqueid": "w53737873:a72632068", "current_trial": 29, "dateTime": 1693484182351, "trialdata": {"revealed_states": [], "clicked_states": ["1", "2", "3", "4", "6", "8", "10", "9", "26", "24", "23", "25", "30", "31", "13", "12", "18", "14", "15"], "num_clicks_accrued": [0, 0, 0, 0, 0, 0, 0, 0, 0, 0, 0, 0, 0], "stateRewards": ["", 1, 1, 7, -11, 80, -20, -53, -14, 3, 31, 27, 2, -1, -8, -10, 33, 41, 86, 9, 78, -37, -13, -1, -2, -6, -8, -80, 75, 4, -16, -49, -74, 24], "withholdReward": false, "trial_id": "mdp_trial_21", "block": "test", "trialIndex": 22, "score": 47.35, "costs": -21.65, "simulationMode": [null, null, null, null, null], "rewards": [2, -1, -8, -10, 86], "path": ["0", "0", "12", "13", "14", "15", "18"], "rt": [45870, 100, 124, 855, 424], "actions": ["right", "right", "right", "up", "left"], "actionTimes": [47421, 48023, 48645, 50013, 50973], "queries": {"click": {"state": {"target": ["1", "2", "3", "4", "6", "8", "10", "9", "26", "24", "23", "25", "30", "31", "13", "12", "18", "14", "15"], "time": [4161, 5668, 7087, 9450, 11077, 16141, 17396, 21100, 24849, 25888, 26837, 28276, 30175, 31366, 34382, 36026, 37089, 40785, 42065]}, "edge": {"target": [], "time": []}}, "mouseover": {"state": {"target": ["1", "1", "2", "3", "4", "5", "6", "8", "10", "11", "11", "9", "11", "27", "26", "24", "23", "25", "24", "30", "31", "23", "0", "12", "13", "12", "18", "15", "14", "15", "15", "18"], "time": [2945, 3639, 5060, 6575, 9168, 10137, 10570, 15806, 16975, 17918, 18094, 20540, 22714, 23447, 24543, 25636, 26356, 27877, 29411, 29673, 30783, 32505, 32562, 32664, 33780, 35580, 36578, 37492, 38236, 41626, 45784, 45867]}, "edge": {"target": [], "time": []}}, "mouseout": {"state": {"target": ["0", "1", "1", "2", "3", "4", "5", "6", "8", "10", "11", "11", "9", "11", "27", "26", "26", "24", "23", "24", "25", "24", "30", "31", "30", "23", "0", "12", "13", "12", "18", "15", "14", "15", "15", "18"], "time": [85, 3364, 4363, 6473, 7299, 9652, 10427, 11285, 16931, 17859, 17942, 20308, 22580, 23294, 24310, 25214, 25335, 26093, 27607, 27782, 28498, 29561, 30380, 32239, 32416, 32533, 32616, 33623, 34583, 36485, 37464, 37635, 40995, 42266, 45849, 45932]}, "edge": {"target": [], "time": []}}}, "displayed_time": "51.47", "trialTime": 54790, "trial_type": "mouselab-mdp", "trial_index": 29, "time_elapsed": 1501482, "internal_node_id": "0.0-6.0-1.0-20.0"}}, {"uniqueid": "w53737873:a72632068", "current_trial": 30, "dateTime": 1693484201245, "trialdata": {"revealed_states": [], "clicked_states": [], "num_clicks_accrued": [0, 0, 0, 0, 0, 0, 0, 0, 0, 0, 0, 0, 0], "stateRewards": ["", 1, 3, 1, -13, 52, -28, 67, -14, 3, 63, -70, -1, -4, 7, -11, -10, 47, -18, 6, 69, -9, -61, 2, 3, -6, 10, 63, -34, 40, -6, -79, -35, -32], "withholdReward": false, "trial_id": "mdp_trial_22", "block": "test", "trialIndex": 23, "score": -6, "costs": 0, "simulationMode": [null, null, null, null, null], "rewards": [1, 3, 1, -14, 3], "path": ["0", "0", "1", "2", "3", "8", "9"], "rt": [8268, 118, 8, 929, 507], "actions": ["up", "up", "up", "left", "up"], "actionTimes": [10091, 10714, 11222, 12676, 13716], "queries": {"click": {"state": {"target": [], "time": []}, "edge": {"target": [], "time": []}}, "mouseover": {"state": {"target": ["1", "12"], "time": [2670, 5805]}, "edge": {"target": [], "time": []}}, "mouseout": {"state": {"target": ["12", "1"], "time": [693, 5482]}, "edge": {"target": [], "time": []}}}, "displayed_time": "15.84", "trialTime": 17933, "trial_type": "mouselab-mdp", "trial_index": 30, "time_elapsed": 1520376, "internal_node_id": "0.0-6.0-1.0-21.0"}}, {"uniqueid": "w53737873:a72632068", "current_trial": 31, "dateTime": 1693484237446, "trialdata": {"revealed_states": [], "clicked_states": ["12", "13", "14", "15", "18", "16", "17", "22", "20"], "num_clicks_accrued": [0, 0, 0, 0, 0, 0, 0, 0, 0, 0, 0, 0, 0], "stateRewards": ["", 1, 1, -5, 10, -31, 73, 14, -8, -23, 63, -70, -1, 2, 8, 7, 25, -59, 27, -10, -40, -71, -15, -2, 3, -8, -5, -19, 77, -34, 7, 67, 63, 19], "withholdReward": false, "trial_id": "mdp_trial_23", "block": "test", "trialIndex": 24, "score": 29.65, "costs": -13.350000000000001, "simulationMode": [null, null, null, null, null], "rewards": [-1, 2, 8, 7, 27], "path": ["0", "0", "12", "13", "14", "15", "18"], "rt": [27087, 260, 380, 845, 6], "actions": ["right", "right", "right", "up", "left"], "actionTimes": [29166, 29947, 30835, 32184, 32698], "queries": {"click": {"state": {"target": ["12", "13", "14", "15", "18", "16", "17", "22", "20"], "time": [3037, 4035, 5126, 6401, 7650, 10716, 13851, 17396, 22235]}, "edge": {"target": [], "time": []}}, "mouseover": {"state": {"target": ["12", "13", "14", "15", "18", "16", "17", "13", "22", "19", "20", "19", "13", "12", "12"], "time": [2703, 3601, 4796, 5766, 7170, 8042, 12342, 14860, 15382, 18614, 21075, 23305, 23412, 23462, 24485]}, "edge": {"target": [], "time": []}}, "mouseout": {"state": {"target": ["12", "0", "12", "13", "14", "15", "18", "16", "17", "13", "22", "19", "20", "19", "13", "12", "12"], "time": [515, 1098, 3449, 4455, 5338, 6606, 7868, 10737, 14794, 14990, 17609, 20876, 23280, 23330, 23437, 23645, 24532]}, "edge": {"target": [], "time": []}}}, "displayed_time": "33.21", "trialTime": 35274, "trial_type": "mouselab-mdp", "trial_index": 31, "time_elapsed": 1556577, "internal_node_id": "0.0-6.0-1.0-22.0"}}, {"uniqueid": "w53737873:a72632068", "current_trial": 32, "dateTime": 1693484259560, "trialdata": {"revealed_states": [], "clicked_states": [], "num_clicks_accrued": [0, 0, 0, 0, 0, 0, 0, 0, 0, 0, 0, 0, 0], "stateRewards": ["", -2, -3, 8, -4, -30, 31, 69, 9, 66, 87, 64, -2, 2, 8, 5, 47, 16, -39, -8, -54, 51, -19, 1, -2, -2, -11, -25, -26, 43, -9, 19, -84, 86], "withholdReward": false, "trial_id": "mdp_trial_24", "block": "test", "trialIndex": 25, "score": 7, "costs": 0, "simulationMode": [null, null, null, null, null], "rewards": [1, -2, -2, -9, 19], "path": ["0", "0", "23", "24", "25", "30", "31"], "rt": [12686, 634, 160, 785, 129], "actions": ["left", "left", "left", "down", "right"], "actionTimes": [15260, 16407, 17067, 18403, 19036], "queries": {"click": {"state": {"target": [], "time": []}, "edge": {"target": [], "time": []}}, "mouseover": {"state": {"target": [], "time": []}, "edge": {"target": [], "time": []}}, "mouseout": {"state": {"target": ["12"], "time": [1542]}, "edge": {"target": [], "time": []}}}, "displayed_time": "19.54", "trialTime": 21195, "trial_type": "mouselab-mdp", "trial_index": 32, "time_elapsed": 1578692, "internal_node_id": "0.0-6.0-1.0-23.0"}}, {"uniqueid": "w53737873:a72632068", "current_trial": 33, "dateTime": 1693484276855, "trialdata": {"revealed_states": [], "clicked_states": [], "num_clicks_accrued": [0, 0, 0, 0, 0, 0, 0, 0, 0, 0, 0, 0, 0], "stateRewards": ["", -1, -3, -6, 14, 41, 18, 63, -14, 80, 21, 17, -2, -4, -2, -5, 13, 70, 8, -4, -64, -10, -20, 2, -1, 4, -1, -17, -55, 42, -7, 47, 54, 15], "withholdReward": false, "trial_id": "mdp_trial_25", "block": "test", "trialIndex": 26, "score": -3, "costs": 0, "simulationMode": [null, null, null, null, null], "rewards": [-1, -3, -6, -14, 21], "path": ["0", "0", "1", "2", "3", "8", "10"], "rt": [8647, 543, 221, 305, 34], "actions": ["up", "up", "up", "left", "down"], "actionTimes": [9844, 10895, 11625, 12442, 12989], "queries": {"click": {"state": {"target": [], "time": []}, "edge": {"target": [], "time": []}}, "mouseover": {"state": {"target": [], "time": []}, "edge": {"target": [], "time": []}}, "mouseout": {"state": {"target": ["0"], "time": [641]}, "edge": {"target": [], "time": []}}}, "displayed_time": "15.24", "trialTime": 16245, "trial_type": "mouselab-mdp", "trial_index": 33, "time_elapsed": 1595986, "internal_node_id": "0.0-6.0-1.0-24.0"}}, {"uniqueid": "w53737873:a72632068", "current_trial": 34, "dateTime": 1693484295909, "trialdata": {"revealed_states": [], "clicked_states": [], "num_clicks_accrued": [0, 0, 0, 0, 0, 0, 0, 0, 0, 0, 0, 0, 0], "stateRewards": ["", 1, -1, 8, -3, 38, 85, -20, -4, 8, 23, 73, 2, -4, 6, -13, 44, 7, -28, -11, -77, 45, -69, 1, -1, -7, -11, 75, -51, -87, 7, 36, -53, -26], "withholdReward": false, "trial_id": "mdp_trial_26", "block": "test", "trialIndex": 27, "score": 35, "costs": 0, "simulationMode": [null, null, null, null, null], "rewards": [2, -4, 6, -13, 44], "path": ["0", "0", "12", "13", "14", "15", "16"], "rt": [5090, 68, 137, 392, 348], "actions": ["right", "right", "right", "up", "up"], "actionTimes": [6985, 7560, 8196, 9107, 9958], "queries": {"click": {"state": {"target": [], "time": []}, "edge": {"target": [], "time": []}}, "mouseover": {"state": {"target": [], "time": []}, "edge": {"target": [], "time": []}}, "mouseout": {"state": {"target": ["23"], "time": [764]}, "edge": {"target": [], "time": []}}}, "displayed_time": "15.91", "trialTime": 17731, "trial_type": "mouselab-mdp", "trial_index": 34, "time_elapsed": 1615040, "internal_node_id": "0.0-6.0-1.0-25.0"}}, {"uniqueid": "w53737873:a72632068", "current_trial": 35, "dateTime": 1693484325052, "trialdata": {"revealed_states": [], "clicked_states": [], "num_clicks_accrued": [0, 0, 0, 0, 0, 0, 0, 0, 0, 0, 0, 0, 0], "stateRewards": ["", 1, -2, -8, -3, 31, -84, -55, -14, 15, -58, 17, -2, -3, 7, 7, -12, 48, 67, 4, -44, -68, 46, 2, 3, -5, -7, 76, 27, 5, 11, 57, 52, 59], "withholdReward": false, "trial_id": "mdp_trial_27", "block": "test", "trialIndex": 28, "score": -67, "costs": 0, "simulationMode": [null, null, null, null, null], "rewards": [1, -2, -8, -3, -55], "path": ["0", "0", "1", "2", "3", "4", "7"], "rt": [17067, 268, 1449, 106, 1229], "actions": ["up", "up", "up", "right", "down"], "actionTimes": [18538, 19314, 21264, 21871, 23610], "queries": {"click": {"state": {"target": [], "time": []}, "edge": {"target": [], "time": []}}, "mouseover": {"state": {"target": ["1"], "time": [2950]}, "edge": {"target": [], "time": []}}, "mouseout": {"state": {"target": ["0", "1"], "time": [878, 2969]}, "edge": {"target": [], "time": []}}}, "displayed_time": "24.11", "trialTime": 27999, "trial_type": "mouselab-mdp", "trial_index": 35, "time_elapsed": 1644184, "internal_node_id": "0.0-6.0-1.0-26.0"}}, {"uniqueid": "w53737873:a72632068", "current_trial": 36, "dateTime": 1693484356391, "trialdata": {"revealed_states": [], "clicked_states": ["23", "25", "32", "3"], "num_clicks_accrued": [0, 0, 0, 0, 0, 0, 0, 0, 0, 0, 0, 0, 0], "stateRewards": ["", -2, -1, -1, 5, -54, -87, 35, 2, -8, 20, -22, 1, 3, 6, 13, -75, -32, -55, -3, 56, 62, -22, -1, -4, -1, -7, -51, 84, 70, 7, -15, 5, 55], "withholdReward": false, "trial_id": "mdp_trial_28", "block": "test", "trialIndex": 29, "score": 14.2, "costs": -3.8, "simulationMode": [null, null, null, null, null], "rewards": [-2, -1, -1, 2, 20], "path": ["0", "0", "1", "2", "3", "8", "10"], "rt": [18825, 287, 358, 544, 47], "actions": ["up", "up", "up", "left", "down"], "actionTimes": [20976, 21770, 22642, 23716, 24262], "queries": {"click": {"state": {"target": ["23", "25", "32", "3"], "time": [3722, 5083, 6796, 9842]}, "edge": {"target": [], "time": []}}, "mouseover": {"state": {"target": ["23", "24", "25", "30", "31", "32", "30", "2", "3", "2"], "time": [3351, 4207, 4684, 5834, 6003, 6319, 7311, 8234, 9075, 11055]}, "edge": {"target": [], "time": []}}, "mouseout": {"state": {"target": ["23", "24", "25", "25", "30", "31", "32", "30", "25", "2", "3", "3"], "time": [4125, 4466, 5288, 5697, 5902, 6252, 7288, 7341, 7474, 8879, 10055, 10988]}, "edge": {"target": [], "time": []}}}, "displayed_time": "24.78", "trialTime": 30276, "trial_type": "mouselab-mdp", "trial_index": 36, "time_elapsed": 1675522, "internal_node_id": "0.0-6.0-1.0-27.0"}}, {"uniqueid": "w53737873:a72632068", "current_trial": 37, "dateTime": 1693484388276, "trialdata": {"revealed_states": [], "clicked_states": ["13", "19", "21", "25", "32", "33"], "num_clicks_accrued": [0, 0, 0, 0, 0, 0, 0, 0, 0, 0, 0, 0, 0], "stateRewards": ["", 2, 4, -5, 7, 81, 35, 6, 11, 14, -72, 42, -1, 2, 3, -7, -77, -44, -40, -15, -85, 51, -32, -2, -1, -5, 7, -74, 47, 52, 16, -49, 48, -46], "withholdReward": false, "trial_id": "mdp_trial_29", "block": "test", "trialIndex": 30, "score": 30.7, "costs": -9.3, "simulationMode": [null, null, null, null, null], "rewards": [-1, 2, 3, -15, 51], "path": ["0", "0", "12", "13", "14", "19", "21"], "rt": [21732, 162, 106, 1423, 32], "actions": ["right", "right", "right", "down", "down"], "actionTimes": [24664, 25337, 25965, 27896, 28453], "queries": {"click": {"state": {"target": ["13", "19", "21", "25", "32", "33"], "time": [4879, 6305, 7662, 12590, 14354, 18183]}, "edge": {"target": [], "time": []}}, "mouseover": {"state": {"target": ["13", "19", "21", "23", "24", "25", "30", "32", "33", "12", "12", "12"], "time": [4491, 5508, 7283, 8692, 8914, 12012, 13461, 13569, 15247, 19185, 19453, 20214]}, "edge": {"target": [], "time": []}}, "mouseout": {"state": {"target": ["2", "1", "13", "19", "19", "21", "23", "24", "25", "25", "30", "32", "33", "12", "12"], "time": [1545, 1605, 5383, 6508, 6924, 7876, 8851, 11912, 12797, 13454, 13506, 14932, 18983, 19216, 19965]}, "edge": {"target": [], "time": []}}}, "displayed_time": "28.97", "trialTime": 30770, "trial_type": "mouselab-mdp", "trial_index": 37, "time_elapsed": 1707407, "internal_node_id": "0.0-6.0-1.0-28.0"}}, {"uniqueid": "w53737873:a72632068", "current_trial": 38, "dateTime": 1693484421937, "trialdata": {"revealed_states": [], "clicked_states": ["2", "11", "5", "9"], "num_clicks_accrued": [0, 0, 0, 0, 0, 0, 0, 0, 0, 0, 0, 0, 0], "stateRewards": ["", 1, 1, 1, 15, -76, 52, -32, 14, -57, 37, 49, 1, -4, -3, 6, 83, -76, 25, 9, 36, -1, -17, -1, 4, 4, -2, -22, -21, 58, -15, -57, 49, -24], "withholdReward": false, "trial_id": "mdp_trial_30", "block": "test", "trialIndex": 31, "score": 59.2, "costs": -6.800000000000001, "simulationMode": [null, null, null, null, null], "rewards": [1, 1, 1, 14, 49], "path": ["0", "0", "1", "2", "3", "8", "11"], "rt": [21868, 638, 630, 1015, 425], "actions": ["up", "up", "up", "left", "left"], "actionTimes": [24008, 25151, 26294, 27811, 28738], "queries": {"click": {"state": {"target": ["2", "11", "5", "9"], "time": [4164, 5476, 11157, 14652]}, "edge": {"target": [], "time": []}}, "mouseover": {"state": {"target": ["1", "2", "10", "11", "9", "5", "9", "6", "7"], "time": [3406, 3678, 4822, 5030, 6360, 9459, 11962, 16501, 22362]}, "edge": {"target": [], "time": []}}, "mouseout": {"state": {"target": ["12", "1", "2", "10", "11", "9", "5", "9", "5", "6", "7"], "time": [905, 3506, 4777, 4847, 5975, 9176, 11816, 14862, 16225, 22342, 22389]}, "edge": {"target": [], "time": []}}}, "displayed_time": "29.25", "trialTime": 32615, "trial_type": "mouselab-mdp", "trial_index": 38, "time_elapsed": 1741068, "internal_node_id": "0.0-6.0-1.0-29.0"}}, {"uniqueid": "w53737873:a72632068", "current_trial": 39, "dateTime": 1693484471520, "trialdata": {"revealed_states": [], "clicked_states": ["25", "32", "27", "21", "20", "16", "5", "6", "9"], "num_clicks_accrued": [0, 0, 0, 0, 0, 0, 0, 0, 0, 0, 0, 0, 0], "stateRewards": ["", -2, 4, 3, 5, -61, 4, 30, 1, -47, 83, 10, 1, 4, 7, -14, 19, -74, -83, 6, -2, -2, -65, -1, -2, 4, -11, 12, -1, -68, 11, -38, -28, 66], "withholdReward": false, "trial_id": "mdp_trial_31", "block": "test", "trialIndex": 32, "score": 70.85, "costs": -18.15, "simulationMode": [null, null, null, null, null], "rewards": [-2, 4, 3, 1, 83], "path": ["0", "0", "1", "2", "3", "8", "10"], "rt": [40329, 340, 80, 761, 134], "actions": ["up", "up", "up", "left", "down"], "actionTimes": [42593, 43449, 44040, 45304, 45944], "queries": {"click": {"state": {"target": ["25", "32", "27", "21", "20", "16", "5", "6", "9"], "time": [4075, 5744, 10215, 14482, 17833, 21938, 27545, 31247, 34834]}, "edge": {"target": [], "time": []}}, "mouseover": {"state": {"target": ["23", "24", "25", "30", "32", "30", "26", "27", "8", "4", "15", "14", "19", "21", "21", "20", "14", "15", "16", "16", "5", "6", "4", "9"], "time": [3143, 3226, 3359, 4900, 5097, 6384, 6473, 6644, 11065, 11368, 11491, 11563, 11675, 11900, 14014, 15165, 19068, 19426, 19594, 19777, 23029, 29060, 32729, 33453]}, "edge": {"target": [], "time": []}}, "mouseout": {"state": {"target": ["0", "23", "24", "25", "30", "32", "30", "25", "26", "27", "8", "4", "15", "14", "19", "21", "21", "20", "14", "15", "16", "16", "5", "5", "6", "4"], "time": [1076, 3178, 3293, 4852, 4989, 6377, 6412, 6443, 6518, 10430, 11280, 11400, 11518, 11626, 11792, 13764, 14699, 18050, 19376, 19521, 19691, 22910, 27760, 28536, 32720, 32759]}, "edge": {"target": [], "time": []}}}, "displayed_time": "46.44", "trialTime": 48347, "trial_type": "mouselab-mdp", "trial_index": 39, "time_elapsed": 1790652, "internal_node_id": "0.0-6.0-1.0-30.0"}}, {"uniqueid": "w53737873:a72632068", "current_trial": 40, "dateTime": 1693484501891, "trialdata": {"revealed_states": [], "clicked_states": ["8", "4", "14", "25"], "num_clicks_accrued": [0, 0, 0, 0, 0, 0, 0, 0, 0, 0, 0, 0, 0], "stateRewards": ["", -2, 2, 5, -14, -56, 64, 84, -5, 52, 39, 85, -2, 1, 7, 8, 21, 29, -78, -9, -10, -69, 10, -2, -1, -7, 15, 72, 20, 41, -2, 52, 80, 22], "withholdReward": false, "trial_id": "mdp_trial_32", "block": "test", "trialIndex": 33, "score": -77, "costs": -5, "simulationMode": [null, null, null, null, null], "rewards": [-2, 1, 7, -9, -69], "path": ["0", "0", "12", "13", "14", "19", "21"], "rt": [16556, 104, 415, 950, 369], "actions": ["right", "right", "right", "down", "down"], "actionTimes": [22803, 23417, 24346, 25796, 26676], "queries": {"click": {"state": {"target": ["8", "4", "14", "25"], "time": [9272, 10614, 12993, 15349]}, "edge": {"target": [], "time": []}}, "mouseover": {"state": {"target": ["1", "2", "3", "8", "3", "4", "18", "14", "19", "14", "13", "12", "24", "25", "2", "1", "0", "12"], "time": [7650, 7772, 8000, 8367, 9914, 10130, 11462, 11642, 11918, 12369, 13725, 13798, 14419, 14803, 19122, 21189, 21489, 21606]}, "edge": {"target": [], "time": []}}, "mouseout": {"state": {"target": ["9", "8", "1", "1", "2", "3", "8", "3", "4", "18", "14", "19", "14", "13", "12", "24", "25", "2", "1", "0"], "time": [1146, 1178, 1345, 7733, 7949, 8205, 9501, 9984, 11375, 11487, 11719, 12301, 13679, 13772, 13864, 14519, 17171, 21162, 21256, 21539]}, "edge": {"target": [], "time": []}}}, "displayed_time": "27.24", "trialTime": 29258, "trial_type": "mouselab-mdp", "trial_index": 40, "time_elapsed": 1821022, "internal_node_id": "0.0-6.0-1.0-31.0"}}, {"uniqueid": "w53737873:a72632068", "current_trial": 41, "dateTime": 1693484523342, "trialdata": {"revealed_states": [], "clicked_states": ["23", "26"], "num_clicks_accrued": [0, 0, 0, 0, 0, 0, 0, 0, 0, 0, 0, 0, 0], "stateRewards": ["", -2, -3, 7, -13, 60, 9, 37, -6, 37, 20, 1, 2, -2, -8, 6, -80, -31, -10, -7, 70, -65, -44, -1, 1, 7, 6, -11, 73, -85, 16, -21, 47, 34], "withholdReward": false, "trial_id": "mdp_trial_33", "block": "test", "trialIndex": 34, "score": 84.7, "costs": -1.3, "simulationMode": [null, null, null, null, null], "rewards": [-1, 1, 7, 6, 73], "path": ["0", "0", "23", "24", "25", "26", "28"], "rt": [10712, 10, 297, 1555, 359], "actions": ["left", "left", "left", "up", "right"], "actionTimes": [13085, 13604, 14424, 16484, 17451], "queries": {"click": {"state": {"target": ["23", "26"], "time": [4500, 6225]}, "edge": {"target": [], "time": []}}, "mouseover": {"state": {"target": ["23", "28", "26", "25", "29", "29", "33"], "time": [3935, 5424, 5735, 7539, 9121, 9593, 10304]}, "edge": {"target": [], "time": []}}, "mouseout": {"state": {"target": ["12", "0", "23", "28", "26", "26", "25", "29", "29", "33", "30"], "time": [1149, 1348, 5324, 5552, 6439, 6838, 8054, 9371, 9671, 19308, 19525]}, "edge": {"target": [], "time": []}}}, "displayed_time": "17.96", "trialTime": 20065, "trial_type": "mouselab-mdp", "trial_index": 41, "time_elapsed": 1842473, "internal_node_id": "0.0-6.0-1.0-32.0"}}, {"uniqueid": "w53737873:a72632068", "current_trial": 42, "dateTime": 1693484570852, "trialdata": {"revealed_states": [], "clicked_states": ["21", "32", "16", "5", "9", "33"], "num_clicks_accrued": [0, 0, 0, 0, 0, 0, 0, 0, 0, 0, 0, 0, 0], "stateRewards": ["", 1, 2, -3, -6, 50, -7, 7, -7, -80, 21, -1, 2, 2, 4, -1, 33, 84, 1, 14, -53, 81, 6, -2, -2, -3, -9, -87, -38, -59, -5, -74, -3, -71], "withholdReward": false, "trial_id": "mdp_trial_34", "block": "test", "trialIndex": 35, "score": 90.1, "costs": -12.9, "simulationMode": [null, null, null, null, null], "rewards": [2, 2, 4, 14, 81], "path": ["0", "0", "12", "13", "14", "19", "21"], "rt": [33206, 321, 4888, 798, 157], "actions": ["right", "right", "right", "down", "down"], "actionTimes": [35507, 36335, 41735, 43032, 43736], "queries": {"click": {"state": {"target": ["21", "32", "16", "5", "9", "33"], "time": [4027, 7981, 10980, 15880, 19359, 24319]}, "edge": {"target": [], "time": []}}, "mouseover": {"state": {"target": ["22", "21", "32", "32", "30", "23", "12", "13", "13", "15", "16", "6", "5", "9", "11", "27", "33", "29", "26", "12", "13", "12"], "time": [3259, 3575, 5068, 5475, 9167, 9521, 9614, 9668, 9762, 10096, 10406, 12185, 12484, 17166, 23001, 23335, 23735, 25894, 32409, 32572, 33088, 34006]}, "edge": {"target": [], "time": []}}, "mouseout": {"state": {"target": ["23", "0", "22", "21", "32", "32", "30", "23", "12", "13", "13", "15", "16", "6", "5", "9", "9", "11", "27", "33", "29", "26", "12", "13"], "time": [988, 3193, 3310, 4895, 5155, 8949, 9453, 9546, 9642, 9695, 9857, 10230, 12051, 12257, 16104, 19590, 22918, 23035, 23418, 25440, 32388, 32441, 32705, 33336]}, "edge": {"target": [], "time": []}}}, "displayed_time": "44.23", "trialTime": 46356, "trial_type": "mouselab-mdp", "trial_index": 42, "time_elapsed": 1889983, "internal_node_id": "0.0-6.0-1.0-33.0"}}, {"uniqueid": "w53737873:a72632068", "current_trial": 43, "dateTime": 1693484608671, "trialdata": {"revealed_states": [], "clicked_states": ["8", "4", "19", "15", "30", "26", "9", "5"], "num_clicks_accrued": [0, 0, 0, 0, 0, 0, 0, 0, 0, 0, 0, 0, 0], "stateRewards": ["", 1, -1, 8, 4, 76, -33, -17, -3, -1, -54, -74, -2, 2, -5, 13, -51, 63, 83, 1, 84, 29, -36, 2, -1, 7, -12, -10, -44, -43, -14, 8, -69, 19], "withholdReward": false, "trial_id": "mdp_trial_35", "block": "test", "trialIndex": 36, "score": 74.4, "costs": -13.600000000000001, "simulationMode": [null, null, null, null, null], "rewards": [1, -1, 8, 4, 76], "path": ["0", "0", "1", "2", "3", "4", "5"], "rt": [27514, 183, 357, 1018, 459], "actions": ["up", "up", "up", "right", "up"], "actionTimes": [29614, 30330, 31203, 32725, 33684], "queries": {"click": {"state": {"target": ["8", "4", "19", "15", "30", "26", "9", "5"], "time": [3909, 5163, 7029, 8713, 11044, 12521, 14511, 19658]}, "edge": {"target": [], "time": []}}, "mouseover": {"state": {"target": ["1", "8", "3", "4", "18", "19", "14", "15", "24", "25", "30", "25", "26", "27", "11", "9", "9", "5", "6", "16", "17", "18", "1", "1", "12", "0"], "time": [2905, 3255, 4543, 4682, 5839, 6152, 7743, 8053, 9825, 9975, 10359, 11849, 12040, 13527, 13626, 13793, 14026, 15381, 20433, 20671, 21206, 24616, 24815, 24899, 27200, 28284]}, "edge": {"target": [], "time": []}}, "mouseout": {"state": {"target": ["12", "1", "8", "3", "4", "18", "19", "14", "15", "24", "25", "30", "25", "26", "27", "11", "9", "9", "5", "6", "16", "17", "18", "1", "1", "12", "0", "0"], "time": [652, 2938, 4517, 4592, 5766, 5891, 7695, 7831, 9566, 9875, 10325, 11798, 11878, 13499, 13561, 13677, 13860, 14729, 20381, 20555, 20763, 24553, 24649, 24848, 27169, 27222, 28433, 35487]}, "edge": {"target": [], "time": []}}}, "displayed_time": "34.19", "trialTime": 36700, "trial_type": "mouselab-mdp", "trial_index": 43, "time_elapsed": 1927803, "internal_node_id": "0.0-6.0-1.0-34.0"}}, {"uniqueid": "w53737873:a72632068", "current_trial": 44, "dateTime": 1693484629721, "trialdata": {"revealed_states": [], "clicked_states": ["17"], "num_clicks_accrued": [0, 0, 0, 0, 0, 0, 0, 0, 0, 0, 0, 0, 0], "stateRewards": ["", 1, -1, -7, -7, -22, 15, -13, 13, 26, -32, 38, -1, 1, -7, -4, 16, -62, 86, 12, -54, 56, 64, -2, -1, 6, 14, -57, 37, 62, -6, -25, 50, -70], "withholdReward": false, "trial_id": "mdp_trial_36", "block": "test", "trialIndex": 37, "score": 76.85, "costs": -2.15, "simulationMode": [null, null, null, null, null], "rewards": [-2, -1, 6, 14, 62], "path": ["0", "0", "23", "24", "25", "26", "29"], "rt": [12103, 42, 570, 762, 44], "actions": ["left", "left", "left", "up", "left"], "actionTimes": [14006, 14557, 15652, 16913, 17461], "queries": {"click": {"state": {"target": ["17"], "time": [4925]}, "edge": {"target": [], "time": []}}, "mouseover": {"state": {"target": ["12", "15", "17", "20", "19", "21", "20"], "time": [3172, 4322, 4455, 5644, 9191, 9575, 10525]}, "edge": {"target": [], "time": []}}, "mouseout": {"state": {"target": ["0", "12", "15", "17", "20", "19", "21"], "time": [670, 4072, 4389, 5530, 9075, 9408, 10225]}, "edge": {"target": [], "time": []}}}, "displayed_time": "17.98", "trialTime": 19783, "trial_type": "mouselab-mdp", "trial_index": 44, "time_elapsed": 1948852, "internal_node_id": "0.0-6.0-1.0-35.0"}}, {"uniqueid": "w53737873:a72632068", "current_trial": 45, "dateTime": 1693484665469, "trialdata": {"revealed_states": [], "clicked_states": ["9", "5", "32", "29"], "num_clicks_accrued": [0, 0, 0, 0, 0, 0, 0, 0, 0, 0, 0, 0, 0], "stateRewards": ["", 2, 2, 3, -15, 23, -14, 73, -7, -32, -20, -6, 1, 1, -5, -12, 73, 6, -84, 11, -81, -57, 13, -2, -1, -4, -8, -52, -58, 49, 13, 5, -41, -41], "withholdReward": false, "trial_id": "mdp_trial_37", "block": "test", "trialIndex": 38, "score": 25.4, "costs": -8.6, "simulationMode": [null, null, null, null, null], "rewards": [-2, -1, -4, -8, 49], "path": ["0", "0", "23", "24", "25", "26", "29"], "rt": [23638, 196, 370, 813, 551], "actions": ["left", "left", "left", "up", "left"], "actionTimes": [26706, 27409, 28283, 29596, 30650], "queries": {"click": {"state": {"target": ["9", "5", "32", "29"], "time": [5933, 9610, 13147, 17761]}, "edge": {"target": [], "time": []}}, "mouseover": {"state": {"target": ["1", "2", "8", "9", "5", "3", "31", "32", "33", "29", "1", "20", "22", "22", "19", "20", "19", "22", "23"], "time": [4355, 4505, 4689, 5473, 6698, 10795, 11150, 11410, 16753, 17336, 21422, 22906, 23372, 23889, 23956, 24106, 24423, 24490, 25106]}, "edge": {"target": [], "time": []}}, "mouseout": {"state": {"target": ["20", "19", "22", "12", "1", "2", "8", "9", "5", "5", "3", "31", "32", "33", "29", "1", "20", "22", "22", "19", "20", "19", "22"], "time": [1037, 1068, 1118, 1452, 4455, 4572, 4739, 6140, 9827, 10788, 10825, 11249, 16560, 16937, 21372, 21455, 23322, 23406, 23922, 23990, 24363, 24456, 24512]}, "edge": {"target": [], "time": []}}}, "displayed_time": "31.15", "trialTime": 34570, "trial_type": "mouselab-mdp", "trial_index": 45, "time_elapsed": 1984600, "internal_node_id": "0.0-6.0-1.0-36.0"}}, {"uniqueid": "w53737873:a72632068", "current_trial": 46, "dateTime": 1693484697157, "trialdata": {"revealed_states": [], "clicked_states": ["5", "17", "20", "32"], "num_clicks_accrued": [0, 0, 0, 0, 0, 0, 0, 0, 0, 0, 0, 0, 0], "stateRewards": ["", -1, -4, -3, 1, -45, -67, -24, 14, 32, 22, 22, -1, 1, -5, -7, 72, 84, -79, -5, 19, -40, -2, -1, -2, 8, -3, 84, -25, -28, 11, 64, -66, 77], "withholdReward": false, "trial_id": "mdp_trial_38", "block": "test", "trialIndex": 39, "score": 63.4, "costs": -8.6, "simulationMode": [null, null, null, null, null], "rewards": [-1, 1, -5, -7, 84], "path": ["0", "0", "12", "13", "14", "15", "17"], "rt": [21203, 137, 237, 1017, 882], "actions": ["right", "right", "right", "up", "right"], "actionTimes": [23354, 23996, 24730, 26244, 27625], "queries": {"click": {"state": {"target": ["5", "17", "20", "32"], "time": [3896, 7286, 10493, 15411]}, "edge": {"target": [], "time": []}}, "mouseover": {"state": {"target": ["2", "3", "5", "6", "16", "17", "20", "19", "32", "12", "13", "17", "17"], "time": [3014, 3043, 3379, 4697, 4774, 5116, 8441, 13987, 14599, 19101, 19168, 19368, 19801]}, "edge": {"target": [], "time": []}}, "mouseout": {"state": {"target": ["23", "2", "3", "5", "6", "16", "17", "20", "19", "32", "12", "13", "17", "17"], "time": [731, 3037, 3077, 4669, 4725, 4801, 8049, 13966, 14017, 15635, 19134, 19202, 19484, 20319]}, "edge": {"target": [], "time": []}}}, "displayed_time": "28.13", "trialTime": 30623, "trial_type": "mouselab-mdp", "trial_index": 46, "time_elapsed": 2016288, "internal_node_id": "0.0-6.0-1.0-37.0"}}, {"uniqueid": "w53737873:a72632068", "current_trial": 47, "dateTime": 1693484725365, "trialdata": {"revealed_states": [], "clicked_states": ["8", "4", "19", "30", "26"], "num_clicks_accrued": [0, 0, 0, 0, 0, 0, 0, 0, 0, 0, 0, 0, 0], "stateRewards": ["", 2, -1, -2, -5, -47, -57, -33, -11, 31, -18, -72, -2, 1, -4, -8, -46, -53, -50, 15, -85, -9, 39, -2, -2, 1, 14, -1, -8, 53, -12, -41, -74, 62], "withholdReward": false, "trial_id": "mdp_trial_39", "block": "test", "trialIndex": 40, "score": 41.25, "costs": -7.75, "simulationMode": [null, null, null, null, null], "rewards": [-2, 1, -4, 15, 39], "path": ["0", "0", "12", "13", "14", "19", "22"], "rt": [17844, 16, 251, 778, 1554], "actions": ["right", "right", "right", "down", "left"], "actionTimes": [20079, 20614, 21380, 22657, 24718], "queries": {"click": {"state": {"target": ["8", "4", "19", "30", "26"], "time": [4988, 6731, 8831, 11543, 14412]}, "edge": {"target": [], "time": []}}, "mouseover": {"state": {"target": ["1", "10", "8", "8", "3", "4", "18", "14", "19", "22", "23", "24", "30", "25", "26", "24", "23", "0", "18", "16", "15", "18", "12"], "time": [3324, 3491, 3673, 3940, 5972, 6258, 7985, 8185, 8368, 9515, 10185, 10369, 11069, 12587, 13503, 15655, 15805, 16656, 16773, 16856, 17351, 18714, 19081]}, "edge": {"target": [], "time": []}}, "mouseout": {"state": {"target": ["17", "15", "18", "1", "10", "8", "8", "3", "4", "4", "18", "14", "19", "22", "23", "24", "30", "25", "26", "24", "23", "0", "18", "16", "15", "18"], "time": [638, 676, 738, 3424, 3624, 3708, 5191, 6126, 6995, 7918, 8051, 8251, 9053, 9542, 10236, 10418, 11754, 13437, 15473, 15676, 16622, 16678, 16823, 17089, 18690, 18790]}, "edge": {"target": [], "time": []}}}, "displayed_time": "25.21", "trialTime": 26980, "trial_type": "mouselab-mdp", "trial_index": 47, "time_elapsed": 2044496, "internal_node_id": "0.0-6.0-1.0-38.0"}}, {"uniqueid": "w53737873:a72632068", "current_trial": 48, "dateTime": 1693484752405, "trialdata": {"revealed_states": [], "clicked_states": ["7", "31"], "num_clicks_accrued": [0, 0, 0, 0, 0, 0, 0, 0, 0, 0, 0, 0, 0], "stateRewards": ["", -2, -2, -7, -13, -10, 49, -68, -1, 84, 70, 88, 1, 4, 4, 12, -57, 25, 30, 8, -1, -77, 57, 2, 3, 2, 3, -18, -80, 23, -15, -41, 70, 11], "withholdReward": false, "trial_id": "mdp_trial_40", "block": "test", "trialIndex": 41, "score": 67.7, "costs": -4.3, "simulationMode": [null, null, null, null, null], "rewards": [-2, -2, -7, -1, 84], "path": ["0", "0", "1", "2", "3", "8", "9"], "rt": [16501, 341, 559, 916, 695], "actions": ["up", "up", "up", "left", "up"], "actionTimes": [18771, 19618, 20688, 22111, 23309], "queries": {"click": {"state": {"target": ["7", "31"], "time": [4362, 7808]}, "edge": {"target": [], "time": []}}, "mouseover": {"state": {"target": ["1", "7", "2", "10", "23", "24", "31", "22", "0", "23", "24", "28", "1"], "time": [3514, 3797, 5108, 5364, 5447, 5727, 5967, 8973, 12735, 12774, 12851, 13040, 15469]}, "edge": {"target": [], "time": []}}, "mouseout": {"state": {"target": ["12", "1", "7", "2", "10", "23", "24", "31", "22", "0", "23", "24", "28", "1"], "time": [828, 3614, 5057, 5227, 5397, 5475, 5868, 8545, 12668, 12768, 12818, 12951, 15336, 15636]}, "edge": {"target": [], "time": []}}}, "displayed_time": "23.81", "trialTime": 25655, "trial_type": "mouselab-mdp", "trial_index": 48, "time_elapsed": 2071536, "internal_node_id": "0.0-6.0-1.0-39.0"}}, {"uniqueid": "w53737873:a72632068", "current_trial": 49, "dateTime": 1693484852006, "trialdata": {"rt": 99302, "response": {"Q0": "$-2 to $2", "Q1": "$-4 to $4", "Q2": "$-16 to $16", "Q3": "The cost for clicking on nodes varied between nodes.", "Q4": "Very motivated"}, "question_order": [0, 1, 2, 3, 4], "trial_id": "final_quiz_control", "trial_type": "survey-multi-choice", "trial_index": 49, "time_elapsed": 2171138, "internal_node_id": "0.0-6.0-2.0"}}, {"uniqueid": "w53737873:a72632068", "current_trial": 50, "dateTime": 1693485240006, "trialdata": {"rt": 387724, "response": {"Q0": "I started by clicking on all the nodes then realized the costs. The strategy that I used on the Web of cash game was to clicks on the outer/centre nodes for each round when using the inspector. On other rounds decided not to use the inspector.", "Q1": "yes I did improve my strategy by selecting fewer clicks on the outer/centre of the web.", "Q2": "It was neutral until I realized the costs of using the node inspector"}, "trial_id": "self_report_control", "trial_type": "survey-text", "trial_index": 50, "time_elapsed": 2559138, "internal_node_id": "0.0-6.0-3.0"}}, {"uniqueid": "w53737873:a72632068", "current_trial": 51, "dateTime": 1693485334668, "trialdata": {"rt": 94654, "response": {"Q0": "Strongly agree", "Q1": "Disagree", "Q2": "Agree", "Q3": "Agree", "Q4": "Agree", "Q5": "Disagree", "Q6": "Agree"}, "question_order": [0, 1, 2, 3, 4, 5, 6], "trial_id": "self_report_2", "trial_type": "survey-multi-choice", "trial_index": 51, "time_elapsed": 2653800, "internal_node_id": "0.0-6.0-4.0"}}, {"uniqueid": "w53737873:a72632068", "current_trial": 52, "dateTime": 1693485362247, "trialdata": {"rt": 27565, "response": {"gender": "female", "age": "23", "colorblind": "0", "effort": "0"}, "trial_type": "survey-html-form", "trial_index": 52, "time_elapsed": 2681378, "internal_node_id": "0.0-6.0-5.0"}}, {"uniqueid": "w53737873:a72632068", "current_trial": 53, "dateTime": 1693485487236, "trialdata": {"rt": 124973, "response": {"Q0": "NO", "Q1": "No I have never participated in Web of Cash HIT before", "Q2": "I enjoyed the game but was a little bit tricky at first"}, "trial_type": "survey-text", "trial_index": 53, "time_elapsed": 2806368, "internal_node_id": "0.0-6.0-6.0"}}, {"uniqueid": "w53737873:a72632068", "current_trial": 54, "dateTime": 1693485552532, "trialdata": {"rt": 65279, "stimulus": "<h1>Completion Code Instructions (1/2)</h1>\n<br><br><br><br>\nYou have reached the end of the experiment! The completion code consists of two parts: (1) a code with 2 characters (2) a code with 6 characters. On this page, you will receive the second part of the code. The first part of the completion code will be on the next page.\n<br><br>\nThe second part of your completion code is: <b>EWEK22</b>\n<br><br>\nPlease note this down. Then, press 'Finish HIT' in order to find the first part of your completion code. Once the data has been saved, you will receive this code either in this window or in the original browser window where you started the experiment.\n", "response": 0, "trial_type": "html-button-response", "trial_index": 54, "time_elapsed": 2871664, "internal_node_id": "0.0-6.0-7.0"}}, {"uniqueid": "w53737873:a72632068", "current_trial": 55, "dateTime": 1693485553547, "trialdata": {"success": true, "trial_type": "fullscreen", "trial_index": 55, "time_elapsed": 2872679, "internal_node_id": "0.0-7.0"}}], "questiondata": {"params": {"CODE": "C6DMOQA6", "MIN_TIME": 14, "inspectCost": 1, "startTime": "Thu Aug 31 2023 13:51:17 GMT+0200 (South Africa Standard Time)", "bonusRate": 0.002, "variance": "1_2_4_8_44", "branching": "31123"}, "final_score": 485.4}, "eventdata": [{"eventtype": "initialized", "value": null, "timestamp": 1693482677035, "interval": 0}, {"eventtype": "window_resize", "value": [1024, 650], "timestamp": 1693482677035, "interval": 0}, {"eventtype": "window_resize", "value": [1024, 650], "timestamp": 1693482677589, "interval": 554}, {"eventtype": "window_resize", "value": [1366, 666], "timestamp": 1693482698814, "interval": 21225}, {"eventtype": "window_resize", "value": [1024, 650], "timestamp": 1693482715837, "interval": 17023}, {"eventtype": "window_resize", "value": [1366, 768], "timestamp": 1693482718710, "interval": 2873}, {"eventtype": "focus", "value": "off", "timestamp": 1693485115210, "interval": 2396500}, {"eventtype": "window_resize", "value": [1366, 768], "timestamp": 1693485115725, "interval": 515}, {"eventtype": "focus", "value": "on", "timestamp": 1693485116117, "interval": 392}, {"eventtype": "focus", "value": "off", "timestamp": 1693485119751, "interval": 3634}, {"eventtype": "focus", "value": "on", "timestamp": 1693485119985, "interval": 234}, {"eventtype": "window_resize", "value": [1366, 767], "timestamp": 1693485119985, "interval": 0}, {"eventtype": "window_resize", "value": [1366, 768], "timestamp": 1693485120256, "interval": 271}, {"eventtype": "window_resize", "value": [1024, 650], "timestamp": 1693485553108, "interval": 432852}], "useragent": "Mozilla/5.0 (Windows NT 10.0; Win64; x64) AppleWebKit/537.36 (KHTML, like Gecko) Chrome/116.0.0.0 Safari/537.36 Edg/116.0.1938.62", "mode": "live", "id": "w53737873:a72632068", "status": "user data saved", "Beginhit": "2023-08-31 11:51:10.396875", "Beginexp": "2023-08-31 11:51:56.840697", "Endhit": "2023-08-31 12:39:12.941078", "psiturkStatus": 3, "browser": "<redacted>", "platform": "windows", "language": "en-GB", "excludeReason": "invalidClickStrats"}