{"condition": 1, "counterbalance": 0, "assignmentId": "a61294009", "workerId": "w34337588", "hitId": "h21449829", "currenttrial": 56, "bonus": 0, "data": [{"uniqueid": "w34337588:a61294009", "current_trial": 0, "dateTime": 1691142126082, "trialdata": {"success": true, "trial_type": "fullscreen", "trial_index": 0, "time_elapsed": 12753, "internal_node_id": "0.0-0.0"}}, {"uniqueid": "w34337588:a61294009", "current_trial": 1, "dateTime": 1691142149341, "trialdata": {"view_history": [{"page_index": 0, "viewing_time": 23233}], "rt": 23234, "trial_id": "exp_instructions_misaligned", "trial_type": "instructions", "trial_index": 1, "time_elapsed": 36013, "internal_node_id": "0.0-1.0"}}, {"uniqueid": "w34337588:a61294009", "current_trial": 2, "dateTime": 1691142155477, "trialdata": {"success": true, "trial_type": "fullscreen", "trial_index": 2, "time_elapsed": 42149, "internal_node_id": "0.0-2.0-0.0"}}, {"uniqueid": "w34337588:a61294009", "current_trial": 3, "dateTime": 1691142434679, "trialdata": {"view_history": [{"page_index": 0, "viewing_time": 106485}, {"page_index": 1, "viewing_time": 96225}, {"page_index": 2, "viewing_time": 30564}, {"page_index": 3, "viewing_time": 45919}], "rt": 279194, "trial_id": "mouselab_instructions_1_misaligned", "trial_type": "instructions", "trial_index": 3, "time_elapsed": 321351, "internal_node_id": "0.0-2.0-1.0"}}, {"uniqueid": "w34337588:a61294009", "current_trial": 4, "dateTime": 1691142497667, "trialdata": {"revealed_states": [], "clicked_states": ["12", "23", "1", "24", "13", "2", "14", "3", "25", "26", "27", "30", "32", "33"], "num_clicks_accrued": [0, 0, 0, 0, 0, 0, 0, 0, 0, 0, 0, 0, 0], "stateRewards": ["", -10, -10, -10, -10, 10, 10, 10, 10, -10, 10, -10, -10, -10, 10, -10, -10, -10, 10, -10, -10, 10, -10, 10, 10, 10, 10, 10, 10, -10, 10, 10, 10, -10], "withholdReward": false, "trial_id": "practice_1", "block": "test", "trialIndex": 0, "score": 46.5, "costs": -7, "simulationMode": [null, null, null, null, null], "rewards": [10, 10, 10, 10, 10], "path": ["0", "0", "23", "24", "25", "26", "27"], "rt": [46113, 330, 369, 388, 164], "actions": ["left", "left", "left", "up", "up"], "actionTimes": [52918, 53800, 54668, 55554, 56213], "queries": {"click": {"state": {"target": ["12", "23", "1", "24", "13", "2", "14", "3", "25", "26", "27", "30", "32", "33"], "time": [12443, 15461, 18611, 22128, 23734, 28786, 32347, 35207, 37762, 39072, 40195, 41986, 43721, 45612]}, "edge": {"target": [], "time": []}}, "mouseover": {"state": {"target": ["0", "0", "12", "0", "23", "1", "1", "0", "23", "24", "13", "1", "24", "1", "2", "18", "14", "14", "19", "19", "14", "18", "2", "3", "10", "3", "28", "25", "26", "27", "30", "32", "33", "30", "31"], "time": [11044, 11626, 11792, 14893, 14995, 17676, 18027, 20361, 21559, 21793, 23226, 25193, 26760, 27944, 28277, 30142, 30194, 30693, 30893, 31460, 31828, 33543, 33945, 34110, 34494, 34744, 36932, 37360, 38595, 39845, 41377, 43045, 45246, 46678, 46829]}, "edge": {"target": [], "time": []}}, "mouseout": {"state": {"target": ["18", "15", "17", "20", "19", "22", "12", "0", "0", "12", "0", "23", "1", "1", "1", "0", "23", "24", "13", "1", "24", "1", "2", "18", "14", "14", "19", "19", "14", "18", "2", "3", "10", "3", "28", "25", "26", "27", "27", "26", "25", "30", "32", "33", "30", "31"], "time": [3491, 3507, 3526, 5007, 5024, 5358, 5407, 11159, 11659, 14859, 14943, 17626, 17692, 18810, 20143, 21524, 21710, 22928, 25001, 25577, 27911, 27980, 30130, 30176, 30230, 30843, 30994, 31777, 33112, 33560, 33976, 34243, 34544, 36340, 36977, 37975, 39268, 40417, 41277, 41311, 41345, 42980, 43917, 46645, 46728, 47830]}, "edge": {"target": [], "time": []}}}, "displayed_time": "56.72", "trialTime": 61377, "trial_type": "mouselab-mdp", "trial_index": 4, "time_elapsed": 384337, "internal_node_id": "0.0-2.0-2.0-0.0"}}, {"uniqueid": "w34337588:a61294009", "current_trial": 5, "dateTime": 1691142523286, "trialdata": {"revealed_states": [], "clicked_states": ["1", "2", "3"], "num_clicks_accrued": [0, 0, 0, 0, 0, 0, 0, 0, 0, 0, 0, 0, 0], "stateRewards": ["", -10, 10, -10, 10, 10, -10, -10, -10, -10, 10, -10, 10, 10, -10, 10, -10, 10, 10, -10, -10, -10, -10, 10, -10, 10, 10, 10, 10, -10, 10, -10, 10, -10], "withholdReward": false, "trial_id": "practice_2", "block": "test", "trialIndex": 1, "score": -28, "costs": -1.5, "simulationMode": [null, null, null, null, null], "rewards": [-10, 10, -10, -10, -10], "path": ["0", "0", "1", "2", "3", "8", "9"], "rt": [11154, 291, 304, 1367, 916], "actions": ["up", "up", "up", "left", "up"], "actionTimes": [14952, 15765, 16577, 18441, 19857], "queries": {"click": {"state": {"target": ["1", "2", "3"], "time": [5994, 10309, 12652]}, "edge": {"target": [], "time": []}}, "mouseover": {"state": {"target": ["1", "13", "19", "13", "2", "3", "4"], "time": [4821, 7320, 7436, 8021, 9819, 10821, 13206]}, "edge": {"target": [], "time": []}}, "mouseout": {"state": {"target": ["22", "0", "1", "13", "19", "13", "2", "3", "3", "4", "6"], "time": [2736, 4786, 7236, 7370, 7815, 8320, 10737, 12845, 13170, 13370, 22604]}, "edge": {"target": [], "time": []}}}, "displayed_time": "20.36", "trialTime": 25086, "trial_type": "mouselab-mdp", "trial_index": 5, "time_elapsed": 409956, "internal_node_id": "0.0-2.0-2.0-1.0"}}, {"uniqueid": "w34337588:a61294009", "current_trial": 6, "dateTime": 1691142584911, "trialdata": {"view_history": [{"page_index": 0, "viewing_time": 45587}, {"page_index": 1, "viewing_time": 16024}], "rt": 61613, "trial_id": "mouselab_instructions_2_misaligned", "trial_type": "instructions", "trial_index": 6, "time_elapsed": 471583, "internal_node_id": "0.0-2.0-3.0"}}, {"uniqueid": "w34337588:a61294009", "current_trial": 7, "dateTime": 1691142636880, "trialdata": {"rt": 51926, "response": {"Q0": "The cost for clicking on nodes may vary between nodes.", "Q1": "The better I perform the higher my bonus will be.", "Q2": "No, the amount of cash at each node of the web may be different each time.", "Q3": "To get the highest total score.", "Q4": "Only before moving the spider.", "Q5": "3 seconds"}, "question_order": [0, 1, 2, 3, 4, 5], "correct": {"Q0": "The cost for clicking on nodes may vary between nodes.", "Q1": "The better I perform the higher my bonus will be.", "Q2": "No, the amount of cash at each node of the web may be different each time.", "Q3": "To get the highest total score.", "Q4": "Only before moving the spider.", "Q5": "3 seconds"}, "trial_id": "mouselab_quiz_misaligned", "trial_type": "survey-multi-choice", "trial_index": 7, "time_elapsed": 523552, "internal_node_id": "0.0-2.0-4.0"}}, {"uniqueid": "w34337588:a61294009", "current_trial": 8, "dateTime": 1691142656180, "trialdata": {"rt": 19282, "stimulus": "\n<h1> Get ready to start the game! </h1>\n\nThank you for reading the instructions. Get ready start with the 40 rounds of this game.\n<br><br>\nIf you need to take a break, feel free to take one after the end of a round, before continuing to the next one.\n<br><br>\nRemember, the more money the spider gets, the bigger your bonus will be!\n<br><br>\n<div style='text-align: center;'>Press <code>space</code> to begin.</div>\n\n<br><br>\n(If, at any point, the <code>space</code> key does not take you to the next page, click once on the text and try again.)", "response": " ", "trial_id": "mdp_ready", "trial_type": "html-keyboard-response", "trial_index": 8, "time_elapsed": 542852, "internal_node_id": "0.0-4.0-0.0"}}, {"uniqueid": "w34337588:a61294009", "current_trial": 9, "dateTime": 1691142688204, "trialdata": {"revealed_states": [], "clicked_states": ["23", "24", "25", "30", "32", "27"], "num_clicks_accrued": [0, 0, 0, 0, 0, 0, 0, 0, 0, 0, 0, 0, 0], "stateRewards": ["", -2, 3, -1, 2, -72, 63, 20, -1, 62, -66, 39, -2, 3, -6, 14, 22, 47, 1, 8, -49, -1, -41, 2, 2, -6, -16, -64, -60, -34, 16, 54, 22, -7], "withholdReward": false, "trial_id": "mdp_trial_1", "block": "test", "trialIndex": 2, "score": -76.9, "costs": -6.9, "simulationMode": [null, null, null, null, null], "rewards": [-2, 3, -1, 2, -72], "path": ["0", "0", "1", "2", "3", "4", "5"], "rt": [15492, 816, 398, 643, 324], "actions": ["up", "up", "up", "right", "up"], "actionTimes": [20065, 21406, 22305, 23450, 24282], "queries": {"click": {"state": {"target": ["23", "24", "25", "30", "32", "27"], "time": [5608, 6468, 7655, 9267, 10390, 13825]}, "edge": {"target": [], "time": []}}, "mouseover": {"state": {"target": ["23", "24", "25", "30", "30", "32", "25", "26", "27", "1", "1"], "time": [5166, 6221, 7352, 8123, 8801, 9886, 10955, 11020, 13024, 14456, 14703]}, "edge": {"target": [], "time": []}}, "mouseout": {"state": {"target": ["0", "23", "24", "25", "25", "30", "30", "32", "30", "25", "26", "27", "1", "1"], "time": [5153, 6103, 7153, 7875, 8105, 8220, 9670, 10886, 10922, 10973, 12987, 14354, 14474, 28527]}, "edge": {"target": [], "time": []}}}, "displayed_time": "24.79", "trialTime": 31457, "trial_type": "mouselab-mdp", "trial_index": 9, "time_elapsed": 574874, "internal_node_id": "0.0-4.0-1.0-0.0"}}, {"uniqueid": "w34337588:a61294009", "current_trial": 10, "dateTime": 1691142714252, "trialdata": {"revealed_states": [], "clicked_states": ["12", "13", "14", "15", "19", "21"], "num_clicks_accrued": [0, 0, 0, 0, 0, 0, 0, 0, 0, 0, 0, 0, 0], "stateRewards": ["", -2, 2, 3, -7, 76, 63, 21, 15, 35, -8, -44, 1, 1, -2, -12, 23, 24, 76, -9, 46, 66, -49, -2, -1, 7, 12, 40, -71, -45, -6, 38, -49, 46], "withholdReward": false, "trial_id": "mdp_trial_2", "block": "test", "trialIndex": 3, "score": 57.7, "costs": -6.299999999999999, "simulationMode": [null, null, null, null, null], "rewards": [1, 1, -2, -12, 76], "path": ["0", "0", "12", "13", "14", "15", "18"], "rt": [11477, 383, 398, 308, 437], "actions": ["right", "right", "right", "up", "left"], "actionTimes": [14184, 15066, 15981, 16791, 17736], "queries": {"click": {"state": {"target": ["12", "13", "14", "15", "19", "21"], "time": [3833, 4751, 5930, 6915, 8152, 9027]}, "edge": {"target": [], "time": []}}, "mouseover": {"state": {"target": ["12", "13", "14", "15", "19", "21", "14", "16", "18", "12", "0", "12"], "time": [3378, 4248, 5396, 6430, 7613, 8659, 9682, 9964, 11807, 11848, 12379, 12678]}, "edge": {"target": [], "time": []}}, "mouseout": {"state": {"target": ["20", "19", "22", "0", "0", "12", "13", "14", "15", "15", "14", "19", "21", "19", "14", "15", "16", "18", "12", "0", "12", "13", "14"], "time": [1443, 1480, 1511, 1776, 3345, 4051, 4974, 6127, 7136, 7513, 7564, 8602, 9614, 9648, 9720, 9782, 11780, 11829, 11864, 12495, 19700, 19729, 19748]}, "edge": {"target": [], "time": []}}}, "displayed_time": "18.23", "trialTime": 25468, "trial_type": "mouselab-mdp", "trial_index": 10, "time_elapsed": 600924, "internal_node_id": "0.0-4.0-1.0-1.0"}}, {"uniqueid": "w34337588:a61294009", "current_trial": 11, "dateTime": 1691142737976, "trialdata": {"revealed_states": [], "clicked_states": ["1", "2", "3", "10"], "num_clicks_accrued": [0, 0, 0, 0, 0, 0, 0, 0, 0, 0, 0, 0, 0], "stateRewards": ["", 2, -4, -4, 13, -80, 62, 13, -11, 57, -13, -44, 1, 4, 3, -4, -29, -88, 15, 16, -58, 68, -45, -1, -3, -1, -9, -44, -86, -19, -7, -36, 59, 66], "withholdReward": false, "trial_id": "mdp_trial_3", "block": "test", "trialIndex": 4, "score": 16.8, "costs": -3.1999999999999997, "simulationMode": [null, null, null, null, null], "rewards": [2, -4, -4, 13, 13], "path": ["0", "0", "1", "2", "3", "4", "7"], "rt": [13116, 350, 292, 330, 633], "actions": ["up", "up", "up", "right", "down"], "actionTimes": [16577, 17423, 18215, 19053, 20190], "queries": {"click": {"state": {"target": ["1", "2", "3", "10"], "time": [4892, 6124, 8032, 9334]}, "edge": {"target": [], "time": []}}, "mouseover": {"state": {"target": ["1", "2", "3", "8", "10", "8", "3", "2"], "time": [4168, 5543, 7286, 8671, 8925, 10037, 12152, 12186]}, "edge": {"target": [], "time": []}}, "mouseout": {"state": {"target": ["13", "0", "0", "1", "2", "3", "8", "10", "8", "3", "2"], "time": [2183, 2367, 2682, 5084, 6789, 8588, 8854, 9970, 12086, 12168, 12203]}, "edge": {"target": [], "time": []}}}, "displayed_time": "20.70", "trialTime": 23160, "trial_type": "mouselab-mdp", "trial_index": 11, "time_elapsed": 624646, "internal_node_id": "0.0-4.0-1.0-2.0"}}, {"uniqueid": "w34337588:a61294009", "current_trial": 12, "dateTime": 1691142760781, "trialdata": {"revealed_states": [], "clicked_states": ["23", "24", "25", "30", "32"], "num_clicks_accrued": [0, 0, 0, 0, 0, 0, 0, 0, 0, 0, 0, 0, 0], "stateRewards": ["", 2, 3, 6, -5, -74, -53, 17, -12, 46, 44, 18, -2, 4, 1, -8, 22, -23, -49, 9, -45, 55, 81, 1, -1, -7, -16, -83, -71, -45, 2, 51, 82, 61], "withholdReward": false, "trial_id": "mdp_trial_4", "block": "test", "trialIndex": 5, "score": 72.25, "costs": -4.75, "simulationMode": [null, null, null, null, null], "rewards": [1, -1, -7, 2, 82], "path": ["0", "0", "23", "24", "25", "30", "32"], "rt": [11178, 636, 686, 97, 251], "actions": ["left", "left", "left", "down", "down"], "actionTimes": [15504, 16645, 17826, 18437, 19192], "queries": {"click": {"state": {"target": ["23", "24", "25", "30", "32"], "time": [6089, 7621, 9269, 10741, 12391]}, "edge": {"target": [], "time": []}}, "mouseover": {"state": {"target": ["23", "24", "25", "30", "32"], "time": [5752, 7104, 8645, 10335, 11952]}, "edge": {"target": [], "time": []}}, "mouseout": {"state": {"target": ["1", "0", "23", "24", "25", "30"], "time": [683, 5687, 7020, 8550, 10256, 11836]}, "edge": {"target": [], "time": []}}}, "displayed_time": "19.69", "trialTime": 22198, "trial_type": "mouselab-mdp", "trial_index": 12, "time_elapsed": 647451, "internal_node_id": "0.0-4.0-1.0-3.0"}}, {"uniqueid": "w34337588:a61294009", "current_trial": 13, "dateTime": 1691142781535, "trialdata": {"revealed_states": [], "clicked_states": ["12", "13"], "num_clicks_accrued": [0, 0, 0, 0, 0, 0, 0, 0, 0, 0, 0, 0, 0], "stateRewards": ["", -2, 3, 8, -9, 59, 41, -50, -1, 82, 66, 33, 2, -2, 7, 8, 1, -38, 12, -16, 24, -37, 67, 1, 4, -2, 5, 35, -83, 28, 8, -27, 69, -64], "withholdReward": false, "trial_id": "mdp_trial_5", "block": "test", "trialIndex": 6, "score": 14.9, "costs": -0.09999999999999998, "simulationMode": [null, null, null, null, null], "rewards": [2, -2, 7, -16, 24], "path": ["0", "0", "12", "13", "14", "19", "20"], "rt": [4842, 2258, 206, 657, 200], "actions": ["right", "right", "right", "down", "right"], "actionTimes": [7404, 10163, 10876, 12075, 12772], "queries": {"click": {"state": {"target": ["12", "13"], "time": [3964, 5588]}, "edge": {"target": [], "time": []}}, "mouseover": {"state": {"target": ["12", "13"], "time": [3483, 4426]}, "edge": {"target": [], "time": []}}, "mouseout": {"state": {"target": ["32", "31", "23", "0", "0", "12", "12", "13"], "time": [663, 731, 815, 1248, 3122, 4150, 4404, 6634]}, "edge": {"target": [], "time": []}}}, "displayed_time": "16.56", "trialTime": 20099, "trial_type": "mouselab-mdp", "trial_index": 13, "time_elapsed": 668206, "internal_node_id": "0.0-4.0-1.0-4.0"}}, {"uniqueid": "w34337588:a61294009", "current_trial": 14, "dateTime": 1691142802086, "trialdata": {"revealed_states": [], "clicked_states": ["1"], "num_clicks_accrued": [0, 0, 0, 0, 0, 0, 0, 0, 0, 0, 0, 0, 0], "stateRewards": ["", 2, -1, 3, -12, -83, 6, -33, 9, 28, 24, -50, -2, -1, -2, -5, -87, 37, 82, 12, 80, -5, 10, -2, -3, -6, 9, 22, -1, 16, 9, 77, -62, 58], "withholdReward": false, "trial_id": "mdp_trial_6", "block": "test", "trialIndex": 7, "score": 37.25, "costs": 0.25, "simulationMode": [null, null, null, null, null], "rewards": [2, -1, 3, 9, 24], "path": ["0", "0", "1", "2", "3", "8", "10"], "rt": [6100, 228, 349, 921, 139], "actions": ["up", "up", "up", "left", "down"], "actionTimes": [8673, 9404, 10258, 11680, 12315], "queries": {"click": {"state": {"target": ["1"], "time": [4343]}, "edge": {"target": [], "time": []}}, "mouseover": {"state": {"target": ["1", "1", "2", "22"], "time": [3481, 3921, 5787, 7624]}, "edge": {"target": [], "time": []}}, "mouseout": {"state": {"target": ["0", "1", "1", "2", "22"], "time": [3460, 3537, 5256, 7604, 7663]}, "edge": {"target": [], "time": []}}}, "displayed_time": "16.57", "trialTime": 19818, "trial_type": "mouselab-mdp", "trial_index": 14, "time_elapsed": 688756, "internal_node_id": "0.0-4.0-1.0-5.0"}}, {"uniqueid": "w34337588:a61294009", "current_trial": 15, "dateTime": 1691142823544, "trialdata": {"revealed_states": [], "clicked_states": [], "num_clicks_accrued": [0, 0, 0, 0, 0, 0, 0, 0, 0, 0, 0, 0, 0], "stateRewards": ["", -1, 4, -5, 9, 29, -75, -42, -16, 24, -28, -41, 2, -3, 1, 10, 60, 47, 55, -1, -53, 22, -40, 2, -3, -6, 4, -26, 44, 54, 15, -76, 42, 14], "withholdReward": false, "trial_id": "mdp_trial_7", "block": "test", "trialIndex": 8, "score": -59, "costs": 0, "simulationMode": [null, null, null, null, null], "rewards": [-1, 4, -5, -16, -41], "path": ["0", "0", "1", "2", "3", "8", "11"], "rt": [2399, 530, 527, 278, 232], "actions": ["up", "up", "up", "left", "left"], "actionTimes": [5406, 6465, 7494, 8279, 9017], "queries": {"click": {"state": {"target": [], "time": []}, "edge": {"target": [], "time": []}}, "mouseover": {"state": {"target": [], "time": []}, "edge": {"target": [], "time": []}}, "mouseout": {"state": {"target": ["22", "0", "12", "13", "14"], "time": [1280, 13564, 13647, 13715, 14083]}, "edge": {"target": [], "time": []}}}, "displayed_time": "17.01", "trialTime": 20667, "trial_type": "mouselab-mdp", "trial_index": 15, "time_elapsed": 710214, "internal_node_id": "0.0-4.0-1.0-6.0"}}, {"uniqueid": "w34337588:a61294009", "current_trial": 16, "dateTime": 1691142846703, "trialdata": {"revealed_states": [], "clicked_states": [], "num_clicks_accrued": [0, 0, 0, 0, 0, 0, 0, 0, 0, 0, 0, 0, 0], "stateRewards": ["", -2, 1, 6, -2, -10, -78, -69, 14, -15, 7, -1, 1, -1, -2, 13, 77, 32, 87, 5, -74, 30, -26, 1, 3, 4, 12, 39, 54, -43, 2, 10, 23, 13], "withholdReward": false, "trial_id": "mdp_trial_8", "block": "test", "trialIndex": 9, "score": 33, "costs": 0, "simulationMode": [null, null, null, null, null], "rewards": [1, 3, 4, 2, 23], "path": ["0", "0", "23", "24", "25", "30", "32"], "rt": [10241, 309, 374, 330, 1310], "actions": ["left", "left", "left", "down", "down"], "actionTimes": [13785, 14618, 15517, 16375, 18205], "queries": {"click": {"state": {"target": [], "time": []}, "edge": {"target": [], "time": []}}, "mouseover": {"state": {"target": ["23", "1", "13", "24", "24", "25", "27", "28", "23"], "time": [4820, 5437, 6071, 7089, 8004, 8718, 8787, 11221, 11771]}, "edge": {"target": [], "time": []}}, "mouseout": {"state": {"target": ["22", "0", "23", "1", "13", "24", "24", "25", "27", "28", "23", "0", "12", "13", "18", "15", "17"], "time": [2102, 2868, 5370, 5454, 6618, 7454, 8104, 8738, 11172, 11654, 20105, 20155, 20194, 20572, 20656, 20674, 20709]}, "edge": {"target": [], "time": []}}}, "displayed_time": "18.73", "trialTime": 22398, "trial_type": "mouselab-mdp", "trial_index": 16, "time_elapsed": 733373, "internal_node_id": "0.0-4.0-1.0-7.0"}}, {"uniqueid": "w34337588:a61294009", "current_trial": 17, "dateTime": 1691142872618, "trialdata": {"revealed_states": [], "clicked_states": ["1", "2", "3", "8", "11"], "num_clicks_accrued": [0, 0, 0, 0, 0, 0, 0, 0, 0, 0, 0, 0, 0], "stateRewards": ["", 1, 1, -7, -9, -44, 24, -83, -15, 44, -24, 72, -2, -3, 4, -5, 57, 55, 29, -11, 22, 12, -25, -1, 2, 7, 12, 33, -8, 47, -4, 8, 50, -4], "withholdReward": false, "trial_id": "mdp_trial_9", "block": "test", "trialIndex": 10, "score": -62.75, "costs": -4.75, "simulationMode": [null, null, null, null, null], "rewards": [1, 1, -7, -9, -44], "path": ["0", "0", "1", "2", "3", "4", "5"], "rt": [12670, 284, 409, 120, 700], "actions": ["up", "up", "up", "right", "up"], "actionTimes": [15839, 16640, 17548, 18176, 19373], "queries": {"click": {"state": {"target": ["1", "2", "3", "8", "11"], "time": [5743, 6706, 7705, 8501, 9518]}, "edge": {"target": [], "time": []}}, "mouseover": {"state": {"target": ["1", "1", "2", "3", "8", "11", "10"], "time": [5052, 5385, 6313, 7273, 8172, 9186, 10237]}, "edge": {"target": [], "time": []}}, "mouseout": {"state": {"target": ["17", "15", "0", "1", "1", "2", "3", "8", "11", "8", "10", "1", "0"], "time": [999, 1200, 5006, 5084, 6305, 6925, 8138, 8988, 10019, 10088, 22951, 23035, 23070]}, "edge": {"target": [], "time": []}}}, "displayed_time": "19.89", "trialTime": 25142, "trial_type": "mouselab-mdp", "trial_index": 17, "time_elapsed": 759289, "internal_node_id": "0.0-4.0-1.0-8.0"}}, {"uniqueid": "w34337588:a61294009", "current_trial": 18, "dateTime": 1691142899223, "trialdata": {"revealed_states": [], "clicked_states": ["1", "5"], "num_clicks_accrued": [0, 0, 0, 0, 0, 0, 0, 0, 0, 0, 0, 0, 0], "stateRewards": ["", 1, 4, 5, 8, -55, -11, 8, 16, -37, 77, -22, -2, 3, -8, -10, 45, 87, -67, 4, 17, -33, -22, -1, -3, 7, 6, -39, -85, 75, -1, 7, -48, 45], "withholdReward": false, "trial_id": "mdp_trial_10", "block": "test", "trialIndex": 11, "score": -77.9, "costs": -1.9, "simulationMode": [null, null, null, null, null], "rewards": [-1, -3, 7, 6, -85], "path": ["0", "0", "23", "24", "25", "26", "28"], "rt": [9762, 214, 484, 79, 2166], "actions": ["left", "left", "left", "up", "right"], "actionTimes": [11792, 12522, 13509, 14087, 16767], "queries": {"click": {"state": {"target": ["1", "5"], "time": [5041, 7328]}, "edge": {"target": [], "time": []}}, "mouseover": {"state": {"target": ["23", "12", "1", "2", "3", "5", "4", "7", "12"], "time": [2769, 4327, 4504, 6058, 6538, 6853, 8643, 8670, 8712]}, "edge": {"target": [], "time": []}}, "mouseout": {"state": {"target": ["0", "23", "12", "1", "2", "3", "5", "4", "7"], "time": [2720, 3503, 4370, 5261, 6487, 6738, 8638, 8663, 8691]}, "edge": {"target": [], "time": []}}}, "displayed_time": "17.27", "trialTime": 25798, "trial_type": "mouselab-mdp", "trial_index": 18, "time_elapsed": 785893, "internal_node_id": "0.0-4.0-1.0-9.0"}}, {"uniqueid": "w34337588:a61294009", "current_trial": 19, "dateTime": 1691142917747, "trialdata": {"revealed_states": [], "clicked_states": ["23", "24", "25", "26", "29"], "num_clicks_accrued": [0, 0, 0, 0, 0, 0, 0, 0, 0, 0, 0, 0, 0], "stateRewards": ["", 1, -2, 4, 7, -43, -83, -60, -5, -86, -80, 83, -1, -2, 6, 11, -15, 21, 13, 9, 29, -49, 11, -1, 4, -6, -11, 87, 40, 63, -8, -39, -11, 62], "withholdReward": false, "trial_id": "mdp_trial_11", "block": "test", "trialIndex": 12, "score": 44.25, "costs": -4.75, "simulationMode": [null, null, null, null, null, null], "rewards": [-1, 4, -6, -11, 63], "path": ["0", "0", "23", "24", "25", "26", "29"], "rt": [7114, 722, 77, 191, 114, 12], "actions": ["left", "left", "left", "left", "up", "left"], "actionTimes": [9152, 9880, 10491, 11218, 11854, 12399], "queries": {"click": {"state": {"target": ["23", "24", "25", "26", "29"], "time": [3542, 5135, 6269, 7127, 7873]}, "edge": {"target": [], "time": []}}, "mouseover": {"state": {"target": ["23", "24", "25", "26", "29"], "time": [2973, 4863, 6024, 6725, 7609]}, "edge": {"target": [], "time": []}}, "mouseout": {"state": {"target": ["12", "0", "23", "24", "25", "26", "29", "26", "17"], "time": [971, 2925, 4007, 5625, 6675, 7370, 8090, 15140, 15655]}, "edge": {"target": [], "time": []}}}, "displayed_time": "16.04", "trialTime": 17588, "trial_type": "mouselab-mdp", "trial_index": 19, "time_elapsed": 804417, "internal_node_id": "0.0-4.0-1.0-10.0"}}, {"uniqueid": "w34337588:a61294009", "current_trial": 20, "dateTime": 1691142939774, "trialdata": {"revealed_states": [], "clicked_states": ["1", "2", "3", "8", "11"], "num_clicks_accrued": [0, 0, 0, 0, 0, 0, 0, 0, 0, 0, 0, 0, 0], "stateRewards": ["", -2, 4, -5, -12, 85, -24, -18, -15, -78, -22, 26, -1, -1, 2, 14, -45, 52, -23, 7, -33, 24, -6, -2, -4, 5, -7, -16, 36, -39, 5, 71, -87, -23], "withholdReward": false, "trial_id": "mdp_trial_12", "block": "test", "trialIndex": 13, "score": 3.25, "costs": -4.75, "simulationMode": [null, null, null, null, null], "rewards": [-2, 4, -5, -15, 26], "path": ["0", "0", "1", "2", "3", "8", "11"], "rt": [9233, 176, 259, 408, 70], "actions": ["up", "up", "up", "left", "left"], "actionTimes": [12534, 13237, 14003, 14939, 15523], "queries": {"click": {"state": {"target": ["1", "2", "3", "8", "11"], "time": [4799, 5692, 6546, 7312, 8059]}, "edge": {"target": [], "time": []}}, "mouseover": {"state": {"target": ["1", "2", "3", "8", "11"], "time": [4388, 5176, 6159, 7019, 7763]}, "edge": {"target": [], "time": []}}, "mouseout": {"state": {"target": ["20", "19", "22", "12", "0", "1", "2", "3", "8", "11", "4", "6", "20", "19"], "time": [1403, 1636, 2020, 2120, 4350, 5141, 6107, 6974, 7724, 9707, 17773, 17823, 19840, 20430]}, "edge": {"target": [], "time": []}}}, "displayed_time": "17.30", "trialTime": 21161, "trial_type": "mouselab-mdp", "trial_index": 20, "time_elapsed": 826444, "internal_node_id": "0.0-4.0-1.0-11.0"}}, {"uniqueid": "w34337588:a61294009", "current_trial": 21, "dateTime": 1691142964558, "trialdata": {"revealed_states": [], "clicked_states": ["12", "13", "14", "19", "21"], "num_clicks_accrued": [0, 0, 0, 0, 0, 0, 0, 0, 0, 0, 0, 0, 0], "stateRewards": ["", 1, 2, -8, 9, 18, -83, -11, 6, -64, -48, 17, -2, -2, -5, -3, -24, -3, -86, -2, 48, -41, -22, -2, 4, 7, 8, 81, 13, -48, 10, 61, 19, 57], "withholdReward": false, "trial_id": "mdp_trial_13", "block": "test", "trialIndex": 14, "score": 32.25, "costs": -4.75, "simulationMode": [null, null, null, null, null], "rewards": [-2, -2, -5, -2, 48], "path": ["0", "0", "12", "13", "14", "19", "20"], "rt": [13745, 499, 295, 350, 286], "actions": ["right", "right", "right", "down", "right"], "actionTimes": [16040, 17048, 17873, 18733, 19519], "queries": {"click": {"state": {"target": ["12", "13", "14", "19", "21"], "time": [3876, 4698, 5692, 7339, 9041]}, "edge": {"target": [], "time": []}}, "mouseover": {"state": {"target": ["12", "13", "14", "19", "21", "19", "20"], "time": [2944, 4330, 5286, 6779, 8423, 13245, 13673]}, "edge": {"target": [], "time": []}}, "mouseout": {"state": {"target": ["0", "12", "12", "13", "14", "19", "21", "19", "20"], "time": [1194, 4079, 4296, 5231, 6748, 8282, 9257, 13311, 21515]}, "edge": {"target": [], "time": []}}}, "displayed_time": "20.23", "trialTime": 23902, "trial_type": "mouselab-mdp", "trial_index": 21, "time_elapsed": 851229, "internal_node_id": "0.0-4.0-1.0-12.0"}}, {"uniqueid": "w34337588:a61294009", "current_trial": 22, "dateTime": 1691142983774, "trialdata": {"revealed_states": [], "clicked_states": ["23", "24", "31"], "num_clicks_accrued": [0, 0, 0, 0, 0, 0, 0, 0, 0, 0, 0, 0, 0], "stateRewards": ["", 1, 4, 5, -5, 58, -80, 75, 6, 25, -39, 46, 2, -2, 4, 2, 59, 31, -22, -12, -61, 15, 72, 1, -2, -7, 8, 77, 76, -23, -7, 71, -15, -3], "withholdReward": false, "trial_id": "mdp_trial_14", "block": "test", "trialIndex": 15, "score": 53.75, "costs": -2.25, "simulationMode": [null, null, null, null, null], "rewards": [1, -2, -7, -7, 71], "path": ["0", "0", "23", "24", "25", "30", "31"], "rt": [8013, 222, 150, 172, 327], "actions": ["left", "left", "left", "down", "right"], "actionTimes": [10366, 11113, 11807, 12480, 13318], "queries": {"click": {"state": {"target": ["23", "24", "31"], "time": [4094, 4955, 6105]}, "edge": {"target": [], "time": []}}, "mouseover": {"state": {"target": ["23", "24", "31"], "time": [3704, 4573, 5755]}, "edge": {"target": [], "time": []}}, "mouseout": {"state": {"target": ["14", "13", "12", "0", "23", "24", "31"], "time": [952, 1309, 1351, 3669, 4523, 5523, 7118]}, "edge": {"target": [], "time": []}}}, "displayed_time": "16.36", "trialTime": 18291, "trial_type": "mouselab-mdp", "trial_index": 22, "time_elapsed": 870444, "internal_node_id": "0.0-4.0-1.0-13.0"}}, {"uniqueid": "w34337588:a61294009", "current_trial": 23, "dateTime": 1691143014015, "trialdata": {"revealed_states": [], "clicked_states": ["23", "24", "25", "26", "27"], "num_clicks_accrued": [0, 0, 0, 0, 0, 0, 0, 0, 0, 0, 0, 0, 0], "stateRewards": ["", 1, 2, 7, 13, 88, -71, 27, 3, 60, 5, -53, -2, 2, -6, -1, -30, 79, 47, -4, -14, 46, 68, 1, 1, 8, 10, -14, 86, 48, -11, -67, -44, 5], "withholdReward": false, "trial_id": "mdp_trial_15", "block": "test", "trialIndex": 16, "score": 101.25, "costs": -4.75, "simulationMode": [null, null, null, null, null], "rewards": [1, 1, 8, 10, 86], "path": ["0", "0", "23", "24", "25", "26", "28"], "rt": [11728, 283, 407, 168, 919], "actions": ["left", "left", "left", "up", "right"], "actionTimes": [14228, 15009, 15918, 16594, 18012], "queries": {"click": {"state": {"target": ["23", "24", "25", "26", "27"], "time": [5426, 6423, 7679, 8493, 9328]}, "edge": {"target": [], "time": []}}, "mouseover": {"state": {"target": ["23", "23", "23", "23", "24", "25", "26", "27"], "time": [3123, 4172, 4337, 5038, 6044, 7058, 8045, 8958]}, "edge": {"target": [], "time": []}}, "mouseout": {"state": {"target": ["0", "0", "0", "23", "23", "23", "23", "24", "25", "26", "27"], "time": [1186, 1369, 3087, 3187, 4189, 4404, 5925, 6873, 8024, 8906, 10360]}, "edge": {"target": [], "time": []}}}, "displayed_time": "18.51", "trialTime": 29287, "trial_type": "mouselab-mdp", "trial_index": 23, "time_elapsed": 900687, "internal_node_id": "0.0-4.0-1.0-14.0"}}, {"uniqueid": "w34337588:a61294009", "current_trial": 24, "dateTime": 1691143033876, "trialdata": {"revealed_states": [], "clicked_states": ["23"], "num_clicks_accrued": [0, 0, 0, 0, 0, 0, 0, 0, 0, 0, 0, 0, 0], "stateRewards": ["", -1, -3, 1, 13, -64, -29, 12, -4, -33, 50, 56, 2, -3, 4, 11, -64, -58, -55, 12, 47, 38, -25, -2, 2, 5, -15, 85, 7, 84, 10, 8, 57, 26], "withholdReward": false, "trial_id": "mdp_trial_16", "block": "test", "trialIndex": 17, "score": 41.25, "costs": 0.25, "simulationMode": [null, null, null, null, null], "rewards": [-2, 2, 5, 10, 26], "path": ["0", "0", "23", "24", "25", "30", "33"], "rt": [8559, 503, 110, 197, 2702], "actions": ["left", "left", "left", "down", "left"], "actionTimes": [11032, 12062, 12712, 13415, 16621], "queries": {"click": {"state": {"target": ["23"], "time": [5475]}, "edge": {"target": [], "time": []}}, "mouseover": {"state": {"target": ["23", "24", "25", "30"], "time": [5461, 5542, 8831, 8858]}, "edge": {"target": [], "time": []}}, "mouseout": {"state": {"target": ["27", "28", "0", "23", "24", "25", "30"], "time": [1079, 1145, 5455, 5538, 8826, 8853, 18083]}, "edge": {"target": [], "time": []}}}, "displayed_time": "17.12", "trialTime": 18936, "trial_type": "mouselab-mdp", "trial_index": 24, "time_elapsed": 920546, "internal_node_id": "0.0-4.0-1.0-15.0"}}, {"uniqueid": "w34337588:a61294009", "current_trial": 25, "dateTime": 1691143057630, "trialdata": {"revealed_states": [], "clicked_states": ["1", "7", "4", "5"], "num_clicks_accrued": [0, 0, 0, 0, 0, 0, 0, 0, 0, 0, 0, 0, 0], "stateRewards": ["", -2, 3, -1, -9, 44, 48, -37, -3, 71, -39, 87, -1, 3, -4, 4, -21, 59, -15, -8, -1, 28, -38, 2, 4, 4, 8, -85, -72, -63, 14, 58, 63, -46], "withholdReward": false, "trial_id": "mdp_trial_17", "block": "test", "trialIndex": 18, "score": 29.4, "costs": -5.6, "simulationMode": [null, null, null, null, null], "rewards": [-2, 3, -1, -9, 44], "path": ["0", "0", "1", "2", "3", "4", "5"], "rt": [13985, 269, 309, 672, 32], "actions": ["up", "up", "up", "right", "up"], "actionTimes": [16409, 17175, 17981, 19161, 19689], "queries": {"click": {"state": {"target": ["1", "7", "4", "5"], "time": [3701, 4969, 10273, 11531]}, "edge": {"target": [], "time": []}}, "mouseover": {"state": {"target": ["1", "7", "4", "5"], "time": [3068, 4257, 9462, 11148]}, "edge": {"target": [], "time": []}}, "mouseout": {"state": {"target": ["0", "1", "7", "4", "5"], "time": [2901, 3892, 9456, 10482, 12322]}, "edge": {"target": [], "time": []}}}, "displayed_time": "20.19", "trialTime": 22840, "trial_type": "mouselab-mdp", "trial_index": 25, "time_elapsed": 944299, "internal_node_id": "0.0-4.0-1.0-16.0"}}, {"uniqueid": "w34337588:a61294009", "current_trial": 26, "dateTime": 1691143076191, "trialdata": {"revealed_states": [], "clicked_states": ["1", "10"], "num_clicks_accrued": [0, 0, 0, 0, 0, 0, 0, 0, 0, 0, 0, 0, 0], "stateRewards": ["", 1, 1, 1, 15, -76, 52, -32, 14, -57, 37, 49, 1, -4, -3, 6, 83, -76, 25, 9, 36, -1, -17, -1, 4, 4, -2, -22, -21, 58, -15, -57, 49, -24], "withholdReward": false, "trial_id": "mdp_trial_18", "block": "test", "trialIndex": 19, "score": 52.1, "costs": -1.9, "simulationMode": [null, null, null, null, null], "rewards": [1, 1, 1, 14, 37], "path": ["0", "0", "1", "2", "3", "8", "10"], "rt": [7540, 173, 155, 117, 90], "actions": ["up", "up", "up", "left", "down"], "actionTimes": [9668, 10355, 11020, 11634, 12234], "queries": {"click": {"state": {"target": ["1", "10"], "time": [3452, 4735]}, "edge": {"target": [], "time": []}}, "mouseover": {"state": {"target": ["1", "10", "8", "9"], "time": [2910, 4298, 5314, 8360]}, "edge": {"target": [], "time": []}}, "mouseout": {"state": {"target": ["17", "15", "18", "0", "1", "10", "8", "9"], "time": [742, 775, 858, 2874, 4096, 4941, 8210, 8644]}, "edge": {"target": [], "time": []}}}, "displayed_time": "16.13", "trialTime": 17593, "trial_type": "mouselab-mdp", "trial_index": 26, "time_elapsed": 962861, "internal_node_id": "0.0-4.0-1.0-17.0"}}, {"uniqueid": "w34337588:a61294009", "current_trial": 27, "dateTime": 1691143119615, "trialdata": {"revealed_states": [], "clicked_states": ["12", "13", "14", "21", "20", "22", "31", "33", "32"], "num_clicks_accrued": [0, 0, 0, 0, 0, 0, 0, 0, 0, 0, 0, 0, 0], "stateRewards": ["", 2, 4, -3, 16, -58, 30, -35, 11, -60, 47, 27, -2, -1, -7, -16, 23, -70, 68, -10, -65, -43, -34, -2, 1, 7, 9, -63, 34, -31, -8, -12, -86, 59], "withholdReward": false, "trial_id": "mdp_trial_19", "block": "test", "trialIndex": 20, "score": 43.05, "costs": -13.950000000000001, "simulationMode": [null, null, null, null, null], "rewards": [-2, 1, 7, -8, 59], "path": ["0", "0", "23", "24", "25", "30", "33"], "rt": [30244, 1094, 202, 1817, 754], "actions": ["left", "left", "left", "down", "left"], "actionTimes": [32437, 35895, 36594, 38910, 40162], "queries": {"click": {"state": {"target": ["12", "13", "14", "21", "20", "22", "31", "33", "32"], "time": [3332, 4343, 5291, 6589, 11008, 14797, 19536, 24030, 27851]}, "edge": {"target": [], "time": []}}, "mouseover": {"state": {"target": ["12", "13", "14", "19", "21", "21", "19", "20", "19", "22", "19", "31", "30", "33", "33", "32"], "time": [2837, 3757, 4799, 5740, 5843, 6123, 10302, 10570, 11957, 12102, 15891, 19203, 20227, 20601, 23603, 24801]}, "edge": {"target": [], "time": []}}, "mouseout": {"state": {"target": ["2", "1", "0", "0", "12", "13", "14", "19", "21", "21", "19", "20", "19", "22", "19", "31", "30", "33", "33", "32"], "time": [723, 788, 1017, 2771, 3724, 4744, 5704, 5838, 5916, 10220, 10437, 11905, 12032, 15839, 18507, 20190, 20387, 23170, 24672, 29191]}, "edge": {"target": [], "time": []}}}, "displayed_time": "40.66", "trialTime": 42424, "trial_type": "mouselab-mdp", "trial_index": 27, "time_elapsed": 1006285, "internal_node_id": "0.0-4.0-1.0-18.0"}}, {"uniqueid": "w34337588:a61294009", "current_trial": 28, "dateTime": 1691143139231, "trialdata": {"revealed_states": [], "clicked_states": ["10"], "num_clicks_accrued": [0, 0, 0, 0, 0, 0, 0, 0, 0, 0, 0, 0, 0], "stateRewards": ["", -1, 4, -6, -5, -22, -38, -38, -2, -56, 88, 14, -1, -1, -7, -6, 61, -60, 21, 11, 57, 31, -30, -2, -2, 6, -9, -44, -70, -44, -15, 34, 16, -78], "withholdReward": false, "trial_id": "mdp_trial_20", "block": "test", "trialIndex": 21, "score": 80.85, "costs": -2.15, "simulationMode": [null, null, null, null, null], "rewards": [-1, 4, -6, -2, 88], "path": ["0", "0", "1", "2", "3", "8", "10"], "rt": [6463, 151, 301, 704, 138], "actions": ["up", "up", "up", "left", "down"], "actionTimes": [8758, 9437, 10237, 11440, 12080], "queries": {"click": {"state": {"target": ["10"], "time": [4083]}, "edge": {"target": [], "time": []}}, "mouseover": {"state": {"target": ["1", "2", "10", "8", "9"], "time": [3000, 3215, 3749, 4836, 4961]}, "edge": {"target": [], "time": []}}, "mouseout": {"state": {"target": ["0", "1", "2", "10", "8", "9"], "time": [1463, 3064, 3632, 4320, 4906, 17035]}, "edge": {"target": [], "time": []}}}, "displayed_time": "16.30", "trialTime": 18684, "trial_type": "mouselab-mdp", "trial_index": 28, "time_elapsed": 1025901, "internal_node_id": "0.0-4.0-1.0-19.0"}}, {"uniqueid": "w34337588:a61294009", "current_trial": 29, "dateTime": 1691143172696, "trialdata": {"revealed_states": [], "clicked_states": ["16", "18", "17"], "num_clicks_accrued": [0, 0, 0, 0, 0, 0, 0, 0, 0, 0, 0, 0, 0], "stateRewards": ["", 1, -1, 8, -3, 38, 85, -20, -4, 8, 23, 73, 2, -4, 6, -13, 44, 7, -28, -11, -77, 45, -69, 1, -1, -7, -11, 75, -51, -87, 7, 36, -53, -26], "withholdReward": false, "trial_id": "mdp_trial_21", "block": "test", "trialIndex": 22, "score": 28.55, "costs": -6.449999999999999, "simulationMode": [null, null, null, null, null], "rewards": [2, -4, 6, -13, 44], "path": ["0", "0", "12", "13", "14", "15", "16"], "rt": [13783, 230, 196, 844, 140], "actions": ["right", "right", "right", "up", "up"], "actionTimes": [26871, 27657, 28353, 29701, 30346], "queries": {"click": {"state": {"target": ["16", "18", "17"], "time": [15256, 18891, 22214]}, "edge": {"target": [], "time": []}}, "mouseover": {"state": {"target": ["12", "13", "14", "15", "16", "18", "18", "15", "17", "17", "14", "14"], "time": [14148, 14205, 14435, 14737, 14818, 16227, 16618, 19544, 19663, 20106, 23114, 23593]}, "edge": {"target": [], "time": []}}, "mouseout": {"state": {"target": ["4", "2", "1", "12", "13", "14", "15", "16", "16", "18", "18", "15", "17", "17", "14", "14"], "time": [11750, 11818, 11867, 14185, 14318, 14719, 14770, 15444, 16206, 16317, 19522, 19603, 19736, 23092, 23136, 25573]}, "edge": {"target": [], "time": []}}}, "displayed_time": "30.84", "trialTime": 32547, "trial_type": "mouselab-mdp", "trial_index": 29, "time_elapsed": 1059363, "internal_node_id": "0.0-4.0-1.0-20.0"}}, {"uniqueid": "w34337588:a61294009", "current_trial": 30, "dateTime": 1691143195300, "trialdata": {"revealed_states": [], "clicked_states": ["32", "33", "31"], "num_clicks_accrued": [0, 0, 0, 0, 0, 0, 0, 0, 0, 0, 0, 0, 0], "stateRewards": ["", -1, -4, 8, 8, -68, 47, 24, -7, -61, 49, -69, -1, -1, 8, -7, 42, 1, -45, -11, 10, -63, -6, 1, 4, 6, -16, 79, -37, -58, -12, 81, 18, -53], "withholdReward": false, "trial_id": "mdp_trial_22", "block": "test", "trialIndex": 23, "score": 73.55, "costs": -6.449999999999999, "simulationMode": [null, null, null, null, null], "rewards": [1, 4, 6, -12, 81], "path": ["0", "0", "23", "24", "25", "30", "31"], "rt": [13933, 39, 152, 212, 756], "actions": ["left", "left", "left", "down", "right"], "actionTimes": [16119, 16687, 17381, 18095, 19354], "queries": {"click": {"state": {"target": ["32", "33", "31"], "time": [5016, 8493, 11711]}, "edge": {"target": [], "time": []}}, "mouseover": {"state": {"target": ["12", "13", "19", "32", "33", "30", "31", "25", "29", "27"], "time": [3542, 3578, 3658, 4612, 5977, 9065, 9529, 12342, 12438, 12663]}, "edge": {"target": [], "time": []}}, "mouseout": {"state": {"target": ["12", "0", "23", "12", "13", "19", "32", "33", "30", "31", "25", "29"], "time": [557, 624, 907, 3560, 3608, 3909, 5611, 9028, 9087, 12295, 12363, 12592]}, "edge": {"target": [], "time": []}}}, "displayed_time": "19.85", "trialTime": 21580, "trial_type": "mouselab-mdp", "trial_index": 30, "time_elapsed": 1081971, "internal_node_id": "0.0-4.0-1.0-21.0"}}, {"uniqueid": "w34337588:a61294009", "current_trial": 31, "dateTime": 1691143223892, "trialdata": {"revealed_states": [], "clicked_states": ["9", "11", "10", "7", "6"], "num_clicks_accrued": [0, 0, 0, 0, 0, 0, 0, 0, 0, 0, 0, 0, 0], "stateRewards": ["", 2, -1, 8, -2, -16, 69, -39, -7, -13, -27, -86, 2, -2, 2, 13, -34, -16, -20, -5, 19, 81, 32, -2, -1, 2, -14, 20, 80, 58, 4, 70, 12, 73], "withholdReward": false, "trial_id": "mdp_trial_23", "block": "test", "trialIndex": 24, "score": 65.25, "costs": -10.75, "simulationMode": [null, null, null, null, null], "rewards": [2, -1, 8, -2, 69], "path": ["0", "0", "1", "2", "3", "4", "6"], "rt": [19001, 52, 127, 598, 75], "actions": ["up", "up", "up", "right", "right"], "actionTimes": [21818, 22387, 23028, 24151, 24726], "queries": {"click": {"state": {"target": ["9", "11", "10", "7", "6"], "time": [4090, 7104, 10556, 14122, 17235]}, "edge": {"target": [], "time": []}}, "mouseover": {"state": {"target": ["1", "2", "9", "11", "8", "10", "2", "7", "6", "6", "5"], "time": [3354, 3391, 3713, 4746, 7648, 7693, 11135, 11685, 14689, 15136, 18016]}, "edge": {"target": [], "time": []}}, "mouseout": {"state": {"target": ["27", "1", "2", "9", "11", "11", "8", "10", "2", "7", "6", "6"], "time": [977, 3372, 3413, 4678, 7312, 7600, 7671, 11083, 11187, 14668, 14714, 17432]}, "edge": {"target": [], "time": []}}}, "displayed_time": "25.25", "trialTime": 27354, "trial_type": "mouselab-mdp", "trial_index": 31, "time_elapsed": 1110562, "internal_node_id": "0.0-4.0-1.0-22.0"}}, {"uniqueid": "w34337588:a61294009", "current_trial": 32, "dateTime": 1691143244103, "trialdata": {"revealed_states": [], "clicked_states": ["16"], "num_clicks_accrued": [0, 0, 0, 0, 0, 0, 0, 0, 0, 0, 0, 0, 0], "stateRewards": ["", 2, 4, 7, 7, -79, -2, -21, -5, -53, 47, -21, 1, -3, -1, 7, 83, 7, 84, -7, 80, -37, 69, 2, -4, 5, 2, 4, -20, -30, 7, 71, 44, -81], "withholdReward": false, "trial_id": "mdp_trial_24", "block": "test", "trialIndex": 25, "score": 84.85, "costs": -2.15, "simulationMode": [null, null, null, null, null], "rewards": [1, -3, -1, 7, 83], "path": ["0", "0", "12", "13", "14", "15", "16"], "rt": [7634, 10, 47, 531, 184], "actions": ["right", "right", "right", "up", "up"], "actionTimes": [11436, 11955, 12540, 13608, 14297], "queries": {"click": {"state": {"target": ["16"], "time": [6513]}, "edge": {"target": [], "time": []}}, "mouseover": {"state": {"target": ["12", "13", "15", "16", "18"], "time": [4807, 5410, 5606, 6091, 7328]}, "edge": {"target": [], "time": []}}, "mouseout": {"state": {"target": ["5", "2", "1", "12", "13", "15", "16"], "time": [1403, 1865, 1988, 4857, 5557, 5625, 6716]}, "edge": {"target": [], "time": []}}}, "displayed_time": "17.80", "trialTime": 19289, "trial_type": "mouselab-mdp", "trial_index": 32, "time_elapsed": 1130773, "internal_node_id": "0.0-4.0-1.0-23.0"}}, {"uniqueid": "w34337588:a61294009", "current_trial": 33, "dateTime": 1691143265348, "trialdata": {"revealed_states": [], "clicked_states": ["31", "32"], "num_clicks_accrued": [0, 0, 0, 0, 0, 0, 0, 0, 0, 0, 0, 0, 0], "stateRewards": ["", 1, 1, -3, 7, 49, 78, 26, -5, 26, 48, -43, -1, -3, 2, -5, 4, -1, -60, 10, -35, 51, 81, -2, 1, -7, -5, -39, -86, -54, 4, -3, 74, 77], "withholdReward": false, "trial_id": "mdp_trial_25", "block": "test", "trialIndex": 26, "score": 65.7, "costs": -4.3, "simulationMode": [null, null, null, null, null], "rewards": [-2, 1, -7, 4, 74], "path": ["0", "0", "23", "24", "25", "30", "32"], "rt": [9830, 145, 168, 426, 1069], "actions": ["left", "left", "left", "down", "down"], "actionTimes": [12993, 13656, 14330, 15257, 16941], "queries": {"click": {"state": {"target": ["31", "32"], "time": [4975, 8570]}, "edge": {"target": [], "time": []}}, "mouseover": {"state": {"target": ["23", "31", "30", "32", "33"], "time": [4192, 4589, 5621, 6011, 9407]}, "edge": {"target": [], "time": []}}, "mouseout": {"state": {"target": ["18", "0", "0", "23", "31", "30", "32"], "time": [1314, 1460, 4173, 4223, 5613, 5921, 9158]}, "edge": {"target": [], "time": []}}}, "displayed_time": "17.46", "trialTime": 20282, "trial_type": "mouselab-mdp", "trial_index": 33, "time_elapsed": 1152018, "internal_node_id": "0.0-4.0-1.0-24.0"}}, {"uniqueid": "w34337588:a61294009", "current_trial": 34, "dateTime": 1691143285328, "trialdata": {"revealed_states": [], "clicked_states": ["27", "29"], "num_clicks_accrued": [0, 0, 0, 0, 0, 0, 0, 0, 0, 0, 0, 0, 0], "stateRewards": ["", -2, -3, -3, 9, 79, 67, 22, -15, -56, 27, -85, -2, 4, -4, -15, -20, -32, 60, 15, 71, 57, 17, 1, 2, -8, 15, -37, -81, 82, 15, 21, -3, 2], "withholdReward": false, "trial_id": "mdp_trial_26", "block": "test", "trialIndex": 27, "score": 87.7, "costs": -4.3, "simulationMode": [null, null, null, null, null], "rewards": [1, 2, -8, 15, 82], "path": ["0", "0", "23", "24", "25", "26", "29"], "rt": [9836, 94, 124, 798, 1200], "actions": ["left", "left", "left", "up", "left"], "actionTimes": [12066, 12674, 13338, 14664, 16362], "queries": {"click": {"state": {"target": ["27", "29"], "time": [3686, 7205]}, "edge": {"target": [], "time": []}}, "mouseover": {"state": {"target": ["23", "24", "26", "27", "29", "26", "28", "28"], "time": [2840, 2891, 2943, 3224, 4434, 7782, 7953, 8508]}, "edge": {"target": [], "time": []}}, "mouseout": {"state": {"target": ["33", "23", "0", "23", "24", "26", "27", "29", "26", "28"], "time": [687, 739, 2800, 2881, 2908, 3073, 4211, 7761, 7874, 8057]}, "edge": {"target": [], "time": []}}}, "displayed_time": "16.86", "trialTime": 18896, "trial_type": "mouselab-mdp", "trial_index": 34, "time_elapsed": 1171997, "internal_node_id": "0.0-4.0-1.0-25.0"}}, {"uniqueid": "w34337588:a61294009", "current_trial": 35, "dateTime": 1691143318564, "trialdata": {"revealed_states": [], "clicked_states": ["21", "22", "20", "17", "16", "18"], "num_clicks_accrued": [0, 0, 0, 0, 0, 0, 0, 0, 0, 0, 0, 0, 0], "stateRewards": ["", 2, -1, 4, -9, -43, 7, 54, -13, 38, -40, -83, -1, 2, -8, -10, 34, -33, 11, -14, -79, 65, 26, 1, 2, 4, 10, 21, 1, 86, 4, -53, 28, -29], "withholdReward": false, "trial_id": "mdp_trial_27", "block": "test", "trialIndex": 28, "score": 31.1, "costs": -12.9, "simulationMode": [null, null, null, null, null], "rewards": [-1, 2, -8, -14, 65], "path": ["0", "0", "12", "13", "14", "19", "21"], "rt": [24372, 132, 241, 826, 237], "actions": ["right", "right", "right", "down", "down"], "actionTimes": [26259, 26895, 27655, 28988, 29750], "queries": {"click": {"state": {"target": ["21", "22", "20", "17", "16", "18"], "time": [3225, 6774, 10448, 14351, 17769, 21061]}, "edge": {"target": [], "time": []}}, "mouseover": {"state": {"target": ["12", "19", "21", "22", "19", "20", "19", "14", "17", "16", "18", "15"], "time": [2459, 2542, 2794, 3929, 7615, 7875, 13248, 13327, 13941, 15067, 18455, 24795]}, "edge": {"target": [], "time": []}}, "mouseout": {"state": {"target": ["28", "0", "12", "19", "21", "22", "19", "20", "20", "19", "14", "17", "16", "18", "15"], "time": [792, 2427, 2496, 2659, 3858, 7564, 7830, 10678, 13197, 13280, 13875, 14927, 18307, 21255, 24826]}, "edge": {"target": [], "time": []}}}, "displayed_time": "30.25", "trialTime": 32165, "trial_type": "mouselab-mdp", "trial_index": 35, "time_elapsed": 1205235, "internal_node_id": "0.0-4.0-1.0-26.0"}}, {"uniqueid": "w34337588:a61294009", "current_trial": 36, "dateTime": 1691143341687, "trialdata": {"revealed_states": [], "clicked_states": ["9", "11", "10"], "num_clicks_accrued": [0, 0, 0, 0, 0, 0, 0, 0, 0, 0, 0, 0, 0], "stateRewards": ["", -1, -2, -8, 8, -27, -82, 19, -14, -62, 4, 1, -2, 2, 6, 10, 73, -51, -2, 2, 73, -48, 54, -1, 2, -4, 11, -25, 47, 86, 15, 33, 43, -42], "withholdReward": false, "trial_id": "mdp_trial_28", "block": "test", "trialIndex": 29, "score": -30.45, "costs": -6.449999999999999, "simulationMode": [null, null, null, null, null], "rewards": [-1, -2, -8, -14, 1], "path": ["0", "0", "1", "2", "3", "8", "11"], "rt": [13850, 501, 219, 364, 90], "actions": ["up", "up", "up", "left", "left"], "actionTimes": [15773, 16782, 17498, 18361, 18961], "queries": {"click": {"state": {"target": ["9", "11", "10"], "time": [3986, 7645, 11337]}, "edge": {"target": [], "time": []}}, "mouseover": {"state": {"target": ["0", "23", "9", "11", "10", "27"], "time": [3059, 3126, 3592, 4856, 8410, 12221]}, "edge": {"target": [], "time": []}}, "mouseout": {"state": {"target": ["15", "18", "0", "23", "9", "11", "10", "10"], "time": [22, 157, 3108, 3144, 4763, 8271, 11542, 11965]}, "edge": {"target": [], "time": []}}}, "displayed_time": "19.50", "trialTime": 22119, "trial_type": "mouselab-mdp", "trial_index": 36, "time_elapsed": 1228357, "internal_node_id": "0.0-4.0-1.0-27.0"}}, {"uniqueid": "w34337588:a61294009", "current_trial": 37, "dateTime": 1691143380219, "trialdata": {"revealed_states": [], "clicked_states": ["32", "31", "33", "29", "27", "28"], "num_clicks_accrued": [0, 0, 0, 0, 0, 0, 0, 0, 0, 0, 0, 0, 0], "stateRewards": ["", 1, -3, -6, -5, 47, 80, -29, 11, -71, 10, -29, -2, 3, -6, 12, 2, -78, -6, 8, 34, -16, -5, -1, 3, 3, -13, 84, -36, -62, -3, -27, 66, 15], "withholdReward": false, "trial_id": "mdp_trial_29", "block": "test", "trialIndex": 30, "score": 63.1, "costs": -12.9, "simulationMode": [null, null, null, null, null], "rewards": [-1, 3, 3, -13, 84], "path": ["0", "0", "23", "24", "25", "26", "27"], "rt": [23887, 135, 137, 279, 2642], "actions": ["left", "left", "left", "up", "up"], "actionTimes": [27627, 28280, 28921, 29732, 32886], "queries": {"click": {"state": {"target": ["32", "31", "33", "29", "27", "28"], "time": [6245, 9778, 13198, 16714, 20213, 23562]}, "edge": {"target": [], "time": []}}, "mouseover": {"state": {"target": ["31", "32", "31", "30", "33", "29", "29", "27", "28"], "time": [4440, 5903, 7052, 10348, 10465, 13886, 14399, 17456, 20901]}, "edge": {"target": [], "time": []}}, "mouseout": {"state": {"target": ["27", "0", "31", "32", "31", "30", "33", "29", "29", "27"], "time": [1015, 4373, 4507, 6875, 10309, 10409, 13808, 13962, 16923, 20746]}, "edge": {"target": [], "time": []}}}, "displayed_time": "33.44", "trialTime": 37500, "trial_type": "mouselab-mdp", "trial_index": 37, "time_elapsed": 1266890, "internal_node_id": "0.0-4.0-1.0-28.0"}}, {"uniqueid": "w34337588:a61294009", "current_trial": 38, "dateTime": 1691143406325, "trialdata": {"revealed_states": [], "clicked_states": ["21", "22", "20"], "num_clicks_accrued": [0, 0, 0, 0, 0, 0, 0, 0, 0, 0, 0, 0, 0], "stateRewards": ["", 2, -3, -8, 14, -7, -51, 73, 2, 36, 36, -43, -1, 3, -4, 1, 6, 87, -65, 15, 61, -42, -83, -1, 3, -2, -7, 30, -48, 35, 13, 26, 60, 78], "withholdReward": false, "trial_id": "mdp_trial_30", "block": "test", "trialIndex": 31, "score": 67.55, "costs": -6.449999999999999, "simulationMode": [null, null, null, null, null], "rewards": [-1, 3, -4, 15, 61], "path": ["0", "0", "12", "13", "14", "19", "20"], "rt": [15109, 25, 274, 613, 218], "actions": ["right", "right", "right", "down", "right"], "actionTimes": [18095, 18634, 19415, 20536, 21258], "queries": {"click": {"state": {"target": ["21", "22", "20"], "time": [4496, 8799, 12983]}, "edge": {"target": [], "time": []}}, "mouseover": {"state": {"target": ["0", "12", "13", "22", "21", "22", "19", "20"], "time": [3538, 3573, 3636, 3672, 3884, 8284, 12235, 12553]}, "edge": {"target": [], "time": []}}, "mouseout": {"state": {"target": ["28", "0", "12", "13", "22", "21", "22", "19", "20", "20"], "time": [804, 3569, 3618, 3655, 3701, 4699, 12205, 12256, 13182, 15804]}, "edge": {"target": [], "time": []}}}, "displayed_time": "21.77", "trialTime": 24747, "trial_type": "mouselab-mdp", "trial_index": 38, "time_elapsed": 1292995, "internal_node_id": "0.0-4.0-1.0-29.0"}}, {"uniqueid": "w34337588:a61294009", "current_trial": 39, "dateTime": 1691143430294, "trialdata": {"revealed_states": [], "clicked_states": ["9", "11", "10"], "num_clicks_accrued": [0, 0, 0, 0, 0, 0, 0, 0, 0, 0, 0, 0, 0], "stateRewards": ["", 1, 4, -8, -13, -13, -87, -77, -10, -44, 54, 42, 2, -3, -4, 12, -9, -80, 52, 9, 84, -2, -65, 1, -4, -5, -6, 8, 80, 32, 13, -59, -5, -13], "withholdReward": false, "trial_id": "mdp_trial_31", "block": "test", "trialIndex": 32, "score": 34.55, "costs": -6.449999999999999, "simulationMode": [null, null, null, null, null], "rewards": [1, 4, -8, -10, 54], "path": ["0", "0", "1", "2", "3", "8", "10"], "rt": [13318, 438, 209, 233, 52], "actions": ["up", "up", "up", "left", "down"], "actionTimes": [17763, 18708, 19429, 20170, 20727], "queries": {"click": {"state": {"target": ["9", "11", "10"], "time": [6063, 9254, 12791]}, "edge": {"target": [], "time": []}}, "mouseover": {"state": {"target": ["27", "9", "11", "8", "10", "2", "7"], "time": [5164, 5632, 7106, 9789, 10004, 13319, 13585]}, "edge": {"target": [], "time": []}}, "mouseout": {"state": {"target": ["21", "0", "27", "9", "11", "8", "10", "2"], "time": [729, 5105, 5184, 6770, 9463, 9870, 12999, 13419]}, "edge": {"target": [], "time": []}}}, "displayed_time": "21.26", "trialTime": 22957, "trial_type": "mouselab-mdp", "trial_index": 39, "time_elapsed": 1316964, "internal_node_id": "0.0-4.0-1.0-30.0"}}, {"uniqueid": "w34337588:a61294009", "current_trial": 40, "dateTime": 1691143451315, "trialdata": {"revealed_states": [], "clicked_states": ["5", "6", "7"], "num_clicks_accrued": [0, 0, 0, 0, 0, 0, 0, 0, 0, 0, 0, 0, 0], "stateRewards": ["", -2, -3, 1, -7, 39, -67, 16, 5, -20, 73, 66, -1, 4, 5, -3, 23, -68, -87, -8, 3, -3, 17, 1, -4, -2, -13, -32, 34, 61, -5, -11, -18, 12], "withholdReward": false, "trial_id": "mdp_trial_32", "block": "test", "trialIndex": 33, "score": 21.55, "costs": -6.449999999999999, "simulationMode": [null, null, null, null, null], "rewards": [-2, -3, 1, -7, 39], "path": ["0", "0", "1", "2", "3", "4", "5"], "rt": [12776, 17, 79, 3, 240], "actions": ["up", "up", "up", "right", "up"], "actionTimes": [14966, 15487, 16102, 16638, 17427], "queries": {"click": {"state": {"target": ["5", "6", "7"], "time": [4072, 7400, 10847]}, "edge": {"target": [], "time": []}}, "mouseover": {"state": {"target": ["1", "2", "5", "6", "7"], "time": [3314, 3337, 3679, 4751, 8173]}, "edge": {"target": [], "time": []}}, "mouseout": {"state": {"target": ["7", "1", "1", "2", "5", "6"], "time": [884, 1011, 3333, 3363, 4656, 8014]}, "edge": {"target": [], "time": []}}}, "displayed_time": "17.95", "trialTime": 19930, "trial_type": "mouselab-mdp", "trial_index": 40, "time_elapsed": 1337986, "internal_node_id": "0.0-4.0-1.0-31.0"}}, {"uniqueid": "w34337588:a61294009", "current_trial": 41, "dateTime": 1691143472704, "trialdata": {"revealed_states": [], "clicked_states": ["23"], "num_clicks_accrued": [0, 0, 0, 0, 0, 0, 0, 0, 0, 0, 0, 0, 0], "stateRewards": ["", 1, 1, -3, 2, 22, -25, -11, -5, 50, 49, 3, 1, -1, 8, 14, -85, -30, 57, -6, -39, -16, 59, -2, -1, 5, 5, 59, -16, 8, 4, 67, 56, -9], "withholdReward": false, "trial_id": "mdp_trial_33", "block": "test", "trialIndex": 34, "score": 66.25, "costs": 0.25, "simulationMode": [null, null, null, null, null], "rewards": [-2, -1, 5, 5, 59], "path": ["0", "0", "23", "24", "25", "26", "27"], "rt": [11519, 489, 624, 885, 105], "actions": ["left", "left", "left", "up", "up"], "actionTimes": [13317, 14336, 15470, 16881, 17508], "queries": {"click": {"state": {"target": ["23"], "time": [3064]}, "edge": {"target": [], "time": []}}, "mouseover": {"state": {"target": ["23", "24", "28"], "time": [2672, 4019, 8140]}, "edge": {"target": [], "time": []}}, "mouseout": {"state": {"target": ["7", "0", "23", "24", "28"], "time": [543, 2606, 3820, 8135, 13333]}, "edge": {"target": [], "time": []}}}, "displayed_time": "18.01", "trialTime": 20124, "trial_type": "mouselab-mdp", "trial_index": 41, "time_elapsed": 1359374, "internal_node_id": "0.0-4.0-1.0-32.0"}}, {"uniqueid": "w34337588:a61294009", "current_trial": 42, "dateTime": 1691143497244, "trialdata": {"revealed_states": [], "clicked_states": ["32", "33", "31"], "num_clicks_accrued": [0, 0, 0, 0, 0, 0, 0, 0, 0, 0, 0, 0, 0], "stateRewards": ["", -2, 4, -7, -3, -76, 39, -28, 10, 14, 12, 60, 2, -3, 6, -10, 88, -34, -41, -3, 72, -13, -56, 1, 3, 2, 8, -51, 23, -57, 1, 14, -46, -16], "withholdReward": false, "trial_id": "mdp_trial_34", "block": "test", "trialIndex": 35, "score": 14.55, "costs": -6.449999999999999, "simulationMode": [null, null, null, null, null], "rewards": [1, 3, 2, 1, 14], "path": ["0", "0", "23", "24", "25", "30", "31"], "rt": [12381, 117, 129, 336, 168], "actions": ["left", "left", "left", "down", "right"], "actionTimes": [17347, 17965, 18608, 19457, 20152], "queries": {"click": {"state": {"target": ["32", "33", "31"], "time": [6430, 9669, 13293]}, "edge": {"target": [], "time": []}}, "mouseover": {"state": {"target": ["32", "33", "30", "31"], "time": [6008, 7256, 10543, 11581]}, "edge": {"target": [], "time": []}}, "mouseout": {"state": {"target": ["0", "0", "32", "33", "30", "31"], "time": [890, 5673, 7079, 10517, 10811, 13478]}, "edge": {"target": [], "time": []}}}, "displayed_time": "20.70", "trialTime": 22915, "trial_type": "mouselab-mdp", "trial_index": 42, "time_elapsed": 1383913, "internal_node_id": "0.0-4.0-1.0-33.0"}}, {"uniqueid": "w34337588:a61294009", "current_trial": 43, "dateTime": 1691143519723, "trialdata": {"revealed_states": [], "clicked_states": ["9", "11", "10"], "num_clicks_accrued": [0, 0, 0, 0, 0, 0, 0, 0, 0, 0, 0, 0, 0], "stateRewards": ["", 1, -3, 4, 13, -72, 52, 5, 5, -58, 5, 14, 2, 1, 3, -14, -86, -4, 73, 6, -58, -50, 49, 2, -3, -4, 2, 33, -41, 42, -11, 81, 45, 53], "withholdReward": false, "trial_id": "mdp_trial_35", "block": "test", "trialIndex": 36, "score": 14.55, "costs": -6.449999999999999, "simulationMode": [null, null, null, null, null], "rewards": [1, -3, 4, 5, 14], "path": ["0", "0", "1", "2", "3", "8", "11"], "rt": [12564, 64, 106, 841, 776], "actions": ["up", "up", "up", "left", "left"], "actionTimes": [14941, 15506, 16155, 17501, 18787], "queries": {"click": {"state": {"target": ["9", "11", "10"], "time": [3949, 7349, 10798]}, "edge": {"target": [], "time": []}}, "mouseover": {"state": {"target": ["11", "9", "11", "10"], "time": [3205, 3528, 4744, 8657]}, "edge": {"target": [], "time": []}}, "mouseout": {"state": {"target": ["0", "11", "9", "9", "11", "10"], "time": [3101, 3248, 4169, 4625, 7940, 14204]}, "edge": {"target": [], "time": []}}}, "displayed_time": "19.29", "trialTime": 21087, "trial_type": "mouselab-mdp", "trial_index": 43, "time_elapsed": 1406392, "internal_node_id": "0.0-4.0-1.0-34.0"}}, {"uniqueid": "w34337588:a61294009", "current_trial": 44, "dateTime": 1691143539585, "trialdata": {"revealed_states": [], "clicked_states": ["16"], "num_clicks_accrued": [0, 0, 0, 0, 0, 0, 0, 0, 0, 0, 0, 0, 0], "stateRewards": ["", 1, 1, -5, 10, -31, 73, 14, -8, -23, 63, -70, -1, 2, 8, 7, 25, -59, 27, -10, -40, -71, -15, -2, 3, -8, -5, -19, 77, -34, 7, 67, 63, 19], "withholdReward": false, "trial_id": "mdp_trial_36", "block": "test", "trialIndex": 37, "score": 38.85, "costs": -2.15, "simulationMode": [null, null, null, null, null], "rewards": [-1, 2, 8, 7, 25], "path": ["0", "0", "12", "13", "14", "15", "16"], "rt": [6785, 181, 227, 587, 2051], "actions": ["right", "right", "right", "up", "up"], "actionTimes": [8969, 9653, 10382, 11483, 14051], "queries": {"click": {"state": {"target": ["16"], "time": [4244]}, "edge": {"target": [], "time": []}}, "mouseover": {"state": {"target": ["0", "1", "14", "15", "16", "17"], "time": [2533, 2811, 3284, 3650, 3817, 4837]}, "edge": {"target": [], "time": []}}, "mouseout": {"state": {"target": ["2", "1", "0", "0", "1", "14", "15", "16"], "time": [482, 565, 1132, 2784, 2834, 3617, 3684, 4746]}, "edge": {"target": [], "time": []}}}, "displayed_time": "16.19", "trialTime": 18311, "trial_type": "mouselab-mdp", "trial_index": 44, "time_elapsed": 1426255, "internal_node_id": "0.0-4.0-1.0-35.0"}}, {"uniqueid": "w34337588:a61294009", "current_trial": 45, "dateTime": 1691143566751, "trialdata": {"revealed_states": [], "clicked_states": ["29", "27", "28"], "num_clicks_accrued": [0, 0, 0, 0, 0, 0, 0, 0, 0, 0, 0, 0, 0], "stateRewards": ["", 1, -4, -6, -1, -21, 17, -72, 10, 77, 67, -46, -1, 4, -2, 14, -66, -49, -45, -15, -52, 23, -67, 2, -2, -2, 15, -3, 45, -64, 5, -44, 83, 61], "withholdReward": false, "trial_id": "mdp_trial_37", "block": "test", "trialIndex": 38, "score": 51.55, "costs": -6.449999999999999, "simulationMode": [null, null, null, null, null], "rewards": [2, -2, -2, 15, 45], "path": ["0", "0", "23", "24", "25", "26", "28"], "rt": [12280, 208, 213, 454, 66], "actions": ["left", "left", "left", "up", "right"], "actionTimes": [14598, 15329, 16069, 17044, 17656], "queries": {"click": {"state": {"target": ["29", "27", "28"], "time": [3778, 7049, 10498]}, "edge": {"target": [], "time": []}}, "mouseover": {"state": {"target": ["0", "23", "24", "29", "27", "28"], "time": [3012, 3044, 3084, 3430, 4540, 7910]}, "edge": {"target": [], "time": []}}, "mouseout": {"state": {"target": ["0", "0", "23", "24", "29", "27", "28"], "time": [895, 3038, 3066, 3141, 4439, 7635, 24935]}, "edge": {"target": [], "time": []}}}, "displayed_time": "18.20", "trialTime": 25872, "trial_type": "mouselab-mdp", "trial_index": 45, "time_elapsed": 1453421, "internal_node_id": "0.0-4.0-1.0-36.0"}}, {"uniqueid": "w34337588:a61294009", "current_trial": 46, "dateTime": 1691143587581, "trialdata": {"revealed_states": [], "clicked_states": ["21"], "num_clicks_accrued": [0, 0, 0, 0, 0, 0, 0, 0, 0, 0, 0, 0, 0], "stateRewards": ["", -1, 4, 3, 12, -27, 34, -33, 3, -63, 1, 6, 2, 2, -6, -11, -77, -85, 68, -6, 51, 81, -60, -2, -2, 1, 15, 20, 15, 68, -10, -14, 6, -4], "withholdReward": false, "trial_id": "mdp_trial_38", "block": "test", "trialIndex": 39, "score": 70.85, "costs": -2.15, "simulationMode": [null, null, null, null, null], "rewards": [2, 2, -6, -6, 81], "path": ["0", "0", "12", "13", "14", "19", "21"], "rt": [5864, 131, 186, 112, 66], "actions": ["right", "right", "right", "down", "down"], "actionTimes": [8128, 8812, 9506, 10130, 10710], "queries": {"click": {"state": {"target": ["21"], "time": [3909]}, "edge": {"target": [], "time": []}}, "mouseover": {"state": {"target": ["0", "31", "21", "20"], "time": [2821, 2879, 3330, 4564]}, "edge": {"target": [], "time": []}}, "mouseout": {"state": {"target": ["0", "31", "21"], "time": [2849, 2945, 4112]}, "edge": {"target": [], "time": []}}}, "displayed_time": "16.27", "trialTime": 19632, "trial_type": "mouselab-mdp", "trial_index": 46, "time_elapsed": 1474251, "internal_node_id": "0.0-4.0-1.0-37.0"}}, {"uniqueid": "w34337588:a61294009", "current_trial": 47, "dateTime": 1691143607221, "trialdata": {"revealed_states": [], "clicked_states": ["5", "6"], "num_clicks_accrued": [0, 0, 0, 0, 0, 0, 0, 0, 0, 0, 0, 0, 0], "stateRewards": ["", -1, 3, 8, 9, -53, 20, -84, 2, -28, -62, -31, -1, -2, -7, 2, 51, 58, 45, -4, -17, -41, 36, 2, -2, -7, -15, 29, -54, -37, -16, -43, 65, -17], "withholdReward": false, "trial_id": "mdp_trial_39", "block": "test", "trialIndex": 40, "score": 34.7, "costs": -4.3, "simulationMode": [null, null, null, null, null], "rewards": [-1, 3, 8, 9, 20], "path": ["0", "0", "1", "2", "3", "4", "6"], "rt": [8971, 624, 309, 924, 136], "actions": ["up", "up", "up", "right", "right"], "actionTimes": [11686, 12825, 13651, 15073, 15728], "queries": {"click": {"state": {"target": ["5", "6"], "time": [4325, 7516]}, "edge": {"target": [], "time": []}}, "mouseover": {"state": {"target": ["4", "5", "6", "6", "7"], "time": [3310, 3627, 5537, 5784, 8109]}, "edge": {"target": [], "time": []}}, "mouseout": {"state": {"target": ["20", "19", "22", "0", "4", "5", "6", "6"], "time": [813, 875, 941, 3235, 3330, 5302, 5581, 8042]}, "edge": {"target": [], "time": []}}}, "displayed_time": "16.72", "trialTime": 18470, "trial_type": "mouselab-mdp", "trial_index": 47, "time_elapsed": 1493891, "internal_node_id": "0.0-4.0-1.0-38.0"}}, {"uniqueid": "w34337588:a61294009", "current_trial": 48, "dateTime": 1691143630911, "trialdata": {"revealed_states": [], "clicked_states": ["32", "33"], "num_clicks_accrued": [0, 0, 0, 0, 0, 0, 0, 0, 0, 0, 0, 0, 0], "stateRewards": ["", 2, -1, -1, 7, 11, -40, -22, -2, 69, 37, 8, -2, 4, -8, -12, -2, -72, -3, -12, 17, 63, 12, 1, 3, -7, 6, 25, 61, 61, -9, 28, -17, 27], "withholdReward": false, "trial_id": "mdp_trial_40", "block": "test", "trialIndex": 41, "score": 10.7, "costs": -4.3, "simulationMode": [null, null, null, null, null], "rewards": [1, 3, -7, -9, 27], "path": ["0", "0", "23", "24", "25", "30", "33"], "rt": [9117, 109, 376, 238, 1601], "actions": ["left", "left", "left", "down", "left"], "actionTimes": [11652, 12283, 13224, 13963, 16076], "queries": {"click": {"state": {"target": ["32", "33"], "time": [3818, 7168]}, "edge": {"target": [], "time": []}}, "mouseover": {"state": {"target": ["31", "32", "33", "30", "31"], "time": [3166, 3366, 4670, 7818, 8035]}, "edge": {"target": [], "time": []}}, "mouseout": {"state": {"target": ["7", "0", "0", "31", "32", "33", "30", "31", "20"], "time": [781, 832, 3121, 3186, 4541, 7804, 7971, 20789, 20869]}, "edge": {"target": [], "time": []}}}, "displayed_time": "16.57", "trialTime": 22482, "trial_type": "mouselab-mdp", "trial_index": 48, "time_elapsed": 1517581, "internal_node_id": "0.0-4.0-1.0-39.0"}}, {"uniqueid": "w34337588:a61294009", "current_trial": 49, "dateTime": 1691143714850, "trialdata": {"rt": 83589, "response": {"Q0": "$-2 to $2", "Q1": "$-4 to $4", "Q2": "$-16 to $16", "Q3": "The cost for clicking on nodes varied between nodes.", "Q4": "Very motivated"}, "question_order": [0, 1, 2, 3, 4], "trial_id": "final_quiz_control", "trial_type": "survey-multi-choice", "trial_index": 49, "time_elapsed": 1601521, "internal_node_id": "0.0-4.0-2.0"}}, {"uniqueid": "w34337588:a61294009", "current_trial": 50, "dateTime": 1691143841174, "trialdata": {"rt": 125791, "response": {"Q0": "I used a method where I clicked the nodes in the finish part to determine what colour are they going to give me.", "Q1": "no.", "Q2": "it was not difficult for me."}, "trial_id": "self_report_control", "trial_type": "survey-text", "trial_index": 50, "time_elapsed": 1727846, "internal_node_id": "0.0-4.0-3.0"}}, {"uniqueid": "w34337588:a61294009", "current_trial": 51, "dateTime": 1691143889124, "trialdata": {"rt": 47885, "response": {"Q0": "Strongly agree", "Q1": "Agree", "Q2": "Neither disagree nor agree", "Q3": "Strongly agree", "Q4": "Disagree", "Q5": "Strongly agree", "Q6": "Disagree"}, "question_order": [0, 1, 2, 3, 4, 5, 6], "trial_id": "self_report_2", "trial_type": "survey-multi-choice", "trial_index": 51, "time_elapsed": 1775796, "internal_node_id": "0.0-4.0-4.0"}}, {"uniqueid": "w34337588:a61294009", "current_trial": 52, "dateTime": 1691143917315, "trialdata": {"rt": 27967, "response": {"gender": "male", "age": "22", "colorblind": "0", "effort": "0"}, "trial_type": "survey-html-form", "trial_index": 52, "time_elapsed": 1803986, "internal_node_id": "0.0-4.0-5.0"}}, {"uniqueid": "w34337588:a61294009", "current_trial": 53, "dateTime": 1691143983319, "trialdata": {"rt": 65976, "response": {"Q0": "no", "Q1": "no, i did not realize.", "Q2": "no."}, "trial_type": "survey-text", "trial_index": 53, "time_elapsed": 1869991, "internal_node_id": "0.0-4.0-6.0"}}, {"uniqueid": "w34337588:a61294009", "current_trial": 54, "dateTime": 1691143988706, "trialdata": {"rt": 5315, "stimulus": "Press 'Finish HIT' in order to reach the completion code. Once the data has been saved, you will receive the code either in this window or in the original browser window where you started the experiment.\n", "response": 0, "trial_type": "html-button-response", "trial_index": 54, "time_elapsed": 1875378, "internal_node_id": "0.0-5.0"}}, {"uniqueid": "w34337588:a61294009", "current_trial": 55, "dateTime": 1691143989769, "trialdata": {"success": true, "trial_type": "fullscreen", "trial_index": 55, "time_elapsed": 1876440, "internal_node_id": "0.0-6.0"}}], "questiondata": {"params": {"CODE": "C6DMOQA6", "MIN_TIME": 14, "inspectCost": 1, "startTime": "Fri Aug 04 2023 11:41:51 GMT+0200 (South Africa Standard Time)", "bonusRate": 0.002, "variance": "1_2_4_8_44", "branching": "31123"}, "final_score": 1331.75}, "eventdata": [{"eventtype": "initialized", "value": null, "timestamp": 1691142111435, "interval": 0}, {"eventtype": "window_resize", "value": [1024, 700], "timestamp": 1691142111435, "interval": 0}, {"eventtype": "window_resize", "value": [1024, 700], "timestamp": 1691142111880, "interval": 445}, {"eventtype": "window_resize", "value": [1366, 714], "timestamp": 1691142116799, "interval": 4919}, {"eventtype": "window_resize", "value": [1366, 768], "timestamp": 1691142125350, "interval": 8551}], "useragent": "Mozilla/5.0 (Windows NT 10.0; Win64; x64) AppleWebKit/537.36 (KHTML, like Gecko) Chrome/114.0.0.0 Safari/537.36", "mode": "live", "id": "w34337588:a61294009", "status": "user data saved", "Beginhit": "2023-08-04 09:41:49.884869", "Beginexp": "2023-08-04 09:42:07.531583", "Endhit": "2023-08-04 10:13:14.253333", "psiturkStatus": 3, "browser": "<redacted>", "platform": "windows", "language": "en-US"}