{"condition": 1, "counterbalance": 0, "assignmentId": "a22055986", "workerId": "w43871272", "hitId": "h26809143", "currenttrial": 68, "bonus": 0, "data": [{"uniqueid": "w43871272:a22055986", "current_trial": 0, "dateTime": 1693480898033, "trialdata": {"success": true, "trial_type": "fullscreen", "trial_index": 0, "time_elapsed": 9458, "internal_node_id": "0.0-0.0"}}, {"uniqueid": "w43871272:a22055986", "current_trial": 1, "dateTime": 1693480924852, "trialdata": {"view_history": [{"page_index": 0, "viewing_time": 26810}], "rt": 26812, "trial_id": "exp_instructions_misaligned", "trial_type": "instructions", "trial_index": 1, "time_elapsed": 36279, "internal_node_id": "0.0-1.0"}}, {"uniqueid": "w43871272:a22055986", "current_trial": 2, "dateTime": 1693481229861, "trialdata": {"view_history": [{"page_index": 0, "viewing_time": 85430}, {"page_index": 1, "viewing_time": 101531}, {"page_index": 2, "viewing_time": 40337}, {"page_index": 3, "viewing_time": 77708}], "rt": 305006, "trial_id": "mouselab_instructions_1_misaligned", "trial_type": "instructions", "trial_index": 2, "time_elapsed": 341288, "internal_node_id": "0.0-2.0-1.0"}}, {"uniqueid": "w43871272:a22055986", "current_trial": 3, "dateTime": 1693481274248, "trialdata": {"revealed_states": [], "clicked_states": ["23", "12", "13", "14", "19", "20", "15", "1", "2", "8", "11"], "num_clicks_accrued": [0, 0, 0, 0, 0, 0, 0, 0, 0, 0, 0, 0, 0], "stateRewards": ["", -10, -10, -10, -10, 10, -10, 10, 10, 10, 10, 10, -10, -10, -10, -10, 10, 10, 10, 10, 10, 10, -10, -10, 10, 10, 10, 10, 10, 10, -10, -10, 10, 10], "withholdReward": false, "trial_id": "practice_1", "block": "test", "trialIndex": 0, "score": -12, "costs": -5.5, "simulationMode": [null, null, null, null, null], "rewards": [-10, -10, -10, 10, 10], "path": ["0", "0", "12", "13", "14", "19", "21"], "rt": [28171, 176, 486, 739, 59], "actions": ["right", "right", "right", "down", "down"], "actionTimes": [32986, 33672, 34678, 35932, 36503], "queries": {"click": {"state": {"target": ["23", "12", "13", "14", "19", "20", "15", "1", "2", "8", "11"], "time": [8312, 10772, 12413, 14401, 15494, 20855, 23330, 26954, 28149, 30251, 31341]}, "edge": {"target": [], "time": []}}, "mouseover": {"state": {"target": ["23", "24", "12", "13", "14", "19", "21", "20", "15", "15", "18", "1", "2", "3", "8", "11", "10", "1"], "time": [7057, 9940, 10156, 11975, 12894, 14994, 16058, 19357, 21990, 22998, 24909, 26014, 27726, 28592, 29890, 30859, 31759, 31894]}, "edge": {"target": [], "time": []}}, "mouseout": {"state": {"target": ["0", "23", "24", "23", "12", "13", "14", "19", "21", "20", "15", "15", "18", "1", "2", "3", "8", "11", "10", "1"], "time": [6931, 9520, 10106, 10123, 11925, 12860, 14943, 15991, 19323, 21079, 22140, 24901, 25159, 27426, 28558, 29641, 30809, 31727, 31775, 31908]}, "edge": {"target": [], "time": []}}}, "displayed_time": "37.01", "trialTime": 43328, "trial_type": "mouselab-mdp", "trial_index": 3, "time_elapsed": 385674, "internal_node_id": "0.0-2.0-2.0-0.0"}}, {"uniqueid": "w43871272:a22055986", "current_trial": 4, "dateTime": 1693481296282, "trialdata": {"revealed_states": [], "clicked_states": [], "num_clicks_accrued": [0, 0, 0, 0, 0, 0, 0, 0, 0, 0, 0, 0, 0], "stateRewards": ["", 10, -10, 10, -10, 10, 10, -10, 10, 10, -10, -10, 10, 10, -10, -10, 10, 10, -10, -10, -10, 10, -10, -10, -10, -10, -10, 10, -10, 10, -10, 10, -10, -10], "withholdReward": false, "trial_id": "practice_2", "block": "test", "trialIndex": 1, "score": -26.5, "costs": 0, "simulationMode": [null, null, null, null, null], "rewards": [-10, -10, -10, -10, 10], "path": ["0", "0", "23", "24", "25", "26", "27"], "rt": [3871, 707, 677, 1189, 5150], "actions": ["left", "left", "left", "up", "up"], "actionTimes": [8041, 9264, 10453, 12164, 17825], "queries": {"click": {"state": {"target": [], "time": []}, "edge": {"target": [], "time": []}}, "mouseover": {"state": {"target": [], "time": []}, "edge": {"target": [], "time": []}}, "mouseout": {"state": {"target": ["0", "0", "0", "23", "24", "26"], "time": [1789, 1856, 13974, 14008, 14056, 14123]}, "edge": {"target": [], "time": []}}}, "displayed_time": "18.33", "trialTime": 21860, "trial_type": "mouselab-mdp", "trial_index": 4, "time_elapsed": 407708, "internal_node_id": "0.0-2.0-2.0-1.0"}}, {"uniqueid": "w43871272:a22055986", "current_trial": 5, "dateTime": 1693481381680, "trialdata": {"view_history": [{"page_index": 0, "viewing_time": 61475}, {"page_index": 1, "viewing_time": 14379}, {"page_index": 0, "viewing_time": 6879}, {"page_index": 1, "viewing_time": 2660}], "rt": 85393, "trial_id": "mouselab_instructions_2_misaligned", "trial_type": "instructions", "trial_index": 5, "time_elapsed": 493107, "internal_node_id": "0.0-2.0-3.0"}}, {"uniqueid": "w43871272:a22055986", "current_trial": 6, "dateTime": 1693481443010, "trialdata": {"rt": 61322, "response": {"Q0": "The cost for clicking on nodes may vary between nodes.", "Q1": "The better I perform the higher my bonus will be.", "Q2": "No, the amount of cash at each node of the web may be different each time.", "Q3": "To get the highest total score.", "Q4": "Any time during the round.", "Q5": "3 seconds"}, "question_order": [0, 1, 2, 3, 4, 5], "correct": {"Q0": "The cost for clicking on nodes may vary between nodes.", "Q1": "The better I perform the higher my bonus will be.", "Q2": "No, the amount of cash at each node of the web may be different each time.", "Q3": "To get the highest total score.", "Q4": "Only before moving the spider.", "Q5": "3 seconds"}, "trial_id": "mouselab_quiz_misaligned", "trial_type": "survey-multi-choice", "trial_index": 6, "time_elapsed": 554436, "internal_node_id": "0.0-2.0-4.0"}}, {"uniqueid": "w43871272:a22055986", "current_trial": 7, "dateTime": 1693481453024, "trialdata": {"success": true, "trial_type": "fullscreen", "trial_index": 7, "time_elapsed": 564451, "internal_node_id": "0.0-2.1-0.1-0.1"}}, {"uniqueid": "w43871272:a22055986", "current_trial": 8, "dateTime": 1693481655062, "trialdata": {"view_history": [{"page_index": 0, "viewing_time": 92704}, {"page_index": 1, "viewing_time": 79477}, {"page_index": 2, "viewing_time": 25653}, {"page_index": 3, "viewing_time": 4201}], "rt": 202035, "trial_id": "mouselab_instructions_1_misaligned", "trial_type": "instructions", "trial_index": 8, "time_elapsed": 766489, "internal_node_id": "0.0-2.1-1.1"}}, {"uniqueid": "w43871272:a22055986", "current_trial": 9, "dateTime": 1693481677745, "trialdata": {"revealed_states": [], "clicked_states": ["23", "1", "24", "12"], "num_clicks_accrued": [0, 0, 0, 0, 0, 0, 0, 0, 0, 0, 0, 0, 0], "stateRewards": ["", -10, -10, -10, -10, 10, -10, 10, 10, 10, 10, 10, -10, -10, -10, -10, 10, 10, 10, 10, 10, 10, -10, -10, 10, 10, 10, 10, 10, 10, -10, -10, 10, 10], "withholdReward": false, "trial_id": "practice_1", "block": "test", "trialIndex": 2, "score": -8.5, "costs": -2, "simulationMode": [null, null, null, null, null], "rewards": [-10, -10, -10, 10, 10], "path": ["0", "0", "12", "13", "14", "19", "21"], "rt": [9189, 452, 3981, 168, 417], "actions": ["right", "right", "right", "down", "down"], "actionTimes": [11523, 12475, 16972, 17641, 18554], "queries": {"click": {"state": {"target": ["23", "1", "24", "12"], "time": [4398, 6490, 8310, 10034]}, "edge": {"target": [], "time": []}}, "mouseover": {"state": {"target": ["23", "1", "24", "23", "12"], "time": [3857, 5920, 7522, 9417, 9519]}, "edge": {"target": [], "time": []}}, "mouseout": {"state": {"target": ["0", "23", "1", "24", "23", "12", "12", "22"], "time": [1404, 4608, 7204, 9401, 9434, 10254, 13422, 16227]}, "edge": {"target": [], "time": []}}}, "displayed_time": "19.05", "trialTime": 22506, "trial_type": "mouselab-mdp", "trial_index": 9, "time_elapsed": 789172, "internal_node_id": "0.0-2.1-2.1-0.1"}}, {"uniqueid": "w43871272:a22055986", "current_trial": 10, "dateTime": 1693481701471, "trialdata": {"revealed_states": [], "clicked_states": ["1", "2", "3"], "num_clicks_accrued": [0, 0, 0, 0, 0, 0, 0, 0, 0, 0, 0, 0, 0], "stateRewards": ["", 10, -10, 10, -10, 10, 10, -10, 10, 10, -10, -10, 10, 10, -10, -10, 10, 10, -10, -10, -10, 10, -10, -10, -10, -10, -10, 10, -10, 10, -10, 10, -10, -10], "withholdReward": false, "trial_id": "practice_2", "block": "test", "trialIndex": 3, "score": 12, "costs": -1.5, "simulationMode": [null, null, null, null, null], "rewards": [10, -10, 10, 10, -10], "path": ["0", "0", "1", "2", "3", "8", "11"], "rt": [9765, 403, 414, 1961, 389], "actions": ["up", "up", "up", "left", "left"], "actionTimes": [12052, 12953, 13863, 16328, 17237], "queries": {"click": {"state": {"target": ["1", "2", "3"], "time": [4142, 7190, 9382]}, "edge": {"target": [], "time": []}}, "mouseover": {"state": {"target": ["1", "2", "10", "2", "3"], "time": [3415, 4766, 5181, 5782, 9015]}, "edge": {"target": [], "time": []}}, "mouseout": {"state": {"target": ["13", "12", "0", "1", "2", "10", "2", "3", "2", "8", "10", "0"], "time": [1463, 1648, 1947, 4369, 4899, 5747, 8281, 10548, 11363, 19150, 19215, 19315]}, "edge": {"target": [], "time": []}}}, "displayed_time": "17.73", "trialTime": 23527, "trial_type": "mouselab-mdp", "trial_index": 10, "time_elapsed": 812897, "internal_node_id": "0.0-2.1-2.1-1.1"}}, {"uniqueid": "w43871272:a22055986", "current_trial": 11, "dateTime": 1693481747413, "trialdata": {"view_history": [{"page_index": 0, "viewing_time": 43543}, {"page_index": 1, "viewing_time": 2393}], "rt": 45936, "trial_id": "mouselab_instructions_2_misaligned", "trial_type": "instructions", "trial_index": 11, "time_elapsed": 858840, "internal_node_id": "0.0-2.1-3.1"}}, {"uniqueid": "w43871272:a22055986", "current_trial": 12, "dateTime": 1693481867121, "trialdata": {"rt": 119704, "response": {"Q0": "The cost for clicking on nodes may vary between nodes.", "Q1": "The better I perform the higher my bonus will be.", "Q2": "No, the amount of cash at each node of the web may be different each time.", "Q3": "To get the highest total score.", "Q4": "Only after moving the spider.", "Q5": "3 seconds"}, "question_order": [0, 1, 2, 3, 4, 5], "correct": {"Q0": "The cost for clicking on nodes may vary between nodes.", "Q1": "The better I perform the higher my bonus will be.", "Q2": "No, the amount of cash at each node of the web may be different each time.", "Q3": "To get the highest total score.", "Q4": "Only before moving the spider.", "Q5": "3 seconds"}, "trial_id": "mouselab_quiz_misaligned", "trial_type": "survey-multi-choice", "trial_index": 12, "time_elapsed": 978548, "internal_node_id": "0.0-2.1-4.1"}}, {"uniqueid": "w43871272:a22055986", "current_trial": 13, "dateTime": 1693481875166, "trialdata": {"success": true, "trial_type": "fullscreen", "trial_index": 13, "time_elapsed": 986593, "internal_node_id": "0.0-2.2-0.2-0.2"}}, {"uniqueid": "w43871272:a22055986", "current_trial": 14, "dateTime": 1693481905998, "trialdata": {"view_history": [{"page_index": 0, "viewing_time": 12931}, {"page_index": 1, "viewing_time": 8508}, {"page_index": 2, "viewing_time": 5120}, {"page_index": 3, "viewing_time": 4270}], "rt": 30829, "trial_id": "mouselab_instructions_1_misaligned", "trial_type": "instructions", "trial_index": 14, "time_elapsed": 1017425, "internal_node_id": "0.0-2.2-1.2"}}, {"uniqueid": "w43871272:a22055986", "current_trial": 15, "dateTime": 1693481916090, "trialdata": {"revealed_states": [], "clicked_states": [], "num_clicks_accrued": [0, 0, 0, 0, 0, 0, 0, 0, 0, 0, 0, 0, 0], "stateRewards": ["", -10, -10, -10, -10, 10, -10, 10, 10, 10, 10, 10, -10, -10, -10, -10, 10, 10, 10, 10, 10, 10, -10, -10, 10, 10, 10, 10, 10, 10, -10, -10, 10, 10], "withholdReward": false, "trial_id": "practice_1", "block": "test", "trialIndex": 4, "score": -6.5, "costs": 0, "simulationMode": [null, null, null, null, null], "rewards": [-10, -10, -10, 10, 10], "path": ["0", "0", "1", "2", "3", "8", "11"], "rt": [1680, 160, 117, 139, 95], "actions": ["up", "up", "up", "left", "left"], "actionTimes": [5150, 5831, 6438, 7077, 7668], "queries": {"click": {"state": {"target": [], "time": []}, "edge": {"target": [], "time": []}}, "mouseover": {"state": {"target": [], "time": []}, "edge": {"target": [], "time": []}}, "mouseout": {"state": {"target": [], "time": []}, "edge": {"target": [], "time": []}}}, "displayed_time": "8.19", "trialTime": 9868, "trial_type": "mouselab-mdp", "trial_index": 15, "time_elapsed": 1027516, "internal_node_id": "0.0-2.2-2.2-0.2"}}, {"uniqueid": "w43871272:a22055986", "current_trial": 16, "dateTime": 1693481927906, "trialdata": {"revealed_states": [], "clicked_states": [], "num_clicks_accrued": [0, 0, 0, 0, 0, 0, 0, 0, 0, 0, 0, 0, 0], "stateRewards": ["", 10, -10, 10, -10, 10, 10, -10, 10, 10, -10, -10, 10, 10, -10, -10, 10, 10, -10, -10, -10, 10, -10, -10, -10, -10, -10, 10, -10, 10, -10, 10, -10, -10], "withholdReward": false, "trial_id": "practice_2", "block": "test", "trialIndex": 5, "score": -46.5, "costs": 0, "simulationMode": [null, null, null, null, null], "rewards": [-10, -10, -10, -10, -10], "path": ["0", "0", "23", "24", "25", "30", "32"], "rt": [2593, 1408, 148, 669, 129], "actions": ["left", "left", "left", "down", "down"], "actionTimes": [6272, 8185, 8844, 10029, 10673], "queries": {"click": {"state": {"target": [], "time": []}, "edge": {"target": [], "time": []}}, "mouseover": {"state": {"target": [], "time": []}, "edge": {"target": [], "time": []}}, "mouseout": {"state": {"target": ["0", "0"], "time": [null, 3093]}, "edge": {"target": [], "time": []}}}, "displayed_time": "11.19", "trialTime": 11607, "trial_type": "mouselab-mdp", "trial_index": 16, "time_elapsed": 1039332, "internal_node_id": "0.0-2.2-2.2-1.2"}}, {"uniqueid": "w43871272:a22055986", "current_trial": 17, "dateTime": 1693481941448, "trialdata": {"view_history": [{"page_index": 0, "viewing_time": 10966}, {"page_index": 1, "viewing_time": 2570}], "rt": 13537, "trial_id": "mouselab_instructions_2_misaligned", "trial_type": "instructions", "trial_index": 17, "time_elapsed": 1052875, "internal_node_id": "0.0-2.2-3.2"}}, {"uniqueid": "w43871272:a22055986", "current_trial": 18, "dateTime": 1693482216449, "trialdata": {"rt": 274996, "response": {"Q0": "The cost for clicking on nodes may vary between nodes.", "Q1": "The better I perform the higher my bonus will be.", "Q2": "No, the amount of cash at each node of the web may be different each time.", "Q3": "To get the highest total score.", "Q4": "Only before moving the spider.", "Q5": "3 seconds"}, "question_order": [0, 1, 2, 3, 4, 5], "correct": {"Q0": "The cost for clicking on nodes may vary between nodes.", "Q1": "The better I perform the higher my bonus will be.", "Q2": "No, the amount of cash at each node of the web may be different each time.", "Q3": "To get the highest total score.", "Q4": "Only before moving the spider.", "Q5": "3 seconds"}, "trial_id": "mouselab_quiz_misaligned", "trial_type": "survey-multi-choice", "trial_index": 18, "time_elapsed": 1327875, "internal_node_id": "0.0-2.2-4.2"}}, {"uniqueid": "w43871272:a22055986", "current_trial": 19, "dateTime": 1693482240169, "trialdata": {"rt": 23706, "response": {"Q0": "No"}, "question_order": [0], "trial_id": "repeat_check", "trial_type": "survey-multi-choice", "trial_index": 19, "time_elapsed": 1351595, "internal_node_id": "0.0-4.0-0.0"}}, {"uniqueid": "w43871272:a22055986", "current_trial": 20, "dateTime": 1693482264764, "trialdata": {"rt": 24585, "stimulus": "\n<h1> Get ready to start the game! </h1>\n\nThank you for reading the instructions. Get ready start with the 40 rounds of this game.\n<br><br>\nIf you need to take a break, feel free to take one after the end of a round, before continuing to the next one.\n<br><br>\nRemember, the more money the spider gets, the bigger your bonus will be!\n<br><br>\n<div style='text-align: center;'>Press <code>space</code> to begin.</div>\n\n<br><br>\n(If, at any point, the <code>space</code> key does not take you to the next page, click once on the text and try again.)", "response": " ", "trial_id": "mdp_ready", "trial_type": "html-keyboard-response", "trial_index": 20, "time_elapsed": 1376191, "internal_node_id": "0.0-6.0-0.0"}}, {"uniqueid": "w43871272:a22055986", "current_trial": 21, "dateTime": 1693482284321, "trialdata": {"revealed_states": [], "clicked_states": ["23", "24"], "num_clicks_accrued": [0, 0, 0, 0, 0, 0, 0, 0, 0, 0, 0, 0, 0], "stateRewards": ["", -1, 1, -2, 5, 73, 15, 61, 8, 7, 38, 76, 2, 2, -4, -6, -6, -26, 43, -5, -45, -85, -35, -2, 1, -4, 15, -10, 69, 72, -11, 84, -49, -38], "withholdReward": false, "trial_id": "mdp_trial_1", "block": "test", "trialIndex": 6, "score": -0.09999999999999964, "costs": -0.09999999999999998, "simulationMode": [null, null, null, null, null], "rewards": [-2, 1, -4, 15, -10], "path": ["0", "0", "23", "24", "25", "26", "27"], "rt": [4073, 392, 381, 462, 254], "actions": ["left", "left", "left", "up", "up"], "actionTimes": [7334, 8247, 9139, 10119, 10893], "queries": {"click": {"state": {"target": ["23", "24"], "time": [4736, 5348]}, "edge": {"target": [], "time": []}}, "mouseover": {"state": {"target": ["23", "24"], "time": [4289, 5074]}, "edge": {"target": [], "time": []}}, "mouseout": {"state": {"target": ["1", "0", "23"], "time": [2571, 4239, 5042]}, "edge": {"target": [], "time": []}}}, "displayed_time": "17.26", "trialTime": 19303, "trial_type": "mouselab-mdp", "trial_index": 21, "time_elapsed": 1395748, "internal_node_id": "0.0-6.0-1.0-0.0"}}, {"uniqueid": "w43871272:a22055986", "current_trial": 22, "dateTime": 1693482302797, "trialdata": {"revealed_states": [], "clicked_states": ["1"], "num_clicks_accrued": [0, 0, 0, 0, 0, 0, 0, 0, 0, 0, 0, 0, 0], "stateRewards": ["", 1, -1, 8, -3, 38, 85, -20, -4, 8, 23, 73, 2, -4, 6, -13, 44, 7, -28, -11, -77, 45, -69, 1, -1, -7, -11, 75, -51, -87, 7, 36, -53, -26], "withholdReward": false, "trial_id": "mdp_trial_2", "block": "test", "trialIndex": 7, "score": 27.25, "costs": 0.25, "simulationMode": [null, null, null, null, null], "rewards": [1, -1, 8, -4, 23], "path": ["0", "0", "1", "2", "3", "8", "10"], "rt": [3949, 656, 852, 1282, 766], "actions": ["up", "up", "up", "left", "down"], "actionTimes": [6254, 7410, 8772, 10566, 11851], "queries": {"click": {"state": {"target": ["1"], "time": [4193]}, "edge": {"target": [], "time": []}}, "mouseover": {"state": {"target": ["1", "2"], "time": [3601, 5035]}, "edge": {"target": [], "time": []}}, "mouseout": {"state": {"target": ["24", "23", "1", "2", "1"], "time": [1200, 1266, 4417, 5399, 5549]}, "edge": {"target": [], "time": []}}}, "displayed_time": "16.31", "trialTime": 18257, "trial_type": "mouselab-mdp", "trial_index": 22, "time_elapsed": 1414223, "internal_node_id": "0.0-6.0-1.0-1.0"}}, {"uniqueid": "w43871272:a22055986", "current_trial": 23, "dateTime": 1693482322972, "trialdata": {"revealed_states": [], "clicked_states": ["12"], "num_clicks_accrued": [0, 0, 0, 0, 0, 0, 0, 0, 0, 0, 0, 0, 0], "stateRewards": ["", -2, -4, -6, 12, -58, -70, -80, 2, 16, -88, -62, 1, 2, -5, 11, 77, -35, -44, -5, 18, -83, 87, 1, -3, -5, 13, -44, -21, -86, 10, -52, 8, 29], "withholdReward": false, "trial_id": "mdp_trial_3", "block": "test", "trialIndex": 8, "score": 80.25, "costs": 0.25, "simulationMode": [null, null, null, null, null], "rewards": [1, 2, -5, -5, 87], "path": ["0", "0", "12", "13", "14", "19", "22"], "rt": [2511, 555, 278, 292, 668], "actions": ["right", "right", "right", "down", "left"], "actionTimes": [4363, 5428, 6217, 7031, 8205], "queries": {"click": {"state": {"target": ["12"], "time": [3004]}, "edge": {"target": [], "time": []}}, "mouseover": {"state": {"target": ["12"], "time": [2553]}, "edge": {"target": [], "time": []}}, "mouseout": {"state": {"target": ["0"], "time": [2470]}, "edge": {"target": [], "time": []}}}, "displayed_time": "15.85", "trialTime": 19901, "trial_type": "mouselab-mdp", "trial_index": 23, "time_elapsed": 1434398, "internal_node_id": "0.0-6.0-1.0-2.0"}}, {"uniqueid": "w43871272:a22055986", "current_trial": 24, "dateTime": 1693482341981, "trialdata": {"revealed_states": [], "clicked_states": ["1"], "num_clicks_accrued": [0, 0, 0, 0, 0, 0, 0, 0, 0, 0, 0, 0, 0], "stateRewards": ["", -2, -1, -2, -15, 87, 57, 29, -10, 77, -80, -7, 1, -3, 6, 14, -11, 87, -59, 4, -71, 16, -11, 2, 2, -7, 2, -47, 61, 50, 14, -20, 17, 81], "withholdReward": false, "trial_id": "mdp_trial_4", "block": "test", "trialIndex": 9, "score": 67.25, "costs": 0.25, "simulationMode": [null, null, null, null, null], "rewards": [-2, -1, -2, -15, 87], "path": ["0", "0", "1", "2", "3", "4", "5"], "rt": [3473, 1143, 455, 1304, 4], "actions": ["up", "up", "up", "right", "up"], "actionTimes": [6953, 8587, 9548, 11363, 11880], "queries": {"click": {"state": {"target": ["1"], "time": [4354]}, "edge": {"target": [], "time": []}}, "mouseover": {"state": {"target": ["1", "23"], "time": [3909, 5660]}, "edge": {"target": [], "time": []}}, "mouseout": {"state": {"target": ["12", "1", "23"], "time": [1475, 4961, 5912]}, "edge": {"target": [], "time": []}}}, "displayed_time": "17.48", "trialTime": 18683, "trial_type": "mouselab-mdp", "trial_index": 24, "time_elapsed": 1453407, "internal_node_id": "0.0-6.0-1.0-3.0"}}, {"uniqueid": "w43871272:a22055986", "current_trial": 25, "dateTime": 1693482359721, "trialdata": {"revealed_states": [], "clicked_states": ["1", "23", "12"], "num_clicks_accrued": [0, 0, 0, 0, 0, 0, 0, 0, 0, 0, 0, 0, 0], "stateRewards": ["", -1, 3, -5, -2, -13, -9, -34, -7, -81, 32, 35, -2, -2, 1, -14, -32, 81, 7, 4, 82, 56, -8, -1, 3, -8, 6, -24, -24, -53, 2, 38, 61, 54], "withholdReward": false, "trial_id": "mdp_trial_5", "block": "test", "trialIndex": 10, "score": -13.25, "costs": 0.75, "simulationMode": [null, null, null, null, null], "rewards": [-1, 3, -5, -2, -9], "path": ["0", "0", "1", "2", "3", "4", "6"], "rt": [5296, 360, 490, 1125, 382], "actions": ["up", "up", "up", "right", "right"], "actionTimes": [7153, 8018, 9014, 10634, 11526], "queries": {"click": {"state": {"target": ["1", "23", "12"], "time": [3329, 4313, 5331]}, "edge": {"target": [], "time": []}}, "mouseover": {"state": {"target": ["1", "23", "12"], "time": [2888, 3941, 4891]}, "edge": {"target": [], "time": []}}, "mouseout": {"state": {"target": ["1", "1", "23", "12"], "time": [1020, 3740, 4528, 5548]}, "edge": {"target": [], "time": []}}}, "displayed_time": "15.86", "trialTime": 17487, "trial_type": "mouselab-mdp", "trial_index": 25, "time_elapsed": 1471147, "internal_node_id": "0.0-6.0-1.0-4.0"}}, {"uniqueid": "w43871272:a22055986", "current_trial": 26, "dateTime": 1693482376709, "trialdata": {"revealed_states": [], "clicked_states": ["23"], "num_clicks_accrued": [0, 0, 0, 0, 0, 0, 0, 0, 0, 0, 0, 0, 0], "stateRewards": ["", -2, 3, -1, 2, -72, 63, 20, -1, 62, -66, 39, -2, 3, -6, 14, 22, 47, 1, 8, -49, -1, -41, 2, 2, -6, -16, -64, -60, -34, 16, 54, 22, -7], "withholdReward": false, "trial_id": "mdp_trial_6", "block": "test", "trialIndex": 11, "score": 7.25, "costs": 0.25, "simulationMode": [null, null, null, null, null], "rewards": [2, 2, -6, 16, -7], "path": ["0", "0", "23", "24", "25", "30", "33"], "rt": [2392, 674, 547, 1457, 348], "actions": ["left", "left", "left", "down", "left"], "actionTimes": [3865, 5058, 6117, 8091, 8951], "queries": {"click": {"state": {"target": ["23"], "time": [2358]}, "edge": {"target": [], "time": []}}, "mouseover": {"state": {"target": ["23"], "time": [2068]}, "edge": {"target": [], "time": []}}, "mouseout": {"state": {"target": [], "time": []}, "edge": {"target": [], "time": []}}}, "displayed_time": "15.47", "trialTime": 16736, "trial_type": "mouselab-mdp", "trial_index": 26, "time_elapsed": 1488135, "internal_node_id": "0.0-6.0-1.0-5.0"}}, {"uniqueid": "w43871272:a22055986", "current_trial": 27, "dateTime": 1693482394009, "trialdata": {"revealed_states": [], "clicked_states": ["12", "23", "24"], "num_clicks_accrued": [0, 0, 0, 0, 0, 0, 0, 0, 0, 0, 0, 0, 0], "stateRewards": ["", -1, 3, 8, 10, -86, 61, -36, 10, 17, -60, 24, -1, -3, 3, 11, 50, 60, 33, -3, -20, 58, -6, 1, -4, -4, 13, -70, -71, 43, 14, 52, 82, -11], "withholdReward": false, "trial_id": "mdp_trial_7", "block": "test", "trialIndex": 12, "score": -63.85, "costs": 0.15000000000000002, "simulationMode": [null, null, null, null, null], "rewards": [1, -4, -4, 13, -70], "path": ["0", "0", "23", "24", "25", "26", "27"], "rt": [7213, 362, 426, 1712, 1332], "actions": ["left", "left", "left", "up", "up"], "actionTimes": [8662, 9540, 10487, 12707, 14559], "queries": {"click": {"state": {"target": ["12", "23", "24"], "time": [2351, 4620, 6046]}, "edge": {"target": [], "time": []}}, "mouseover": {"state": {"target": ["12", "1", "23", "24"], "time": [2011, 3162, 4280, 5678]}, "edge": {"target": [], "time": []}}, "mouseout": {"state": {"target": ["23", "12", "1", "23", "24"], "time": [728, 2567, 3994, 4840, 6255]}, "edge": {"target": [], "time": []}}}, "displayed_time": "15.45", "trialTime": 17032, "trial_type": "mouselab-mdp", "trial_index": 27, "time_elapsed": 1505436, "internal_node_id": "0.0-6.0-1.0-6.0"}}, {"uniqueid": "w43871272:a22055986", "current_trial": 28, "dateTime": 1693482412186, "trialdata": {"revealed_states": [], "clicked_states": ["1", "2"], "num_clicks_accrued": [0, 0, 0, 0, 0, 0, 0, 0, 0, 0, 0, 0, 0], "stateRewards": ["", -1, 2, -6, 6, -82, -19, -39, -16, -83, 11, -33, -2, -2, 4, -6, -82, -1, -19, -6, -10, -67, -41, -2, 1, -7, 16, -23, -78, -52, 14, 31, -71, 74], "withholdReward": false, "trial_id": "mdp_trial_8", "block": "test", "trialIndex": 13, "score": -104.1, "costs": -0.09999999999999998, "simulationMode": [null, null, null, null, null], "rewards": [-1, 2, -6, -16, -83], "path": ["0", "0", "1", "2", "3", "8", "9"], "rt": [5857, 322, 419, 2132, 1023], "actions": ["up", "up", "up", "left", "up"], "actionTimes": [7775, 8612, 9526, 12154, 13698], "queries": {"click": {"state": {"target": ["1", "2"], "time": [3431, 5100]}, "edge": {"target": [], "time": []}}, "mouseover": {"state": {"target": ["1", "2", "2"], "time": [3055, 4355, 4865]}, "edge": {"target": [], "time": []}}, "mouseout": {"state": {"target": ["24", "23", "1", "2", "2"], "time": [954, 1171, 4305, 4374, 5316]}, "edge": {"target": [], "time": []}}}, "displayed_time": "15.92", "trialTime": 17968, "trial_type": "mouselab-mdp", "trial_index": 28, "time_elapsed": 1523612, "internal_node_id": "0.0-6.0-1.0-7.0"}}, {"uniqueid": "w43871272:a22055986", "current_trial": 29, "dateTime": 1693482429568, "trialdata": {"revealed_states": [], "clicked_states": ["23", "12", "13"], "num_clicks_accrued": [0, 0, 0, 0, 0, 0, 0, 0, 0, 0, 0, 0, 0], "stateRewards": ["", 1, 4, 5, -5, 58, -80, 75, 6, 25, -39, 46, 2, -2, 4, 2, 59, 31, -22, -12, -61, 15, 72, 1, -2, -7, 8, 77, 76, -23, -7, 71, -15, -3], "withholdReward": false, "trial_id": "mdp_trial_9", "block": "test", "trialIndex": 14, "score": -22.85, "costs": 0.15000000000000002, "simulationMode": [null, null, null, null, null], "rewards": [1, -2, -7, 8, -23], "path": ["0", "0", "23", "24", "25", "26", "29"], "rt": [8905, 342, 224, 1597, 2068], "actions": ["left", "left", "left", "up", "left"], "actionTimes": [10337, 11200, 11930, 14021, 16607], "queries": {"click": {"state": {"target": ["23", "12", "13"], "time": [3306, 4993, 5832]}, "edge": {"target": [], "time": []}}, "mouseover": {"state": {"target": ["23", "0", "12", "13", "0"], "time": [2388, 4387, 4436, 5523, 7003]}, "edge": {"target": [], "time": []}}, "mouseout": {"state": {"target": ["2", "1", "23", "23", "0", "12", "13", "13", "12", "0"], "time": [686, 786, 3545, 4353, 4402, 5213, 6060, 6673, 6723, 7119]}, "edge": {"target": [], "time": []}}}, "displayed_time": "17.12", "trialTime": 17152, "trial_type": "mouselab-mdp", "trial_index": 29, "time_elapsed": 1540995, "internal_node_id": "0.0-6.0-1.0-8.0"}}, {"uniqueid": "w43871272:a22055986", "current_trial": 30, "dateTime": 1693482452780, "trialdata": {"revealed_states": [], "clicked_states": [], "num_clicks_accrued": [0, 0, 0, 0, 0, 0, 0, 0, 0, 0, 0, 0, 0], "stateRewards": ["", -1, 3, 1, -7, 56, 76, 57, 3, 11, -9, 14, 1, -2, 2, 8, -77, -3, 79, -5, 88, 24, -66, -2, -1, 7, -7, -30, 14, -76, 11, -36, 28, -6], "withholdReward": false, "trial_id": "mdp_trial_10", "block": "test", "trialIndex": 15, "score": -33, "costs": 0, "simulationMode": [null, null, null, null, null], "rewards": [-2, -1, 7, -7, -30], "path": ["0", "0", "23", "24", "25", "26", "27"], "rt": [12516, 297, 400, 346, 349], "actions": ["left", "left", "left", "up", "up"], "actionTimes": [18174, 18978, 19896, 20742, 21611], "queries": {"click": {"state": {"target": [], "time": []}, "edge": {"target": [], "time": []}}, "mouseover": {"state": {"target": ["0", "0", "23"], "time": [9895, 11379, 12378]}, "edge": {"target": [], "time": []}}, "mouseout": {"state": {"target": ["0", "0", "0", "0", "23"], "time": [4729, 9681, 9945, 12312, 14162]}, "edge": {"target": [], "time": []}}}, "displayed_time": "22.11", "trialTime": 23003, "trial_type": "mouselab-mdp", "trial_index": 30, "time_elapsed": 1564206, "internal_node_id": "0.0-6.0-1.0-9.0"}}, {"uniqueid": "w43871272:a22055986", "current_trial": 31, "dateTime": 1693482472212, "trialdata": {"revealed_states": [], "clicked_states": [], "num_clicks_accrued": [0, 0, 0, 0, 0, 0, 0, 0, 0, 0, 0, 0, 0], "stateRewards": ["", -2, -3, 8, -4, -30, 31, 69, 9, 66, 87, 64, -2, 2, 8, 5, 47, 16, -39, -8, -54, 51, -19, 1, -2, -2, -11, -25, -26, 43, -9, 19, -84, 86], "withholdReward": false, "trial_id": "mdp_trial_11", "block": "test", "trialIndex": 16, "score": -26, "costs": 0, "simulationMode": [null, null, null, null, null], "rewards": [-2, 2, 8, 5, -39], "path": ["0", "0", "12", "13", "14", "15", "18"], "rt": [4695, 3037, 263, 1289, 69], "actions": ["right", "right", "right", "up", "left"], "actionTimes": [8912, 12467, 13246, 15036, 15618], "queries": {"click": {"state": {"target": [], "time": []}, "edge": {"target": [], "time": []}}, "mouseover": {"state": {"target": ["0", "1"], "time": [4547, 7813]}, "edge": {"target": [], "time": []}}, "mouseout": {"state": {"target": ["0", "0"], "time": [3461, 7382]}, "edge": {"target": [], "time": []}}}, "displayed_time": "18.22", "trialTime": 19186, "trial_type": "mouselab-mdp", "trial_index": 31, "time_elapsed": 1583638, "internal_node_id": "0.0-6.0-1.0-10.0"}}, {"uniqueid": "w43871272:a22055986", "current_trial": 32, "dateTime": 1693482489204, "trialdata": {"revealed_states": [], "clicked_states": [], "num_clicks_accrued": [0, 0, 0, 0, 0, 0, 0, 0, 0, 0, 0, 0, 0], "stateRewards": ["", 1, -3, -2, 14, 49, -40, -39, 2, 26, -61, 73, 1, -4, -8, 12, 79, 29, -65, -13, 55, -26, 27, -1, 3, 3, 9, -17, -60, -18, -8, 35, -88, 69], "withholdReward": false, "trial_id": "mdp_trial_12", "block": "test", "trialIndex": 17, "score": -63, "costs": 0, "simulationMode": [null, null, null, null, null], "rewards": [1, -3, -2, 2, -61], "path": ["0", "0", "1", "2", "3", "8", "10"], "rt": [1129, 292, 270, 1161, 462], "actions": ["up", "up", "up", "left", "down"], "actionTimes": [2846, 3652, 4432, 6109, 7107], "queries": {"click": {"state": {"target": [], "time": []}, "edge": {"target": [], "time": []}}, "mouseover": {"state": {"target": [], "time": []}, "edge": {"target": [], "time": []}}, "mouseout": {"state": {"target": ["1"], "time": [821]}, "edge": {"target": [], "time": []}}}, "displayed_time": "15.72", "trialTime": 16722, "trial_type": "mouselab-mdp", "trial_index": 32, "time_elapsed": 1600630, "internal_node_id": "0.0-6.0-1.0-11.0"}}, {"uniqueid": "w43871272:a22055986", "current_trial": 33, "dateTime": 1693482506732, "trialdata": {"revealed_states": [], "clicked_states": ["23", "12"], "num_clicks_accrued": [0, 0, 0, 0, 0, 0, 0, 0, 0, 0, 0, 0, 0], "stateRewards": ["", -1, 3, 1, -11, -22, -36, 19, -5, -70, -52, 50, -2, -4, 4, -2, -41, -83, 29, -2, 22, 10, -6, -2, 3, -2, 14, 54, 44, 77, -9, -65, -37, -40], "withholdReward": false, "trial_id": "mdp_trial_13", "block": "test", "trialIndex": 18, "score": 6.5, "costs": 0.5, "simulationMode": [null, null, null, null, null], "rewards": [-2, -4, 4, -2, 10], "path": ["0", "0", "12", "13", "14", "19", "21"], "rt": [6922, 664, 364, 521, 359], "actions": ["right", "right", "right", "down", "down"], "actionTimes": [8700, 9857, 10721, 11761, 12617], "queries": {"click": {"state": {"target": ["23", "12"], "time": [4071, 6604]}, "edge": {"target": [], "time": []}}, "mouseover": {"state": {"target": ["23", "12", "12"], "time": [3640, 5538, 6290]}, "edge": {"target": [], "time": []}}, "mouseout": {"state": {"target": ["0", "0", "0", "23", "12"], "time": [711, 756, 3607, 5171, 5668]}, "edge": {"target": [], "time": []}}}, "displayed_time": "15.78", "trialTime": 17267, "trial_type": "mouselab-mdp", "trial_index": 33, "time_elapsed": 1618158, "internal_node_id": "0.0-6.0-1.0-12.0"}}, {"uniqueid": "w43871272:a22055986", "current_trial": 34, "dateTime": 1693482523237, "trialdata": {"revealed_states": [], "clicked_states": ["1", "23", "24"], "num_clicks_accrued": [0, 0, 0, 0, 0, 0, 0, 0, 0, 0, 0, 0, 0], "stateRewards": ["", -2, 3, -1, -9, 44, 48, -37, -3, 71, -39, 87, -1, 3, -4, 4, -21, 59, -15, -8, -1, 28, -38, 2, 4, 4, 8, -85, -72, -63, 14, 58, 63, -46], "withholdReward": false, "trial_id": "mdp_trial_14", "block": "test", "trialIndex": 19, "score": -21.85, "costs": 0.15000000000000002, "simulationMode": [null, null, null, null, null], "rewards": [2, 4, 4, 14, -46], "path": ["0", "0", "23", "24", "25", "30", "33"], "rt": [5236, 352, 346, 628, 192], "actions": ["left", "left", "left", "down", "left"], "actionTimes": [6762, 7621, 8464, 9616, 10326], "queries": {"click": {"state": {"target": ["1", "23", "24"], "time": [2557, 3994, 4727]}, "edge": {"target": [], "time": []}}, "mouseover": {"state": {"target": ["1", "23", "24"], "time": [2101, 3717, 4353]}, "edge": {"target": [], "time": []}}, "mouseout": {"state": {"target": ["12", "1", "23"], "time": [782, 2933, 4335]}, "edge": {"target": [], "time": []}}}, "displayed_time": "15.53", "trialTime": 16215, "trial_type": "mouselab-mdp", "trial_index": 34, "time_elapsed": 1634663, "internal_node_id": "0.0-6.0-1.0-13.0"}}, {"uniqueid": "w43871272:a22055986", "current_trial": 35, "dateTime": 1693482540067, "trialdata": {"revealed_states": [], "clicked_states": ["1", "2", "8"], "num_clicks_accrued": [0, 0, 0, 0, 0, 0, 0, 0, 0, 0, 0, 0, 0], "stateRewards": ["", -1, -4, -1, -5, -28, -23, -15, -15, -38, 59, -87, 2, 2, -5, 9, -55, -39, -71, -6, 85, -85, -11, -1, -2, 5, -10, 1, 25, 41, -4, 69, -35, 86], "withholdReward": false, "trial_id": "mdp_trial_15", "block": "test", "trialIndex": 20, "score": 31.35, "costs": -1.65, "simulationMode": [null, null, null, null, null], "rewards": [-1, -2, 5, -10, 41], "path": ["0", "0", "23", "24", "25", "26", "29"], "rt": [5635, 334, 337, 973, 244], "actions": ["left", "left", "left", "up", "left"], "actionTimes": [7287, 8131, 8969, 10453, 11211], "queries": {"click": {"state": {"target": ["1", "2", "8"], "time": [2528, 3952, 5006]}, "edge": {"target": [], "time": []}}, "mouseover": {"state": {"target": ["1", "2", "2", "3", "8", "10", "0"], "time": [2095, 3096, 3643, 4263, 4596, 6013, 6592]}, "edge": {"target": [], "time": []}}, "mouseout": {"state": {"target": ["24", "23", "1", "2", "2", "3", "8", "10"], "time": [743, 942, 2752, 3112, 4245, 4462, 5961, 6044]}, "edge": {"target": [], "time": []}}}, "displayed_time": "15.65", "trialTime": 16507, "trial_type": "mouselab-mdp", "trial_index": 35, "time_elapsed": 1651494, "internal_node_id": "0.0-6.0-1.0-14.0"}}, {"uniqueid": "w43871272:a22055986", "current_trial": 36, "dateTime": 1693482556510, "trialdata": {"revealed_states": [], "clicked_states": ["13", "15", "18"], "num_clicks_accrued": [0, 0, 0, 0, 0, 0, 0, 0, 0, 0, 0, 0, 0], "stateRewards": ["", -2, 1, -8, 12, -65, -79, 16, 7, -80, -17, -45, -2, 2, -5, -2, -85, 23, -4, -7, 48, 27, -76, 2, 3, 5, 2, 43, 71, -13, 7, -49, 59, -31], "withholdReward": false, "trial_id": "mdp_trial_16", "block": "test", "trialIndex": 21, "score": -36.05, "costs": -4.05, "simulationMode": [null, null, null, null, null, null], "rewards": [2, 3, 5, 7, -49], "path": ["0", "0", "23", "24", "25", "30", "31"], "rt": [5859, 1691, 583, 397, 274, 290], "actions": ["left", "left", "left", "left", "down", "right"], "actionTimes": [7224, 8918, 9999, 10913, 11688, 12490], "queries": {"click": {"state": {"target": ["13", "15", "18"], "time": [3784, 4770, 5953]}, "edge": {"target": [], "time": []}}, "mouseover": {"state": {"target": ["0", "12", "13", "15", "15", "18", "23"], "time": [2398, 3149, 3361, 4130, 4432, 5296, 8397]}, "edge": {"target": [], "time": []}}, "mouseout": {"state": {"target": ["0", "0", "12", "13", "15", "15", "18"], "time": [1572, 3130, 3330, 4002, 4180, 5180, 6564]}, "edge": {"target": [], "time": []}}}, "displayed_time": "15.37", "trialTime": 16184, "trial_type": "mouselab-mdp", "trial_index": 36, "time_elapsed": 1667937, "internal_node_id": "0.0-6.0-1.0-15.0"}}, {"uniqueid": "w43871272:a22055986", "current_trial": 37, "dateTime": 1693482573622, "trialdata": {"revealed_states": [], "clicked_states": ["1", "2", "12"], "num_clicks_accrued": [0, 0, 0, 0, 0, 0, 0, 0, 0, 0, 0, 0, 0], "stateRewards": ["", -2, -4, 6, 14, -34, 49, 36, -8, -3, 32, -4, 1, -2, 1, -8, -20, -71, -57, -7, -86, -62, -16, -2, -3, -5, 11, 23, -21, 53, 5, -5, 85, 73], "withholdReward": false, "trial_id": "mdp_trial_17", "block": "test", "trialIndex": 22, "score": -22.85, "costs": 0.15000000000000002, "simulationMode": [null, null, null, null, null], "rewards": [1, -2, 1, -7, -16], "path": ["0", "0", "12", "13", "14", "19", "22"], "rt": [5570, 490, 254, 209, 346], "actions": ["right", "right", "right", "down", "left"], "actionTimes": [7588, 8582, 9348, 10070, 10921], "queries": {"click": {"state": {"target": ["1", "2", "12"], "time": [3571, 4736, 6118]}, "edge": {"target": [], "time": []}}, "mouseover": {"state": {"target": ["1", "2", "12"], "time": [3225, 4077, 5726]}, "edge": {"target": [], "time": []}}, "mouseout": {"state": {"target": ["23", "1", "2", "1"], "time": [1025, 3803, 5427, 5485]}, "edge": {"target": [], "time": []}}}, "displayed_time": "16.02", "trialTime": 16841, "trial_type": "mouselab-mdp", "trial_index": 37, "time_elapsed": 1685048, "internal_node_id": "0.0-6.0-1.0-16.0"}}, {"uniqueid": "w43871272:a22055986", "current_trial": 38, "dateTime": 1693482590571, "trialdata": {"revealed_states": [], "clicked_states": ["23", "24", "26", "27"], "num_clicks_accrued": [0, 0, 0, 0, 0, 0, 0, 0, 0, 0, 0, 0, 0], "stateRewards": ["", -2, -1, 3, -3, 71, -58, -21, 7, -10, -75, -37, 2, 4, -1, -12, -79, -29, -48, 3, -41, -10, -30, -1, -2, 1, -15, 13, 66, 22, -1, -42, -86, -55], "withholdReward": false, "trial_id": "mdp_trial_18", "block": "test", "trialIndex": 23, "score": -7.800000000000001, "costs": -3.8, "simulationMode": [null, null, null, null, null], "rewards": [-1, -2, 1, -15, 13], "path": ["0", "0", "23", "24", "25", "26", "27"], "rt": [7280, 377, 604, 1696, 217], "actions": ["left", "left", "left", "up", "up"], "actionTimes": [9063, 9951, 11077, 13286, 14022], "queries": {"click": {"state": {"target": ["23", "24", "26", "27"], "time": [2706, 3747, 4899, 5848]}, "edge": {"target": [], "time": []}}, "mouseover": {"state": {"target": ["23", "24", "26", "27", "29", "26", "28"], "time": [2454, 3389, 4556, 5506, 6722, 8124, 8171]}, "edge": {"target": [], "time": []}}, "mouseout": {"state": {"target": ["12", "23", "24", "26", "27", "29", "26", "28"], "time": [552, 2912, 3964, 5127, 6626, 8123, 8155, 8205]}, "edge": {"target": [], "time": []}}}, "displayed_time": "15.78", "trialTime": 16669, "trial_type": "mouselab-mdp", "trial_index": 38, "time_elapsed": 1701997, "internal_node_id": "0.0-6.0-1.0-17.0"}}, {"uniqueid": "w43871272:a22055986", "current_trial": 39, "dateTime": 1693482609769, "trialdata": {"revealed_states": [], "clicked_states": ["23", "31"], "num_clicks_accrued": [0, 0, 0, 0, 0, 0, 0, 0, 0, 0, 0, 0, 0], "stateRewards": ["", 2, 4, -6, -13, -75, -81, 30, 7, 5, 59, -65, -1, -1, 7, 14, -38, 36, -41, 1, -54, -5, 64, 2, -1, 5, 6, -19, 79, 11, 16, -33, -50, 58], "withholdReward": false, "trial_id": "mdp_trial_19", "block": "test", "trialIndex": 24, "score": -29.9, "costs": -1.9, "simulationMode": [null, null, null, null, null], "rewards": [2, -1, 5, 16, -50], "path": ["0", "0", "23", "24", "25", "30", "32"], "rt": [7081, 526, 427, 489, 367], "actions": ["left", "left", "left", "down", "down"], "actionTimes": [8537, 9583, 10519, 11528, 12410], "queries": {"click": {"state": {"target": ["23", "31"], "time": [3221, 4915]}, "edge": {"target": [], "time": []}}, "mouseover": {"state": {"target": ["0", "23", "23", "24", "31", "30", "25"], "time": [2171, 2208, 2614, 4060, 4471, 5474, 6340]}, "edge": {"target": [], "time": []}}, "mouseout": {"state": {"target": ["23", "0", "0", "23", "23", "24", "31", "30"], "time": [523, 755, 2189, 2479, 3757, 4321, 5440, 6324]}, "edge": {"target": [], "time": []}}}, "displayed_time": "15.46", "trialTime": 18937, "trial_type": "mouselab-mdp", "trial_index": 39, "time_elapsed": 1721195, "internal_node_id": "0.0-6.0-1.0-18.0"}}, {"uniqueid": "w43871272:a22055986", "current_trial": 40, "dateTime": 1693482626613, "trialdata": {"revealed_states": [], "clicked_states": ["1", "2", "8", "10"], "num_clicks_accrued": [0, 0, 0, 0, 0, 0, 0, 0, 0, 0, 0, 0, 0], "stateRewards": ["", 2, -1, 4, -9, -43, 7, 54, -13, 38, -40, -83, -1, 2, -8, -10, 34, -33, 11, -14, -79, 65, 26, 1, 2, 4, 10, 21, 1, 86, 4, -53, 28, -29], "withholdReward": false, "trial_id": "mdp_trial_20", "block": "test", "trialIndex": 25, "score": -50.8, "costs": -3.8, "simulationMode": [null, null, null, null, null], "rewards": [2, -1, 4, -9, -43], "path": ["0", "0", "1", "2", "3", "4", "5"], "rt": [7538, 232, 264, 241, 1135], "actions": ["up", "up", "up", "right", "up"], "actionTimes": [9042, 9797, 10561, 11324, 12952], "queries": {"click": {"state": {"target": ["1", "2", "8", "10"], "time": [2585, 3666, 5137, 6089]}, "edge": {"target": [], "time": []}}, "mouseover": {"state": {"target": ["1", "2", "10", "8", "10", "3"], "time": [2080, 3247, 4429, 4496, 5781, 6715]}, "edge": {"target": [], "time": []}}, "mouseout": {"state": {"target": ["25", "24", "1", "2", "10", "8", "10"], "time": [515, 578, 2982, 4229, 4479, 5731, 6632]}, "edge": {"target": [], "time": []}}}, "displayed_time": "15.51", "trialTime": 16537, "trial_type": "mouselab-mdp", "trial_index": 40, "time_elapsed": 1738039, "internal_node_id": "0.0-6.0-1.0-19.0"}}, {"uniqueid": "w43871272:a22055986", "current_trial": 41, "dateTime": 1693482643182, "trialdata": {"revealed_states": [], "clicked_states": ["13", "15"], "num_clicks_accrued": [0, 0, 0, 0, 0, 0, 0, 0, 0, 0, 0, 0, 0], "stateRewards": ["", -2, -1, -4, -15, -14, -67, 32, -3, -59, 63, 31, 2, -1, -7, -15, 71, -66, -27, -3, -54, -39, 72, 2, 1, 1, -13, 77, -40, 35, -9, 35, 75, 57], "withholdReward": false, "trial_id": "mdp_trial_21", "block": "test", "trialIndex": 26, "score": 48.1, "costs": -1.9, "simulationMode": [null, null, null, null, null], "rewards": [2, -1, -7, -15, 71], "path": ["0", "0", "12", "13", "14", "15", "16"], "rt": [3668, 534, 412, 1277, 249], "actions": ["right", "right", "right", "up", "up"], "actionTimes": [5017, 6053, 6966, 8765, 9535], "queries": {"click": {"state": {"target": ["13", "15"], "time": [2466, 3580]}, "edge": {"target": [], "time": []}}, "mouseover": {"state": {"target": ["13", "15"], "time": [1980, 3083]}, "edge": {"target": [], "time": []}}, "mouseout": {"state": {"target": ["3", "2", "1", "13"], "time": [581, 632, 732, 2686]}, "edge": {"target": [], "time": []}}}, "displayed_time": "15.35", "trialTime": 16275, "trial_type": "mouselab-mdp", "trial_index": 41, "time_elapsed": 1754608, "internal_node_id": "0.0-6.0-1.0-20.0"}}, {"uniqueid": "w43871272:a22055986", "current_trial": 42, "dateTime": 1693482660173, "trialdata": {"revealed_states": [], "clicked_states": [], "num_clicks_accrued": [0, 0, 0, 0, 0, 0, 0, 0, 0, 0, 0, 0, 0], "stateRewards": ["", -2, -3, 4, 1, 33, -53, 15, 9, -12, 61, -6, -2, 4, 6, -11, 47, -43, -7, -11, 46, 23, -28, -1, -1, 3, -10, 11, 76, -76, 10, 18, -38, 87], "withholdReward": false, "trial_id": "mdp_trial_22", "block": "test", "trialIndex": 27, "score": 20, "costs": 0, "simulationMode": [null, null, null, null, null], "rewards": [-2, 4, 6, -11, 23], "path": ["0", "0", "12", "13", "14", "19", "21"], "rt": [1612, 337, 390, 448, 391], "actions": ["right", "right", "right", "down", "down"], "actionTimes": [3908, 4748, 5631, 6574, 7487], "queries": {"click": {"state": {"target": [], "time": []}, "edge": {"target": [], "time": []}}, "mouseover": {"state": {"target": ["12"], "time": [3140]}, "edge": {"target": [], "time": []}}, "mouseout": {"state": {"target": ["15", "12"], "time": [1161, 3174]}, "edge": {"target": [], "time": []}}}, "displayed_time": "16.30", "trialTime": 16641, "trial_type": "mouselab-mdp", "trial_index": 42, "time_elapsed": 1771599, "internal_node_id": "0.0-6.0-1.0-21.0"}}, {"uniqueid": "w43871272:a22055986", "current_trial": 43, "dateTime": 1693482677033, "trialdata": {"revealed_states": [], "clicked_states": ["24", "1", "12"], "num_clicks_accrued": [0, 0, 0, 0, 0, 0, 0, 0, 0, 0, 0, 0, 0], "stateRewards": ["", -1, -1, 7, -15, -43, -21, -84, -9, -45, -66, 2, 1, -2, 2, 8, -27, 44, -52, -5, -84, 11, 53, 1, 4, -4, 16, 83, -82, -15, -16, 68, -43, 81], "withholdReward": false, "trial_id": "mdp_trial_23", "block": "test", "trialIndex": 28, "score": 7.15, "costs": 0.15000000000000002, "simulationMode": [null, null, null, null, null], "rewards": [1, -2, 2, -5, 11], "path": ["0", "0", "12", "13", "14", "19", "21"], "rt": [7643, 445, 308, 1295, 381], "actions": ["right", "right", "right", "down", "down"], "actionTimes": [9268, 10226, 11053, 12863, 13761], "queries": {"click": {"state": {"target": ["24", "1", "12"], "time": [3313, 5438, 7503]}, "edge": {"target": [], "time": []}}, "mouseover": {"state": {"target": ["23", "24", "23", "1", "12"], "time": [2379, 2862, 3947, 5028, 7129]}, "edge": {"target": [], "time": []}}, "mouseout": {"state": {"target": ["0", "0", "23", "24", "23", "1"], "time": [744, 2361, 2577, 3945, 3996, 6945]}, "edge": {"target": [], "time": []}}}, "displayed_time": "15.63", "trialTime": 16472, "trial_type": "mouselab-mdp", "trial_index": 43, "time_elapsed": 1788459, "internal_node_id": "0.0-6.0-1.0-22.0"}}, {"uniqueid": "w43871272:a22055986", "current_trial": 44, "dateTime": 1693482696293, "trialdata": {"revealed_states": [], "clicked_states": [], "num_clicks_accrued": [0, 0, 0, 0, 0, 0, 0, 0, 0, 0, 0, 0, 0], "stateRewards": ["", 2, 3, -3, 4, 72, -28, 34, -12, 57, -64, -15, 2, 1, -4, -15, 2, 49, 31, -1, -42, -58, 31, -2, 1, -2, -13, -75, -19, -22, -6, 61, 10, -56], "withholdReward": false, "trial_id": "mdp_trial_24", "block": "test", "trialIndex": 29, "score": -22, "costs": 0, "simulationMode": [null, null, null, null, null], "rewards": [2, 3, -3, 4, -28], "path": ["0", "0", "1", "2", "3", "4", "6"], "rt": [2893, 490, 431, 1626, 306], "actions": ["up", "up", "up", "right", "right"], "actionTimes": [4477, 5484, 6428, 8553, 9369], "queries": {"click": {"state": {"target": [], "time": []}, "edge": {"target": [], "time": []}}, "mouseover": {"state": {"target": ["0"], "time": [2143]}, "edge": {"target": [], "time": []}}, "mouseout": {"state": {"target": ["12", "0"], "time": [762, 2328]}, "edge": {"target": [], "time": []}}}, "displayed_time": "15.59", "trialTime": 18931, "trial_type": "mouselab-mdp", "trial_index": 44, "time_elapsed": 1807719, "internal_node_id": "0.0-6.0-1.0-23.0"}}, {"uniqueid": "w43871272:a22055986", "current_trial": 45, "dateTime": 1693482714723, "trialdata": {"revealed_states": [], "clicked_states": [], "num_clicks_accrued": [0, 0, 0, 0, 0, 0, 0, 0, 0, 0, 0, 0, 0], "stateRewards": ["", -2, 2, 3, -7, -31, -33, 29, -8, -57, 50, -83, -1, -1, 5, 13, -23, -62, 25, 5, -66, -85, 14, 1, -2, -1, 16, 71, 33, -19, -14, 5, -43, 79], "withholdReward": false, "trial_id": "mdp_trial_25", "block": "test", "trialIndex": 30, "score": -5, "costs": 0, "simulationMode": [null, null, null, null, null], "rewards": [1, -2, -1, 16, -19], "path": ["0", "0", "23", "24", "25", "26", "29"], "rt": [1257, 392, 249, 784, 392], "actions": ["left", "left", "left", "up", "left"], "actionTimes": [2842, 3738, 4497, 5796, 6689], "queries": {"click": {"state": {"target": [], "time": []}, "edge": {"target": [], "time": []}}, "mouseover": {"state": {"target": ["23"], "time": [1978]}, "edge": {"target": [], "time": []}}, "mouseout": {"state": {"target": ["0"], "time": [1945]}, "edge": {"target": [], "time": []}}}, "displayed_time": "15.59", "trialTime": 18097, "trial_type": "mouselab-mdp", "trial_index": 45, "time_elapsed": 1826149, "internal_node_id": "0.0-6.0-1.0-24.0"}}, {"uniqueid": "w43871272:a22055986", "current_trial": 46, "dateTime": 1693482733498, "trialdata": {"revealed_states": [], "clicked_states": ["1"], "num_clicks_accrued": [0, 0, 0, 0, 0, 0, 0, 0, 0, 0, 0, 0, 0], "stateRewards": ["", 1, 1, -5, 8, -6, 45, 16, -6, -7, -22, -38, -1, -4, 8, -11, -16, 21, -45, -15, -59, -32, 42, -1, 3, 6, 11, -7, 34, -27, -8, 85, 43, -9], "withholdReward": false, "trial_id": "mdp_trial_26", "block": "test", "trialIndex": 31, "score": -30.75, "costs": 0.25, "simulationMode": [null, null, null, null, null], "rewards": [1, 1, -5, -6, -22], "path": ["0", "0", "1", "2", "3", "8", "10"], "rt": [3801, 391, 366, 925, 1197], "actions": ["up", "up", "up", "left", "down"], "actionTimes": [5310, 6214, 7074, 8514, 10223], "queries": {"click": {"state": {"target": ["1"], "time": [3919]}, "edge": {"target": [], "time": []}}, "mouseover": {"state": {"target": ["1"], "time": [3389]}, "edge": {"target": [], "time": []}}, "mouseout": {"state": {"target": ["23", "0"], "time": [688, 2253]}, "edge": {"target": [], "time": []}}}, "displayed_time": "15.51", "trialTime": 18415, "trial_type": "mouselab-mdp", "trial_index": 46, "time_elapsed": 1844924, "internal_node_id": "0.0-6.0-1.0-25.0"}}, {"uniqueid": "w43871272:a22055986", "current_trial": 47, "dateTime": 1693482751963, "trialdata": {"revealed_states": [], "clicked_states": ["12", "18"], "num_clicks_accrued": [0, 0, 0, 0, 0, 0, 0, 0, 0, 0, 0, 0, 0], "stateRewards": ["", -1, -3, -6, -2, -7, 80, -45, -3, -38, -72, 76, 2, 1, 7, 4, -62, 14, -74, 14, -87, -21, -88, -2, 1, -7, -10, 66, 56, -76, 10, -29, -72, -70], "withholdReward": false, "trial_id": "mdp_trial_27", "block": "test", "trialIndex": 32, "score": 1.1000000000000014, "costs": -1.9, "simulationMode": [null, null, null, null, null], "rewards": [2, 1, 7, 14, -21], "path": ["0", "0", "12", "13", "14", "19", "21"], "rt": [6349, 496, 558, 206, 422], "actions": ["right", "right", "right", "down", "down"], "actionTimes": [7736, 8744, 9820, 10520, 11452], "queries": {"click": {"state": {"target": ["12", "18"], "time": [2454, 4369]}, "edge": {"target": [], "time": []}}, "mouseover": {"state": {"target": ["12", "13", "18", "13"], "time": [2177, 3741, 3808, 5978]}, "edge": {"target": [], "time": []}}, "mouseout": {"state": {"target": ["1", "0", "12", "13", "18", "12"], "time": [727, 1898, 2677, 3761, 4977, 5695]}, "edge": {"target": [], "time": []}}}, "displayed_time": "15.39", "trialTime": 18085, "trial_type": "mouselab-mdp", "trial_index": 47, "time_elapsed": 1863389, "internal_node_id": "0.0-6.0-1.0-26.0"}}, {"uniqueid": "w43871272:a22055986", "current_trial": 48, "dateTime": 1693482774149, "trialdata": {"revealed_states": [], "clicked_states": [], "num_clicks_accrued": [0, 0, 0, 0, 0, 0, 0, 0, 0, 0, 0, 0, 0], "stateRewards": ["", -2, 4, -7, -3, -76, 39, -28, 10, 14, 12, 60, 2, -3, 6, -10, 88, -34, -41, -3, 72, -13, -56, 1, 3, 2, 8, -51, 23, -57, 1, 14, -46, -16], "withholdReward": false, "trial_id": "mdp_trial_28", "block": "test", "trialIndex": 33, "score": -39, "costs": 0, "simulationMode": [null, null, null, null, null], "rewards": [1, 3, 2, 1, -46], "path": ["0", "0", "23", "24", "25", "30", "32"], "rt": [1373, 695, 509, 283, 232], "actions": ["left", "left", "left", "down", "down"], "actionTimes": [3014, 4220, 5248, 6041, 6777], "queries": {"click": {"state": {"target": [], "time": []}, "edge": {"target": [], "time": []}}, "mouseover": {"state": {"target": [], "time": []}, "edge": {"target": [], "time": []}}, "mouseout": {"state": {"target": ["13", "12"], "time": [868, 952]}, "edge": {"target": [], "time": []}}}, "displayed_time": "15.64", "trialTime": 21816, "trial_type": "mouselab-mdp", "trial_index": 48, "time_elapsed": 1885575, "internal_node_id": "0.0-6.0-1.0-27.0"}}, {"uniqueid": "w43871272:a22055986", "current_trial": 49, "dateTime": 1693482790833, "trialdata": {"revealed_states": [], "clicked_states": [], "num_clicks_accrued": [0, 0, 0, 0, 0, 0, 0, 0, 0, 0, 0, 0, 0], "stateRewards": ["", 1, 1, -3, 2, 22, -25, -11, -5, 50, 49, 3, 1, -1, 8, 14, -85, -30, 57, -6, -39, -16, 59, -2, -1, 5, 5, 59, -16, 8, 4, 67, 56, -9], "withholdReward": false, "trial_id": "mdp_trial_29", "block": "test", "trialIndex": 34, "score": -10, "costs": 0, "simulationMode": [null, null, null, null, null], "rewards": [1, 1, -3, 2, -11], "path": ["0", "0", "1", "2", "3", "4", "7"], "rt": [1130, 279, 341, 716, 25], "actions": ["up", "up", "up", "right", "down"], "actionTimes": [2557, 3356, 4200, 5405, 5949], "queries": {"click": {"state": {"target": [], "time": []}, "edge": {"target": [], "time": []}}, "mouseover": {"state": {"target": [], "time": []}, "edge": {"target": [], "time": []}}, "mouseout": {"state": {"target": ["0", "0"], "time": [885, 1920]}, "edge": {"target": [], "time": []}}}, "displayed_time": "15.43", "trialTime": 16317, "trial_type": "mouselab-mdp", "trial_index": 49, "time_elapsed": 1902260, "internal_node_id": "0.0-6.0-1.0-28.0"}}, {"uniqueid": "w43871272:a22055986", "current_trial": 50, "dateTime": 1693482809313, "trialdata": {"revealed_states": [], "clicked_states": ["12"], "num_clicks_accrued": [0, 0, 0, 0, 0, 0, 0, 0, 0, 0, 0, 0, 0], "stateRewards": ["", -2, 3, 3, -14, 62, 36, 49, 16, 11, 17, -84, 2, -1, 6, 2, -82, -73, 49, -6, -87, 48, 50, -1, -2, -1, -16, -11, 37, -44, 4, 55, 73, -10], "withholdReward": false, "trial_id": "mdp_trial_30", "block": "test", "trialIndex": 35, "score": -85.75, "costs": 0.25, "simulationMode": [null, null, null, null, null], "rewards": [2, -1, 6, -6, -87], "path": ["0", "0", "12", "13", "14", "19", "20"], "rt": [2284, 337, 291, 314, 211], "actions": ["right", "right", "right", "down", "right"], "actionTimes": [3658, 4484, 5270, 6096, 6824], "queries": {"click": {"state": {"target": ["12"], "time": [2427]}, "edge": {"target": [], "time": []}}, "mouseover": {"state": {"target": ["12"], "time": [2012]}, "edge": {"target": [], "time": []}}, "mouseout": {"state": {"target": ["0", "0"], "time": [528, 1746]}, "edge": {"target": [], "time": []}}}, "displayed_time": "15.38", "trialTime": 18122, "trial_type": "mouselab-mdp", "trial_index": 50, "time_elapsed": 1920740, "internal_node_id": "0.0-6.0-1.0-29.0"}}, {"uniqueid": "w43871272:a22055986", "current_trial": 51, "dateTime": 1693482826552, "trialdata": {"revealed_states": [], "clicked_states": ["1"], "num_clicks_accrued": [0, 0, 0, 0, 0, 0, 0, 0, 0, 0, 0, 0, 0], "stateRewards": ["", -1, 2, -7, -12, -62, 12, -13, 5, 77, -71, 83, 1, -4, 7, 15, -42, -87, -4, 5, -25, 44, 88, -1, 4, -5, -8, 14, 51, 8, -5, 83, -24, -19], "withholdReward": false, "trial_id": "mdp_trial_31", "block": "test", "trialIndex": 36, "score": -71.75, "costs": 0.25, "simulationMode": [null, null, null, null, null], "rewards": [-1, 2, -7, 5, -71], "path": ["0", "0", "1", "2", "3", "8", "10"], "rt": [3180, 458, 356, 215, 335], "actions": ["up", "up", "up", "left", "down"], "actionTimes": [4658, 5634, 6484, 7192, 8044], "queries": {"click": {"state": {"target": ["1"], "time": [2868]}, "edge": {"target": [], "time": []}}, "mouseover": {"state": {"target": ["1"], "time": [2172]}, "edge": {"target": [], "time": []}}, "mouseout": {"state": {"target": ["12", "0"], "time": [623, 2041]}, "edge": {"target": [], "time": []}}}, "displayed_time": "15.48", "trialTime": 16856, "trial_type": "mouselab-mdp", "trial_index": 51, "time_elapsed": 1937978, "internal_node_id": "0.0-6.0-1.0-30.0"}}, {"uniqueid": "w43871272:a22055986", "current_trial": 52, "dateTime": 1693482843236, "trialdata": {"revealed_states": [], "clicked_states": ["3", "4", "7"], "num_clicks_accrued": [0, 0, 0, 0, 0, 0, 0, 0, 0, 0, 0, 0, 0], "stateRewards": ["", -2, 1, -7, -8, -37, -76, -87, 11, 30, -63, 80, -1, 4, 2, -1, 42, 17, 52, -3, -75, -80, -68, 2, -3, -5, -15, -48, 82, 24, -7, 5, -22, -71], "withholdReward": false, "trial_id": "mdp_trial_32", "block": "test", "trialIndex": 37, "score": -1.6499999999999986, "costs": -4.65, "simulationMode": [null, null, null, null, null, null], "rewards": [2, -3, -5, -15, 24], "path": ["0", "0", "23", "24", "25", "26", "29"], "rt": [4856, 2251, 439, 310, 180, 35], "actions": ["left", "left", "left", "left", "up", "left"], "actionTimes": [6171, 8424, 9372, 10194, 10894, 11449], "queries": {"click": {"state": {"target": ["3", "4", "7"], "time": [2729, 3539, 5232]}, "edge": {"target": [], "time": []}}, "mouseover": {"state": {"target": ["1", "2", "3", "4", "7", "0"], "time": [1747, 1782, 2414, 3232, 4954, 7364]}, "edge": {"target": [], "time": []}}, "mouseout": {"state": {"target": ["1", "1", "2", "3", "4", "4", "7"], "time": [596, 1764, 1862, 3215, 3754, 4171, 6898]}, "edge": {"target": [], "time": []}}}, "displayed_time": "15.32", "trialTime": 16311, "trial_type": "mouselab-mdp", "trial_index": 52, "time_elapsed": 1954662, "internal_node_id": "0.0-6.0-1.0-31.0"}}, {"uniqueid": "w43871272:a22055986", "current_trial": 53, "dateTime": 1693482862006, "trialdata": {"revealed_states": [], "clicked_states": ["1"], "num_clicks_accrued": [0, 0, 0, 0, 0, 0, 0, 0, 0, 0, 0, 0, 0], "stateRewards": ["", -1, 4, -3, 3, 57, -61, 5, -11, 23, -1, 34, -2, -4, -1, -13, 27, 38, -36, 4, -45, 21, 88, 1, -2, -1, 1, -69, -5, -78, -12, -9, 38, -54], "withholdReward": false, "trial_id": "mdp_trial_33", "block": "test", "trialIndex": 38, "score": 12.25, "costs": 0.25, "simulationMode": [null, null, null, null, null], "rewards": [-1, 4, -3, -11, 23], "path": ["0", "0", "1", "2", "3", "8", "9"], "rt": [3957, 317, 413, 172, 147], "actions": ["up", "up", "up", "left", "up"], "actionTimes": [6548, 7382, 8295, 8987, 9647], "queries": {"click": {"state": {"target": ["1"], "time": [4804]}, "edge": {"target": [], "time": []}}, "mouseover": {"state": {"target": ["23", "1"], "time": [3482, 4481]}, "edge": {"target": [], "time": []}}, "mouseout": {"state": {"target": ["0", "23", "1"], "time": [1521, 3998, 5548]}, "edge": {"target": [], "time": []}}}, "displayed_time": "16.59", "trialTime": 18432, "trial_type": "mouselab-mdp", "trial_index": 53, "time_elapsed": 1973432, "internal_node_id": "0.0-6.0-1.0-32.0"}}, {"uniqueid": "w43871272:a22055986", "current_trial": 54, "dateTime": 1693482879151, "trialdata": {"revealed_states": [], "clicked_states": ["1", "23"], "num_clicks_accrued": [0, 0, 0, 0, 0, 0, 0, 0, 0, 0, 0, 0, 0], "stateRewards": ["", -1, 3, -7, 16, -32, -74, -48, 2, 10, 15, -30, 1, 1, -2, 10, 12, -83, 67, 13, -66, 47, 65, -2, 4, 2, -14, -8, -57, 24, 9, 65, 12, 46], "withholdReward": false, "trial_id": "mdp_trial_34", "block": "test", "trialIndex": 39, "score": -17.5, "costs": 0.5, "simulationMode": [null, null, null, null, null], "rewards": [-2, 4, 2, -14, -8], "path": ["0", "0", "23", "24", "25", "26", "27"], "rt": [3881, 347, 358, 1257, 284], "actions": ["left", "left", "left", "up", "up"], "actionTimes": [5525, 6374, 7253, 9017, 9812], "queries": {"click": {"state": {"target": ["1", "23"], "time": [2720, 3918]}, "edge": {"target": [], "time": []}}, "mouseover": {"state": {"target": ["1", "23"], "time": [2309, 3427]}, "edge": {"target": [], "time": []}}, "mouseout": {"state": {"target": ["0", "1"], "time": [2193, 3361]}, "edge": {"target": [], "time": []}}}, "displayed_time": "15.64", "trialTime": 16805, "trial_type": "mouselab-mdp", "trial_index": 54, "time_elapsed": 1990577, "internal_node_id": "0.0-6.0-1.0-33.0"}}, {"uniqueid": "w43871272:a22055986", "current_trial": 55, "dateTime": 1693482897502, "trialdata": {"revealed_states": [], "clicked_states": [], "num_clicks_accrued": [0, 0, 0, 0, 0, 0, 0, 0, 0, 0, 0, 0, 0], "stateRewards": ["", -2, 2, 2, -6, 9, 37, 50, -13, -7, -18, -75, -2, -4, 4, 7, 23, -57, -66, -7, -81, -48, -76, 1, 1, -8, 1, 51, -2, 70, 14, 59, 71, -37], "withholdReward": false, "trial_id": "mdp_trial_35", "block": "test", "trialIndex": 40, "score": -52, "costs": 0, "simulationMode": [null, null, null, null, null], "rewards": [-2, -4, 4, 7, -57], "path": ["0", "0", "12", "13", "14", "15", "17"], "rt": [966, 324, 235, 223, 41], "actions": ["right", "right", "right", "up", "right"], "actionTimes": [2396, 3216, 3957, 4696, 5251], "queries": {"click": {"state": {"target": [], "time": []}, "edge": {"target": [], "time": []}}, "mouseover": {"state": {"target": [], "time": []}, "edge": {"target": [], "time": []}}, "mouseout": {"state": {"target": ["23"], "time": [686]}, "edge": {"target": [], "time": []}}}, "displayed_time": "15.43", "trialTime": 17969, "trial_type": "mouselab-mdp", "trial_index": 55, "time_elapsed": 2008929, "internal_node_id": "0.0-6.0-1.0-34.0"}}, {"uniqueid": "w43871272:a22055986", "current_trial": 56, "dateTime": 1693482913314, "trialdata": {"revealed_states": [], "clicked_states": ["13"], "num_clicks_accrued": [0, 0, 0, 0, 0, 0, 0, 0, 0, 0, 0, 0, 0], "stateRewards": ["", 1, -1, -7, -7, -22, 15, -13, 13, 26, -32, 38, -1, 1, -7, -4, 16, -62, 86, 12, -54, 56, 64, -2, -1, 6, 14, -57, 37, 62, -6, -25, 50, -70], "withholdReward": false, "trial_id": "mdp_trial_36", "block": "test", "trialIndex": 41, "score": 60.65, "costs": -0.35, "simulationMode": [null, null, null, null, null], "rewards": [-1, 1, -7, 12, 56], "path": ["0", "0", "12", "13", "14", "19", "21"], "rt": [3134, 552, 492, 363, 359], "actions": ["right", "right", "right", "down", "down"], "actionTimes": [3967, 5020, 6025, 6878, 7756], "queries": {"click": {"state": {"target": ["13"], "time": [2811]}, "edge": {"target": [], "time": []}}, "mouseover": {"state": {"target": ["12", "13", "13"], "time": [1598, 1866, 2464]}, "edge": {"target": [], "time": []}}, "mouseout": {"state": {"target": ["0", "12", "13", "13"], "time": [604, 1831, 1979, 3021]}, "edge": {"target": [], "time": []}}}, "displayed_time": "14.84", "trialTime": 15440, "trial_type": "mouselab-mdp", "trial_index": 56, "time_elapsed": 2024740, "internal_node_id": "0.0-6.0-1.0-35.0"}}, {"uniqueid": "w43871272:a22055986", "current_trial": 57, "dateTime": 1693482929955, "trialdata": {"revealed_states": [], "clicked_states": [], "num_clicks_accrued": [0, 0, 0, 0, 0, 0, 0, 0, 0, 0, 0, 0, 0], "stateRewards": ["", -2, 2, -4, -4, -59, 88, 62, -3, 69, -15, -34, 1, -2, -5, 7, -54, -20, 78, -16, -74, -53, -21, 2, -4, 2, 13, -8, -44, 26, 9, 72, 4, 17], "withholdReward": false, "trial_id": "mdp_trial_37", "block": "test", "trialIndex": 42, "score": -75, "costs": 0, "simulationMode": [null, null, null, null, null], "rewards": [1, -2, -5, -16, -53], "path": ["0", "0", "12", "13", "14", "19", "21"], "rt": [971, 524, 465, 913, 242], "actions": ["right", "right", "right", "down", "down"], "actionTimes": [2198, 3216, 4190, 5622, 6381], "queries": {"click": {"state": {"target": [], "time": []}, "edge": {"target": [], "time": []}}, "mouseover": {"state": {"target": [], "time": []}, "edge": {"target": [], "time": []}}, "mouseout": {"state": {"target": ["13", "12"], "time": [372, 505]}, "edge": {"target": [], "time": []}}}, "displayed_time": "15.23", "trialTime": 16273, "trial_type": "mouselab-mdp", "trial_index": 57, "time_elapsed": 2041381, "internal_node_id": "0.0-6.0-1.0-36.0"}}, {"uniqueid": "w43871272:a22055986", "current_trial": 58, "dateTime": 1693482947017, "trialdata": {"revealed_states": [], "clicked_states": ["23"], "num_clicks_accrued": [0, 0, 0, 0, 0, 0, 0, 0, 0, 0, 0, 0, 0], "stateRewards": ["", 1, 2, 2, -15, -84, 28, -26, 13, 31, 86, 30, -2, 1, -1, -8, 66, -40, -1, -10, -32, 57, -17, 1, 2, -2, 9, -23, 77, 85, 12, -32, -62, -35], "withholdReward": false, "trial_id": "mdp_trial_38", "block": "test", "trialIndex": 43, "score": -21.75, "costs": 0.25, "simulationMode": [null, null, null, null, null], "rewards": [1, 2, -2, 12, -35], "path": ["0", "0", "23", "24", "25", "30", "33"], "rt": [1966, 273, 248, 85, 183], "actions": ["left", "left", "left", "down", "left"], "actionTimes": [2950, 3736, 4478, 5063, 5744], "queries": {"click": {"state": {"target": ["23"], "time": [2233]}, "edge": {"target": [], "time": []}}, "mouseover": {"state": {"target": ["23"], "time": [1894]}, "edge": {"target": [], "time": []}}, "mouseout": {"state": {"target": ["0"], "time": [760]}, "edge": {"target": [], "time": []}}}, "displayed_time": "14.98", "trialTime": 16690, "trial_type": "mouselab-mdp", "trial_index": 58, "time_elapsed": 2058443, "internal_node_id": "0.0-6.0-1.0-37.0"}}, {"uniqueid": "w43871272:a22055986", "current_trial": 59, "dateTime": 1693482963592, "trialdata": {"revealed_states": [], "clicked_states": ["25", "26", "29"], "num_clicks_accrued": [0, 0, 0, 0, 0, 0, 0, 0, 0, 0, 0, 0, 0], "stateRewards": ["", 2, -1, -3, 16, -3, -16, -62, -1, 13, -26, 43, -1, 4, 3, -9, -54, -37, -3, -12, -71, -68, -57, 1, -3, 2, -9, 2, -2, -9, -11, 84, -52, 55], "withholdReward": false, "trial_id": "mdp_trial_39", "block": "test", "trialIndex": 44, "score": -67.65, "costs": -4.65, "simulationMode": [null, null, null, null, null, null], "rewards": [1, -3, 2, -11, -52], "path": ["0", "0", "23", "24", "25", "30", "32"], "rt": [4823, 697, 452, 394, 691, 431], "actions": ["left", "left", "left", "left", "down", "down"], "actionTimes": [6164, 6864, 7847, 8771, 9985, 10908], "queries": {"click": {"state": {"target": ["25", "26", "29"], "time": [2268, 3511, 5355]}, "edge": {"target": [], "time": []}}, "mouseover": {"state": {"target": ["23", "24", "25", "26", "26", "29"], "time": [1642, 1710, 1959, 2876, 3211, 5042]}, "edge": {"target": [], "time": []}}, "mouseout": {"state": {"target": ["23", "0", "23", "24", "25", "26", "26"], "time": [808, 1608, 1690, 1741, 2860, 2893, 4113]}, "edge": {"target": [], "time": []}}}, "displayed_time": "15.34", "trialTime": 16147, "trial_type": "mouselab-mdp", "trial_index": 59, "time_elapsed": 2075019, "internal_node_id": "0.0-6.0-1.0-38.0"}}, {"uniqueid": "w43871272:a22055986", "current_trial": 60, "dateTime": 1693482982524, "trialdata": {"revealed_states": [], "clicked_states": ["31", "26", "27"], "num_clicks_accrued": [0, 0, 0, 0, 0, 0, 0, 0, 0, 0, 0, 0, 0], "stateRewards": ["", 2, -1, -2, -5, -47, -57, -33, -11, 31, -18, -72, -2, 1, -4, -8, -46, -53, -50, 15, -85, -9, 39, -2, -2, 1, 14, -1, -8, 53, -12, -41, -74, 62], "withholdReward": false, "trial_id": "mdp_trial_40", "block": "test", "trialIndex": 45, "score": -2.8499999999999996, "costs": -5.85, "simulationMode": [null, null, null, null, null, null], "rewards": [-2, -2, 1, 14, -8], "path": ["0", "0", "23", "24", "25", "26", "28"], "rt": [7125, 3646, 581, 311, 330, 591], "actions": ["left", "left", "left", "left", "up", "right"], "actionTimes": [8652, 12300, 13392, 14204, 15040, 16150], "queries": {"click": {"state": {"target": ["31", "26", "27"], "time": [2485, 5392, 6429]}, "edge": {"target": [], "time": []}}, "mouseover": {"state": {"target": ["23", "31", "24", "28", "26", "27"], "time": [1641, 2111, 3893, 4860, 5010, 5909]}, "edge": {"target": [], "time": []}}, "mouseout": {"state": {"target": ["29", "28", "23", "23", "31", "24", "28", "26", "27"], "time": [408, 608, 906, 1690, 3027, 4792, 4960, 5601, 7259]}, "edge": {"target": [], "time": []}}}, "displayed_time": "16.66", "trialTime": 18495, "trial_type": "mouselab-mdp", "trial_index": 60, "time_elapsed": 2093950, "internal_node_id": "0.0-6.0-1.0-39.0"}}, {"uniqueid": "w43871272:a22055986", "current_trial": 61, "dateTime": 1693483050114, "trialdata": {"rt": 67579, "response": {"Q0": "$-2 to $2", "Q1": "$-4 to $4", "Q2": "$-16 to $16", "Q3": "The cost for clicking on nodes varied between nodes.", "Q4": "Neither motivated nor unmotivated"}, "question_order": [0, 1, 2, 3, 4], "trial_id": "final_quiz_control", "trial_type": "survey-multi-choice", "trial_index": 61, "time_elapsed": 2161541, "internal_node_id": "0.0-6.0-2.0"}}, {"uniqueid": "w43871272:a22055986", "current_trial": 62, "dateTime": 1693483169443, "trialdata": {"rt": 119315, "response": {"Q0": "no because i thought i should change the way every round but it did not work", "Q1": "no i did not", "Q2": "very difficult because every time i clicked on the nodes i would get a negative number"}, "trial_id": "self_report_control", "trial_type": "survey-text", "trial_index": 62, "time_elapsed": 2280870, "internal_node_id": "0.0-6.0-3.0"}}, {"uniqueid": "w43871272:a22055986", "current_trial": 63, "dateTime": 1693483227884, "trialdata": {"rt": 58432, "response": {"Q0": "Agree", "Q1": "Agree", "Q2": "Disagree", "Q3": "Neither disagree nor agree", "Q4": "Neither disagree nor agree", "Q5": "Neither disagree nor agree", "Q6": "Neither disagree nor agree"}, "question_order": [0, 1, 2, 3, 4, 5, 6], "trial_id": "self_report_2", "trial_type": "survey-multi-choice", "trial_index": 63, "time_elapsed": 2339310, "internal_node_id": "0.0-6.0-4.0"}}, {"uniqueid": "w43871272:a22055986", "current_trial": 64, "dateTime": 1693483267586, "trialdata": {"rt": 39686, "response": {"gender": "female", "age": "21", "colorblind": "0", "effort": "2"}, "trial_type": "survey-html-form", "trial_index": 64, "time_elapsed": 2379013, "internal_node_id": "0.0-6.0-5.0"}}, {"uniqueid": "w43871272:a22055986", "current_trial": 65, "dateTime": 1693483296584, "trialdata": {"rt": 28986, "response": {"Q0": "no", "Q1": "no", "Q2": ""}, "trial_type": "survey-text", "trial_index": 65, "time_elapsed": 2408011, "internal_node_id": "0.0-6.0-6.0"}}, {"uniqueid": "w43871272:a22055986", "current_trial": 66, "dateTime": 1693483311526, "trialdata": {"rt": 14930, "stimulus": "<h1>Completion Code Instructions (1/2)</h1>\n<br><br><br><br>\nYou have reached the end of the experiment! The completion code consists of two parts: (1) a code with 2 characters (2) a code with 6 characters. On this page, you will receive the second part of the code. The first part of the completion code will be on the next page.\n<br><br>\nThe second part of your completion code is: <b>EWEK22</b>\n<br><br>\nPlease note this down. Then, press 'Finish HIT' in order to find the first part of your completion code. Once the data has been saved, you will receive this code either in this window or in the original browser window where you started the experiment.\n", "response": 0, "trial_type": "html-button-response", "trial_index": 66, "time_elapsed": 2422952, "internal_node_id": "0.0-6.0-7.0"}}, {"uniqueid": "w43871272:a22055986", "current_trial": 67, "dateTime": 1693483312535, "trialdata": {"success": true, "trial_type": "fullscreen", "trial_index": 67, "time_elapsed": 2423961, "internal_node_id": "0.0-7.0"}}], "questiondata": {"params": {"CODE": "C6DMOQA6", "MIN_TIME": 14, "inspectCost": 1, "startTime": "Thu Aug 31 2023 13:21:23 GMT+0200 (South Africa Standard Time)", "bonusRate": 0.002, "variance": "1_2_4_8_44", "branching": "31123"}, "final_score": -628.95}, "eventdata": [{"eventtype": "initialized", "value": null, "timestamp": 1693480883319, "interval": 0}, {"eventtype": "window_resize", "value": [1028, 744], "timestamp": 1693480883319, "interval": 0}, {"eventtype": "window_resize", "value": [1028, 744], "timestamp": 1693480883839, "interval": 520}, {"eventtype": "window_resize", "value": [1536, 864], "timestamp": 1693480897266, "interval": 13427}, {"eventtype": "focus", "value": "off", "timestamp": 1693481449823, "interval": 552557}, {"eventtype": "focus", "value": "on", "timestamp": 1693481449823, "interval": 0}, {"eventtype": "window_resize", "value": [1028, 744], "timestamp": 1693481450034, "interval": 211}, {"eventtype": "window_resize", "value": [1536, 864], "timestamp": 1693481452270, "interval": 2236}, {"eventtype": "focus", "value": "off", "timestamp": 1693481872174, "interval": 419904}, {"eventtype": "focus", "value": "on", "timestamp": 1693481872174, "interval": 0}, {"eventtype": "window_resize", "value": [1028, 744], "timestamp": 1693481872394, "interval": 220}, {"eventtype": "window_resize", "value": [1536, 864], "timestamp": 1693481874395, "interval": 2001}, {"eventtype": "window_resize", "value": [1028, 744], "timestamp": 1693483311804, "interval": 1437409}], "useragent": "Mozilla/5.0 (Windows NT 10.0; Win64; x64) AppleWebKit/537.36 (KHTML, like Gecko) Chrome/116.0.0.0 Safari/537.36", "mode": "live", "id": "w43871272:a22055986", "status": "user data saved", "Beginhit": "2023-08-31 11:21:18.424898", "Beginexp": "2023-08-31 11:21:38.813865", "Endhit": "2023-08-31 12:01:54.972491", "psiturkStatus": 3, "browser": "<redacted>", "platform": "windows", "language": "en-ZA", "excludeReason": "noeffort"}