{"condition": 1, "counterbalance": 0, "assignmentId": "a70484258", "workerId": "w71015330", "hitId": "h58481706", "currenttrial": 56, "bonus": 0, "data": [{"uniqueid": "w71015330:a70484258", "current_trial": 0, "dateTime": 1693580294351, "trialdata": {"success": true, "trial_type": "fullscreen", "trial_index": 0, "time_elapsed": 10332, "internal_node_id": "0.0-0.0"}}, {"uniqueid": "w71015330:a70484258", "current_trial": 1, "dateTime": 1693580315641, "trialdata": {"view_history": [{"page_index": 0, "viewing_time": 21260}], "rt": 21262, "trial_id": "exp_instructions_misaligned", "trial_type": "instructions", "trial_index": 1, "time_elapsed": 31623, "internal_node_id": "0.0-1.0"}}, {"uniqueid": "w71015330:a70484258", "current_trial": 2, "dateTime": 1693580733430, "trialdata": {"view_history": [{"page_index": 0, "viewing_time": 136576}, {"page_index": 1, "viewing_time": 148389}, {"page_index": 2, "viewing_time": 34937}, {"page_index": 3, "viewing_time": 97879}], "rt": 417781, "trial_id": "mouselab_instructions_1_misaligned", "trial_type": "instructions", "trial_index": 2, "time_elapsed": 449412, "internal_node_id": "0.0-2.0-1.0"}}, {"uniqueid": "w71015330:a70484258", "current_trial": 3, "dateTime": 1693580767358, "trialdata": {"revealed_states": [], "clicked_states": [], "num_clicks_accrued": [0, 0, 0, 0, 0, 0, 0, 0, 0, 0, 0, 0, 0], "stateRewards": ["", -10, 10, -10, -10, -10, 10, 10, 10, 10, -10, -10, -10, -10, -10, 10, -10, 10, 10, -10, -10, -10, 10, 10, 10, 10, 10, 10, -10, 10, -10, 10, 10, 10], "withholdReward": false, "trial_id": "practice_1", "block": "test", "trialIndex": 0, "score": -26.5, "costs": 0, "simulationMode": [null, null, null, null, null], "rewards": [-10, 10, -10, -10, -10], "path": ["0", "0", "1", "2", "3", "4", "5"], "rt": [2960, 471, 249, 752, 2340], "actions": ["up", "up", "up", "right", "up"], "actionTimes": [9276, 10313, 11119, 12438, 15332], "queries": {"click": {"state": {"target": [], "time": []}, "edge": {"target": [], "time": []}}, "mouseover": {"state": {"target": [], "time": []}, "edge": {"target": [], "time": []}}, "mouseout": {"state": {"target": ["0", "0", "13", "18", "7", "4", "5", "5", "6", "21"], "time": [2121, 23978, 24253, 24315, 24775, 24878, 25154, 26225, 26591, 31195]}, "edge": {"target": [], "time": []}}}, "displayed_time": "15.90", "trialTime": 31915, "trial_type": "mouselab-mdp", "trial_index": 3, "time_elapsed": 483339, "internal_node_id": "0.0-2.0-2.0-0.0"}}, {"uniqueid": "w71015330:a70484258", "current_trial": 4, "dateTime": 1693580811456, "trialdata": {"revealed_states": [], "clicked_states": ["2", "24", "18", "13", "14", "12", "23", "15", "19", "16"], "num_clicks_accrued": [0, 0, 0, 0, 0, 0, 0, 0, 0, 0, 0, 0, 0], "stateRewards": ["", 10, -10, -10, -10, -10, 10, 10, -10, 10, -10, 10, 10, 10, -10, 10, -10, 10, -10, 10, 10, -10, -10, -10, -10, -10, -10, -10, -10, -10, -10, 10, -10, 10], "withholdReward": false, "trial_id": "practice_2", "block": "test", "trialIndex": 1, "score": 8.5, "costs": -5, "simulationMode": [null, null, null, null, null], "rewards": [10, 10, -10, 10, -10], "path": ["0", "0", "12", "13", "14", "19", "21"], "rt": [27641, 703, 76, 23, 570], "actions": ["right", "right", "right", "down", "down"], "actionTimes": [31172, 32482, 33146, 33698, 34836], "queries": {"click": {"state": {"target": ["2", "24", "18", "13", "14", "12", "23", "15", "19", "16"], "time": [7589, 10328, 12236, 13506, 17615, 19387, 21266, 23229, 25609, 28344]}, "edge": {"target": [], "time": []}}, "mouseover": {"state": {"target": ["1", "2", "2", "28", "28", "24", "15", "18", "13", "19", "14", "12", "12", "23", "15", "14", "19", "14", "15", "16"], "time": [6452, 6577, 7251, 8643, 9299, 9585, 11441, 11880, 13210, 16412, 17162, 18258, 18993, 20925, 22878, 24125, 24927, 27217, 27421, 27954]}, "edge": {"target": [], "time": []}}, "mouseout": {"state": {"target": ["20", "14", "13", "12", "0", "1", "2", "2", "28", "28", "24", "15", "18", "13", "19", "14", "12", "12", "23", "15", "14", "19", "14", "15", "16"], "time": [652, 1267, 1333, 1388, 1948, 6498, 7080, 7813, 8799, 9531, 11306, 11782, 12874, 13721, 16993, 17824, 18463, 20248, 22167, 24022, 24640, 26908, 27358, 27506, 29497]}, "edge": {"target": [], "time": []}}}, "displayed_time": "35.43", "trialTime": 42533, "trial_type": "mouselab-mdp", "trial_index": 4, "time_elapsed": 527435, "internal_node_id": "0.0-2.0-2.0-1.0"}}, {"uniqueid": "w71015330:a70484258", "current_trial": 5, "dateTime": 1693580877511, "trialdata": {"view_history": [{"page_index": 0, "viewing_time": 47882}, {"page_index": 1, "viewing_time": 18162}], "rt": 66046, "trial_id": "mouselab_instructions_2_misaligned", "trial_type": "instructions", "trial_index": 5, "time_elapsed": 593493, "internal_node_id": "0.0-2.0-3.0"}}, {"uniqueid": "w71015330:a70484258", "current_trial": 6, "dateTime": 1693581058116, "trialdata": {"rt": 180538, "response": {"Q0": "The cost for clicking on nodes may vary between nodes.", "Q1": "The better I perform the higher my bonus will be.", "Q2": "No, the amount of cash at each node of the web may be different each time.", "Q3": "To get the highest total score.", "Q4": "Only before moving the spider.", "Q5": "3 seconds"}, "question_order": [0, 1, 2, 3, 4, 5], "correct": {"Q0": "The cost for clicking on nodes may vary between nodes.", "Q1": "The better I perform the higher my bonus will be.", "Q2": "No, the amount of cash at each node of the web may be different each time.", "Q3": "To get the highest total score.", "Q4": "Only before moving the spider.", "Q5": "3 seconds"}, "trial_id": "mouselab_quiz_misaligned", "trial_type": "survey-multi-choice", "trial_index": 6, "time_elapsed": 774098, "internal_node_id": "0.0-2.0-4.0"}}, {"uniqueid": "w71015330:a70484258", "current_trial": 7, "dateTime": 1693581071874, "trialdata": {"rt": 13739, "response": {"Q0": "No"}, "question_order": [0], "trial_id": "repeat_check", "trial_type": "survey-multi-choice", "trial_index": 7, "time_elapsed": 787855, "internal_node_id": "0.0-4.0-0.0"}}, {"uniqueid": "w71015330:a70484258", "current_trial": 8, "dateTime": 1693581092356, "trialdata": {"rt": 20463, "stimulus": "\n<h1> Get ready to start the game! </h1>\n\nThank you for reading the instructions. Get ready start with the 40 rounds of this game.\n<br><br>\nIf you need to take a break, feel free to take one after the end of a round, before continuing to the next one.\n<br><br>\nRemember, the more money the spider gets, the bigger your bonus will be!\n<br><br>\n<div style='text-align: center;'>Press <code>space</code> to begin.</div>\n\n<br><br>\n(If, at any point, the <code>space</code> key does not take you to the next page, click once on the text and try again.)", "response": " ", "trial_id": "mdp_ready", "trial_type": "html-keyboard-response", "trial_index": 8, "time_elapsed": 808338, "internal_node_id": "0.0-6.0-0.0"}}, {"uniqueid": "w71015330:a70484258", "current_trial": 9, "dateTime": 1693581119070, "trialdata": {"revealed_states": [], "clicked_states": ["12", "14"], "num_clicks_accrued": [0, 0, 0, 0, 0, 0, 0, 0, 0, 0, 0, 0, 0], "stateRewards": ["", 2, -1, 1, 10, -52, 86, -22, -2, -14, -63, 38, 1, 3, 7, -8, 11, -32, -27, 9, -71, 40, -87, -2, -1, 5, -7, 12, 31, -57, 13, 86, -58, 29], "withholdReward": false, "trial_id": "mdp_trial_1", "block": "test", "trialIndex": 2, "score": -51.7, "costs": -0.7, "simulationMode": [null, null, null, null, null], "rewards": [1, 3, 7, 9, -71], "path": ["0", "0", "12", "13", "14", "19", "20"], "rt": [6305, 241, 378, 80, 498], "actions": ["right", "right", "right", "down", "right"], "actionTimes": [12249, 13070, 13988, 14652, 15697], "queries": {"click": {"state": {"target": ["12", "14"], "time": [7262, 9587]}, "edge": {"target": [], "time": []}}, "mouseover": {"state": {"target": ["12", "0", "23", "24", "23", "0", "13", "14", "13", "12"], "time": [6776, 7864, 7991, 8146, 8607, 8708, 8958, 9306, 10856, 11540]}, "edge": {"target": [], "time": []}}, "mouseout": {"state": {"target": ["27", "27", "28", "12", "0", "23", "24", "23", "0", "12", "13", "14", "14", "13", "12", "13", "13", "12", "23"], "time": [255, 1605, 1921, 7845, 7957, 8086, 8538, 8659, 8762, 8904, 9090, 9811, 10690, 10899, 20200, 20246, 22920, 22968, 23293]}, "edge": {"target": [], "time": []}}}, "displayed_time": "19.95", "trialTime": 24961, "trial_type": "mouselab-mdp", "trial_index": 9, "time_elapsed": 835051, "internal_node_id": "0.0-6.0-1.0-0.0"}}, {"uniqueid": "w71015330:a70484258", "current_trial": 10, "dateTime": 1693581145100, "trialdata": {"revealed_states": [], "clicked_states": ["13", "14", "19", "20"], "num_clicks_accrued": [0, 0, 0, 0, 0, 0, 0, 0, 0, 0, 0, 0, 0], "stateRewards": ["", -2, -2, -7, -13, -10, 49, -68, -1, 84, 70, 88, 1, 4, 4, 12, -57, 25, 30, 8, -1, -77, 57, 2, 3, 2, 3, -18, -80, 23, -15, -41, 70, 11], "withholdReward": false, "trial_id": "mdp_trial_2", "block": "test", "trialIndex": 3, "score": 69, "costs": -5, "simulationMode": [null, null, null, null, null, null], "rewards": [1, 4, 4, 8, 57], "path": ["0", "0", "12", "13", "14", "19", "22"], "rt": [8304, 481, 61, 148, 3, 479], "actions": ["right", "right", "right", "right", "down", "left"], "actionTimes": [11681, 12183, 12848, 13569, 14242, 15286], "queries": {"click": {"state": {"target": ["13", "14", "19", "20"], "time": [5777, 6903, 8308, 10026]}, "edge": {"target": [], "time": []}}, "mouseover": {"state": {"target": ["12", "13", "14", "19", "20"], "time": [4301, 5317, 6476, 7642, 9173]}, "edge": {"target": [], "time": []}}, "mouseout": {"state": {"target": ["20", "12", "0", "12", "13", "14", "19", "20"], "time": [959, 1414, 1936, 4748, 6362, 7495, 9009, 20208]}, "edge": {"target": [], "time": []}}}, "displayed_time": "17.38", "trialTime": 23569, "trial_type": "mouselab-mdp", "trial_index": 10, "time_elapsed": 861081, "internal_node_id": "0.0-6.0-1.0-1.0"}}, {"uniqueid": "w71015330:a70484258", "current_trial": 11, "dateTime": 1693581175495, "trialdata": {"revealed_states": [], "clicked_states": ["13", "23", "24", "25", "30", "26", "28"], "num_clicks_accrued": [0, 0, 0, 0, 0, 0, 0, 0, 0, 0, 0, 0, 0], "stateRewards": ["", -2, -3, 1, -7, 39, -67, 16, 5, -20, 73, 66, -1, 4, 5, -3, 23, -68, -87, -8, 3, -3, 17, 1, -4, -2, -13, -32, 34, 61, -5, -11, -18, 12], "withholdReward": false, "trial_id": "mdp_trial_3", "block": "test", "trialIndex": 4, "score": 9.350000000000001, "costs": -6.65, "simulationMode": [null, null, null, null, null, null], "rewards": [1, -4, -2, -13, 34], "path": ["0", "0", "23", "24", "25", "26", "28"], "rt": [12353, 476, 262, 341, 46, 145], "actions": ["left", "left", "left", "left", "up", "right"], "actionTimes": [17121, 17615, 18450, 19334, 19921, 20624], "queries": {"click": {"state": {"target": ["13", "23", "24", "25", "30", "26", "28"], "time": [6611, 7906, 9428, 11189, 12319, 13839, 14923]}, "edge": {"target": [], "time": []}}, "mouseover": {"state": {"target": ["12", "13", "23", "24", "25", "25", "30", "26", "27", "26", "28"], "time": [5706, 6247, 7548, 9157, 10279, 10835, 12020, 13068, 13335, 13613, 14555]}, "edge": {"target": [], "time": []}}, "mouseout": {"state": {"target": ["0", "12", "13", "23", "23", "24", "24", "25", "25", "30", "26", "27", "26", "28", "0"], "time": [5623, 6108, 7229, 8632, 9009, 9655, 10193, 10394, 11878, 13002, 13135, 13491, 14056, 25860, 25977]}, "edge": {"target": [], "time": []}}}, "displayed_time": "21.16", "trialTime": 28421, "trial_type": "mouselab-mdp", "trial_index": 11, "time_elapsed": 891476, "internal_node_id": "0.0-6.0-1.0-2.0"}}, {"uniqueid": "w71015330:a70484258", "current_trial": 12, "dateTime": 1693581226695, "trialdata": {"revealed_states": [], "clicked_states": ["1", "3", "6", "11", "5", "14", "24", "25", "26", "27", "28", "29"], "num_clicks_accrued": [0, 0, 0, 0, 0, 0, 0, 0, 0, 0, 0, 0, 0], "stateRewards": ["", 2, -3, -5, 5, 11, -9, -33, 6, 67, 6, -30, -1, -2, -6, 13, 55, 13, 72, -14, 75, 21, -66, -2, -4, 6, 15, -1, -35, 60, 2, 51, -73, 12], "withholdReward": false, "trial_id": "mdp_trial_4", "block": "test", "trialIndex": 5, "score": 57.6, "costs": -17.4, "simulationMode": [null, null, null, null, null], "rewards": [-2, -4, 6, 15, 60], "path": ["0", "0", "23", "24", "25", "26", "29"], "rt": [34380, 578, 80, 129, 1503], "actions": ["left", "left", "left", "up", "left"], "actionTimes": [39653, 40849, 41473, 42136, 44188], "queries": {"click": {"state": {"target": ["1", "3", "6", "11", "5", "14", "24", "25", "26", "27", "28", "29"], "time": [6592, 8062, 9528, 13462, 18712, 22659, 24609, 26363, 27517, 28821, 31882, 35367]}, "edge": {"target": [], "time": []}}, "mouseover": {"state": {"target": ["1", "2", "3", "4", "6", "4", "8", "11", "8", "2", "2", "10", "26", "3", "3", "5", "4", "7", "13", "14", "24", "25", "25", "26", "25", "26", "27", "28", "28", "26", "29", "30"], "time": [6199, 7329, 7757, 8725, 9220, 10038, 10175, 10461, 14077, 14519, 14741, 14932, 15438, 15877, 16447, 18114, 19685, 19772, 20488, 21169, 23928, 25448, 25906, 26018, 26214, 27122, 28283, 29946, 30437, 33229, 33313, 38977]}, "edge": {"target": [], "time": []}}, "mouseout": {"state": {"target": ["0", "0", "1", "2", "3", "4", "6", "4", "8", "11", "8", "2", "2", "10", "26", "3", "3", "5", "5", "4", "7", "13", "14", "24", "25", "25", "26", "25", "26", "27", "28", "28", "26", "29"], "time": [2073, 5341, 7262, 7550, 8270, 9139, 10022, 10094, 10273, 13683, 14140, 14584, 14853, 15023, 15565, 16002, 17864, 18919, 19632, 19749, 20197, 20648, 23402, 24825, 25734, 25945, 26201, 26999, 28157, 29606, 30143, 32107, 33297, 38087]}, "edge": {"target": [], "time": []}}}, "displayed_time": "44.77", "trialTime": 48693, "trial_type": "mouselab-mdp", "trial_index": 12, "time_elapsed": 942676, "internal_node_id": "0.0-6.0-1.0-3.0"}}, {"uniqueid": "w71015330:a70484258", "current_trial": 13, "dateTime": 1693581251377, "trialdata": {"revealed_states": [], "clicked_states": ["13", "24", "19", "20", "22"], "num_clicks_accrued": [0, 0, 0, 0, 0, 0, 0, 0, 0, 0, 0, 0, 0], "stateRewards": ["", -2, -3, -3, 9, 79, 67, 22, -15, -56, 27, -85, -2, 4, -4, -15, -20, -32, 60, 15, 71, 57, 17, 1, 2, -8, 15, -37, -81, 82, 15, 21, -3, 2], "withholdReward": false, "trial_id": "mdp_trial_5", "block": "test", "trialIndex": 6, "score": 77.45, "costs": -6.550000000000001, "simulationMode": [null, null, null, null, null, null], "rewards": [-2, 4, -4, 15, 71], "path": ["0", "0", "12", "13", "14", "19", "20"], "rt": [12027, 651, 17, 79, 636, 173], "actions": ["right", "right", "right", "right", "down", "right"], "actionTimes": [15432, 16096, 16681, 17325, 18548, 19292], "queries": {"click": {"state": {"target": ["13", "24", "19", "20", "22"], "time": [4836, 6568, 8548, 9992, 13406]}, "edge": {"target": [], "time": []}}, "mouseover": {"state": {"target": ["12", "13", "23", "24", "19", "20", "21", "22"], "time": [4003, 4387, 5930, 6011, 8148, 9669, 10900, 12088]}, "edge": {"target": [], "time": []}}, "mouseout": {"state": {"target": ["30", "0", "12", "13", "23", "24", "13", "19", "20", "21", "22"], "time": [1416, 1978, 4332, 5842, 5994, 7409, 7851, 9359, 10604, 11205, 14177]}, "edge": {"target": [], "time": []}}}, "displayed_time": "19.86", "trialTime": 22655, "trial_type": "mouselab-mdp", "trial_index": 13, "time_elapsed": 967358, "internal_node_id": "0.0-6.0-1.0-4.0"}}, {"uniqueid": "w71015330:a70484258", "current_trial": 14, "dateTime": 1693581273564, "trialdata": {"revealed_states": [], "clicked_states": ["14"], "num_clicks_accrued": [0, 0, 0, 0, 0, 0, 0, 0, 0, 0, 0, 0, 0], "stateRewards": ["", 2, 3, -1, 16, -78, -11, 46, 2, -20, 79, -67, 2, 3, 2, 11, -83, -42, -58, -11, -67, -22, 55, 2, -1, -1, -16, -83, -82, 23, -11, -29, 13, 13], "withholdReward": false, "trial_id": "mdp_trial_6", "block": "test", "trialIndex": 7, "score": 50.05, "costs": -0.95, "simulationMode": [null, null, null, null, null], "rewards": [2, 3, 2, -11, 55], "path": ["0", "0", "12", "13", "14", "19", "22"], "rt": [7381, 490, 69, 609, 453], "actions": ["right", "right", "right", "down", "left"], "actionTimes": [10381, 11443, 12078, 13226, 14268], "queries": {"click": {"state": {"target": ["14"], "time": [4721]}, "edge": {"target": [], "time": []}}, "mouseover": {"state": {"target": ["12", "13", "14", "12", "23", "25", "30", "25"], "time": [3852, 3993, 4315, 5524, 5603, 5833, 7126, 7288]}, "edge": {"target": [], "time": []}}, "mouseout": {"state": {"target": ["0", "12", "13", "14", "12", "23", "25", "30", "25"], "time": [3720, 3932, 4268, 5507, 5588, 5670, 5927, 7242, 9195]}, "edge": {"target": [], "time": []}}}, "displayed_time": "17.00", "trialTime": 19210, "trial_type": "mouselab-mdp", "trial_index": 14, "time_elapsed": 989545, "internal_node_id": "0.0-6.0-1.0-5.0"}}, {"uniqueid": "w71015330:a70484258", "current_trial": 15, "dateTime": 1693581316790, "trialdata": {"revealed_states": [], "clicked_states": ["14", "16", "15", "13", "12", "24", "27", "29", "28"], "num_clicks_accrued": [0, 0, 0, 0, 0, 0, 0, 0, 0, 0, 0, 0, 0], "stateRewards": ["", -2, -4, 4, -11, -63, -60, -7, 2, -14, 81, -43, -1, -1, -5, 7, 10, 69, 40, 8, -83, 52, 60, 1, 2, 5, -5, 16, 64, 14, -3, 29, 7, -51], "withholdReward": false, "trial_id": "mdp_trial_7", "block": "test", "trialIndex": 8, "score": 55.45, "costs": -11.549999999999999, "simulationMode": [null, null, null, null, null], "rewards": [1, 2, 5, -5, 64], "path": ["0", "0", "23", "24", "25", "26", "28"], "rt": [29460, 281, 751, 62, 55], "actions": ["left", "left", "left", "up", "right"], "actionTimes": [33198, 34043, 35384, 36020, 36724], "queries": {"click": {"state": {"target": ["14", "16", "15", "13", "12", "24", "27", "29", "28"], "time": [5744, 7621, 12417, 14552, 17004, 19097, 20918, 24696, 28710]}, "edge": {"target": [], "time": []}}, "mouseover": {"state": {"target": ["12", "13", "14", "14", "13", "15", "16", "15", "15", "13", "12", "23", "24", "25", "26", "27", "29", "29", "26", "28"], "time": [4487, 4798, 4954, 5415, 6573, 6864, 7263, 11481, 12049, 14193, 15694, 18429, 18778, 20276, 20383, 20543, 21953, 23155, 27955, 28495]}, "edge": {"target": [], "time": []}}, "mouseout": {"state": {"target": ["21", "22", "0", "12", "13", "14", "14", "13", "15", "16", "15", "15", "13", "12", "23", "24", "25", "26", "27", "29", "29", "26", "28", "23", "0"], "time": [1284, 1649, 4305, 4785, 4888, 5031, 6503, 6765, 7089, 11400, 11588, 13748, 15560, 18329, 18497, 19319, 20363, 20453, 21144, 22295, 27874, 28137, 32463, 39594, 39646]}, "edge": {"target": [], "time": []}}}, "displayed_time": "37.28", "trialTime": 41057, "trial_type": "mouselab-mdp", "trial_index": 15, "time_elapsed": 1032771, "internal_node_id": "0.0-6.0-1.0-6.0"}}, {"uniqueid": "w71015330:a70484258", "current_trial": 16, "dateTime": 1693581350050, "trialdata": {"revealed_states": [], "clicked_states": ["7", "6", "5", "27", "28"], "num_clicks_accrued": [0, 0, 0, 0, 0, 0, 0, 0, 0, 0, 0, 0, 0], "stateRewards": ["", -1, 2, -2, 13, -56, -28, 10, 14, 53, -80, -29, 1, -3, -3, -14, 14, 9, -40, -9, 18, 18, 48, 1, 1, 1, -9, 64, -39, -9, 7, -52, -78, 7], "withholdReward": false, "trial_id": "mdp_trial_8", "block": "test", "trialIndex": 9, "score": 47.25, "costs": -10.75, "simulationMode": [null, null, null, null, null], "rewards": [1, 1, 1, -9, 64], "path": ["0", "0", "23", "24", "25", "26", "27"], "rt": [20049, 556, 76, 9, 703], "actions": ["left", "left", "left", "up", "up"], "actionTimes": [23800, 24938, 25584, 26227, 27528], "queries": {"click": {"state": {"target": ["7", "6", "5", "27", "28"], "time": [5676, 9242, 12686, 16754, 20397]}, "edge": {"target": [], "time": []}}, "mouseover": {"state": {"target": ["1", "1", "4", "7", "6", "5", "9", "11", "27", "28"], "time": [4134, 4747, 4920, 5324, 6681, 10118, 14476, 16076, 16395, 18163]}, "edge": {"target": [], "time": []}}, "mouseout": {"state": {"target": ["0", "1", "1", "4", "7", "6", "5", "9", "11", "27", "28", "28"], "time": [3809, 4218, 4802, 5210, 6468, 10045, 13232, 16026, 16131, 18047, 20606, 21492]}, "edge": {"target": [], "time": []}}}, "displayed_time": "28.12", "trialTime": 30644, "trial_type": "mouselab-mdp", "trial_index": 16, "time_elapsed": 1066031, "internal_node_id": "0.0-6.0-1.0-7.0"}}, {"uniqueid": "w71015330:a70484258", "current_trial": 17, "dateTime": 1693581376283, "trialdata": {"revealed_states": [], "clicked_states": ["21", "20"], "num_clicks_accrued": [0, 0, 0, 0, 0, 0, 0, 0, 0, 0, 0, 0, 0], "stateRewards": ["", -1, 3, -7, 16, -32, -74, -48, 2, 10, 15, -30, 1, 1, -2, 10, 12, -83, 67, 13, -66, 47, 65, -2, 4, 2, -14, -8, -57, 24, 9, 65, 12, 46], "withholdReward": false, "trial_id": "mdp_trial_9", "block": "test", "trialIndex": 10, "score": 55.7, "costs": -4.3, "simulationMode": [null, null, null, null, null], "rewards": [1, 1, -2, 13, 47], "path": ["0", "0", "12", "13", "14", "19", "21"], "rt": [8875, 109, 510, 351, 49], "actions": ["right", "right", "right", "down", "down"], "actionTimes": [12661, 13376, 14450, 15371, 15957], "queries": {"click": {"state": {"target": ["21", "20"], "time": [5653, 9153]}, "edge": {"target": [], "time": []}}, "mouseover": {"state": {"target": ["0", "13", "19", "21", "20", "19", "22"], "time": [4435, 4585, 4829, 5194, 6828, 10024, 10425]}, "edge": {"target": [], "time": []}}, "mouseout": {"state": {"target": ["24", "0", "0", "13", "19", "21", "20", "19", "22"], "time": [1806, 2357, 4521, 4654, 4870, 5863, 9959, 10257, 11302]}, "edge": {"target": [], "time": []}}}, "displayed_time": "17.80", "trialTime": 23563, "trial_type": "mouselab-mdp", "trial_index": 17, "time_elapsed": 1092264, "internal_node_id": "0.0-6.0-1.0-8.0"}}, {"uniqueid": "w71015330:a70484258", "current_trial": 18, "dateTime": 1693581411019, "trialdata": {"revealed_states": [], "clicked_states": ["21", "22", "20", "31", "32"], "num_clicks_accrued": [0, 0, 0, 0, 0, 0, 0, 0, 0, 0, 0, 0, 0], "stateRewards": ["", -2, -4, 6, 14, -34, 49, 36, -8, -3, 32, -4, 1, -2, 1, -8, -20, -71, -57, -7, -86, -62, -16, -2, -3, -5, 11, 23, -21, 53, 5, -5, 85, 73], "withholdReward": false, "trial_id": "mdp_trial_10", "block": "test", "trialIndex": 11, "score": 69.25, "costs": -10.75, "simulationMode": [null, null, null, null, null], "rewards": [-2, -3, -5, 5, 85], "path": ["0", "0", "23", "24", "25", "30", "32"], "rt": [19811, 395, 39, 438, 489], "actions": ["left", "left", "left", "down", "down"], "actionTimes": [23731, 24699, 25296, 26377, 27418], "queries": {"click": {"state": {"target": ["21", "22", "20", "31", "32"], "time": [5452, 9298, 12744, 16015, 19370]}, "edge": {"target": [], "time": []}}, "mouseover": {"state": {"target": ["22", "21", "19", "22", "20", "31", "32", "33", "33"], "time": [4538, 5062, 6338, 6746, 10753, 13831, 17063, 20045, 20879]}, "edge": {"target": [], "time": []}}, "mouseout": {"state": {"target": ["21", "0", "0", "22", "21", "19", "22", "20", "31", "32", "33", "33"], "time": [706, 1471, 4412, 4693, 6039, 6548, 9510, 13215, 16744, 19777, 20367, 23011]}, "edge": {"target": [], "time": []}}}, "displayed_time": "27.99", "trialTime": 32301, "trial_type": "mouselab-mdp", "trial_index": 18, "time_elapsed": 1126999, "internal_node_id": "0.0-6.0-1.0-9.0"}}, {"uniqueid": "w71015330:a70484258", "current_trial": 19, "dateTime": 1693581440163, "trialdata": {"revealed_states": [], "clicked_states": ["28", "27", "29", "31"], "num_clicks_accrued": [0, 0, 0, 0, 0, 0, 0, 0, 0, 0, 0, 0, 0], "stateRewards": ["", -2, 2, -4, -4, -59, 88, 62, -3, 69, -15, -34, 1, -2, -5, 7, -54, -20, 78, -16, -74, -53, -21, 2, -4, 2, 13, -8, -44, 26, 9, 72, 4, 17], "withholdReward": false, "trial_id": "mdp_trial_11", "block": "test", "trialIndex": 12, "score": 72.4, "costs": -8.6, "simulationMode": [null, null, null, null, null], "rewards": [2, -4, 2, 9, 72], "path": ["0", "0", "23", "24", "25", "30", "31"], "rt": [16160, 230, 601, 776, 175], "actions": ["left", "left", "left", "down", "right"], "actionTimes": [19296, 20095, 21244, 22693, 23441], "queries": {"click": {"state": {"target": ["28", "27", "29", "31"], "time": [4546, 8358, 11733, 15064]}, "edge": {"target": [], "time": []}}, "mouseover": {"state": {"target": ["28", "27", "29", "31", "32"], "time": [4245, 5593, 9615, 13127, 16025]}, "edge": {"target": [], "time": []}}, "mouseout": {"state": {"target": ["25", "24", "12", "0", "28", "27", "29", "31"], "time": [853, 934, 1219, 3228, 5293, 9217, 12824, 15890]}, "edge": {"target": [], "time": []}}}, "displayed_time": "24.04", "trialTime": 26465, "trial_type": "mouselab-mdp", "trial_index": 19, "time_elapsed": 1156143, "internal_node_id": "0.0-6.0-1.0-10.0"}}, {"uniqueid": "w71015330:a70484258", "current_trial": 20, "dateTime": 1693581463419, "trialdata": {"revealed_states": [], "clicked_states": ["27", "29"], "num_clicks_accrued": [0, 0, 0, 0, 0, 0, 0, 0, 0, 0, 0, 0, 0], "stateRewards": ["", -2, 2, -2, -7, -50, -62, -45, 7, 36, -24, -72, -1, -1, 8, -1, -67, 20, -52, 2, 35, -50, 80, -1, 1, 6, -6, -70, 6, 88, 8, -47, 74, -19], "withholdReward": false, "trial_id": "mdp_trial_12", "block": "test", "trialIndex": 13, "score": 83.7, "costs": -4.3, "simulationMode": [null, null, null, null, null], "rewards": [-1, 1, 6, -6, 88], "path": ["0", "0", "23", "24", "25", "26", "29"], "rt": [9990, 5, 93, 92, 1118], "actions": ["left", "left", "left", "up", "left"], "actionTimes": [13077, 13628, 14268, 14946, 16664], "queries": {"click": {"state": {"target": ["27", "29"], "time": [5006, 8652]}, "edge": {"target": [], "time": []}}, "mouseover": {"state": {"target": ["0", "27", "29", "28"], "time": [3442, 4316, 6061, 9396]}, "edge": {"target": [], "time": []}}, "mouseout": {"state": {"target": ["0", "0", "27", "29"], "time": [3155, 3759, 5910, 9140]}, "edge": {"target": [], "time": []}}}, "displayed_time": "17.24", "trialTime": 20345, "trial_type": "mouselab-mdp", "trial_index": 20, "time_elapsed": 1179400, "internal_node_id": "0.0-6.0-1.0-11.0"}}, {"uniqueid": "w71015330:a70484258", "current_trial": 21, "dateTime": 1693581489011, "trialdata": {"revealed_states": [], "clicked_states": ["29", "28", "27"], "num_clicks_accrued": [0, 0, 0, 0, 0, 0, 0, 0, 0, 0, 0, 0, 0], "stateRewards": ["", -1, 2, -2, 5, 80, -61, -27, 12, 44, -26, -75, -2, -4, 1, -16, 42, -49, -50, 4, -44, 2, 80, -2, -2, 5, -2, 59, 10, 24, 7, -48, -86, -44], "withholdReward": false, "trial_id": "mdp_trial_13", "block": "test", "trialIndex": 14, "score": 51.55, "costs": -6.449999999999999, "simulationMode": [null, null, null, null, null], "rewards": [-2, -2, 5, -2, 59], "path": ["0", "0", "23", "24", "25", "26", "27"], "rt": [13074, 255, 187, 9, 576], "actions": ["left", "left", "left", "up", "up"], "actionTimes": [17267, 18081, 18818, 19395, 20541], "queries": {"click": {"state": {"target": ["29", "28", "27"], "time": [5391, 9267, 12764]}, "edge": {"target": [], "time": []}}, "mouseover": {"state": {"target": ["23", "24", "26", "29", "26", "28", "27", "25", "30", "32", "33"], "time": [4463, 4755, 4935, 5045, 7157, 7379, 11346, 13903, 14000, 14582, 15635]}, "edge": {"target": [], "time": []}}, "mouseout": {"state": {"target": ["28", "23", "23", "24", "26", "29", "26", "28", "27", "25", "30", "32", "33"], "time": [1761, 1882, 4592, 4812, 5028, 7083, 7312, 11073, 13714, 13984, 14432, 15468, 16311]}, "edge": {"target": [], "time": []}}}, "displayed_time": "21.11", "trialTime": 23066, "trial_type": "mouselab-mdp", "trial_index": 21, "time_elapsed": 1204991, "internal_node_id": "0.0-6.0-1.0-12.0"}}, {"uniqueid": "w71015330:a70484258", "current_trial": 22, "dateTime": 1693581515740, "trialdata": {"revealed_states": [], "clicked_states": ["26", "27", "28"], "num_clicks_accrued": [0, 0, 0, 0, 0, 0, 0, 0, 0, 0, 0, 0, 0], "stateRewards": ["", -1, 3, 1, -11, -22, -36, 19, -5, -70, -52, 50, -2, -4, 4, -2, -41, -83, 29, -2, 22, 10, -6, -2, 3, -2, 14, 54, 44, 77, -9, -65, -37, -40], "withholdReward": false, "trial_id": "mdp_trial_14", "block": "test", "trialIndex": 15, "score": 61.15, "costs": -5.85, "simulationMode": [null, null, null, null, null], "rewards": [-2, 3, -2, 14, 54], "path": ["0", "0", "23", "24", "25", "26", "27"], "rt": [10097, 24, 27, 126, 7], "actions": ["left", "left", "left", "up", "up"], "actionTimes": [18457, 19035, 19760, 20440, 21026], "queries": {"click": {"state": {"target": ["26", "27", "28"], "time": [10077, 11369, 15087]}, "edge": {"target": [], "time": []}}, "mouseover": {"state": {"target": ["27", "26", "27", "28"], "time": [9809, 9974, 11122, 12113]}, "edge": {"target": [], "time": []}}, "mouseout": {"state": {"target": ["4", "9", "27", "1", "0", "27", "26", "27"], "time": [3578, 4732, 5093, 5259, 8419, 9963, 10210, 12032]}, "edge": {"target": [], "time": []}}}, "displayed_time": "22.36", "trialTime": 23862, "trial_type": "mouselab-mdp", "trial_index": 22, "time_elapsed": 1231721, "internal_node_id": "0.0-6.0-1.0-13.0"}}, {"uniqueid": "w71015330:a70484258", "current_trial": 23, "dateTime": 1693581542674, "trialdata": {"revealed_states": [], "clicked_states": ["27", "29", "28", "32"], "num_clicks_accrued": [0, 0, 0, 0, 0, 0, 0, 0, 0, 0, 0, 0, 0], "stateRewards": ["", 1, -4, -6, -1, -21, 17, -72, 10, 77, 67, -46, -1, 4, -2, 14, -66, -49, -45, -15, -52, 23, -67, 2, -2, -2, 15, -3, 45, -64, 5, -44, 83, 61], "withholdReward": false, "trial_id": "mdp_trial_15", "block": "test", "trialIndex": 16, "score": 77.4, "costs": -8.6, "simulationMode": [null, null, null, null, null], "rewards": [2, -2, -2, 5, 83], "path": ["0", "0", "23", "24", "25", "30", "32"], "rt": [15924, 177, 63, 185, 91], "actions": ["left", "left", "left", "down", "down"], "actionTimes": [18914, 19675, 20309, 21077, 21715], "queries": {"click": {"state": {"target": ["27", "29", "28", "32"], "time": [4618, 8098, 11379, 14886]}, "edge": {"target": [], "time": []}}, "mouseover": {"state": {"target": ["26", "27", "29", "28", "28", "32", "33"], "time": [3978, 4249, 5584, 8609, 9098, 12734, 17824]}, "edge": {"target": [], "time": []}}, "mouseout": {"state": {"target": ["28", "0", "0", "0", "26", "27", "29", "28", "28", "32", "33"], "time": [786, 949, 1382, 3883, 4073, 5371, 8349, 8722, 12255, 17474, 18362]}, "edge": {"target": [], "time": []}}}, "displayed_time": "22.27", "trialTime": 24302, "trial_type": "mouselab-mdp", "trial_index": 23, "time_elapsed": 1258655, "internal_node_id": "0.0-6.0-1.0-14.0"}}, {"uniqueid": "w71015330:a70484258", "current_trial": 24, "dateTime": 1693581571802, "trialdata": {"revealed_states": [], "clicked_states": ["27", "32", "28", "31"], "num_clicks_accrued": [0, 0, 0, 0, 0, 0, 0, 0, 0, 0, 0, 0, 0], "stateRewards": ["", 1, 3, -2, 15, 51, 15, -19, 11, 67, -45, -73, 2, 4, -2, -13, 36, 9, -28, 10, -30, 31, 16, 1, 2, -1, -16, 14, -22, 36, -1, 88, -5, 45], "withholdReward": false, "trial_id": "mdp_trial_16", "block": "test", "trialIndex": 17, "score": 80.4, "costs": -8.6, "simulationMode": [null, null, null, null, null], "rewards": [1, 2, -1, -1, 88], "path": ["0", "0", "23", "24", "25", "30", "31"], "rt": [17129, 391, 547, 563, 150], "actions": ["left", "left", "left", "down", "right"], "actionTimes": [20384, 21350, 22466, 23573, 24293], "queries": {"click": {"state": {"target": ["27", "32", "28", "31"], "time": [5075, 8534, 12158, 15498]}, "edge": {"target": [], "time": []}}, "mouseover": {"state": {"target": ["23", "24", "25", "26", "27", "26", "32", "24", "28", "24", "31", "30", "33"], "time": [4082, 4242, 4360, 4543, 4766, 6076, 6514, 10228, 10737, 14440, 14568, 17395, 17697]}, "edge": {"target": [], "time": []}}, "mouseout": {"state": {"target": ["32", "0", "23", "24", "25", "26", "27", "26", "32", "24", "28", "24", "31", "30"], "time": [901, 3878, 4177, 4312, 4489, 4623, 6042, 6180, 9838, 10487, 14401, 14547, 17380, 17476]}, "edge": {"target": [], "time": []}}}, "displayed_time": "24.89", "trialTime": 26732, "trial_type": "mouselab-mdp", "trial_index": 24, "time_elapsed": 1287781, "internal_node_id": "0.0-6.0-1.0-15.0"}}, {"uniqueid": "w71015330:a70484258", "current_trial": 25, "dateTime": 1693581594097, "trialdata": {"revealed_states": [], "clicked_states": ["27"], "num_clicks_accrued": [0, 0, 0, 0, 0, 0, 0, 0, 0, 0, 0, 0, 0], "stateRewards": ["", 1, -3, -6, -5, 47, 80, -29, 11, -71, 10, -29, -2, 3, -6, 12, 2, -78, -6, 8, 34, -16, -5, -1, 3, 3, -13, 84, -36, -62, -3, -27, 66, 15], "withholdReward": false, "trial_id": "mdp_trial_17", "block": "test", "trialIndex": 18, "score": 73.85, "costs": -2.15, "simulationMode": [null, null, null, null, null], "rewards": [-1, 3, 3, -13, 84], "path": ["0", "0", "23", "24", "25", "26", "27"], "rt": [6395, 10, 24, 167, 54], "actions": ["left", "left", "left", "up", "up"], "actionTimes": [9148, 9727, 10325, 11059, 11712], "queries": {"click": {"state": {"target": ["27"], "time": [4589]}, "edge": {"target": [], "time": []}}, "mouseover": {"state": {"target": ["24", "26", "27", "30", "32", "30"], "time": [3691, 3911, 4235, 5711, 5864, 8039]}, "edge": {"target": [], "time": []}}, "mouseout": {"state": {"target": ["33", "30", "31", "0", "24", "26", "27", "30", "32", "30"], "time": [576, 626, 718, 1107, 3798, 4217, 5399, 5778, 8019, 8095]}, "edge": {"target": [], "time": []}}}, "displayed_time": "16.80", "trialTime": 19324, "trial_type": "mouselab-mdp", "trial_index": 25, "time_elapsed": 1310078, "internal_node_id": "0.0-6.0-1.0-16.0"}}, {"uniqueid": "w71015330:a70484258", "current_trial": 26, "dateTime": 1693581643603, "trialdata": {"revealed_states": [], "clicked_states": ["27", "29", "33", "32", "31", "28", "9", "5"], "num_clicks_accrued": [0, 0, 0, 0, 0, 0, 0, 0, 0, 0, 0, 0, 0], "stateRewards": ["", -1, 4, -3, 3, 57, -61, 5, -11, 23, -1, 34, -2, -4, -1, -13, 27, 38, -36, 4, -45, 21, 88, 1, -2, -1, 1, -69, -5, -78, -12, -9, 38, -54], "withholdReward": false, "trial_id": "mdp_trial_18", "block": "test", "trialIndex": 19, "score": 42.8, "costs": -17.2, "simulationMode": [null, null, null, null, null], "rewards": [-1, 4, -3, 3, 57], "path": ["0", "0", "1", "2", "3", "4", "5"], "rt": [31449, 235, 86, 151, 146], "actions": ["up", "up", "up", "right", "up"], "actionTimes": [37178, 37940, 38604, 39365, 40041], "queries": {"click": {"state": {"target": ["27", "29", "33", "32", "31", "28", "9", "5"], "time": [7076, 10499, 14129, 17476, 21484, 25744, 29145, 32896]}, "edge": {"target": [], "time": []}}, "mouseover": {"state": {"target": ["28", "1", "27", "26", "25", "29", "33", "32", "31", "28", "9", "5", "6"], "time": [5842, 6069, 6719, 7936, 8111, 8617, 14004, 16307, 21102, 25170, 26770, 32405, 34245]}, "edge": {"target": [], "time": []}}, "mouseout": {"state": {"target": ["30", "33", "23", "0", "28", "1", "27", "26", "25", "29", "33", "32", "31", "28", "9", "5"], "time": [1996, 2037, 2551, 5825, 5967, 6389, 7309, 8008, 8281, 13195, 14341, 20633, 24888, 26240, 31221, 33929]}, "edge": {"target": [], "time": []}}}, "displayed_time": "40.59", "trialTime": 46442, "trial_type": "mouselab-mdp", "trial_index": 26, "time_elapsed": 1359584, "internal_node_id": "0.0-6.0-1.0-17.0"}}, {"uniqueid": "w71015330:a70484258", "current_trial": 27, "dateTime": 1693581702869, "trialdata": {"revealed_states": [], "clicked_states": ["9", "11", "10", "7", "6", "5", "21", "16", "20", "17"], "num_clicks_accrued": [0, 0, 0, 0, 0, 0, 0, 0, 0, 0, 0, 0, 0], "stateRewards": ["", 1, 1, -5, 8, -6, 45, 16, -6, -7, -22, -38, -1, -4, 8, -11, -16, 21, -45, -15, -59, -32, 42, -1, 3, 6, 11, -7, 34, -27, -8, 85, 43, -9], "withholdReward": false, "trial_id": "mdp_trial_19", "block": "test", "trialIndex": 20, "score": 28.500000000000004, "costs": -21.499999999999996, "simulationMode": [null, null, null, null, null], "rewards": [1, 1, -5, 8, 45], "path": ["0", "0", "1", "2", "3", "4", "6"], "rt": [41077, 61, 21, 38, 24], "actions": ["up", "up", "up", "right", "right"], "actionTimes": [44646, 45312, 46022, 46602, 47239], "queries": {"click": {"state": {"target": ["9", "11", "10", "7", "6", "5", "21", "16", "20", "17"], "time": [6557, 9875, 13241, 16619, 20123, 23908, 27984, 32191, 36293, 41251]}, "edge": {"target": [], "time": []}}, "mouseover": {"state": {"target": ["16", "4", "9", "9", "11", "10", "6", "6", "7", "6", "5", "18", "14", "19", "21", "19", "14", "15", "16", "20", "17", "17"], "time": [4792, 4947, 5293, 6166, 7774, 11186, 14176, 14618, 15242, 17241, 21408, 24872, 26407, 27266, 27545, 31105, 31239, 31387, 31603, 36077, 40500, 40986]}, "edge": {"target": [], "time": []}}, "mouseout": {"state": {"target": ["6", "16", "4", "9", "9", "11", "10", "6", "6", "7", "6", "5", "18", "14", "19", "21", "19", "14", "15", "16", "16", "20", "17", "17", "14", "14", "18"], "time": [807, 4844, 5046, 5451, 7294, 10579, 14088, 14396, 14941, 17161, 20588, 24727, 24978, 27093, 27403, 31006, 31174, 31331, 31478, 32405, 32911, 36519, 40581, 49426, 49659, 53955, 54210]}, "edge": {"target": [], "time": []}}}, "displayed_time": "47.83", "trialTime": 55745, "trial_type": "mouselab-mdp", "trial_index": 27, "time_elapsed": 1418850, "internal_node_id": "0.0-6.0-1.0-18.0"}}, {"uniqueid": "w71015330:a70484258", "current_trial": 28, "dateTime": 1693581748522, "trialdata": {"revealed_states": [], "clicked_states": ["5", "27", "29", "28", "32", "31", "33"], "num_clicks_accrued": [0, 0, 0, 0, 0, 0, 0, 0, 0, 0, 0, 0, 0], "stateRewards": ["", -1, 1, 8, -3, -24, 11, -65, -6, -77, 48, 44, -2, 1, -2, -7, -55, -35, 33, 8, -28, 19, -53, -1, -1, -5, -5, -70, 10, 44, 8, -58, -70, 51], "withholdReward": false, "trial_id": "mdp_trial_20", "block": "test", "trialIndex": 21, "score": 36.95, "costs": -15.05, "simulationMode": [null, null, null, null, null], "rewards": [-1, -1, -5, 8, 51], "path": ["0", "0", "23", "24", "25", "30", "33"], "rt": [28592, 382, 563, 8, 497], "actions": ["left", "left", "left", "down", "left"], "actionTimes": [32059, 36284, 37433, 38050, 39110], "queries": {"click": {"state": {"target": ["5", "27", "29", "28", "32", "31", "33"], "time": [5344, 9183, 12973, 17340, 20805, 24400, 27691]}, "edge": {"target": [], "time": []}}, "mouseover": {"state": {"target": ["1", "1", "7", "5", "4", "27", "29", "33", "30", "24", "28", "24", "32", "31", "30", "33"], "time": [3581, 4467, 4597, 4920, 7471, 8951, 11203, 13859, 16748, 16896, 17071, 19162, 19645, 23550, 24822, 24911]}, "edge": {"target": [], "time": []}}, "mouseout": {"state": {"target": ["1", "1", "7", "5", "4", "27", "29", "33", "30", "24", "28", "24", "32", "31", "30", "33", "21"], "time": [4188, 4534, 4840, 6914, 8007, 10126, 13194, 16680, 16804, 17008, 18950, 19298, 23137, 24797, 24894, 28405, 41824]}, "edge": {"target": [], "time": []}}}, "displayed_time": "39.80", "trialTime": 42627, "trial_type": "mouselab-mdp", "trial_index": 28, "time_elapsed": 1464475, "internal_node_id": "0.0-6.0-1.0-19.0"}}, {"uniqueid": "w71015330:a70484258", "current_trial": 29, "dateTime": 1693581772301, "trialdata": {"revealed_states": [], "clicked_states": [], "num_clicks_accrued": [0, 0, 0, 0, 0, 0, 0, 0, 0, 0, 0, 0, 0], "stateRewards": ["", -1, -2, 4, 9, 10, -75, 39, 16, -43, 88, -19, -1, 1, 2, 4, -31, 10, 73, 12, 41, -64, -81, -2, 2, -6, 1, -81, -1, -26, 3, -59, -3, -20], "withholdReward": false, "trial_id": "mdp_trial_21", "block": "test", "trialIndex": 22, "score": 55, "costs": 0, "simulationMode": [null, null, null, null, null], "rewards": [-1, 1, 2, 12, 41], "path": ["0", "0", "12", "13", "14", "19", "20"], "rt": [5975, 132, 130, 117, 846], "actions": ["right", "right", "right", "down", "right"], "actionTimes": [9632, 10411, 11099, 11801, 13231], "queries": {"click": {"state": {"target": [], "time": []}, "edge": {"target": [], "time": []}}, "mouseover": {"state": {"target": ["18", "14", "21", "21"], "time": [4746, 4861, 5770, 7136]}, "edge": {"target": [], "time": []}}, "mouseout": {"state": {"target": ["19", "13", "7", "18", "14", "21", "21"], "time": [996, 1076, 1353, 4810, 5309, 6046, 8418]}, "edge": {"target": [], "time": []}}}, "displayed_time": "17.69", "trialTime": 19768, "trial_type": "mouselab-mdp", "trial_index": 29, "time_elapsed": 1488282, "internal_node_id": "0.0-6.0-1.0-20.0"}}, {"uniqueid": "w71015330:a70484258", "current_trial": 30, "dateTime": 1693581805370, "trialdata": {"revealed_states": [], "clicked_states": ["21", "16", "17", "20"], "num_clicks_accrued": [0, 0, 0, 0, 0, 0, 0, 0, 0, 0, 0, 0, 0], "stateRewards": ["", -1, 3, 1, -7, 56, 76, 57, 3, 11, -9, 14, 1, -2, 2, 8, -77, -3, 79, -5, 88, 24, -66, -2, -1, 7, -7, -30, 14, -76, 11, -36, 28, -6], "withholdReward": false, "trial_id": "mdp_trial_22", "block": "test", "trialIndex": 23, "score": 75.4, "costs": -8.6, "simulationMode": [null, null, null, null, null], "rewards": [1, -2, 2, -5, 88], "path": ["0", "0", "12", "13", "14", "19", "20"], "rt": [17539, 355, 560, 12, 141], "actions": ["right", "right", "right", "down", "right"], "actionTimes": [22959, 23869, 25013, 25658, 26451], "queries": {"click": {"state": {"target": ["21", "16", "17", "20"], "time": [7093, 10846, 14537, 18234]}, "edge": {"target": [], "time": []}}, "mouseover": {"state": {"target": ["21", "14", "15", "16", "17", "20", "19", "22"], "time": [6471, 7908, 8076, 8241, 13867, 17796, 20518, 20984]}, "edge": {"target": [], "time": []}}, "mouseout": {"state": {"target": ["22", "13", "12", "0", "21", "14", "15", "16", "17", "20", "19"], "time": [2680, 2809, 2849, 6029, 7830, 7992, 8148, 13343, 17472, 20494, 20602]}, "edge": {"target": [], "time": []}}}, "displayed_time": "27.14", "trialTime": 29763, "trial_type": "mouselab-mdp", "trial_index": 30, "time_elapsed": 1521350, "internal_node_id": "0.0-6.0-1.0-21.0"}}, {"uniqueid": "w71015330:a70484258", "current_trial": 31, "dateTime": 1693581832799, "trialdata": {"revealed_states": [], "clicked_states": ["27", "28"], "num_clicks_accrued": [0, 0, 0, 0, 0, 0, 0, 0, 0, 0, 0, 0, 0], "stateRewards": ["", -1, -3, 3, 5, 56, 39, 50, -1, -80, 33, -46, 1, -2, -6, -8, 87, 48, 54, -11, -20, -64, -54, -2, 3, -7, -3, 12, 88, 35, -16, -46, -70, -3], "withholdReward": false, "trial_id": "mdp_trial_23", "block": "test", "trialIndex": 24, "score": 74.7, "costs": -4.3, "simulationMode": [null, null, null, null, null], "rewards": [-2, 3, -7, -3, 88], "path": ["0", "0", "23", "24", "25", "26", "28"], "rt": [10873, 140, 460, 108, 460], "actions": ["left", "left", "left", "up", "right"], "actionTimes": [14985, 15738, 16751, 17427, 18522], "queries": {"click": {"state": {"target": ["27", "28"], "time": [7147, 10050]}, "edge": {"target": [], "time": []}}, "mouseover": {"state": {"target": ["9", "28", "27", "28", "29"], "time": [5695, 5844, 6179, 8600, 11767]}, "edge": {"target": [], "time": []}}, "mouseout": {"state": {"target": ["22", "12", "0", "0", "9", "28", "27", "28", "29", "25", "31"], "time": [600, 993, 1324, 1557, 5779, 5905, 8261, 10299, 21000, 21101, 21369]}, "edge": {"target": [], "time": []}}}, "displayed_time": "19.09", "trialTime": 21900, "trial_type": "mouselab-mdp", "trial_index": 31, "time_elapsed": 1548780, "internal_node_id": "0.0-6.0-1.0-22.0"}}, {"uniqueid": "w71015330:a70484258", "current_trial": 32, "dateTime": 1693581855551, "trialdata": {"revealed_states": [], "clicked_states": ["29", "33"], "num_clicks_accrued": [0, 0, 0, 0, 0, 0, 0, 0, 0, 0, 0, 0, 0], "stateRewards": ["", -1, -1, 7, -15, -43, -21, -84, -9, -45, -66, 2, 1, -2, 2, 8, -27, 44, -52, -5, -84, 11, 53, 1, 4, -4, 16, 83, -82, -15, -16, 68, -43, 81], "withholdReward": false, "trial_id": "mdp_trial_24", "block": "test", "trialIndex": 25, "score": 61.7, "costs": -4.3, "simulationMode": [null, null, null, null, null], "rewards": [1, 4, -4, -16, 81], "path": ["0", "0", "23", "24", "25", "30", "33"], "rt": [9023, 11, 310, 724, 229], "actions": ["left", "left", "left", "down", "left"], "actionTimes": [12404, 12987, 13876, 15178, 15973], "queries": {"click": {"state": {"target": ["29", "33"], "time": [4884, 8230]}, "edge": {"target": [], "time": []}}, "mouseover": {"state": {"target": ["28", "26", "29", "33", "32"], "time": [4069, 4201, 4452, 6236, 9369]}, "edge": {"target": [], "time": []}}, "mouseout": {"state": {"target": ["0", "28", "26", "29", "33"], "time": [3952, 4186, 4334, 5883, 8912]}, "edge": {"target": [], "time": []}}}, "displayed_time": "17.41", "trialTime": 19519, "trial_type": "mouselab-mdp", "trial_index": 32, "time_elapsed": 1571531, "internal_node_id": "0.0-6.0-1.0-23.0"}}, {"uniqueid": "w71015330:a70484258", "current_trial": 33, "dateTime": 1693581877856, "trialdata": {"revealed_states": [], "clicked_states": ["31", "28"], "num_clicks_accrued": [0, 0, 0, 0, 0, 0, 0, 0, 0, 0, 0, 0, 0], "stateRewards": ["", 1, 4, -8, -13, -13, -87, -77, -10, -44, 54, 42, 2, -3, -4, 12, -9, -80, 52, 9, 84, -2, -65, 1, -4, -5, -6, 8, 80, 32, 13, -59, -5, -13], "withholdReward": false, "trial_id": "mdp_trial_25", "block": "test", "trialIndex": 26, "score": 61.7, "costs": -4.3, "simulationMode": [null, null, null, null, null], "rewards": [1, -4, -5, -6, 80], "path": ["0", "0", "23", "24", "25", "26", "28"], "rt": [9472, 89, 121, 636, 36], "actions": ["left", "left", "left", "up", "right"], "actionTimes": [12632, 13347, 14017, 15236, 15846], "queries": {"click": {"state": {"target": ["31", "28"], "time": [5267, 8675]}, "edge": {"target": [], "time": []}}, "mouseover": {"state": {"target": ["0", "22", "21", "31", "31", "32", "30", "28", "27"], "time": [3522, 3787, 3857, 4507, 4652, 6241, 6667, 7608, 9686]}, "edge": {"target": [], "time": []}}, "mouseout": {"state": {"target": ["0", "22", "21", "31", "31", "32", "30", "28"], "time": [3709, 3840, 4270, 4555, 6130, 6645, 6747, 9524]}, "edge": {"target": [], "time": []}}}, "displayed_time": "17.16", "trialTime": 19047, "trial_type": "mouselab-mdp", "trial_index": 33, "time_elapsed": 1593837, "internal_node_id": "0.0-6.0-1.0-24.0"}}, {"uniqueid": "w71015330:a70484258", "current_trial": 34, "dateTime": 1693581906432, "trialdata": {"revealed_states": [], "clicked_states": ["27", "29", "33"], "num_clicks_accrued": [0, 0, 0, 0, 0, 0, 0, 0, 0, 0, 0, 0, 0], "stateRewards": ["", 1, 2, 3, 16, 63, -25, 16, -4, -14, 82, -66, -1, -3, -3, -11, -14, 19, 46, 3, -34, -82, 66, -2, -3, 4, -5, -63, 77, -37, -1, -45, -41, 84], "withholdReward": false, "trial_id": "mdp_trial_26", "block": "test", "trialIndex": 27, "score": 75.55, "costs": -6.449999999999999, "simulationMode": [null, null, null, null, null], "rewards": [-2, -3, 4, -1, 84], "path": ["0", "0", "23", "24", "25", "30", "33"], "rt": [12318, 31, 242, 173, 1100], "actions": ["left", "left", "left", "down", "left"], "actionTimes": [16737, 17330, 18104, 18848, 20526], "queries": {"click": {"state": {"target": ["27", "29", "33"], "time": [5826, 9152, 12740]}, "edge": {"target": [], "time": []}}, "mouseover": {"state": {"target": ["27", "29", "33", "32", "32"], "time": [5633, 7462, 10069, 14529, 15011]}, "edge": {"target": [], "time": []}}, "mouseout": {"state": {"target": ["27", "1", "0", "27", "29", "33", "32", "32"], "time": [1656, 1739, 5483, 6052, 9884, 13360, 14725, 23915]}, "edge": {"target": [], "time": []}}}, "displayed_time": "21.09", "trialTime": 25764, "trial_type": "mouselab-mdp", "trial_index": 34, "time_elapsed": 1622412, "internal_node_id": "0.0-6.0-1.0-25.0"}}, {"uniqueid": "w71015330:a70484258", "current_trial": 35, "dateTime": 1693581966373, "trialdata": {"revealed_states": [], "clicked_states": ["28", "27", "29", "33", "32", "31", "21", "20", "22", "17", "16", "18"], "num_clicks_accrued": [0, 0, 0, 0, 0, 0, 0, 0, 0, 0, 0, 0, 0], "stateRewards": ["", 2, 3, -1, 6, 44, -4, -59, -14, -3, 64, 16, 1, -3, 3, 6, 3, 49, 19, 3, -49, -14, -86, 1, 2, -3, -8, -33, 14, 32, -13, -77, -47, -67], "withholdReward": false, "trial_id": "mdp_trial_27", "block": "test", "trialIndex": 28, "score": 30.200000000000006, "costs": -25.799999999999994, "simulationMode": [null, null, null, null, null], "rewards": [1, -3, 3, 6, 49], "path": ["0", "0", "12", "13", "14", "15", "17"], "rt": [48110, 11, 120, 152, 519], "actions": ["right", "right", "right", "up", "right"], "actionTimes": [51501, 52211, 52889, 53603, 54706], "queries": {"click": {"state": {"target": ["28", "27", "29", "33", "32", "31", "21", "20", "22", "17", "16", "18"], "time": [4873, 8308, 11715, 16018, 19408, 22823, 26494, 29935, 33435, 36923, 40432, 47286]}, "edge": {"target": [], "time": []}}, "mouseover": {"state": {"target": ["23", "28", "28", "27", "29", "33", "32", "31", "21", "20", "22", "17", "17", "16", "18"], "time": [4043, 4118, 4552, 6270, 9434, 15645, 17088, 20079, 24484, 27964, 30843, 34103, 34600, 37699, 44855]}, "edge": {"target": [], "time": []}}, "mouseout": {"state": {"target": ["0", "23", "28", "28", "27", "29", "33", "32", "31", "21", "20", "22", "17", "17", "16"], "time": [3462, 4102, 4177, 5087, 9091, 15516, 16246, 19620, 23231, 27501, 30475, 33961, 34181, 37156, 44800]}, "edge": {"target": [], "time": []}}}, "displayed_time": "55.30", "trialTime": 56991, "trial_type": "mouselab-mdp", "trial_index": 35, "time_elapsed": 1682354, "internal_node_id": "0.0-6.0-1.0-26.0"}}, {"uniqueid": "w71015330:a70484258", "current_trial": 36, "dateTime": 1693581991488, "trialdata": {"revealed_states": [], "clicked_states": ["7", "10"], "num_clicks_accrued": [0, 0, 0, 0, 0, 0, 0, 0, 0, 0, 0, 0, 0], "stateRewards": ["", -1, -4, -1, -5, -28, -23, -15, -15, -38, 59, -87, 2, 2, -5, 9, -55, -39, -71, -6, 85, -85, -11, -1, -2, 5, -10, 1, 25, 41, -4, 69, -35, 86], "withholdReward": false, "trial_id": "mdp_trial_28", "block": "test", "trialIndex": 29, "score": 33.7, "costs": -4.3, "simulationMode": [null, null, null, null, null], "rewards": [-1, -4, -1, -15, 59], "path": ["0", "0", "1", "2", "3", "8", "10"], "rt": [9878, 126, 110, 113, 407], "actions": ["up", "up", "up", "left", "down"], "actionTimes": [15383, 16060, 16769, 17441, 18445], "queries": {"click": {"state": {"target": ["7", "10"], "time": [7298, 10713]}, "edge": {"target": [], "time": []}}, "mouseover": {"state": {"target": ["2", "7", "2", "10", "11"], "time": [6311, 6845, 8083, 8186, 11743]}, "edge": {"target": [], "time": []}}, "mouseout": {"state": {"target": ["18", "7", "7", "0", "2", "7", "2", "10"], "time": [931, 1023, 2638, 6213, 6657, 8062, 8165, 11199]}, "edge": {"target": [], "time": []}}}, "displayed_time": "19.54", "trialTime": 21968, "trial_type": "mouselab-mdp", "trial_index": 36, "time_elapsed": 1707468, "internal_node_id": "0.0-6.0-1.0-27.0"}}, {"uniqueid": "w71015330:a70484258", "current_trial": 37, "dateTime": 1693582017023, "trialdata": {"revealed_states": [], "clicked_states": ["5", "6", "7"], "num_clicks_accrued": [0, 0, 0, 0, 0, 0, 0, 0, 0, 0, 0, 0, 0], "stateRewards": ["", -2, 1, -7, 9, 8, 25, 61, -7, -17, 69, -81, 1, 4, -4, -11, 16, 67, 44, 3, 6, -45, -54, -2, 3, 6, -11, -15, 32, -47, 3, -39, -6, -88], "withholdReward": false, "trial_id": "mdp_trial_29", "block": "test", "trialIndex": 30, "score": 55.55, "costs": -6.449999999999999, "simulationMode": [null, null, null, null, null], "rewards": [-2, 1, -7, 9, 61], "path": ["0", "0", "1", "2", "3", "4", "7"], "rt": [13053, 112, 60, 143, 334], "actions": ["up", "up", "up", "right", "down"], "actionTimes": [16911, 17574, 18334, 19064, 19972], "queries": {"click": {"state": {"target": ["5", "6", "7"], "time": [5535, 9279, 12788]}, "edge": {"target": [], "time": []}}, "mouseover": {"state": {"target": ["4", "5", "6", "7", "3", "9"], "time": [4992, 5248, 8555, 10162, 13582, 13958]}, "edge": {"target": [], "time": []}}, "mouseout": {"state": {"target": ["11", "0", "0", "4", "5", "6", "7", "3"], "time": [1329, 1527, 4777, 5152, 7982, 10140, 13495, 13685]}, "edge": {"target": [], "time": []}}}, "displayed_time": "20.55", "trialTime": 22461, "trial_type": "mouselab-mdp", "trial_index": 37, "time_elapsed": 1733004, "internal_node_id": "0.0-6.0-1.0-28.0"}}, {"uniqueid": "w71015330:a70484258", "current_trial": 38, "dateTime": 1693582039921, "trialdata": {"revealed_states": [], "clicked_states": ["29"], "num_clicks_accrued": [0, 0, 0, 0, 0, 0, 0, 0, 0, 0, 0, 0, 0], "stateRewards": ["", -2, -3, -6, -7, 9, 16, 65, 5, -41, 20, -25, -1, -4, 1, -11, -49, -4, 71, 1, 39, -62, 52, -2, -3, 7, -9, -28, -70, 84, 8, 24, -58, 82], "withholdReward": false, "trial_id": "mdp_trial_30", "block": "test", "trialIndex": 31, "score": 74.85, "costs": -2.15, "simulationMode": [null, null, null, null, null], "rewards": [-2, -3, 7, -9, 84], "path": ["0", "0", "23", "24", "25", "26", "29"], "rt": [5709, 179, 27, 200, 465], "actions": ["left", "left", "left", "up", "left"], "actionTimes": [9188, 9932, 10533, 11320, 12358], "queries": {"click": {"state": {"target": ["29"], "time": [4837]}, "edge": {"target": [], "time": []}}, "mouseover": {"state": {"target": ["23", "29", "28"], "time": [4274, 4527, 7078]}, "edge": {"target": [], "time": []}}, "mouseout": {"state": {"target": ["9", "8", "1", "0", "0", "23", "29"], "time": [608, 847, 1023, 1241, 4173, 4339, 6833]}, "edge": {"target": [], "time": []}}}, "displayed_time": "17.48", "trialTime": 20007, "trial_type": "mouselab-mdp", "trial_index": 38, "time_elapsed": 1755902, "internal_node_id": "0.0-6.0-1.0-29.0"}}, {"uniqueid": "w71015330:a70484258", "current_trial": 39, "dateTime": 1693582065348, "trialdata": {"revealed_states": [], "clicked_states": ["29", "27"], "num_clicks_accrued": [0, 0, 0, 0, 0, 0, 0, 0, 0, 0, 0, 0, 0], "stateRewards": ["", 2, -4, 7, 3, 23, -42, 4, 7, -81, -33, 7, -2, -4, 5, -1, 50, -57, -14, -13, -14, 44, 55, -2, -2, 5, -2, 33, 1, 57, -13, -7, 58, 87], "withholdReward": false, "trial_id": "mdp_trial_31", "block": "test", "trialIndex": 32, "score": 51.7, "costs": -4.3, "simulationMode": [null, null, null, null, null], "rewards": [-2, -2, 5, -2, 57], "path": ["0", "0", "23", "24", "25", "26", "29"], "rt": [10849, 93, 735, 293, 111], "actions": ["left", "left", "left", "up", "left"], "actionTimes": [14246, 14907, 17276, 18112, 18778], "queries": {"click": {"state": {"target": ["29", "27"], "time": [6301, 9580]}, "edge": {"target": [], "time": []}}, "mouseover": {"state": {"target": ["26", "29", "27", "27"], "time": [4869, 5855, 7132, 7498]}, "edge": {"target": [], "time": []}}, "mouseout": {"state": {"target": ["28", "23", "26", "29", "27", "27"], "time": [862, 1071, 5122, 7058, 7201, 9795]}, "edge": {"target": [], "time": []}}}, "displayed_time": "19.34", "trialTime": 22000, "trial_type": "mouselab-mdp", "trial_index": 39, "time_elapsed": 1781329, "internal_node_id": "0.0-6.0-1.0-30.0"}}, {"uniqueid": "w71015330:a70484258", "current_trial": 40, "dateTime": 1693582089236, "trialdata": {"revealed_states": [], "clicked_states": ["28", "33"], "num_clicks_accrued": [0, 0, 0, 0, 0, 0, 0, 0, 0, 0, 0, 0, 0], "stateRewards": ["", 2, -3, -8, 14, -7, -51, 73, 2, 36, 36, -43, -1, 3, -4, 1, 6, 87, -65, 15, 61, -42, -83, -1, 3, -2, -7, 30, -48, 35, 13, 26, 60, 78], "withholdReward": false, "trial_id": "mdp_trial_32", "block": "test", "trialIndex": 33, "score": 86.7, "costs": -4.3, "simulationMode": [null, null, null, null, null], "rewards": [-1, 3, -2, 13, 78], "path": ["0", "0", "23", "24", "25", "30", "33"], "rt": [9491, 14, 390, 648, 75], "actions": ["left", "left", "left", "down", "left"], "actionTimes": [13202, 13790, 14746, 16174, 16825], "queries": {"click": {"state": {"target": ["28", "33"], "time": [4909, 8499]}, "edge": {"target": [], "time": []}}, "mouseover": {"state": {"target": ["24", "28", "30", "33", "32"], "time": [4402, 4530, 5884, 6185, 10412]}, "edge": {"target": [], "time": []}}, "mouseout": {"state": {"target": ["13", "12", "0", "23", "0", "24", "28", "30", "33"], "time": [918, 1018, 1085, 1403, 3956, 4466, 5646, 5965, 9980]}, "edge": {"target": [], "time": []}}}, "displayed_time": "17.76", "trialTime": 20713, "trial_type": "mouselab-mdp", "trial_index": 40, "time_elapsed": 1805212, "internal_node_id": "0.0-6.0-1.0-31.0"}}, {"uniqueid": "w71015330:a70484258", "current_trial": 41, "dateTime": 1693582114460, "trialdata": {"revealed_states": [], "clicked_states": ["28", "27"], "num_clicks_accrued": [0, 0, 0, 0, 0, 0, 0, 0, 0, 0, 0, 0, 0], "stateRewards": ["", -2, -2, -3, -6, -15, -11, 41, -12, -63, -76, 2, -2, -3, 8, 9, -36, -2, -18, -16, -32, -85, -17, -2, 1, 5, -16, 82, 35, -88, -1, 80, -82, -20], "withholdReward": false, "trial_id": "mdp_trial_33", "block": "test", "trialIndex": 34, "score": 65.7, "costs": -4.3, "simulationMode": [null, null, null, null, null], "rewards": [-2, 1, 5, -16, 82], "path": ["0", "0", "23", "24", "25", "26", "27"], "rt": [9677, 34, 14, 13, 14], "actions": ["left", "left", "left", "up", "up"], "actionTimes": [13226, 13827, 14411, 15018, 15607], "queries": {"click": {"state": {"target": ["28", "27"], "time": [4641, 8710]}, "edge": {"target": [], "time": []}}, "mouseover": {"state": {"target": ["0", "23", "28", "27", "29"], "time": [3988, 4136, 4332, 8258, 9646]}, "edge": {"target": [], "time": []}}, "mouseout": {"state": {"target": ["32", "12", "0", "23", "28", "27", "29"], "time": [732, 1176, 4050, 4233, 8095, 9286, 12357]}, "edge": {"target": [], "time": []}}}, "displayed_time": "17.55", "trialTime": 21601, "trial_type": "mouselab-mdp", "trial_index": 41, "time_elapsed": 1830441, "internal_node_id": "0.0-6.0-1.0-32.0"}}, {"uniqueid": "w71015330:a70484258", "current_trial": 42, "dateTime": 1693582143237, "trialdata": {"revealed_states": [], "clicked_states": ["31", "32", "33"], "num_clicks_accrued": [0, 0, 0, 0, 0, 0, 0, 0, 0, 0, 0, 0, 0], "stateRewards": ["", 2, -3, 5, -14, -63, -9, -24, -11, -54, -43, 68, 2, -2, -4, 7, -64, 30, 47, 12, -74, 11, 86, 1, -3, 3, 10, -71, -42, -52, -1, -29, -16, 69], "withholdReward": false, "trial_id": "mdp_trial_34", "block": "test", "trialIndex": 35, "score": 62.55, "costs": -6.449999999999999, "simulationMode": [null, null, null, null, null], "rewards": [1, -3, 3, -1, 69], "path": ["0", "0", "23", "24", "25", "30", "33"], "rt": [13083, 195, 287, 802, 85], "actions": ["left", "left", "left", "down", "left"], "actionTimes": [17499, 18277, 19189, 20552, 21217], "queries": {"click": {"state": {"target": ["31", "32", "33"], "time": [6093, 9547, 12979]}, "edge": {"target": [], "time": []}}, "mouseover": {"state": {"target": ["18", "0", "31", "32", "26", "33"], "time": [4832, 5333, 5695, 7034, 10295, 10867]}, "edge": {"target": [], "time": []}}, "mouseout": {"state": {"target": ["25", "0", "18", "0", "31", "32", "26", "33"], "time": [925, 4695, 4896, 5414, 6944, 10101, 10549, 16569]}, "edge": {"target": [], "time": []}}}, "displayed_time": "21.79", "trialTime": 25641, "trial_type": "mouselab-mdp", "trial_index": 42, "time_elapsed": 1859216, "internal_node_id": "0.0-6.0-1.0-33.0"}}, {"uniqueid": "w71015330:a70484258", "current_trial": 43, "dateTime": 1693582177092, "trialdata": {"revealed_states": [], "clicked_states": ["9", "11"], "num_clicks_accrued": [0, 0, 0, 0, 0, 0, 0, 0, 0, 0, 0, 0, 0], "stateRewards": ["", -2, 2, 8, -6, -25, 3, 87, 2, -62, -2, 74, -2, -1, 2, -1, 79, 49, -37, -14, 5, 67, -9, -1, 2, -2, 5, 15, 38, 32, -14, -38, -38, 30], "withholdReward": false, "trial_id": "mdp_trial_35", "block": "test", "trialIndex": 36, "score": 79.7, "costs": -4.3, "simulationMode": [null, null, null, null, null], "rewards": [-2, 2, 8, 2, 74], "path": ["0", "0", "1", "2", "3", "8", "11"], "rt": [11800, 326, 90, 370, 161], "actions": ["up", "up", "up", "left", "left"], "actionTimes": [16187, 17084, 17762, 18734, 19468], "queries": {"click": {"state": {"target": ["9", "11"], "time": [7754, 11672]}, "edge": {"target": [], "time": []}}, "mouseover": {"state": {"target": ["8", "9", "11", "26", "29", "27"], "time": [5066, 6585, 9274, 12547, 12786, 13424]}, "edge": {"target": [], "time": []}}, "mouseout": {"state": {"target": ["22", "12", "0", "8", "9", "11", "26", "29"], "time": [1448, 1703, 1880, 5853, 9257, 12303, 12658, 13167]}, "edge": {"target": [], "time": []}}}, "displayed_time": "20.04", "trialTime": 22425, "trial_type": "mouselab-mdp", "trial_index": 43, "time_elapsed": 1893073, "internal_node_id": "0.0-6.0-1.0-34.0"}}, {"uniqueid": "w71015330:a70484258", "current_trial": 44, "dateTime": 1693582200823, "trialdata": {"revealed_states": [], "clicked_states": ["27"], "num_clicks_accrued": [0, 0, 0, 0, 0, 0, 0, 0, 0, 0, 0, 0, 0], "stateRewards": ["", 1, 3, 1, -13, 52, -28, 67, -14, 3, 63, -70, -1, -4, 7, -11, -10, 47, -18, 6, 69, -9, -61, 2, 3, -6, 10, 63, -34, 40, -6, -79, -35, -32], "withholdReward": false, "trial_id": "mdp_trial_36", "block": "test", "trialIndex": 37, "score": 69.85, "costs": -2.15, "simulationMode": [null, null, null, null, null], "rewards": [2, 3, -6, 10, 63], "path": ["0", "0", "23", "24", "25", "26", "27"], "rt": [6571, 74, 198, 33, 402], "actions": ["left", "left", "left", "up", "up"], "actionTimes": [9706, 10345, 11111, 11691, 12630], "queries": {"click": {"state": {"target": ["27"], "time": [5311]}, "edge": {"target": [], "time": []}}, "mouseover": {"state": {"target": ["23", "26", "27", "29"], "time": [3909, 4053, 4972, 6903]}, "edge": {"target": [], "time": []}}, "mouseout": {"state": {"target": ["0", "23", "26", "27"], "time": [3834, 3964, 4403, 6689]}, "edge": {"target": [], "time": []}}}, "displayed_time": "17.15", "trialTime": 19732, "trial_type": "mouselab-mdp", "trial_index": 44, "time_elapsed": 1916803, "internal_node_id": "0.0-6.0-1.0-35.0"}}, {"uniqueid": "w71015330:a70484258", "current_trial": 45, "dateTime": 1693582239841, "trialdata": {"revealed_states": [], "clicked_states": ["31", "33", "32", "29", "28", "27"], "num_clicks_accrued": [0, 0, 0, 0, 0, 0, 0, 0, 0, 0, 0, 0, 0], "stateRewards": ["", -1, -3, -6, -2, -7, 80, -45, -3, -38, -72, 76, 2, 1, 7, 4, -62, 14, -74, 14, -87, -21, -88, -2, 1, -7, -10, 66, 56, -76, 10, -29, -72, -70], "withholdReward": false, "trial_id": "mdp_trial_37", "block": "test", "trialIndex": 38, "score": 35.1, "costs": -12.9, "simulationMode": [null, null, null, null, null], "rewards": [-2, 1, -7, -10, 66], "path": ["0", "0", "23", "24", "25", "26", "27"], "rt": [22218, 128, 25, 264, 16], "actions": ["left", "left", "left", "up", "up"], "actionTimes": [26496, 27191, 27831, 28643, 29259], "queries": {"click": {"state": {"target": ["31", "33", "32", "29", "28", "27"], "time": [5917, 9289, 12674, 16272, 19598, 23205]}, "edge": {"target": [], "time": []}}, "mouseover": {"state": {"target": ["31", "30", "33", "32", "29", "26", "28", "28", "27"], "time": [5576, 6983, 7275, 10309, 13488, 16706, 16833, 17037, 20222]}, "edge": {"target": [], "time": []}}, "mouseout": {"state": {"target": ["29", "26", "31", "30", "33", "32", "29", "26", "28", "28"], "time": [1052, 1118, 6965, 7085, 10094, 13162, 16690, 16785, 16926, 19891]}, "edge": {"target": [], "time": []}}}, "displayed_time": "29.93", "trialTime": 35257, "trial_type": "mouselab-mdp", "trial_index": 45, "time_elapsed": 1955821, "internal_node_id": "0.0-6.0-1.0-36.0"}}, {"uniqueid": "w71015330:a70484258", "current_trial": 46, "dateTime": 1693582272153, "trialdata": {"revealed_states": [], "clicked_states": ["28", "27", "29", "33", "32"], "num_clicks_accrued": [0, 0, 0, 0, 0, 0, 0, 0, 0, 0, 0, 0, 0], "stateRewards": ["", -2, 3, 3, -14, 62, 36, 49, 16, 11, 17, -84, 2, -1, 6, 2, -82, -73, 49, -6, -87, 48, 50, -1, -2, -1, -16, -11, 37, -44, 4, 55, 73, -10], "withholdReward": false, "trial_id": "mdp_trial_38", "block": "test", "trialIndex": 39, "score": 62.25, "costs": -10.75, "simulationMode": [null, null, null, null, null], "rewards": [-1, -2, -1, 4, 73], "path": ["0", "0", "23", "24", "25", "30", "32"], "rt": [20368, 95, 273, 21, 41], "actions": ["left", "left", "left", "down", "down"], "actionTimes": [23836, 24659, 25470, 26049, 26643], "queries": {"click": {"state": {"target": ["28", "27", "29", "33", "32"], "time": [4896, 8801, 12310, 15811, 19749]}, "edge": {"target": [], "time": []}}, "mouseover": {"state": {"target": ["28", "27", "29", "33", "32", "31"], "time": [4457, 5766, 9690, 13912, 16693, 20433]}, "edge": {"target": [], "time": []}}, "mouseout": {"state": {"target": ["27", "28", "0", "28", "27", "29", "33", "32"], "time": [578, 689, 3527, 5508, 9468, 13581, 16553, 19985]}, "edge": {"target": [], "time": []}}}, "displayed_time": "27.25", "trialTime": 29068, "trial_type": "mouselab-mdp", "trial_index": 46, "time_elapsed": 1988134, "internal_node_id": "0.0-6.0-1.0-37.0"}}, {"uniqueid": "w71015330:a70484258", "current_trial": 47, "dateTime": 1693582295880, "trialdata": {"revealed_states": [], "clicked_states": ["28", "27"], "num_clicks_accrued": [0, 0, 0, 0, 0, 0, 0, 0, 0, 0, 0, 0, 0], "stateRewards": ["", 1, -1, 1, 13, 31, -56, 72, 2, 41, 5, 63, -2, -3, -2, 3, -71, -26, 52, 13, -31, 24, -67, 2, -2, 5, 4, 66, 43, 72, 9, 86, -26, 44], "withholdReward": false, "trial_id": "mdp_trial_39", "block": "test", "trialIndex": 40, "score": 70.7, "costs": -4.3, "simulationMode": [null, null, null, null, null], "rewards": [2, -2, 5, 4, 66], "path": ["0", "0", "23", "24", "25", "26", "27"], "rt": [9616, 34, 72, 235, 14], "actions": ["left", "left", "left", "up", "up"], "actionTimes": [13468, 14105, 14771, 15553, 16159], "queries": {"click": {"state": {"target": ["28", "27"], "time": [5439, 9234]}, "edge": {"target": [], "time": []}}, "mouseover": {"state": {"target": ["26", "28", "26", "27"], "time": [4675, 4977, 7316, 7687]}, "edge": {"target": [], "time": []}}, "mouseout": {"state": {"target": ["31", "0", "26", "28", "26", "27"], "time": [1091, 4392, 4791, 7295, 7495, 12258]}, "edge": {"target": [], "time": []}}}, "displayed_time": "17.85", "trialTime": 20384, "trial_type": "mouselab-mdp", "trial_index": 47, "time_elapsed": 2011860, "internal_node_id": "0.0-6.0-1.0-38.0"}}, {"uniqueid": "w71015330:a70484258", "current_trial": 48, "dateTime": 1693582320545, "trialdata": {"revealed_states": [], "clicked_states": ["32"], "num_clicks_accrued": [0, 0, 0, 0, 0, 0, 0, 0, 0, 0, 0, 0, 0], "stateRewards": ["", 2, 1, -3, 7, 46, 11, -36, 16, 71, 5, 1, 2, -2, -8, -3, -4, 6, 55, 7, 68, -54, 2, 1, 1, 6, -6, 42, -4, -84, -11, -65, 63, 25], "withholdReward": false, "trial_id": "mdp_trial_40", "block": "test", "trialIndex": 41, "score": 57.85, "costs": -2.15, "simulationMode": [null, null, null, null, null], "rewards": [1, 1, 6, -11, 63], "path": ["0", "0", "23", "24", "25", "30", "32"], "rt": [5421, 39, 106, 4, 12], "actions": ["left", "left", "left", "down", "down"], "actionTimes": [9280, 9890, 10547, 11134, 11729], "queries": {"click": {"state": {"target": ["32"], "time": [5241]}, "edge": {"target": [], "time": []}}, "mouseover": {"state": {"target": ["32", "33"], "time": [4800, 6452]}, "edge": {"target": [], "time": []}}, "mouseout": {"state": {"target": ["28", "23", "32"], "time": [1182, 1329, 5416]}, "edge": {"target": [], "time": []}}}, "displayed_time": "17.86", "trialTime": 21358, "trial_type": "mouselab-mdp", "trial_index": 48, "time_elapsed": 2036526, "internal_node_id": "0.0-6.0-1.0-39.0"}}, {"uniqueid": "w71015330:a70484258", "current_trial": 49, "dateTime": 1693582421556, "trialdata": {"rt": 99964, "response": {"Q0": "$-2 to $2", "Q1": "$-32 to $32", "Q2": "$-88 to $88", "Q3": "The cost for clicking on nodes varied between nodes.", "Q4": "Very motivated"}, "question_order": [0, 1, 2, 3, 4], "trial_id": "final_quiz_control", "trial_type": "survey-multi-choice", "trial_index": 49, "time_elapsed": 2137537, "internal_node_id": "0.0-6.0-2.0"}}, {"uniqueid": "w71015330:a70484258", "current_trial": 50, "dateTime": 1693582785602, "trialdata": {"rt": 362507, "response": {"Q0": "I used the node inspector to check the number in the fifth block. If the number in that block is positively very high, I took the path leading to that block.", "Q1": "I maintained the same strategy throughout the game.", "Q2": "The costs for the node inspector made it difficult for me to improve my performance."}, "trial_id": "self_report_control", "trial_type": "survey-text", "trial_index": 50, "time_elapsed": 2501584, "internal_node_id": "0.0-6.0-3.0"}}, {"uniqueid": "w71015330:a70484258", "current_trial": 51, "dateTime": 1693582885363, "trialdata": {"rt": 99589, "response": {"Q0": "Strongly disagree", "Q1": "Agree", "Q2": "Strongly disagree", "Q3": "Strongly agree", "Q4": "Disagree", "Q5": "Agree", "Q6": "Disagree"}, "question_order": [0, 1, 2, 3, 4, 5, 6], "trial_id": "self_report_2", "trial_type": "survey-multi-choice", "trial_index": 51, "time_elapsed": 2601345, "internal_node_id": "0.0-6.0-4.0"}}, {"uniqueid": "w71015330:a70484258", "current_trial": 52, "dateTime": 1693582926546, "trialdata": {"rt": 40902, "response": {"gender": "male", "age": "25", "colorblind": "0", "effort": "0"}, "trial_type": "survey-html-form", "trial_index": 52, "time_elapsed": 2642528, "internal_node_id": "0.0-6.0-5.0"}}, {"uniqueid": "w71015330:a70484258", "current_trial": 53, "dateTime": 1693583031261, "trialdata": {"rt": 104672, "response": {"Q0": "No", "Q1": "No, I have never participated in a Web f cash  HIT before", "Q2": "No additional comments"}, "trial_type": "survey-text", "trial_index": 53, "time_elapsed": 2747243, "internal_node_id": "0.0-6.0-6.0"}}, {"uniqueid": "w71015330:a70484258", "current_trial": 54, "dateTime": 1693583115081, "trialdata": {"rt": 83696, "stimulus": "<h1>Completion Code Instructions (1/2)</h1>\n<br><br><br><br>\nYou have reached the end of the experiment! The completion code consists of two parts: (1) a code with 2 characters (2) a code with 6 characters. On this page, you will receive the second part of the code. The first part of the completion code will be on the next page.\n<br><br>\nThe second part of your completion code is: <b>EWEK22</b>\n<br><br>\nPlease note this down. Then, press 'Next' in order to find the first part of your completion code. Once the data has been saved, you will receive this code either in this window or in the original browser window where you started the experiment.\n <br><br>\n<h2 style='color: red;'>Note: this is <strong>NOT</strong> the full completion code. Copy this down and click 'Next' to get the full completion code on the next page.</h2>", "response": 0, "trial_type": "html-button-response", "trial_index": 54, "time_elapsed": 2831063, "internal_node_id": "0.0-6.0-7.0"}}, {"uniqueid": "w71015330:a70484258", "current_trial": 55, "dateTime": 1693583116227, "trialdata": {"success": true, "trial_type": "fullscreen", "trial_index": 55, "time_elapsed": 2832209, "internal_node_id": "0.0-7.0"}}], "questiondata": {"params": {"CODE": "C6DMOQA6", "MIN_TIME": 14, "inspectCost": 1, "startTime": "Fri Sep 01 2023 16:57:57 GMT+0200 (South Africa Standard Time)", "bonusRate": 0.002, "variance": "1_2_4_8_44", "branching": "31123"}, "final_score": 2288.55}, "eventdata": [{"eventtype": "initialized", "value": null, "timestamp": 1693580276846, "interval": 0}, {"eventtype": "window_resize", "value": [1366, 670], "timestamp": 1693580276847, "interval": 1}, {"eventtype": "window_resize", "value": [1366, 670], "timestamp": 1693580277595, "interval": 748}, {"eventtype": "window_resize", "value": [1366, 768], "timestamp": 1693580293994, "interval": 16399}], "useragent": "Mozilla/5.0 (Windows NT 10.0; Win64; x64) AppleWebKit/537.36 (KHTML, like Gecko) Chrome/116.0.0.0 Safari/537.36", "mode": "live", "id": "w71015330:a70484258", "status": "user data saved", "Beginhit": "2023-09-01 14:57:46.207736", "Beginexp": "2023-09-01 14:58:14.209621", "Endhit": "2023-09-01 15:45:20.727351", "psiturkStatus": 3, "browser": "<redacted>", "platform": "windows", "language": "en-US"}