{"condition": 1, "counterbalance": 0, "assignmentId": "a91168406", "workerId": "w56281366", "hitId": "h12672804", "currenttrial": 56, "bonus": 0, "data": [{"uniqueid": "w56281366:a91168406", "current_trial": 0, "dateTime": 1693580331835, "trialdata": {"success": true, "trial_type": "fullscreen", "trial_index": 0, "time_elapsed": 5072, "internal_node_id": "0.0-0.0"}}, {"uniqueid": "w56281366:a91168406", "current_trial": 1, "dateTime": 1693580344276, "trialdata": {"view_history": [{"page_index": 0, "viewing_time": 12426}], "rt": 12427, "trial_id": "exp_instructions_misaligned", "trial_type": "instructions", "trial_index": 1, "time_elapsed": 17514, "internal_node_id": "0.0-1.0"}}, {"uniqueid": "w56281366:a91168406", "current_trial": 2, "dateTime": 1693580521535, "trialdata": {"view_history": [{"page_index": 0, "viewing_time": 51643}, {"page_index": 1, "viewing_time": 58943}, {"page_index": 2, "viewing_time": 22526}, {"page_index": 3, "viewing_time": 44142}], "rt": 177254, "trial_id": "mouselab_instructions_1_misaligned", "trial_type": "instructions", "trial_index": 2, "time_elapsed": 194773, "internal_node_id": "0.0-2.0-1.0"}}, {"uniqueid": "w56281366:a91168406", "current_trial": 3, "dateTime": 1693580562718, "trialdata": {"revealed_states": [], "clicked_states": ["1", "23", "12"], "num_clicks_accrued": [0, 0, 0, 0, 0, 0, 0, 0, 0, 0, 0, 0, 0], "stateRewards": ["", -10, -10, 10, 10, 10, -10, -10, -10, -10, -10, -10, 10, -10, 10, 10, -10, 10, -10, -10, 10, 10, 10, 10, 10, -10, 10, -10, 10, -10, 10, 10, -10, -10], "withholdReward": false, "trial_id": "practice_1", "block": "test", "trialIndex": 0, "score": 12, "costs": -1.5, "simulationMode": [null, null, null, null, null], "rewards": [10, 10, -10, 10, -10], "path": ["0", "0", "23", "24", "25", "26", "29"], "rt": [15288, 1268, 5329, 1375, 231], "actions": ["left", "left", "left", "up", "left"], "actionTimes": [17448, 19229, 25073, 26969, 27698], "queries": {"click": {"state": {"target": ["1", "23", "12"], "time": [9208, 11851, 14676]}, "edge": {"target": [], "time": []}}, "mouseover": {"state": {"target": ["0", "1", "23", "12", "31"], "time": [2656, 7663, 10360, 13178, 15511]}, "edge": {"target": [], "time": []}}, "mouseout": {"state": {"target": ["0", "0", "1", "23", "12", "31", "31", "28", "26", "25", "23"], "time": [1079, 5118, 9299, 12811, 15462, 15811, 23058, 23842, 23909, 36824, 36856]}, "edge": {"target": [], "time": []}}}, "displayed_time": "28.80", "trialTime": 38224, "trial_type": "mouselab-mdp", "trial_index": 3, "time_elapsed": 235954, "internal_node_id": "0.0-2.0-2.0-0.0"}}, {"uniqueid": "w56281366:a91168406", "current_trial": 4, "dateTime": 1693580597381, "trialdata": {"revealed_states": [], "clicked_states": ["1", "2", "8", "11", "10"], "num_clicks_accrued": [0, 0, 0, 0, 0, 0, 0, 0, 0, 0, 0, 0, 0], "stateRewards": ["", 10, 10, -10, -10, 10, 10, -10, 10, 10, 10, -10, 10, -10, 10, -10, -10, -10, 10, 10, -10, -10, -10, 10, -10, -10, 10, 10, 10, 10, 10, 10, 10, -10], "withholdReward": false, "trial_id": "practice_2", "block": "test", "trialIndex": 1, "score": 31, "costs": -2.5, "simulationMode": [null, null, null, null, null], "rewards": [10, 10, -10, 10, 10], "path": ["0", "0", "1", "2", "3", "8", "10"], "rt": [20775, 540, 334, 512, 271], "actions": ["up", "up", "up", "left", "down"], "actionTimes": [25885, 26938, 27781, 28822, 29602], "queries": {"click": {"state": {"target": ["1", "2", "8", "11", "10"], "time": [7542, 11612, 15500, 19176, 23196]}, "edge": {"target": [], "time": []}}, "mouseover": {"state": {"target": ["1", "1", "2", "7", "8", "10", "11", "10"], "time": [6606, 6923, 10596, 12979, 14574, 17060, 18341, 20217]}, "edge": {"target": [], "time": []}}, "mouseout": {"state": {"target": ["0", "33", "33", "31", "23", "1", "1", "1", "2", "7", "2", "8", "10", "11"], "time": [908, 2308, 3358, 3671, 3705, 6740, 9121, 10526, 12934, 14411, 14458, 17039, 17993, 20206]}, "edge": {"target": [], "time": []}}}, "displayed_time": "30.11", "trialTime": 34341, "trial_type": "mouselab-mdp", "trial_index": 4, "time_elapsed": 270614, "internal_node_id": "0.0-2.0-2.0-1.0"}}, {"uniqueid": "w56281366:a91168406", "current_trial": 5, "dateTime": 1693580633020, "trialdata": {"view_history": [{"page_index": 0, "viewing_time": 28811}, {"page_index": 1, "viewing_time": 6801}], "rt": 35613, "trial_id": "mouselab_instructions_2_misaligned", "trial_type": "instructions", "trial_index": 5, "time_elapsed": 306258, "internal_node_id": "0.0-2.0-3.0"}}, {"uniqueid": "w56281366:a91168406", "current_trial": 6, "dateTime": 1693580660110, "trialdata": {"rt": 27080, "response": {"Q0": "The cost for clicking on nodes may vary between nodes.", "Q1": "The better I perform the higher my bonus will be.", "Q2": "No, the amount of cash at each node of the web may be different each time.", "Q3": "To get the highest total score.", "Q4": "Only before moving the spider.", "Q5": "3 seconds"}, "question_order": [0, 1, 2, 3, 4, 5], "correct": {"Q0": "The cost for clicking on nodes may vary between nodes.", "Q1": "The better I perform the higher my bonus will be.", "Q2": "No, the amount of cash at each node of the web may be different each time.", "Q3": "To get the highest total score.", "Q4": "Only before moving the spider.", "Q5": "3 seconds"}, "trial_id": "mouselab_quiz_misaligned", "trial_type": "survey-multi-choice", "trial_index": 6, "time_elapsed": 333348, "internal_node_id": "0.0-2.0-4.0"}}, {"uniqueid": "w56281366:a91168406", "current_trial": 7, "dateTime": 1693580664718, "trialdata": {"rt": 4598, "response": {"Q0": "No"}, "question_order": [0], "trial_id": "repeat_check", "trial_type": "survey-multi-choice", "trial_index": 7, "time_elapsed": 337956, "internal_node_id": "0.0-4.0-0.0"}}, {"uniqueid": "w56281366:a91168406", "current_trial": 8, "dateTime": 1693580681304, "trialdata": {"rt": 16579, "stimulus": "\n<h1> Get ready to start the game! </h1>\n\nThank you for reading the instructions. Get ready start with the 40 rounds of this game.\n<br><br>\nIf you need to take a break, feel free to take one after the end of a round, before continuing to the next one.\n<br><br>\nRemember, the more money the spider gets, the bigger your bonus will be!\n<br><br>\n<div style='text-align: center;'>Press <code>space</code> to begin.</div>\n\n<br><br>\n(If, at any point, the <code>space</code> key does not take you to the next page, click once on the text and try again.)", "response": " ", "trial_id": "mdp_ready", "trial_type": "html-keyboard-response", "trial_index": 8, "time_elapsed": 354542, "internal_node_id": "0.0-6.0-0.0"}}, {"uniqueid": "w56281366:a91168406", "current_trial": 9, "dateTime": 1693580709828, "trialdata": {"revealed_states": [], "clicked_states": ["1", "12", "23", "26", "30", "32", "31"], "num_clicks_accrued": [0, 0, 0, 0, 0, 0, 0, 0, 0, 0, 0, 0, 0], "stateRewards": ["", -1, -3, 4, -10, -5, 79, -87, -2, 53, 29, -20, -2, -1, -5, 10, 27, 86, 46, -16, -29, 40, 3, 2, 4, -1, -6, 37, 79, -29, 7, 86, -62, 29], "withholdReward": false, "trial_id": "mdp_trial_1", "block": "test", "trialIndex": 2, "score": 91.35, "costs": -6.65, "simulationMode": [null, null, null, null, null], "rewards": [2, 4, -1, 7, 86], "path": ["0", "0", "23", "24", "25", "30", "31"], "rt": [19566, 59, 333, 74, 292], "actions": ["left", "left", "left", "down", "right"], "actionTimes": [22343, 22929, 23766, 24364, 25179], "queries": {"click": {"state": {"target": ["1", "12", "23", "26", "30", "32", "31"], "time": [4810, 6654, 8390, 10116, 11888, 13504, 17711]}, "edge": {"target": [], "time": []}}, "mouseover": {"state": {"target": ["1", "12", "0", "23", "24", "25", "26", "25", "30", "32", "33", "30", "31"], "time": [4380, 5822, 7422, 7549, 9479, 9563, 9863, 11461, 11694, 13295, 15470, 16797, 16832]}, "edge": {"target": [], "time": []}}, "mouseout": {"state": {"target": ["2", "0", "1", "12", "0", "23", "24", "25", "26", "25", "30", "30", "32", "32", "33", "30", "31", "31"], "time": [1262, 2296, 5650, 7387, 7482, 8481, 9512, 9796, 11014, 11564, 11900, 12547, 13596, 14301, 16763, 16813, 18930, 21181]}, "edge": {"target": [], "time": []}}}, "displayed_time": "25.70", "trialTime": 28229, "trial_type": "mouselab-mdp", "trial_index": 9, "time_elapsed": 383065, "internal_node_id": "0.0-6.0-1.0-0.0"}}, {"uniqueid": "w56281366:a91168406", "current_trial": 10, "dateTime": 1693580729166, "trialdata": {"revealed_states": [], "clicked_states": ["1"], "num_clicks_accrued": [0, 0, 0, 0, 0, 0, 0, 0, 0, 0, 0, 0, 0], "stateRewards": ["", 1, 2, 2, -15, -84, 28, -26, 13, 31, 86, 30, -2, 1, -1, -8, 66, -40, -1, -10, -32, 57, -17, 1, 2, -2, 9, -23, 77, 85, 12, -32, -62, -35], "withholdReward": false, "trial_id": "mdp_trial_2", "block": "test", "trialIndex": 3, "score": -43.75, "costs": 0.25, "simulationMode": [null, null, null, null, null], "rewards": [-2, 1, -1, -10, -32], "path": ["0", "0", "12", "13", "14", "19", "20"], "rt": [7356, 516, 664, 184, 196], "actions": ["right", "right", "right", "down", "right"], "actionTimes": [9514, 10551, 11747, 12452, 13165], "queries": {"click": {"state": {"target": ["1"], "time": [3500]}, "edge": {"target": [], "time": []}}, "mouseover": {"state": {"target": ["1", "1", "12", "2", "12"], "time": [2791, 3176, 4027, 4792, 6775]}, "edge": {"target": [], "time": []}}, "mouseout": {"state": {"target": ["23", "0", "0", "1", "1", "12", "2", "12"], "time": [673, 839, 1074, 3070, 3998, 4576, 6691, 8560]}, "edge": {"target": [], "time": []}}}, "displayed_time": "16.17", "trialTime": 18947, "trial_type": "mouselab-mdp", "trial_index": 10, "time_elapsed": 402404, "internal_node_id": "0.0-6.0-1.0-1.0"}}, {"uniqueid": "w56281366:a91168406", "current_trial": 11, "dateTime": 1693580749853, "trialdata": {"revealed_states": [], "clicked_states": ["23", "1", "12", "30", "26", "29"], "num_clicks_accrued": [0, 0, 0, 0, 0, 0, 0, 0, 0, 0, 0, 0, 0], "stateRewards": ["", -1, -2, -1, -10, -57, 73, -72, -16, 75, -14, -46, -2, -3, -7, -1, -61, -60, 76, -4, 50, 4, 14, 2, 2, -7, 12, -65, -32, 15, -8, -76, -25, -61], "withholdReward": false, "trial_id": "mdp_trial_3", "block": "test", "trialIndex": 4, "score": 19.5, "costs": -4.5, "simulationMode": [null, null, null, null, null], "rewards": [2, 2, -7, 12, 15], "path": ["0", "0", "23", "24", "25", "26", "29"], "rt": [12624, 151, 145, 125, 105], "actions": ["left", "left", "left", "up", "left"], "actionTimes": [14612, 15286, 15962, 16621, 17239], "queries": {"click": {"state": {"target": ["23", "1", "12", "30", "26", "29"], "time": [2833, 3970, 5161, 7418, 8874, 10154]}, "edge": {"target": [], "time": []}}, "mouseover": {"state": {"target": ["0", "23", "0", "1", "1", "12", "12", "31", "30", "30", "25", "26", "29", "27", "28", "1"], "time": [2177, 2542, 3227, 3328, 3765, 4534, 4981, 6860, 6895, 7260, 8408, 8526, 9924, 12013, 13639, 14109]}, "edge": {"target": [], "time": []}}, "mouseout": {"state": {"target": ["0", "0", "23", "0", "1", "1", "12", "12", "31", "30", "30", "25", "26", "26", "26", "29", "26", "27", "29", "28", "1"], "time": [1064, 2287, 3118, 3268, 3381, 4417, 4756, 5527, 6878, 7024, 8176, 8490, 8925, 9493, 9742, 10583, 11816, 12715, 13475, 13657, 14129]}, "edge": {"target": [], "time": []}}}, "displayed_time": "17.76", "trialTime": 20056, "trial_type": "mouselab-mdp", "trial_index": 11, "time_elapsed": 423090, "internal_node_id": "0.0-6.0-1.0-2.0"}}, {"uniqueid": "w56281366:a91168406", "current_trial": 12, "dateTime": 1693580772449, "trialdata": {"revealed_states": [], "clicked_states": ["1", "23", "12", "15", "19", "22", "21"], "num_clicks_accrued": [0, 0, 0, 0, 0, 0, 0, 0, 0, 0, 0, 0, 0], "stateRewards": ["", -2, -1, -6, -14, -55, 78, -13, 11, 14, -71, 59, 2, 2, 6, -6, 9, 38, 14, 7, 85, 11, 68, 1, -4, -1, -3, -63, -85, 9, -2, 63, -86, -10], "withholdReward": false, "trial_id": "mdp_trial_4", "block": "test", "trialIndex": 5, "score": 78.35, "costs": -6.65, "simulationMode": [null, null, null, null, null], "rewards": [2, 2, 6, 7, 68], "path": ["0", "0", "12", "13", "14", "19", "22"], "rt": [15799, 82, 127, 48, 73], "actions": ["right", "right", "right", "down", "left"], "actionTimes": [17591, 18190, 18840, 19411, 20019], "queries": {"click": {"state": {"target": ["1", "23", "12", "15", "19", "22", "21"], "time": [2644, 3497, 4636, 6754, 8168, 9551, 13150]}, "edge": {"target": [], "time": []}}, "mouseover": {"state": {"target": ["1", "23", "0", "12", "13", "15", "14", "19", "19", "22", "21", "21", "20", "20", "19", "22"], "time": [2423, 3142, 4043, 4099, 5425, 6474, 7242, 7608, 7955, 9060, 9941, 12539, 14308, 16588, 16708, 16804]}, "edge": {"target": [], "time": []}}, "mouseout": {"state": {"target": ["13", "0", "1", "23", "0", "12", "13", "15", "14", "19", "19", "22", "22", "21", "22", "21", "20", "21", "20", "19", "22"], "time": [539, 2156, 2977, 4006, 4062, 5377, 6090, 7126, 7574, 7675, 8961, 9658, 9924, 11358, 12373, 13161, 15619, 16420, 16688, 16754, 17021]}, "edge": {"target": [], "time": []}}}, "displayed_time": "20.53", "trialTime": 22084, "trial_type": "mouselab-mdp", "trial_index": 12, "time_elapsed": 445686, "internal_node_id": "0.0-6.0-1.0-3.0"}}, {"uniqueid": "w56281366:a91168406", "current_trial": 13, "dateTime": 1693580799979, "trialdata": {"revealed_states": [], "clicked_states": ["1", "23", "12", "15", "19", "18", "16", "17"], "num_clicks_accrued": [0, 0, 0, 0, 0, 0, 0, 0, 0, 0, 0, 0, 0], "stateRewards": ["", -1, -3, 3, 5, 56, 39, 50, -1, -80, 33, -46, 1, -2, -6, -8, 87, 48, 54, -11, -20, -64, -54, -2, 3, -7, -3, 12, 88, 35, -16, -46, -70, -3], "withholdReward": false, "trial_id": "mdp_trial_5", "block": "test", "trialIndex": 6, "score": 63.2, "costs": -8.8, "simulationMode": [null, null, null, null, null], "rewards": [1, -2, -6, -8, 87], "path": ["0", "0", "12", "13", "14", "15", "16"], "rt": [19621, 595, 135, 218, 91], "actions": ["right", "right", "right", "up", "up"], "actionTimes": [21876, 22984, 23644, 24373, 24971], "queries": {"click": {"state": {"target": ["1", "23", "12", "15", "19", "18", "16", "17"], "time": [3446, 4270, 5262, 7092, 8131, 9666, 13403, 18008]}, "edge": {"target": [], "time": []}}, "mouseover": {"state": {"target": ["1", "23", "0", "12", "13", "12", "13", "15", "14", "19", "18", "16", "16", "17", "17", "14"], "time": [3079, 4069, 4586, 4627, 4724, 5107, 6126, 6717, 7402, 7871, 9385, 10172, 13135, 15855, 17018, 18888]}, "edge": {"target": [], "time": []}}, "mouseout": {"state": {"target": ["22", "1", "23", "23", "0", "12", "13", "12", "13", "15", "14", "19", "18", "16", "16", "17", "16", "17", "14"], "time": [1267, 3819, 4378, 4553, 4622, 4658, 4907, 5571, 6144, 7386, 7452, 8956, 10006, 11890, 13855, 16038, 16716, 18572, 21167]}, "edge": {"target": [], "time": []}}}, "displayed_time": "25.48", "trialTime": 26946, "trial_type": "mouselab-mdp", "trial_index": 13, "time_elapsed": 473216, "internal_node_id": "0.0-6.0-1.0-4.0"}}, {"uniqueid": "w56281366:a91168406", "current_trial": 14, "dateTime": 1693580828793, "trialdata": {"revealed_states": [], "clicked_states": ["1", "23", "12", "24", "2", "8", "4", "5", "6", "7"], "num_clicks_accrued": [0, 0, 0, 0, 0, 0, 0, 0, 0, 0, 0, 0, 0], "stateRewards": ["", -1, 2, -6, 6, 43, 78, 78, -2, 55, -29, -17, -2, -4, 1, -15, 13, 7, -79, 8, -28, -68, 36, -1, -3, 3, -16, 84, -18, 87, 10, 32, 13, -81], "withholdReward": false, "trial_id": "mdp_trial_6", "block": "test", "trialIndex": 7, "score": 69.5, "costs": -9.5, "simulationMode": [null, null, null, null, null], "rewards": [-1, 2, -6, 6, 78], "path": ["0", "0", "1", "2", "3", "4", "7"], "rt": [23163, 321, 95, 41, 51], "actions": ["up", "up", "up", "right", "down"], "actionTimes": [24498, 25333, 25946, 26513, 27087], "queries": {"click": {"state": {"target": ["1", "23", "12", "24", "2", "8", "4", "5", "6", "7"], "time": [2173, 2944, 4111, 6051, 7755, 9723, 11082, 12482, 16769, 20755]}, "edge": {"target": [], "time": []}}, "mouseover": {"state": {"target": ["0", "1", "23", "0", "12", "24", "2", "1", "1", "3", "8", "7", "4", "5", "6", "6", "7", "7"], "time": [1665, 1867, 2653, 3461, 3703, 5405, 7583, 8169, 8437, 8733, 9529, 10270, 10635, 11804, 13183, 16582, 20199, 20498]}, "edge": {"target": [], "time": []}}, "mouseout": {"state": {"target": ["12", "0", "1", "23", "0", "12", "24", "24", "2", "1", "1", "3", "8", "7", "4", "5", "6", "5", "6", "6", "6", "7"], "time": [667, 1786, 2525, 3440, 3475, 4442, 6061, 6356, 8118, 8286, 8556, 9438, 10035, 10283, 11771, 12852, 13201, 15731, 18739, 19415, 20050, 20267]}, "edge": {"target": [], "time": []}}}, "displayed_time": "27.65", "trialTime": 28600, "trial_type": "mouselab-mdp", "trial_index": 14, "time_elapsed": 502030, "internal_node_id": "0.0-6.0-1.0-5.0"}}, {"uniqueid": "w56281366:a91168406", "current_trial": 15, "dateTime": 1693580857551, "trialdata": {"revealed_states": [], "clicked_states": ["1", "23", "12", "8", "4", "11", "9", "10"], "num_clicks_accrued": [0, 0, 0, 0, 0, 0, 0, 0, 0, 0, 0, 0, 0], "stateRewards": ["", 2, -3, -5, 5, 11, -9, -33, 6, 67, 6, -30, -1, -2, -6, 13, 55, 13, 72, -14, 75, 21, -66, -2, -4, 6, 15, -1, -35, 60, 2, 51, -73, 12], "withholdReward": false, "trial_id": "mdp_trial_7", "block": "test", "trialIndex": 8, "score": 58.2, "costs": -8.8, "simulationMode": [null, null, null, null, null], "rewards": [2, -3, -5, 6, 67], "path": ["0", "0", "1", "2", "3", "8", "9"], "rt": [20844, 413, 192, 83, 127], "actions": ["up", "up", "up", "left", "up"], "actionTimes": [22408, 23344, 24064, 24661, 25310], "queries": {"click": {"state": {"target": ["1", "23", "12", "8", "4", "11", "9", "10"], "time": [2834, 3820, 5266, 7370, 8564, 9692, 13240, 17700]}, "edge": {"target": [], "time": []}}, "mouseover": {"state": {"target": ["1", "23", "0", "12", "12", "2", "8", "2", "4", "7", "2", "11", "9", "8", "10"], "time": [2397, 3472, 4406, 4714, 5098, 6315, 6932, 7734, 8085, 8983, 9189, 9480, 12945, 17278, 17528]}, "edge": {"target": [], "time": []}}, "mouseout": {"state": {"target": ["7", "0", "0", "1", "23", "0", "12", "12", "12", "2", "8", "2", "4", "7", "2", "11", "11", "11", "9", "8"], "time": [496, 549, 2213, 3147, 4386, 4597, 4787, 5604, 5834, 6798, 7685, 7752, 8913, 9147, 9203, 10218, 11165, 12779, 17263, 17310]}, "edge": {"target": [], "time": []}}}, "displayed_time": "25.83", "trialTime": 28360, "trial_type": "mouselab-mdp", "trial_index": 15, "time_elapsed": 530789, "internal_node_id": "0.0-6.0-1.0-6.0"}}, {"uniqueid": "w56281366:a91168406", "current_trial": 16, "dateTime": 1693580883186, "trialdata": {"revealed_states": [], "clicked_states": ["23", "1", "12", "27", "29", "28"], "num_clicks_accrued": [0, 0, 0, 0, 0, 0, 0, 0, 0, 0, 0, 0, 0], "stateRewards": ["", 1, 1, 7, -11, 80, -20, -53, -14, 3, 31, 27, 2, -1, -8, -10, 33, 41, 86, 9, 78, -37, -13, -1, -2, -6, -8, -80, 75, 4, -16, -49, -74, 24], "withholdReward": false, "trial_id": "mdp_trial_8", "block": "test", "trialIndex": 9, "score": 52.3, "costs": -5.699999999999999, "simulationMode": [null, null, null, null, null], "rewards": [-1, -2, -6, -8, 75], "path": ["0", "0", "23", "24", "25", "26", "28"], "rt": [18912, 74, 187, 43, 129], "actions": ["left", "left", "left", "up", "right"], "actionTimes": [20348, 20953, 21667, 22238, 22907], "queries": {"click": {"state": {"target": ["23", "1", "12", "27", "29", "28"], "time": [2647, 3584, 4555, 6547, 10525, 15576]}, "edge": {"target": [], "time": []}}, "mouseover": {"state": {"target": ["23", "1", "12", "12", "0", "24", "25", "26", "27", "26", "29", "25", "25", "28"], "time": [2342, 3256, 3975, 4327, 5423, 5575, 5773, 5940, 6332, 6924, 10204, 13971, 14920, 15219]}, "edge": {"target": [], "time": []}}, "mouseout": {"state": {"target": ["10", "12", "0", "23", "1", "12", "12", "0", "23", "24", "25", "26", "27", "26", "27", "29", "25", "25"], "time": [557, 637, 2221, 2992, 3857, 4008, 5407, 5459, 5508, 5705, 5890, 6006, 6889, 7030, 9871, 13906, 14038, 14936]}, "edge": {"target": [], "time": []}}}, "displayed_time": "23.42", "trialTime": 25307, "trial_type": "mouselab-mdp", "trial_index": 16, "time_elapsed": 556423, "internal_node_id": "0.0-6.0-1.0-7.0"}}, {"uniqueid": "w56281366:a91168406", "current_trial": 17, "dateTime": 1693580907561, "trialdata": {"revealed_states": [], "clicked_states": ["1", "23", "12", "4", "8", "11", "9", "10"], "num_clicks_accrued": [0, 0, 0, 0, 0, 0, 0, 0, 0, 0, 0, 0, 0], "stateRewards": ["", 1, -1, -7, -7, -22, 15, -13, 13, 26, -32, 38, -1, 1, -7, -4, 16, -62, 86, 12, -54, 56, 64, -2, -1, 6, 14, -57, 37, 62, -6, -25, 50, -70], "withholdReward": false, "trial_id": "mdp_trial_9", "block": "test", "trialIndex": 10, "score": 35.2, "costs": -8.8, "simulationMode": [null, null, null, null, null], "rewards": [1, -1, -7, 13, 38], "path": ["0", "0", "1", "2", "3", "8", "11"], "rt": [17644, 120, 79, 70, 121], "actions": ["up", "up", "up", "left", "left"], "actionTimes": [18957, 19608, 20209, 20781, 21424], "queries": {"click": {"state": {"target": ["1", "23", "12", "4", "8", "11", "9", "10"], "time": [2125, 2954, 3873, 6022, 7273, 8537, 11585, 15163]}, "edge": {"target": [], "time": []}}, "mouseover": {"state": {"target": ["0", "1", "23", "0", "12", "4", "3", "8", "11", "9", "8", "10", "8", "8", "10", "2", "7"], "time": [1322, 1854, 2705, 3407, 3608, 5204, 6705, 6787, 8020, 9156, 11997, 12904, 14469, 14839, 14901, 18369, 18453]}, "edge": {"target": [], "time": []}}, "mouseout": {"state": {"target": ["28", "12", "0", "1", "23", "0", "12", "1", "4", "3", "8", "11", "8", "9", "8", "10", "8", "8", "10", "2", "7"], "time": [365, 654, 1808, 2606, 3390, 3456, 4189, 4475, 6690, 6753, 7853, 8907, 9071, 11984, 12009, 14452, 14502, 14853, 17085, 18436, 18469]}, "edge": {"target": [], "time": []}}}, "displayed_time": "21.94", "trialTime": 23919, "trial_type": "mouselab-mdp", "trial_index": 17, "time_elapsed": 580798, "internal_node_id": "0.0-6.0-1.0-8.0"}}, {"uniqueid": "w56281366:a91168406", "current_trial": 18, "dateTime": 1693580928036, "trialdata": {"revealed_states": [], "clicked_states": ["1", "23", "12", "2", "24"], "num_clicks_accrued": [0, 0, 0, 0, 0, 0, 0, 0, 0, 0, 0, 0, 0], "stateRewards": ["", 2, 3, -2, -8, -8, -41, 74, 15, -23, -80, 1, 1, 3, 3, -15, -63, -78, 67, 13, 75, -41, 86, 2, -2, 6, -3, -8, -49, 50, -6, 83, 74, 80], "withholdReward": false, "trial_id": "mdp_trial_10", "block": "test", "trialIndex": 11, "score": 74.05, "costs": 0.050000000000000044, "simulationMode": [null, null, null, null, null], "rewards": [2, -2, 6, -6, 74], "path": ["0", "0", "23", "24", "25", "30", "32"], "rt": [14343, 318, 123, 2, 14], "actions": ["left", "left", "left", "down", "down"], "actionTimes": [15796, 16636, 17275, 17798, 18343], "queries": {"click": {"state": {"target": ["1", "23", "12", "2", "24"], "time": [2981, 4750, 6259, 7591, 9665]}, "edge": {"target": [], "time": []}}, "mouseover": {"state": {"target": ["1", "23", "0", "12", "2", "24", "23", "0", "12", "13", "12", "13"], "time": [2147, 3349, 5280, 5616, 7332, 8679, 10719, 10763, 10880, 11031, 11463, 13296]}, "edge": {"target": [], "time": []}}, "mouseout": {"state": {"target": ["0", "0", "1", "23", "0", "12", "2", "24", "23", "0", "12", "13", "12", "13"], "time": [681, 2082, 3298, 5264, 5331, 6967, 8367, 10714, 10747, 10848, 10914, 11184, 13094, 14263]}, "edge": {"target": [], "time": []}}}, "displayed_time": "18.88", "trialTime": 20057, "trial_type": "mouselab-mdp", "trial_index": 18, "time_elapsed": 601273, "internal_node_id": "0.0-6.0-1.0-9.0"}}, {"uniqueid": "w56281366:a91168406", "current_trial": 19, "dateTime": 1693580947987, "trialdata": {"revealed_states": [], "clicked_states": ["23", "1", "12", "10"], "num_clicks_accrued": [0, 0, 0, 0, 0, 0, 0, 0, 0, 0, 0, 0, 0], "stateRewards": ["", 2, -4, -4, 13, -80, 62, 13, -11, 57, -13, -44, 1, 4, 3, -4, -29, -88, 15, 16, -58, 68, -45, -1, -3, -1, -9, -44, -86, -19, -7, -36, 59, 66], "withholdReward": false, "trial_id": "mdp_trial_11", "block": "test", "trialIndex": 12, "score": -74.4, "costs": -1.4, "simulationMode": [null, null, null, null, null], "rewards": [2, -4, -4, 13, -80], "path": ["0", "0", "1", "2", "3", "4", "5"], "rt": [14058, 10, 89, 154, 40], "actions": ["up", "up", "up", "right", "up"], "actionTimes": [15431, 15955, 16579, 17250, 17812], "queries": {"click": {"state": {"target": ["23", "1", "12", "10"], "time": [2444, 4005, 5169, 6656]}, "edge": {"target": [], "time": []}}, "mouseover": {"state": {"target": ["23", "0", "1", "12", "2", "3", "10", "2", "3", "8", "9", "8", "9", "8"], "time": [2287, 2858, 3573, 4777, 5908, 6077, 6504, 7436, 8019, 11336, 11885, 12442, 12803, 13236]}, "edge": {"target": [], "time": []}}, "mouseout": {"state": {"target": ["12", "0", "23", "0", "1", "12", "2", "3", "10", "10", "2", "3", "8", "9", "8", "9"], "time": [838, 2039, 2807, 3053, 4677, 5823, 5956, 6306, 6703, 7287, 7902, 11038, 11703, 12405, 12671, 13121]}, "edge": {"target": [], "time": []}}}, "displayed_time": "18.34", "trialTime": 19552, "trial_type": "mouselab-mdp", "trial_index": 19, "time_elapsed": 621224, "internal_node_id": "0.0-6.0-1.0-10.0"}}, {"uniqueid": "w56281366:a91168406", "current_trial": 20, "dateTime": 1693580967797, "trialdata": {"revealed_states": [], "clicked_states": ["1", "23", "12", "26", "30", "33"], "num_clicks_accrued": [0, 0, 0, 0, 0, 0, 0, 0, 0, 0, 0, 0, 0], "stateRewards": ["", -2, -3, 4, 1, 33, -53, 15, 9, -12, 61, -6, -2, 4, 6, -11, 47, -43, -7, -11, 46, 23, -28, -1, -1, 3, -10, 11, 76, -76, 10, 18, -38, 87], "withholdReward": false, "trial_id": "mdp_trial_12", "block": "test", "trialIndex": 13, "score": 93.5, "costs": -4.5, "simulationMode": [null, null, null, null, null], "rewards": [-1, -1, 3, 10, 87], "path": ["0", "0", "23", "24", "25", "30", "33"], "rt": [13133, 421, 219, 224, 122], "actions": ["left", "left", "left", "down", "left"], "actionTimes": [14641, 15579, 16308, 17061, 17694], "queries": {"click": {"state": {"target": ["1", "23", "12", "26", "30", "33"], "time": [2471, 3550, 4706, 7146, 8795, 10499]}, "edge": {"target": [], "time": []}}, "mouseover": {"state": {"target": ["1", "23", "0", "12", "24", "26", "25", "30", "33", "32", "32"], "time": [2322, 3322, 4039, 4173, 6322, 6890, 7777, 8423, 9838, 11208, 13825]}, "edge": {"target": [], "time": []}}, "mouseout": {"state": {"target": ["8", "1", "0", "1", "23", "0", "12", "24", "26", "25", "30", "33", "32", "33"], "time": [507, 538, 2044, 2938, 4023, 4073, 6139, 6639, 7758, 7825, 9756, 11074, 12294, 13737]}, "edge": {"target": [], "time": []}}}, "displayed_time": "18.21", "trialTime": 19465, "trial_type": "mouselab-mdp", "trial_index": 20, "time_elapsed": 641034, "internal_node_id": "0.0-6.0-1.0-11.0"}}, {"uniqueid": "w56281366:a91168406", "current_trial": 21, "dateTime": 1693580989465, "trialdata": {"revealed_states": [], "clicked_states": ["1", "23", "12", "26", "30", "33", "32"], "num_clicks_accrued": [0, 0, 0, 0, 0, 0, 0, 0, 0, 0, 0, 0, 0], "stateRewards": ["", -2, 2, 2, -6, 9, 37, 50, -13, -7, -18, -75, -2, -4, 4, 7, 23, -57, -66, -7, -81, -48, -76, 1, 1, -8, 1, 51, -2, 70, 14, 59, 71, -37], "withholdReward": false, "trial_id": "mdp_trial_13", "block": "test", "trialIndex": 14, "score": 72.35, "costs": -6.65, "simulationMode": [null, null, null, null, null], "rewards": [1, 1, -8, 14, 71], "path": ["0", "0", "23", "24", "25", "30", "32"], "rt": [15876, 89, 68, 9, 2], "actions": ["left", "left", "left", "down", "down"], "actionTimes": [17653, 18260, 18840, 19380, 19925], "queries": {"click": {"state": {"target": ["1", "23", "12", "26", "30", "33", "32"], "time": [3623, 4830, 5823, 7299, 8431, 10080, 13689]}, "edge": {"target": [], "time": []}}, "mouseover": {"state": {"target": ["1", "1", "23", "0", "12", "24", "25", "26", "25", "30", "30", "25", "27", "33", "32", "32"], "time": [2951, 3380, 4405, 5372, 5474, 6556, 6807, 7104, 7739, 7811, 8203, 8951, 9235, 9652, 10670, 13423]}, "edge": {"target": [], "time": []}}, "mouseout": {"state": {"target": ["32", "30", "23", "0", "0", "1", "1", "23", "0", "12", "24", "25", "26", "25", "30", "30", "25", "27", "33", "33", "32", "33", "32"], "time": [718, 752, 818, 1073, 2337, 3068, 4152, 5355, 5421, 6497, 6755, 6953, 7706, 7775, 8075, 8935, 8968, 9252, 10093, 10621, 10988, 13316, 17100]}, "edge": {"target": [], "time": []}}}, "displayed_time": "20.45", "trialTime": 21385, "trial_type": "mouselab-mdp", "trial_index": 21, "time_elapsed": 662702, "internal_node_id": "0.0-6.0-1.0-12.0"}}, {"uniqueid": "w56281366:a91168406", "current_trial": 22, "dateTime": 1693581022626, "trialdata": {"revealed_states": [], "clicked_states": ["1", "23", "12", "26", "30", "15", "19", "4", "8", "11", "9", "10"], "num_clicks_accrued": [0, 0, 0, 0, 0, 0, 0, 0, 0, 0, 0, 0, 0], "stateRewards": ["", -2, -3, 1, -7, 39, -67, 16, 5, -20, 73, 66, -1, 4, 5, -3, 23, -68, -87, -8, 3, -3, 17, 1, -4, -2, -13, -32, 34, 61, -5, -11, -18, 12], "withholdReward": false, "trial_id": "mdp_trial_14", "block": "test", "trialIndex": 15, "score": 59, "costs": -15.000000000000002, "simulationMode": [null, null, null, null, null], "rewards": [-2, -3, 1, 5, 73], "path": ["0", "0", "1", "2", "3", "8", "10"], "rt": [25402, 324, 161, 36, 73], "actions": ["up", "up", "up", "left", "down"], "actionTimes": [28316, 29156, 29828, 30388, 30987], "queries": {"click": {"state": {"target": ["1", "23", "12", "26", "30", "15", "19", "4", "8", "11", "9", "10"], "time": [3983, 5069, 6811, 8414, 9519, 11874, 13019, 14362, 15470, 16499, 20553, 24552]}, "edge": {"target": [], "time": []}}, "mouseover": {"state": {"target": ["0", "1", "23", "0", "12", "0", "24", "26", "25", "30", "32", "31", "0", "12", "13", "15", "14", "19", "13", "18", "4", "9", "8", "11", "8", "8", "9", "8", "10"], "time": [2928, 3450, 4619, 5718, 6566, 7402, 7635, 8250, 8869, 8919, 10085, 10897, 10948, 10985, 11165, 11665, 12421, 12519, 13600, 13712, 14299, 14849, 15251, 16185, 19814, 20063, 20416, 23781, 23964]}, "edge": {"target": [], "time": []}}, "mouseout": {"state": {"target": ["32", "23", "0", "1", "23", "0", "12", "12", "0", "23", "24", "26", "25", "30", "30", "32", "31", "0", "12", "13", "15", "14", "19", "13", "18", "4", "9", "8", "11", "8", "11", "8", "8", "9", "9", "8", "10"], "time": [2263, 2332, 3368, 4372, 5703, 6466, 6899, 7384, 7436, 7552, 8033, 8834, 8883, 9534, 10069, 10631, 10916, 10966, 11004, 11317, 12402, 12451, 13535, 13621, 13766, 14803, 14866, 16105, 16851, 17248, 19781, 19863, 20131, 21432, 23747, 23813, 25064]}, "edge": {"target": [], "time": []}}}, "displayed_time": "31.50", "trialTime": 32713, "trial_type": "mouselab-mdp", "trial_index": 22, "time_elapsed": 695863, "internal_node_id": "0.0-6.0-1.0-13.0"}}, {"uniqueid": "w56281366:a91168406", "current_trial": 23, "dateTime": 1693581050875, "trialdata": {"revealed_states": [], "clicked_states": ["1", "23", "26", "30", "33", "32", "31"], "num_clicks_accrued": [0, 0, 0, 0, 0, 0, 0, 0, 0, 0, 0, 0, 0], "stateRewards": ["", -2, 3, -1, 2, -72, 63, 20, -1, 62, -66, 39, -2, 3, -6, 14, 22, 47, 1, 8, -49, -1, -41, 2, 2, -6, -16, -64, -60, -34, 16, 54, 22, -7], "withholdReward": false, "trial_id": "mdp_trial_15", "block": "test", "trialIndex": 16, "score": 58.95, "costs": -9.05, "simulationMode": [null, null, null, null, null], "rewards": [2, 2, -6, 16, 54], "path": ["0", "0", "23", "24", "25", "30", "31"], "rt": [17729, 114, 130, 112, 88], "actions": ["left", "left", "left", "down", "right"], "actionTimes": [20140, 20777, 21423, 22046, 22649], "queries": {"click": {"state": {"target": ["1", "23", "26", "30", "33", "32", "31"], "time": [3565, 4957, 6419, 7405, 8498, 12139, 16201]}, "edge": {"target": [], "time": []}}, "mouseover": {"state": {"target": ["1", "23", "24", "26", "25", "30", "33", "32", "32", "31", "31"], "time": [3362, 4430, 5679, 6094, 6978, 7031, 8260, 8944, 11976, 15559, 16043]}, "edge": {"target": [], "time": []}}, "mouseout": {"state": {"target": ["10", "0", "0", "1", "23", "24", "26", "25", "30", "33", "32", "33", "32", "32", "31", "31", "31", "0"], "time": [1082, 1162, 1764, 4147, 5462, 5733, 6961, 7012, 7994, 8878, 9199, 11727, 14543, 15426, 15609, 16379, 19576, 26358]}, "edge": {"target": [], "time": []}}}, "displayed_time": "23.16", "trialTime": 27931, "trial_type": "mouselab-mdp", "trial_index": 23, "time_elapsed": 724112, "internal_node_id": "0.0-6.0-1.0-14.0"}}, {"uniqueid": "w56281366:a91168406", "current_trial": 24, "dateTime": 1693581080356, "trialdata": {"revealed_states": [], "clicked_states": ["5", "9", "11", "27"], "num_clicks_accrued": [0, 0, 0, 0, 0, 0, 0, 0, 0, 0, 0, 0, 0], "stateRewards": ["", -2, -4, -2, -13, -15, 87, -19, -6, -80, 30, 12, 1, 1, -8, 2, 55, 56, 15, 11, -68, -7, 55, -2, 3, -3, -3, 48, 62, 4, 1, -3, 69, -33], "withholdReward": false, "trial_id": "mdp_trial_16", "block": "test", "trialIndex": 17, "score": -71.6, "costs": -8.6, "simulationMode": [null, null, null, null, null], "rewards": [1, 1, -8, 11, -68], "path": ["0", "0", "12", "13", "14", "19", "20"], "rt": [21788, 242, 35, 585, 80], "actions": ["right", "right", "right", "down", "right"], "actionTimes": [24374, 25124, 25668, 26769, 27361], "queries": {"click": {"state": {"target": ["5", "9", "11", "27"], "time": [3965, 7644, 11587, 15559]}, "edge": {"target": [], "time": []}}, "mouseover": {"state": {"target": ["0", "1", "5", "9", "9", "11", "27", "27", "2", "1", "23", "12", "12", "15"], "time": [2661, 3235, 3684, 4671, 7518, 11183, 14948, 15299, 19265, 19898, 20115, 21048, 21531, 22768]}, "edge": {"target": [], "time": []}}, "mouseout": {"state": {"target": ["1", "2", "1", "0", "1", "5", "9", "9", "11", "27", "27", "27", "2", "1", "23", "12", "12", "15"], "time": [496, 612, 744, 3219, 3251, 4569, 5885, 10969, 14932, 15235, 15617, 17983, 19748, 19937, 20981, 21266, 22766, 22782]}, "edge": {"target": [], "time": []}}}, "displayed_time": "27.88", "trialTime": 28857, "trial_type": "mouselab-mdp", "trial_index": 24, "time_elapsed": 753594, "internal_node_id": "0.0-6.0-1.0-15.0"}}, {"uniqueid": "w56281366:a91168406", "current_trial": 25, "dateTime": 1693581125939, "trialdata": {"revealed_states": [], "clicked_states": ["1", "8", "4", "5", "6", "7", "23", "26", "27", "29", "28", "31"], "num_clicks_accrued": [0, 0, 0, 0, 0, 0, 0, 0, 0, 0, 0, 0, 0], "stateRewards": ["", 2, 4, 7, 7, -79, -2, -21, -5, -53, 47, -21, 1, -3, -1, 7, 83, 7, 84, -7, 80, -37, 69, 2, -4, 5, 2, 4, -20, -30, 7, 71, 44, -81], "withholdReward": false, "trial_id": "mdp_trial_17", "block": "test", "trialIndex": 18, "score": 61.8, "costs": -19.2, "simulationMode": [null, null, null, null, null], "rewards": [2, -4, 5, 7, 71], "path": ["0", "0", "23", "24", "25", "30", "31"], "rt": [38307, 279, 121, 19, 139], "actions": ["left", "left", "left", "down", "right"], "actionTimes": [41127, 41923, 42562, 43076, 43729], "queries": {"click": {"state": {"target": ["1", "8", "4", "5", "6", "7", "23", "26", "27", "29", "28", "31"], "time": [3787, 6363, 7781, 9092, 12924, 16715, 21522, 23859, 25463, 29032, 33106, 36874]}, "edge": {"target": [], "time": []}}, "mouseover": {"state": {"target": ["1", "23", "2", "3", "8", "3", "4", "5", "6", "7", "24", "25", "24", "23", "26", "27", "26", "27", "29", "26", "28", "24", "31", "32"], "time": [3603, 4362, 5245, 5511, 5961, 6946, 7245, 8562, 12744, 16462, 20559, 20877, 21142, 21326, 23109, 23492, 23743, 25042, 28875, 32707, 32874, 36407, 36543, 38857]}, "edge": {"target": [], "time": []}}, "mouseout": {"state": {"target": ["17", "13", "23", "0", "1", "23", "2", "3", "8", "3", "4", "5", "5", "6", "7", "7", "7", "24", "25", "24", "23", "23", "26", "27", "26", "26", "26", "27", "27", "29", "26", "28", "24", "31", "31", "32", "31"], "time": [1378, 1628, 1978, 2832, 4196, 5045, 5312, 5887, 6930, 7080, 8413, 10297, 12428, 16363, 16744, 18761, 19893, 20576, 20926, 21259, 21546, 22810, 23393, 23710, 23875, 24540, 24798, 26027, 28637, 32657, 32807, 36358, 36440, 36964, 38659, 40208, 40256]}, "edge": {"target": [], "time": []}}}, "displayed_time": "44.24", "trialTime": 45305, "trial_type": "mouselab-mdp", "trial_index": 25, "time_elapsed": 799176, "internal_node_id": "0.0-6.0-1.0-16.0"}}, {"uniqueid": "w56281366:a91168406", "current_trial": 26, "dateTime": 1693581162423, "trialdata": {"revealed_states": [], "clicked_states": ["1", "23", "12", "15", "16", "18", "17", "21", "20", "22"], "num_clicks_accrued": [0, 0, 0, 0, 0, 0, 0, 0, 0, 0, 0, 0, 0], "stateRewards": ["", -2, 3, 3, -14, 62, 36, 49, 16, 11, 17, -84, 2, -1, 6, 2, -82, -73, 49, -6, -87, 48, 50, -1, -2, -1, -16, -11, 37, -44, 4, 55, 73, -10], "withholdReward": false, "trial_id": "mdp_trial_18", "block": "test", "trialIndex": 19, "score": 37.3, "costs": -13.700000000000001, "simulationMode": [null, null, null, null, null], "rewards": [2, -1, 6, -6, 50], "path": ["0", "0", "12", "13", "14", "19", "22"], "rt": [28573, 179, 79, 642, 127], "actions": ["right", "right", "right", "down", "left"], "actionTimes": [30736, 31427, 32009, 33189, 33814], "queries": {"click": {"state": {"target": ["1", "23", "12", "15", "16", "18", "17", "21", "20", "22"], "time": [3314, 4260, 5292, 7023, 8748, 12401, 15924, 19834, 23526, 27118]}, "edge": {"target": [], "time": []}}, "mouseover": {"state": {"target": ["1", "23", "12", "13", "15", "15", "14", "16", "16", "18", "15", "17", "19", "21", "20", "19", "22"], "time": [2950, 4069, 4783, 5919, 6432, 6799, 7668, 8002, 8467, 12250, 13451, 13498, 19448, 19480, 23217, 26796, 26997]}, "edge": {"target": [], "time": []}}, "mouseout": {"state": {"target": ["23", "0", "1", "23", "12", "13", "15", "15", "14", "15", "16", "16", "18", "15", "17", "19", "21", "20", "19"], "time": [1368, 2753, 3866, 4285, 5887, 6085, 6466, 7601, 7702, 7849, 8050, 11898, 13448, 13467, 19130, 19463, 22564, 26780, 26881]}, "edge": {"target": [], "time": []}}}, "displayed_time": "34.31", "trialTime": 36182, "trial_type": "mouselab-mdp", "trial_index": 26, "time_elapsed": 835660, "internal_node_id": "0.0-6.0-1.0-17.0"}}, {"uniqueid": "w56281366:a91168406", "current_trial": 27, "dateTime": 1693581185282, "trialdata": {"revealed_states": [], "clicked_states": ["1", "23", "12", "15", "19", "22", "21"], "num_clicks_accrued": [0, 0, 0, 0, 0, 0, 0, 0, 0, 0, 0, 0, 0], "stateRewards": ["", -2, 2, 3, -7, 76, 63, 21, 15, 35, -8, -44, 1, 1, -2, -12, 23, 24, 76, -9, 46, 66, -49, -2, -1, 7, 12, 40, -71, -45, -6, 38, -49, 46], "withholdReward": false, "trial_id": "mdp_trial_19", "block": "test", "trialIndex": 20, "score": 50.35, "costs": -6.65, "simulationMode": [null, null, null, null, null], "rewards": [1, 1, -2, -9, 66], "path": ["0", "0", "12", "13", "14", "19", "21"], "rt": [16733, 309, 151, 33, 133], "actions": ["right", "right", "right", "down", "down"], "actionTimes": [18339, 19148, 19820, 20357, 21019], "queries": {"click": {"state": {"target": ["1", "23", "12", "15", "19", "22", "21"], "time": [2491, 3752, 5296, 7486, 9189, 10764, 14458]}, "edge": {"target": [], "time": []}}, "mouseover": {"state": {"target": ["1", "23", "0", "12", "13", "18", "15", "14", "19", "22", "21"], "time": [2338, 3370, 4388, 4670, 6305, 6619, 7152, 7986, 8785, 10585, 14302]}, "edge": {"target": [], "time": []}}, "mouseout": {"state": {"target": ["22", "12", "0", "1", "23", "0", "12", "13", "18", "15", "14", "19", "22", "21"], "time": [770, 837, 1087, 3040, 4370, 4436, 6288, 6321, 7137, 7920, 8588, 9736, 14053, 17703]}, "edge": {"target": [], "time": []}}}, "displayed_time": "21.54", "trialTime": 22603, "trial_type": "mouselab-mdp", "trial_index": 27, "time_elapsed": 858520, "internal_node_id": "0.0-6.0-1.0-18.0"}}, {"uniqueid": "w56281366:a91168406", "current_trial": 28, "dateTime": 1693581216104, "trialdata": {"revealed_states": [], "clicked_states": ["1", "23", "12", "13", "15", "19", "22", "21", "20"], "num_clicks_accrued": [0, 0, 0, 0, 0, 0, 0, 0, 0, 0, 0, 0, 0], "stateRewards": ["", 1, 3, -2, 15, 51, 15, -19, 11, 67, -45, -73, 2, 4, -2, -13, 36, 9, -28, 10, -30, 31, 16, 1, 2, -1, -16, 14, -22, 36, -1, 88, -5, 45], "withholdReward": false, "trial_id": "mdp_trial_20", "block": "test", "trialIndex": 21, "score": 35.85, "costs": -9.15, "simulationMode": [null, null, null, null, null], "rewards": [2, 4, -2, 10, 31], "path": ["0", "0", "12", "13", "14", "19", "21"], "rt": [22048, 180, 84, 466, 173], "actions": ["right", "right", "right", "down", "down"], "actionTimes": [24597, 25273, 25875, 26858, 27546], "queries": {"click": {"state": {"target": ["1", "23", "12", "13", "15", "19", "22", "21", "20"], "time": [3839, 5096, 6187, 8109, 10921, 12037, 13451, 17576, 21267]}, "edge": {"target": [], "time": []}}, "mouseover": {"state": {"target": ["1", "23", "0", "12", "13", "14", "15", "14", "19", "21", "22", "21", "21", "20"], "time": [3410, 4892, 5676, 5726, 7309, 9625, 10141, 11526, 11709, 12909, 13325, 17010, 17426, 21056]}, "edge": {"target": [], "time": []}}, "mouseout": {"state": {"target": ["19", "12", "1", "0", "1", "23", "0", "12", "13", "14", "15", "14", "19", "21", "22", "21", "21", "20"], "time": [493, 1759, 2060, 2559, 4760, 5659, 5710, 7194, 9258, 9991, 11509, 11558, 12642, 13191, 16840, 17040, 20773, 23007]}, "edge": {"target": [], "time": []}}}, "displayed_time": "28.06", "trialTime": 30517, "trial_type": "mouselab-mdp", "trial_index": 28, "time_elapsed": 889341, "internal_node_id": "0.0-6.0-1.0-19.0"}}, {"uniqueid": "w56281366:a91168406", "current_trial": 29, "dateTime": 1693581243886, "trialdata": {"revealed_states": [], "clicked_states": ["23", "1", "12", "8", "4", "9", "11", "10"], "num_clicks_accrued": [0, 0, 0, 0, 0, 0, 0, 0, 0, 0, 0, 0, 0], "stateRewards": ["", 2, -1, 3, -12, -83, 6, -33, 9, 28, 24, -50, -2, -1, -2, -5, -87, 37, 82, 12, 80, -5, 10, -2, -3, -6, 9, 22, -1, 16, 9, 77, -62, 58], "withholdReward": false, "trial_id": "mdp_trial_21", "block": "test", "trialIndex": 22, "score": 32.2, "costs": -8.8, "simulationMode": [null, null, null, null, null], "rewards": [2, -1, 3, 9, 28], "path": ["0", "0", "1", "2", "3", "8", "9"], "rt": [19517, 570, 111, 433, 87], "actions": ["up", "up", "up", "left", "up"], "actionTimes": [21459, 22563, 23184, 24140, 24742], "queries": {"click": {"state": {"target": ["23", "1", "12", "8", "4", "9", "11", "10"], "time": [2883, 3916, 4731, 7106, 8832, 10369, 13949, 17672]}, "edge": {"target": [], "time": []}}, "mouseover": {"state": {"target": ["23", "1", "12", "23", "2", "8", "4", "9", "4", "3", "9", "11", "11", "10", "10"], "time": [2774, 3724, 4440, 5891, 6273, 6891, 7808, 8457, 8589, 9490, 10190, 12706, 13655, 17155, 17556]}, "edge": {"target": [], "time": []}}, "mouseout": {"state": {"target": ["21", "23", "0", "23", "1", "12", "12", "23", "1", "2", "8", "4", "9", "4", "3", "9", "11", "11", "10"], "time": [656, 723, 2474, 3524, 4324, 4808, 5474, 5925, 6090, 6511, 7524, 8033, 8473, 9473, 9523, 10989, 13189, 17089, 17238]}, "edge": {"target": [], "time": []}}}, "displayed_time": "25.26", "trialTime": 27453, "trial_type": "mouselab-mdp", "trial_index": 29, "time_elapsed": 917124, "internal_node_id": "0.0-6.0-1.0-20.0"}}, {"uniqueid": "w56281366:a91168406", "current_trial": 30, "dateTime": 1693581261791, "trialdata": {"revealed_states": [], "clicked_states": ["23", "1", "12"], "num_clicks_accrued": [0, 0, 0, 0, 0, 0, 0, 0, 0, 0, 0, 0, 0], "stateRewards": ["", -2, 1, -5, 2, -68, 80, 33, 10, 67, -59, 20, -1, -3, 3, 14, 74, -2, 24, -16, 63, 80, 46, -1, 4, 6, 12, 83, -38, -43, -4, 43, 14, -79], "withholdReward": false, "trial_id": "mdp_trial_22", "block": "test", "trialIndex": 23, "score": -21.25, "costs": 0.75, "simulationMode": [null, null, null, null, null], "rewards": [-1, 4, 6, 12, -43], "path": ["0", "0", "23", "24", "25", "26", "29"], "rt": [7811, 137, 143, 12, 23], "actions": ["left", "left", "left", "up", "left"], "actionTimes": [10471, 11126, 11781, 12302, 12861], "queries": {"click": {"state": {"target": ["23", "1", "12"], "time": [3798, 4601, 5255]}, "edge": {"target": [], "time": []}}, "mouseover": {"state": {"target": ["23", "1", "12", "24", "25", "26", "26", "25", "25"], "time": [3738, 4505, 4972, 6272, 6920, 8103, 8503, 8873, 9537]}, "edge": {"target": [], "time": []}}, "mouseout": {"state": {"target": ["10", "0", "0", "23", "1", "12", "23", "24", "25", "26", "26", "25"], "time": [1777, 1921, 3338, 4138, 4855, 5538, 6189, 6638, 8005, 8253, 8787, 9338]}, "edge": {"target": [], "time": []}}}, "displayed_time": "16.66", "trialTime": 17626, "trial_type": "mouselab-mdp", "trial_index": 30, "time_elapsed": 935028, "internal_node_id": "0.0-6.0-1.0-21.0"}}, {"uniqueid": "w56281366:a91168406", "current_trial": 31, "dateTime": 1693581286086, "trialdata": {"revealed_states": [], "clicked_states": ["1", "23", "12", "4", "8", "9", "11", "10"], "num_clicks_accrued": [0, 0, 0, 0, 0, 0, 0, 0, 0, 0, 0, 0, 0], "stateRewards": ["", 1, -4, 6, -3, 40, 76, -51, 5, -24, -63, 44, -2, -2, 8, 1, 76, -85, -58, 10, 59, 20, 11, -2, 3, -3, 3, -82, -10, 54, -7, -57, -6, -32], "withholdReward": false, "trial_id": "mdp_trial_23", "block": "test", "trialIndex": 24, "score": 43.2, "costs": -8.8, "simulationMode": [null, null, null, null, null], "rewards": [1, -4, 6, 5, 44], "path": ["0", "0", "1", "2", "3", "8", "11"], "rt": [17609, 346, 105, 58, 509], "actions": ["up", "up", "up", "left", "left"], "actionTimes": [19199, 20064, 20689, 21257, 22290], "queries": {"click": {"state": {"target": ["1", "23", "12", "4", "8", "9", "11", "10"], "time": [2383, 3120, 3844, 5875, 7079, 8493, 12031, 15651]}, "edge": {"target": [], "time": []}}, "mouseover": {"state": {"target": ["1", "23", "0", "12", "2", "3", "4", "3", "8", "9", "11", "10"], "time": [2232, 2849, 3429, 3501, 4349, 4633, 5699, 6358, 6466, 7932, 11816, 15497]}, "edge": {"target": [], "time": []}}, "mouseout": {"state": {"target": ["25", "24", "24", "23", "0", "1", "23", "0", "12", "2", "3", "4", "3", "8", "9", "11", "10", "10"], "time": [415, 482, 765, 1048, 1115, 2700, 3413, 3468, 4283, 4500, 5615, 6299, 6407, 7800, 11714, 12649, 15658, 17364]}, "edge": {"target": [], "time": []}}}, "displayed_time": "22.80", "trialTime": 23968, "trial_type": "mouselab-mdp", "trial_index": 31, "time_elapsed": 959323, "internal_node_id": "0.0-6.0-1.0-22.0"}}, {"uniqueid": "w56281366:a91168406", "current_trial": 32, "dateTime": 1693581319487, "trialdata": {"revealed_states": [], "clicked_states": ["1", "12", "23", "15", "18", "16", "17", "20", "21", "22"], "num_clicks_accrued": [0, 0, 0, 0, 0, 0, 0, 0, 0, 0, 0, 0, 0], "stateRewards": ["", -1, 2, -7, -12, -62, 12, -13, 5, 77, -71, 83, 1, -4, 7, 15, -42, -87, -4, 5, -25, 44, 88, -1, 4, -5, -8, 14, 51, 8, -5, 83, -24, -19], "withholdReward": false, "trial_id": "mdp_trial_24", "block": "test", "trialIndex": 25, "score": 83.3, "costs": -13.700000000000001, "simulationMode": [null, null, null, null, null], "rewards": [1, -4, 7, 5, 88], "path": ["0", "0", "12", "13", "14", "19", "22"], "rt": [27514, 442, 149, 44, 150], "actions": ["right", "right", "right", "down", "left"], "actionTimes": [28818, 29778, 30436, 30996, 31668], "queries": {"click": {"state": {"target": ["1", "12", "23", "15", "18", "16", "17", "20", "21", "22"], "time": [2071, 2587, 3700, 5763, 7579, 11145, 14628, 18270, 21773, 25694]}, "edge": {"target": [], "time": []}}, "mouseover": {"state": {"target": ["1", "12", "23", "23", "18", "15", "18", "16", "17", "20", "21", "22"], "time": [1888, 2438, 2890, 3405, 5004, 5541, 7120, 11036, 14470, 18135, 21501, 25301]}, "edge": {"target": [], "time": []}}, "mouseout": {"state": {"target": ["0", "1", "12", "23", "23", "18", "15", "18", "16", "17", "17", "17", "20", "21", "22"], "time": [1821, 2339, 2821, 3077, 4121, 5340, 6708, 10720, 12953, 14670, 16302, 17802, 21235, 24652, 26651]}, "edge": {"target": [], "time": []}}}, "displayed_time": "32.19", "trialTime": 33095, "trial_type": "mouselab-mdp", "trial_index": 32, "time_elapsed": 992724, "internal_node_id": "0.0-6.0-1.0-23.0"}}, {"uniqueid": "w56281366:a91168406", "current_trial": 33, "dateTime": 1693581335930, "trialdata": {"revealed_states": [], "clicked_states": ["1", "23", "12"], "num_clicks_accrued": [0, 0, 0, 0, 0, 0, 0, 0, 0, 0, 0, 0, 0], "stateRewards": ["", 2, 3, -3, 12, -43, 81, -82, -15, 58, -7, -75, -1, -1, 3, -5, 50, -25, -8, 4, 66, 65, -66, 2, -4, 2, -1, -10, 10, 37, 11, 88, -37, 8], "withholdReward": false, "trial_id": "mdp_trial_25", "block": "test", "trialIndex": 26, "score": 36.75, "costs": 0.75, "simulationMode": [null, null, null, null, null], "rewards": [2, -4, 2, -1, 37], "path": ["0", "0", "23", "24", "25", "26", "29"], "rt": [6925, 97, 495, 470, 53], "actions": ["left", "left", "left", "up", "left"], "actionTimes": [8204, 8811, 9828, 10816, 11382], "queries": {"click": {"state": {"target": ["1", "23", "12"], "time": [2230, 2911, 3829]}, "edge": {"target": [], "time": []}}, "mouseover": {"state": {"target": ["1", "23", "0", "12", "24", "25", "26"], "time": [2095, 2678, 3212, 3246, 5161, 5728, 6144]}, "edge": {"target": [], "time": []}}, "mouseout": {"state": {"target": ["0", "1", "1", "23", "0", "12", "23", "24", "25"], "time": [995, 2265, 2562, 3179, 3229, 4395, 5128, 5228, 6078]}, "edge": {"target": [], "time": []}}}, "displayed_time": "15.28", "trialTime": 16135, "trial_type": "mouselab-mdp", "trial_index": 33, "time_elapsed": 1009168, "internal_node_id": "0.0-6.0-1.0-24.0"}}, {"uniqueid": "w56281366:a91168406", "current_trial": 34, "dateTime": 1693581359022, "trialdata": {"revealed_states": [], "clicked_states": ["1", "23", "12", "26", "30", "33", "32", "31"], "num_clicks_accrued": [0, 0, 0, 0, 0, 0, 0, 0, 0, 0, 0, 0, 0], "stateRewards": ["", 1, 2, -5, 14, 54, -14, -25, 16, -5, -87, 78, -1, 1, 3, -3, 52, 53, 53, -10, 73, -69, -48, 2, 3, 1, 8, -62, -7, 85, 7, 82, 52, -28], "withholdReward": false, "trial_id": "mdp_trial_26", "block": "test", "trialIndex": 27, "score": 86.2, "costs": -8.8, "simulationMode": [null, null, null, null, null], "rewards": [2, 3, 1, 7, 82], "path": ["0", "0", "23", "24", "25", "30", "31"], "rt": [16058, 30, 667, 147, 80], "actions": ["left", "left", "left", "down", "right"], "actionTimes": [17363, 17914, 19117, 19781, 20368], "queries": {"click": {"state": {"target": ["1", "23", "12", "26", "30", "33", "32", "31"], "time": [1800, 2317, 3085, 4451, 5523, 6722, 10130, 13613]}, "edge": {"target": [], "time": []}}, "mouseover": {"state": {"target": ["1", "23", "12", "31", "25", "26", "25", "30", "33", "32", "31"], "time": [1604, 2154, 2702, 3654, 3954, 4185, 4952, 5369, 6519, 7554, 13349]}, "edge": {"target": [], "time": []}}, "mouseout": {"state": {"target": ["26", "24", "23", "0", "1", "23", "12", "31", "25", "26", "26", "25", "30", "33", "32", "31"], "time": [451, 668, 784, 1526, 2070, 2440, 3403, 3721, 4085, 4568, 4869, 5086, 5969, 7151, 12621, 13951]}, "edge": {"target": [], "time": []}}}, "displayed_time": "20.88", "trialTime": 22769, "trial_type": "mouselab-mdp", "trial_index": 34, "time_elapsed": 1032260, "internal_node_id": "0.0-6.0-1.0-25.0"}}, {"uniqueid": "w56281366:a91168406", "current_trial": 35, "dateTime": 1693581381318, "trialdata": {"revealed_states": [], "clicked_states": ["1", "23", "12", "8", "4", "5", "6", "7"], "num_clicks_accrued": [0, 0, 0, 0, 0, 0, 0, 0, 0, 0, 0, 0, 0], "stateRewards": ["", 1, -4, -4, 8, 1, -79, 68, -10, -79, 8, -74, -1, -3, -6, 14, 43, 23, 9, 5, -51, 63, 61, -2, 4, 6, -10, 69, -32, 57, 15, -80, -80, -77], "withholdReward": false, "trial_id": "mdp_trial_27", "block": "test", "trialIndex": 28, "score": 60.2, "costs": -8.8, "simulationMode": [null, null, null, null, null], "rewards": [1, -4, -4, 8, 68], "path": ["0", "0", "1", "2", "3", "4", "7"], "rt": [16237, 4, 36, 547, 87], "actions": ["up", "up", "up", "right", "down"], "actionTimes": [17698, 18214, 18779, 19839, 20444], "queries": {"click": {"state": {"target": ["1", "23", "12", "8", "4", "5", "6", "7"], "time": [2204, 2871, 3737, 4816, 5946, 6889, 10184, 13428]}, "edge": {"target": [], "time": []}}, "mouseover": {"state": {"target": ["1", "23", "0", "12", "10", "8", "4", "5", "6", "6", "7"], "time": [1992, 2611, 3170, 3543, 4509, 4577, 5792, 6526, 7425, 7944, 10792]}, "edge": {"target": [], "time": []}}, "mouseout": {"state": {"target": ["23", "1", "0", "1", "23", "0", "12", "1", "10", "8", "8", "4", "4", "5", "6", "6", "7"], "time": [542, 676, 1238, 2460, 3141, 3343, 4276, 4344, 4526, 4923, 5160, 6195, 6459, 7292, 7659, 10760, 16860]}, "edge": {"target": [], "time": []}}}, "displayed_time": "20.96", "trialTime": 21943, "trial_type": "mouselab-mdp", "trial_index": 35, "time_elapsed": 1054556, "internal_node_id": "0.0-6.0-1.0-26.0"}}, {"uniqueid": "w56281366:a91168406", "current_trial": 36, "dateTime": 1693581405315, "trialdata": {"revealed_states": [], "clicked_states": ["1", "23", "12", "26", "30", "27", "29", "28"], "num_clicks_accrued": [0, 0, 0, 0, 0, 0, 0, 0, 0, 0, 0, 0, 0], "stateRewards": ["", -1, -3, -6, 14, 41, 18, 63, -14, 80, 21, 17, -2, -4, -2, -5, 13, 70, 8, -4, -64, -10, -20, 2, -1, 4, -1, -17, -55, 42, -7, 47, 54, 15], "withholdReward": false, "trial_id": "mdp_trial_28", "block": "test", "trialIndex": 29, "score": 37.2, "costs": -8.8, "simulationMode": [null, null, null, null, null], "rewards": [2, -1, 4, -1, 42], "path": ["0", "0", "23", "24", "25", "26", "29"], "rt": [17845, 272, 139, 566, 91], "actions": ["left", "left", "left", "up", "left"], "actionTimes": [19228, 20020, 20671, 21748, 22354], "queries": {"click": {"state": {"target": ["1", "23", "12", "26", "30", "27", "29", "28"], "time": [2286, 3150, 4032, 5891, 7125, 8480, 11953, 15603]}, "edge": {"target": [], "time": []}}, "mouseover": {"state": {"target": ["1", "1", "23", "0", "12", "24", "26", "30", "27", "29", "26", "28"], "time": [1782, 2115, 2999, 3383, 3449, 4566, 5132, 6903, 8348, 11848, 12497, 15431]}, "edge": {"target": [], "time": []}}, "mouseout": {"state": {"target": ["2", "0", "1", "1", "23", "23", "0", "12", "24", "26", "30", "30", "26", "27", "29", "26"], "time": [681, 1761, 1799, 2699, 3184, 3350, 3400, 4366, 4615, 6567, 7436, 7920, 8134, 11697, 12380, 12514]}, "edge": {"target": [], "time": []}}}, "displayed_time": "22.86", "trialTime": 23667, "trial_type": "mouselab-mdp", "trial_index": 36, "time_elapsed": 1078553, "internal_node_id": "0.0-6.0-1.0-27.0"}}, {"uniqueid": "w56281366:a91168406", "current_trial": 37, "dateTime": 1693581450274, "trialdata": {"revealed_states": [], "clicked_states": ["23", "1", "12", "15", "18", "16", "17", "22", "21", "20", "27", "29", "33"], "num_clicks_accrued": [0, 0, 0, 0, 0, 0, 0, 0, 0, 0, 0, 0, 0], "stateRewards": ["", -2, -4, -8, 8, 63, -50, -19, -7, -17, -31, 31, 1, 3, -5, 12, -35, -63, -29, -4, -17, -75, -79, -2, -3, -2, 8, -3, -85, 10, -2, -82, -82, 56], "withholdReward": false, "trial_id": "mdp_trial_29", "block": "test", "trialIndex": 30, "score": 26.85, "costs": -20.15, "simulationMode": [null, null, null, null, null], "rewards": [-2, -3, -2, -2, 56], "path": ["0", "0", "23", "24", "25", "30", "33"], "rt": [38409, 401, 142, 3, 93], "actions": ["left", "left", "left", "down", "left"], "actionTimes": [39720, 40634, 41290, 41802, 42425], "queries": {"click": {"state": {"target": ["23", "1", "12", "15", "18", "16", "17", "22", "21", "20", "27", "29", "33"], "time": [2328, 2976, 3537, 4721, 6102, 9383, 12948, 16742, 20428, 24060, 28110, 31887, 35591]}, "edge": {"target": [], "time": []}}, "mouseover": {"state": {"target": ["23", "1", "12", "13", "15", "14", "19", "14", "18", "16", "17", "14", "22", "22", "21", "20", "10", "27", "29", "33", "32"], "time": [2136, 2743, 3383, 4244, 4555, 5091, 5242, 5489, 5974, 6837, 12852, 16234, 16268, 16651, 20253, 23869, 27466, 28000, 31695, 35349, 37382]}, "edge": {"target": [], "time": []}}, "mouseout": {"state": {"target": ["28", "0", "0", "23", "23", "1", "12", "13", "15", "15", "14", "19", "14", "15", "18", "16", "17", "14", "22", "22", "21", "20", "10", "27", "29", "33"], "time": [637, 753, 2037, 2457, 2599, 3295, 3866, 4265, 4840, 5058, 5157, 5472, 5507, 5788, 6587, 9740, 16218, 16251, 16301, 20018, 23453, 27380, 27701, 31579, 35214, 37066]}, "edge": {"target": [], "time": []}}}, "displayed_time": "42.93", "trialTime": 44614, "trial_type": "mouselab-mdp", "trial_index": 37, "time_elapsed": 1123510, "internal_node_id": "0.0-6.0-1.0-28.0"}}, {"uniqueid": "w56281366:a91168406", "current_trial": 38, "dateTime": 1693581477963, "trialdata": {"revealed_states": [], "clicked_states": ["1", "23", "12", "8", "4", "5", "9", "11", "10"], "num_clicks_accrued": [0, 0, 0, 0, 0, 0, 0, 0, 0, 0, 0, 0, 0], "stateRewards": ["", -1, 4, -6, -5, -22, -38, -38, -2, -56, 88, 14, -1, -1, -7, -6, 61, -60, 21, 11, 57, 31, -30, -2, -2, 6, -9, -44, -70, -44, -15, 34, 16, -78], "withholdReward": false, "trial_id": "mdp_trial_30", "block": "test", "trialIndex": 31, "score": 72.05, "costs": -10.950000000000001, "simulationMode": [null, null, null, null, null], "rewards": [-1, 4, -6, -2, 88], "path": ["0", "0", "1", "2", "3", "8", "10"], "rt": [21435, 488, 133, 15, 14], "actions": ["up", "up", "up", "left", "down"], "actionTimes": [22848, 23845, 24489, 25022, 25626], "queries": {"click": {"state": {"target": ["1", "23", "12", "8", "4", "5", "9", "11", "10"], "time": [2050, 2818, 3652, 5108, 6018, 7738, 11614, 15146, 18750]}, "edge": {"target": [], "time": []}}, "mouseover": {"state": {"target": ["1", "23", "23", "0", "12", "0", "10", "8", "2", "4", "3", "9", "5", "6", "9", "11", "10", "2"], "time": [1845, 2292, 2659, 3111, 3344, 4475, 4641, 4775, 5542, 5874, 6708, 7131, 7627, 11140, 11307, 14956, 18541, 21954]}, "edge": {"target": [], "time": []}}, "mouseout": {"state": {"target": ["32", "12", "1", "23", "23", "0", "12", "0", "10", "8", "2", "4", "3", "9", "5", "6", "9", "11", "10"], "time": [461, 508, 2242, 2392, 3092, 3161, 3991, 4492, 4675, 5441, 5624, 6391, 6724, 7174, 8290, 11241, 14823, 18405, 21936]}, "edge": {"target": [], "time": []}}}, "displayed_time": "26.21", "trialTime": 27362, "trial_type": "mouselab-mdp", "trial_index": 38, "time_elapsed": 1151197, "internal_node_id": "0.0-6.0-1.0-29.0"}}, {"uniqueid": "w56281366:a91168406", "current_trial": 39, "dateTime": 1693581497531, "trialdata": {"revealed_states": [], "clicked_states": ["1", "23", "12", "26", "29", "27"], "num_clicks_accrued": [0, 0, 0, 0, 0, 0, 0, 0, 0, 0, 0, 0, 0], "stateRewards": ["", 1, -2, -3, 14, -42, -87, -37, -11, -50, 33, -44, -2, 4, -7, 13, 48, -75, -66, 12, 23, -2, 82, 1, -4, 3, 12, 51, -15, -26, -11, -52, -29, 82], "withholdReward": false, "trial_id": "mdp_trial_31", "block": "test", "trialIndex": 32, "score": 57.9, "costs": -5.1, "simulationMode": [null, null, null, null, null], "rewards": [1, -4, 3, 12, 51], "path": ["0", "0", "23", "24", "25", "26", "27"], "rt": [11780, 298, 115, 41, 100], "actions": ["left", "left", "left", "up", "up"], "actionTimes": [13906, 14719, 15351, 15910, 16519], "queries": {"click": {"state": {"target": ["1", "23", "12", "26", "29", "27"], "time": [2799, 3367, 3982, 5388, 6661, 9942]}, "edge": {"target": [], "time": []}}, "mouseover": {"state": {"target": ["1", "23", "0", "12", "0", "24", "26", "29", "27", "27", "28"], "time": [2591, 3170, 3609, 3717, 4656, 4709, 5221, 6571, 7253, 7570, 10503]}, "edge": {"target": [], "time": []}}, "mouseout": {"state": {"target": ["2", "1", "0", "0", "1", "23", "0", "12", "0", "24", "26", "29", "26", "27", "27", "27", "28"], "time": [839, 856, 903, 2526, 3053, 3448, 3643, 4654, 4671, 4754, 6270, 6970, 7186, 7303, 10026, 10386, 13775]}, "edge": {"target": [], "time": []}}}, "displayed_time": "17.04", "trialTime": 18135, "trial_type": "mouselab-mdp", "trial_index": 39, "time_elapsed": 1170768, "internal_node_id": "0.0-6.0-1.0-30.0"}}, {"uniqueid": "w56281366:a91168406", "current_trial": 40, "dateTime": 1693581514642, "trialdata": {"revealed_states": [], "clicked_states": ["1", "23", "12", "26", "27"], "num_clicks_accrued": [0, 0, 0, 0, 0, 0, 0, 0, 0, 0, 0, 0, 0], "stateRewards": ["", -2, 2, 3, -7, -31, -33, 29, -8, -57, 50, -83, -1, -1, 5, 13, -23, -62, 25, 5, -66, -85, 14, 1, -2, -1, 16, 71, 33, -19, -14, 5, -43, 79], "withholdReward": false, "trial_id": "mdp_trial_32", "block": "test", "trialIndex": 33, "score": 82.05, "costs": -2.95, "simulationMode": [null, null, null, null, null], "rewards": [1, -2, -1, 16, 71], "path": ["0", "0", "23", "24", "25", "26", "27"], "rt": [8969, 72, 126, 477, 116], "actions": ["left", "left", "left", "up", "up"], "actionTimes": [10659, 11248, 11887, 12870, 13493], "queries": {"click": {"state": {"target": ["1", "23", "12", "26", "27"], "time": [2624, 3334, 4037, 5315, 6646]}, "edge": {"target": [], "time": []}}, "mouseover": {"state": {"target": ["1", "23", "0", "12", "25", "26", "25", "30", "27", "29"], "time": [2142, 3259, 3609, 3777, 4543, 4859, 5777, 5825, 6494, 7409]}, "edge": {"target": [], "time": []}}, "mouseout": {"state": {"target": ["0", "0", "1", "23", "0", "12", "25", "26", "25", "30", "27", "29"], "time": [960, 2109, 2892, 3361, 3676, 4375, 4609, 5775, 5792, 6159, 7075, 10295]}, "edge": {"target": [], "time": []}}}, "displayed_time": "15.69", "trialTime": 16839, "trial_type": "mouselab-mdp", "trial_index": 40, "time_elapsed": 1187879, "internal_node_id": "0.0-6.0-1.0-31.0"}}, {"uniqueid": "w56281366:a91168406", "current_trial": 41, "dateTime": 1693581532996, "trialdata": {"revealed_states": [], "clicked_states": ["1", "23", "12", "3"], "num_clicks_accrued": [0, 0, 0, 0, 0, 0, 0, 0, 0, 0, 0, 0, 0], "stateRewards": ["", 1, 2, 7, 13, 88, -71, 27, 3, 60, 5, -53, -2, 2, -6, -1, -30, 79, 47, -4, -14, 46, 68, 1, 1, 8, 10, -14, 86, 48, -11, -67, -44, 5], "withholdReward": false, "trial_id": "mdp_trial_33", "block": "test", "trialIndex": 34, "score": 110.8, "costs": -0.19999999999999996, "simulationMode": [null, null, null, null, null], "rewards": [1, 2, 7, 13, 88], "path": ["0", "0", "1", "2", "3", "4", "5"], "rt": [8486, 13, 86, 581, 116], "actions": ["up", "up", "up", "right", "up"], "actionTimes": [10025, 10560, 11165, 12261, 12896], "queries": {"click": {"state": {"target": ["1", "23", "12", "3"], "time": [2299, 3272, 4039, 5683]}, "edge": {"target": [], "time": []}}, "mouseover": {"state": {"target": ["1", "23", "0", "12", "12", "2", "3", "4", "4", "6", "4"], "time": [2179, 2729, 3514, 3546, 3912, 5046, 5328, 6479, 7078, 7879, 8762]}, "edge": {"target": [], "time": []}}, "mouseout": {"state": {"target": ["28", "1", "13", "0", "1", "23", "0", "12", "12", "12", "2", "3", "4", "4", "6"], "time": [529, 562, 714, 1880, 2630, 3512, 3529, 3562, 4496, 4930, 5146, 6096, 6629, 7796, 8620]}, "edge": {"target": [], "time": []}}}, "displayed_time": "15.54", "trialTime": 18081, "trial_type": "mouselab-mdp", "trial_index": 41, "time_elapsed": 1206233, "internal_node_id": "0.0-6.0-1.0-32.0"}}, {"uniqueid": "w56281366:a91168406", "current_trial": 42, "dateTime": 1693581551568, "trialdata": {"revealed_states": [], "clicked_states": ["1", "23", "12", "15", "19", "20"], "num_clicks_accrued": [0, 0, 0, 0, 0, 0, 0, 0, 0, 0, 0, 0, 0], "stateRewards": ["", -1, -3, 1, -4, -48, -63, -49, -2, -84, -19, 65, 2, -2, -2, -12, -4, 59, 9, 6, 75, 69, -13, -1, -3, -3, -2, -37, -68, -36, 13, 32, 18, -14], "withholdReward": false, "trial_id": "mdp_trial_34", "block": "test", "trialIndex": 35, "score": 74.5, "costs": -4.5, "simulationMode": [null, null, null, null, null], "rewards": [2, -2, -2, 6, 75], "path": ["0", "0", "12", "13", "14", "19", "20"], "rt": [9407, 4, 75, 516, 163], "actions": ["right", "right", "right", "down", "right"], "actionTimes": [10671, 11192, 11799, 12821, 13501], "queries": {"click": {"state": {"target": ["1", "23", "12", "15", "19", "20"], "time": [1911, 2598, 3588, 4756, 5584, 6640]}, "edge": {"target": [], "time": []}}, "mouseover": {"state": {"target": ["1", "23", "12", "13", "15", "14", "19", "20", "21"], "time": [1607, 2342, 3388, 4138, 4439, 5105, 5304, 6475, 7621]}, "edge": {"target": [], "time": []}}, "mouseout": {"state": {"target": ["4", "7", "1", "23", "12", "13", "15", "15", "14", "19", "20"], "time": [505, 538, 2255, 2681, 4105, 4305, 4773, 5088, 5188, 5921, 7404]}, "edge": {"target": [], "time": []}}}, "displayed_time": "15.27", "trialTime": 18298, "trial_type": "mouselab-mdp", "trial_index": 42, "time_elapsed": 1224805, "internal_node_id": "0.0-6.0-1.0-33.0"}}, {"uniqueid": "w56281366:a91168406", "current_trial": 43, "dateTime": 1693581568746, "trialdata": {"revealed_states": [], "clicked_states": ["1", "23", "12", "4", "8", "9"], "num_clicks_accrued": [0, 0, 0, 0, 0, 0, 0, 0, 0, 0, 0, 0, 0], "stateRewards": ["", 2, 3, -6, -5, -3, 55, 40, 11, 61, 11, 51, 2, -4, -6, 9, -25, 29, -15, -6, 7, -77, -2, -2, -4, 1, 14, -43, -1, 56, -12, -54, 41, -74], "withholdReward": false, "trial_id": "mdp_trial_35", "block": "test", "trialIndex": 36, "score": 66.5, "costs": -4.5, "simulationMode": [null, null, null, null, null], "rewards": [2, 3, -6, 11, 61], "path": ["0", "0", "1", "2", "3", "8", "9"], "rt": [10865, 3, 8, 463, 75], "actions": ["up", "up", "up", "left", "up"], "actionTimes": [12861, 13374, 13912, 14901, 15495], "queries": {"click": {"state": {"target": ["1", "23", "12", "4", "8", "9"], "time": [2532, 3445, 4212, 6375, 7411, 8574]}, "edge": {"target": [], "time": []}}, "mouseover": {"state": {"target": ["0", "1", "23", "12", "2", "18", "7", "4", "4", "3", "8", "3", "9", "11", "11"], "time": [2004, 2337, 2854, 4087, 5121, 5689, 5805, 5937, 6121, 6887, 7187, 7953, 8387, 8887, 9187]}, "edge": {"target": [], "time": []}}, "mouseout": {"state": {"target": ["21", "24", "23", "0", "1", "23", "12", "2", "18", "7", "4", "4", "3", "8", "3", "9", "9", "11", "11"], "time": [972, 1220, 1337, 2071, 2821, 3637, 4837, 5337, 5720, 5887, 5953, 6870, 7012, 7870, 8120, 8588, 8853, 8941, 12298]}, "edge": {"target": [], "time": []}}}, "displayed_time": "16.00", "trialTime": 16912, "trial_type": "mouselab-mdp", "trial_index": 43, "time_elapsed": 1241983, "internal_node_id": "0.0-6.0-1.0-34.0"}}, {"uniqueid": "w56281366:a91168406", "current_trial": 44, "dateTime": 1693581602937, "trialdata": {"revealed_states": [], "clicked_states": ["1", "23", "12", "8", "4", "5", "6", "7", "10", "11", "9"], "num_clicks_accrued": [0, 0, 0, 0, 0, 0, 0, 0, 0, 0, 0, 0, 0], "stateRewards": ["", 2, -1, -1, 7, 11, -40, -22, -2, 69, 37, 8, -2, 4, -8, -12, -2, -72, -3, -12, 17, 63, 12, 1, 3, -7, 6, 25, 61, 61, -9, 28, -17, 27], "withholdReward": false, "trial_id": "mdp_trial_36", "block": "test", "trialIndex": 37, "score": 51.75, "costs": -15.250000000000002, "simulationMode": [null, null, null, null, null], "rewards": [2, -1, -1, -2, 69], "path": ["0", "0", "1", "2", "3", "8", "9"], "rt": [28004, 358, 143, 75, 119], "actions": ["up", "up", "up", "left", "up"], "actionTimes": [29627, 30501, 31155, 31736, 32363], "queries": {"click": {"state": {"target": ["1", "23", "12", "8", "4", "5", "6", "7", "10", "11", "9"], "time": [2488, 3290, 4179, 5433, 6272, 7797, 11153, 14596, 18284, 21854, 25552]}, "edge": {"target": [], "time": []}}, "mouseover": {"state": {"target": ["1", "1", "23", "0", "12", "2", "8", "2", "7", "4", "5", "6", "7", "2", "10", "11", "9"], "time": [2064, 2414, 2896, 3697, 3913, 4846, 5197, 5647, 5930, 5980, 7124, 8446, 11563, 17979, 18111, 21179, 25378]}, "edge": {"target": [], "time": []}}, "mouseout": {"state": {"target": ["1", "1", "1", "1", "23", "0", "12", "2", "8", "8", "2", "7", "4", "5", "6", "7", "2", "10", "11", "9"], "time": [932, 2097, 2501, 2863, 3630, 3796, 4797, 4863, 5465, 5633, 5665, 5947, 6480, 8396, 11512, 16350, 18061, 20878, 25176, 28992]}, "edge": {"target": [], "time": []}}}, "displayed_time": "32.88", "trialTime": 33914, "trial_type": "mouselab-mdp", "trial_index": 44, "time_elapsed": 1276173, "internal_node_id": "0.0-6.0-1.0-35.0"}}, {"uniqueid": "w56281366:a91168406", "current_trial": 45, "dateTime": 1693581636156, "trialdata": {"revealed_states": [], "clicked_states": ["23", "1", "12", "26", "30", "27", "29", "28", "31", "33", "32"], "num_clicks_accrued": [0, 0, 0, 0, 0, 0, 0, 0, 0, 0, 0, 0, 0], "stateRewards": ["", -1, 4, -3, 3, 57, -61, 5, -11, 23, -1, 34, -2, -4, -1, -13, 27, 38, -36, 4, -45, 21, 88, 1, -2, -1, 1, -69, -5, -78, -12, -9, 38, -54], "withholdReward": false, "trial_id": "mdp_trial_37", "block": "test", "trialIndex": 38, "score": 8.75, "costs": -15.250000000000002, "simulationMode": [null, null, null, null, null], "rewards": [1, -2, -1, -12, 38], "path": ["0", "0", "23", "24", "25", "30", "32"], "rt": [26561, 247, 114, 449, 148], "actions": ["left", "left", "left", "down", "down"], "actionTimes": [28275, 29040, 29674, 30642, 31309], "queries": {"click": {"state": {"target": ["23", "1", "12", "26", "30", "27", "29", "28", "31", "33", "32"], "time": [2361, 3090, 3726, 4907, 5888, 7046, 10461, 13801, 17211, 20781, 24343]}, "edge": {"target": [], "time": []}}, "mouseover": {"state": {"target": ["23", "1", "12", "24", "25", "26", "25", "30", "25", "27", "29", "24", "28", "31", "30", "33", "32"], "time": [2219, 2830, 3530, 4263, 4413, 4696, 5248, 5762, 6480, 6796, 10328, 10845, 11245, 17007, 20460, 20662, 23993]}, "edge": {"target": [], "time": []}}, "mouseout": {"state": {"target": ["8", "2", "0", "23", "1", "12", "23", "24", "25", "26", "25", "30", "30", "30", "25", "26", "27", "29", "29", "24", "28", "31", "31", "30", "33", "32"], "time": [646, 863, 2051, 2398, 3347, 4013, 4247, 4313, 4496, 5234, 5281, 5899, 6162, 6446, 6579, 6712, 10045, 10480, 10778, 11062, 15277, 17279, 20393, 20594, 23909, 27697]}, "edge": {"target": [], "time": []}}}, "displayed_time": "31.83", "trialTime": 32938, "trial_type": "mouselab-mdp", "trial_index": 45, "time_elapsed": 1309392, "internal_node_id": "0.0-6.0-1.0-36.0"}}, {"uniqueid": "w56281366:a91168406", "current_trial": 46, "dateTime": 1693581657142, "trialdata": {"revealed_states": [], "clicked_states": ["1", "23", "12", "4", "8", "26", "30", "27", "28"], "num_clicks_accrued": [0, 0, 0, 0, 0, 0, 0, 0, 0, 0, 0, 0, 0], "stateRewards": ["", 1, 3, 1, -13, 52, -28, 67, -14, 3, 63, -70, -1, -4, 7, -11, -10, 47, -18, 6, 69, -9, -61, 2, 3, -6, 10, 63, -34, 40, -6, -79, -35, -32], "withholdReward": false, "trial_id": "mdp_trial_38", "block": "test", "trialIndex": 39, "score": 62.25, "costs": -9.75, "simulationMode": [null, null, null, null, null, null], "rewards": [2, 3, -6, 10, 63], "path": ["0", "0", "23", "24", "25", "26", "27"], "rt": [14034, 537, 270, 267, 48, 73], "actions": ["left", "left", "left", "left", "up", "up"], "actionTimes": [15224, 15763, 16559, 17355, 17918, 18526], "queries": {"click": {"state": {"target": ["1", "23", "12", "4", "8", "26", "30", "27", "28"], "time": [2035, 3556, 4264, 6205, 7601, 8956, 9818, 11073, 14272]}, "edge": {"target": [], "time": []}}, "mouseover": {"state": {"target": ["1", "1", "23", "0", "23", "0", "12", "2", "3", "4", "3", "9", "8", "28", "26", "25", "30", "25", "27", "28", "28"], "time": [1588, 1923, 2789, 2987, 3372, 3821, 3954, 5087, 5320, 5958, 6637, 6887, 7154, 8436, 8803, 9453, 9603, 10387, 10736, 11453, 11819]}, "edge": {"target": [], "time": []}}, "mouseout": {"state": {"target": ["0", "1", "1", "1", "23", "0", "23", "0", "12", "12", "1", "2", "3", "4", "3", "9", "8", "28", "26", "25", "30", "25", "26", "27", "28"], "time": [1550, 1604, 2046, 2320, 2937, 3254, 3806, 3870, 4620, 4827, 5004, 5237, 5487, 6603, 6670, 7104, 8387, 8703, 9436, 9486, 10153, 10453, 10570, 11369, 11486]}, "edge": {"target": [], "time": []}}}, "displayed_time": "19.04", "trialTime": 20705, "trial_type": "mouselab-mdp", "trial_index": 46, "time_elapsed": 1330379, "internal_node_id": "0.0-6.0-1.0-37.0"}}, {"uniqueid": "w56281366:a91168406", "current_trial": 47, "dateTime": 1693581701170, "trialdata": {"revealed_states": [], "clicked_states": ["1", "23", "12", "15", "19", "22", "21", "20", "16", "17", "18", "27", "29", "33"], "num_clicks_accrued": [0, 0, 0, 0, 0, 0, 0, 0, 0, 0, 0, 0, 0], "stateRewards": ["", -2, -4, 6, 14, -34, 49, 36, -8, -3, 32, -4, 1, -2, 1, -8, -20, -71, -57, -7, -86, -62, -16, -2, -3, -5, 11, 23, -21, 53, 5, -5, 85, 73], "withholdReward": false, "trial_id": "mdp_trial_39", "block": "test", "trialIndex": 40, "score": 46.3, "costs": -21.7, "simulationMode": [null, null, null, null, null], "rewards": [-2, -3, -5, 5, 73], "path": ["0", "0", "23", "24", "25", "30", "33"], "rt": [37524, 352, 129, 42, 41], "actions": ["left", "left", "left", "down", "left"], "actionTimes": [39337, 40196, 40840, 41402, 41950], "queries": {"click": {"state": {"target": ["1", "23", "12", "15", "19", "22", "21", "20", "16", "17", "18", "27", "29", "33"], "time": [2741, 3357, 4077, 5434, 6395, 7835, 11099, 14264, 17919, 21330, 24615, 28150, 31596, 35475]}, "edge": {"target": [], "time": []}}, "mouseover": {"state": {"target": ["1", "23", "0", "12", "15", "15", "14", "19", "14", "22", "21", "20", "20", "17", "16", "17", "15", "18", "14", "13", "1", "10", "27", "29", "33", "32"], "time": [2632, 3198, 3615, 3831, 4814, 5331, 5965, 6032, 7317, 7714, 8747, 11663, 12214, 17547, 17846, 18429, 23711, 24011, 24944, 27516, 27577, 27660, 28010, 31397, 35130, 38477]}, "edge": {"target": [], "time": []}}, "mouseout": {"state": {"target": ["28", "0", "1", "23", "0", "12", "15", "15", "15", "14", "19", "15", "14", "19", "22", "21", "20", "20", "17", "16", "17", "15", "18", "18", "14", "13", "1", "10", "27", "29", "33"], "time": [486, 2235, 3048, 3598, 3681, 4415, 4865, 5443, 5948, 5998, 6631, 7287, 7348, 7633, 8114, 11596, 11730, 14879, 17713, 18300, 23661, 23795, 24722, 24894, 24982, 27532, 27594, 27677, 30844, 32027, 38342]}, "edge": {"target": [], "time": []}}}, "displayed_time": "42.48", "trialTime": 43716, "trial_type": "mouselab-mdp", "trial_index": 47, "time_elapsed": 1374408, "internal_node_id": "0.0-6.0-1.0-38.0"}}, {"uniqueid": "w56281366:a91168406", "current_trial": 48, "dateTime": 1693581733149, "trialdata": {"revealed_states": [], "clicked_states": ["1", "23", "12", "15", "16", "17", "18", "5", "7", "10"], "num_clicks_accrued": [0, 0, 0, 0, 0, 0, 0, 0, 0, 0, 0, 0, 0], "stateRewards": ["", -1, -4, -1, -5, -28, -23, -15, -15, -38, 59, -87, 2, 2, -5, 9, -55, -39, -71, -6, 85, -85, -11, -1, -2, 5, -10, 1, 25, 41, -4, 69, -35, 86], "withholdReward": false, "trial_id": "mdp_trial_40", "block": "test", "trialIndex": 41, "score": 24.299999999999997, "costs": -13.700000000000001, "simulationMode": [null, null, null, null, null], "rewards": [-1, -4, -1, -15, 59], "path": ["0", "0", "1", "2", "3", "8", "10"], "rt": [26330, 14, 62, 536, 41], "actions": ["up", "up", "up", "left", "down"], "actionTimes": [27805, 28332, 28931, 29987, 30542], "queries": {"click": {"state": {"target": ["1", "23", "12", "15", "16", "17", "18", "5", "7", "10"], "time": [2325, 3113, 3814, 5370, 6579, 9847, 13311, 17055, 20593, 23786]}, "edge": {"target": [], "time": []}}, "mouseover": {"state": {"target": ["1", "23", "23", "12", "13", "15", "15", "16", "17", "15", "18", "4", "5", "4", "7", "2", "2", "10", "10", "24", "24", "26", "2"], "time": [2105, 2570, 2888, 3620, 4537, 4587, 5170, 6474, 6887, 12652, 12870, 16855, 16918, 20100, 20518, 22184, 22301, 22434, 22819, 24350, 26367, 26483, 27253]}, "edge": {"target": [], "time": []}}, "mouseout": {"state": {"target": ["32", "13", "12", "0", "23", "0", "1", "23", "23", "12", "13", "15", "15", "16", "17", "15", "18", "4", "5", "4", "7", "7", "2", "2", "10", "10", "10", "24", "24", "26", "10", "2"], "time": [482, 554, 822, 853, 1086, 1871, 2554, 2637, 3337, 4125, 4554, 4837, 6086, 6838, 12620, 12753, 16559, 16869, 20068, 20252, 20619, 22157, 22218, 22353, 22619, 23818, 24251, 24390, 26416, 26583, 27250, 27267]}, "edge": {"target": [], "time": []}}}, "displayed_time": "31.07", "trialTime": 31689, "trial_type": "mouselab-mdp", "trial_index": 48, "time_elapsed": 1406385, "internal_node_id": "0.0-6.0-1.0-39.0"}}, {"uniqueid": "w56281366:a91168406", "current_trial": 49, "dateTime": 1693581781722, "trialdata": {"rt": 48541, "response": {"Q0": "$-2 to $2", "Q1": "$-32 to $32", "Q2": "$-88 to $88", "Q3": "The cost for clicking on nodes varied between nodes.", "Q4": "Very motivated"}, "question_order": [0, 1, 2, 3, 4], "trial_id": "final_quiz_control", "trial_type": "survey-multi-choice", "trial_index": 49, "time_elapsed": 1454959, "internal_node_id": "0.0-6.0-2.0"}}, {"uniqueid": "w56281366:a91168406", "current_trial": 50, "dateTime": 1693581972617, "trialdata": {"rt": 190867, "response": {"Q0": "I tried to click on as few nodes as possible, but was also prepared to use them to  find the biggest scores.  I tried to follow the path based om the highest scores when i clicked on the nodes.  However it got to a point where i was just clicking on the last steps as they were worth the most. ", "Q1": "Yes - i didnt instinctively always trust that the first step was an indicator of the final result because it didn't actually have a big affect on the final result.  I think i used more clicks as the game went on and was happy to spend them in order to find the big end figures", "Q2": "very - 3 seconds is not a long time to make decisions or plan strategically"}, "trial_id": "self_report_control", "trial_type": "survey-text", "trial_index": 50, "time_elapsed": 1645855, "internal_node_id": "0.0-6.0-3.0"}}, {"uniqueid": "w56281366:a91168406", "current_trial": 51, "dateTime": 1693582010173, "trialdata": {"rt": 37544, "response": {"Q0": "Agree", "Q1": "Disagree", "Q2": "Strongly agree", "Q3": "Strongly agree", "Q4": "Strongly disagree", "Q5": "Strongly agree", "Q6": "Strongly disagree"}, "question_order": [0, 1, 2, 3, 4, 5, 6], "trial_id": "self_report_2", "trial_type": "survey-multi-choice", "trial_index": 51, "time_elapsed": 1683411, "internal_node_id": "0.0-6.0-4.0"}}, {"uniqueid": "w56281366:a91168406", "current_trial": 52, "dateTime": 1693582045786, "trialdata": {"rt": 35602, "response": {"gender": "female", "age": "34", "colorblind": "0", "effort": "0"}, "trial_type": "survey-html-form", "trial_index": 52, "time_elapsed": 1719024, "internal_node_id": "0.0-6.0-5.0"}}, {"uniqueid": "w56281366:a91168406", "current_trial": 53, "dateTime": 1693582066617, "trialdata": {"rt": 20821, "response": {"Q0": "No ", "Q1": "No", "Q2": "great fun thanks!"}, "trial_type": "survey-text", "trial_index": 53, "time_elapsed": 1739855, "internal_node_id": "0.0-6.0-6.0"}}, {"uniqueid": "w56281366:a91168406", "current_trial": 54, "dateTime": 1693582091485, "trialdata": {"rt": 24861, "stimulus": "<h1>Completion Code Instructions (1/2)</h1>\n<br><br><br><br>\nYou have reached the end of the experiment! The completion code consists of two parts: (1) a code with 2 characters (2) a code with 6 characters. On this page, you will receive the second part of the code. The first part of the completion code will be on the next page.\n<br><br>\nThe second part of your completion code is: <b>EWEK22</b>\n<br><br>\nPlease note this down. Then, press 'Next' in order to find the first part of your completion code. Once the data has been saved, you will receive this code either in this window or in the original browser window where you started the experiment.\n <br><br>\n<h2 style='color: red;'>Note: this is <strong>NOT</strong> the full completion code. Copy this down and click 'Next' to get the full completion code on the next page.</h2>", "response": 0, "trial_type": "html-button-response", "trial_index": 54, "time_elapsed": 1764723, "internal_node_id": "0.0-6.0-7.0"}}, {"uniqueid": "w56281366:a91168406", "current_trial": 55, "dateTime": 1693582092489, "trialdata": {"success": true, "trial_type": "fullscreen", "trial_index": 55, "time_elapsed": 1765727, "internal_node_id": "0.0-7.0"}}], "questiondata": {"params": {"CODE": "C6DMOQA6", "MIN_TIME": 14, "inspectCost": 1, "startTime": "Fri Sep 01 2023 15:58:45 GMT+0100 (British Summer Time)", "bonusRate": 0.002, "variance": "1_2_4_8_44", "branching": "31123"}, "final_score": 1862.8}, "eventdata": [{"eventtype": "initialized", "value": null, "timestamp": 1693580325538, "interval": 0}, {"eventtype": "window_resize", "value": [1024, 650], "timestamp": 1693580325538, "interval": 0}, {"eventtype": "window_resize", "value": [1024, 650], "timestamp": 1693580325873, "interval": 335}, {"eventtype": "window_resize", "value": [1366, 768], "timestamp": 1693580331104, "interval": 5231}, {"eventtype": "focus", "value": "off", "timestamp": 1693580340732, "interval": 9628}, {"eventtype": "window_resize", "value": [1366, 767], "timestamp": 1693580340967, "interval": 235}, {"eventtype": "focus", "value": "on", "timestamp": 1693580342301, "interval": 1334}, {"eventtype": "window_resize", "value": [1366, 768], "timestamp": 1693580342506, "interval": 205}, {"eventtype": "focus", "value": "off", "timestamp": 1693580564107, "interval": 221601}, {"eventtype": "focus", "value": "on", "timestamp": 1693580565704, "interval": 1597}, {"eventtype": "window_resize", "value": [1242, 698], "timestamp": 1693580640274, "interval": 74570}, {"eventtype": "window_resize", "value": [2732, 1536], "timestamp": 1693580641618, "interval": 1344}, {"eventtype": "window_resize", "value": [2049, 1152], "timestamp": 1693580642716, "interval": 1098}, {"eventtype": "window_resize", "value": [1536, 975], "timestamp": 1693582091732, "interval": 1449016}], "useragent": "Mozilla/5.0 (Windows NT 10.0; Win64; x64) AppleWebKit/537.36 (KHTML, like Gecko) Chrome/115.0.0.0 Safari/537.36 Edg/115.0.1901.203", "mode": "live", "id": "w56281366:a91168406", "status": "user data saved", "Beginhit": "2023-09-01 14:58:41.333091", "Beginexp": "2023-09-01 14:58:50.94364", "Endhit": "2023-09-01 15:28:11.761362", "psiturkStatus": 3, "browser": "<redacted>", "platform": "windows", "language": "en-GB"}