{"condition": 0, "counterbalance": 0, "assignmentId": "a75488199", "workerId": "w65349158", "hitId": "h21489602", "currenttrial": 67, "bonus": 0, "data": [{"uniqueid": "w65349158:a75488199", "current_trial": 0, "dateTime": 1693390639174, "trialdata": {"success": true, "trial_type": "fullscreen", "trial_index": 0, "time_elapsed": 11859, "internal_node_id": "0.0-0.0"}}, {"uniqueid": "w65349158:a75488199", "current_trial": 1, "dateTime": 1693390690387, "trialdata": {"view_history": [{"page_index": 0, "viewing_time": 51209}], "rt": 51211, "trial_id": "exp_instructions_control", "trial_type": "instructions", "trial_index": 1, "time_elapsed": 63073, "internal_node_id": "0.0-1.0"}}, {"uniqueid": "w65349158:a75488199", "current_trial": 2, "dateTime": 1693391110106, "trialdata": {"view_history": [{"page_index": 0, "viewing_time": 164932}, {"page_index": 1, "viewing_time": 123160}, {"page_index": 2, "viewing_time": 51656}, {"page_index": 3, "viewing_time": 79968}], "rt": 419716, "trial_id": "mouselab_instructions_1_control", "trial_type": "instructions", "trial_index": 2, "time_elapsed": 482792, "internal_node_id": "0.0-2.0-1.0"}}, {"uniqueid": "w65349158:a75488199", "current_trial": 3, "dateTime": 1693391228736, "trialdata": {"revealed_states": [], "clicked_states": ["30", "24", "26", "27", "28", "10", "1", "12", "13", "19", "21", "14", "15", "2", "3", "7", "4", "6", "9", "11", "25", "33", "31", "23", "18", "29", "8", "5", "22", "20", "32"], "num_clicks_accrued": [0, 0, 0, 0, 0, 0, 0, 0, 0, 0, 0, 0, 0], "stateRewards": ["", 10, -10, 10, 10, -10, -10, 10, 10, 10, 10, 10, 10, -10, -10, -10, 10, -10, 10, -10, 10, 10, 10, -10, -10, 10, 10, 10, -10, 10, 10, -10, -10, 10], "withholdReward": false, "trial_id": "practice_1", "block": "test", "trialIndex": 0, "score": -2, "costs": -15.5, "simulationMode": [null, null, null, null, null], "rewards": [10, -10, 10, 10, -10], "path": ["0", "0", "1", "2", "3", "4", "5"], "rt": [88648, 1331, 734, 1124, 829], "actions": ["up", "up", "up", "right", "up"], "actionTimes": [99959, 101793, 103043, 104683, 106019], "queries": {"click": {"state": {"target": ["30", "24", "26", "27", "28", "10", "1", "12", "13", "19", "21", "14", "15", "2", "3", "7", "4", "6", "9", "11", "25", "33", "31", "23", "18", "29", "8", "5", "22", "20", "32"], "time": [16342, 17819, 22271, 23475, 24672, 25971, 27522, 29525, 30907, 32264, 33313, 35033, 37040, 39303, 41211, 42763, 44166, 45539, 47517, 49601, 55267, 57637, 59630, 64355, 68401, 70709, 72286, 73395, 76510, 77691, 79147]}, "edge": {"target": [], "time": []}}, "mouseover": {"state": {"target": ["32", "33", "30", "30", "31", "24", "31", "0", "28", "27", "27", "26", "29", "27", "28", "10", "1", "12", "13", "19", "21", "22", "14", "18", "15", "16", "2", "3", "3", "7", "4", "6", "5", "9", "8", "10", "11", "27", "28", "23", "24", "25", "30", "32", "30", "33", "32", "31", "32", "0", "1", "0", "0", "23", "0", "12", "13", "12", "0", "12", "13", "18", "8", "9", "29", "8", "5", "22", "22", "21", "22", "19", "20", "32", "23", "0", "1", "1", "0"], "time": [15411, 15458, 15575, 15761, 17140, 17290, 18988, 21472, 21539, 21569, 21843, 21955, 22868, 23101, 24084, 25415, 26698, 28748, 30479, 31926, 32892, 33757, 34755, 35688, 36537, 37453, 38905, 40670, 40970, 42336, 43281, 45315, 45845, 47029, 48060, 48276, 49294, 50407, 52009, 53275, 53674, 54906, 55836, 56235, 56953, 57336, 58150, 58936, 60348, 61066, 61862, 63431, 63698, 64096, 64844, 64894, 64943, 65177, 66245, 67076, 67177, 68075, 69825, 69872, 70424, 71787, 72902, 74887, 74970, 75656, 76051, 76998, 77065, 78932, 83295, 83360, 83560, 86944, 90254]}, "edge": {"target": [], "time": []}}, "mouseout": {"state": {"target": ["0", "32", "33", "30", "30", "31", "24", "31", "0", "28", "27", "27", "26", "29", "27", "28", "10", "1", "12", "13", "19", "19", "21", "22", "14", "18", "15", "16", "2", "3", "3", "7", "4", "4", "6", "5", "9", "9", "8", "10", "11", "11", "27", "28", "23", "24", "25", "30", "32", "30", "33", "33", "32", "31", "32", "0", "1", "0", "0", "23", "0", "12", "13", "12", "0", "12", "13", "18", "8", "9", "29", "8", "8", "5", "22", "22", "21", "22", "22", "19", "20", "32", "23", "0", "1", "1", "0", "0"], "time": [13093, 15424, 15544, 15645, 16413, 17173, 18974, 19022, 21485, 21552, 21602, 21852, 22735, 22985, 23967, 24883, 26498, 28666, 30111, 31543, 32372, 32809, 33607, 34406, 35372, 36270, 37220, 38521, 39406, 40752, 41866, 43065, 44292, 44996, 45745, 46698, 47636, 48027, 48143, 48761, 49675, 50158, 51805, 53158, 53290, 54839, 55753, 55885, 56920, 56968, 57748, 58100, 58836, 60148, 60664, 61632, 63347, 63479, 63879, 64827, 64877, 64910, 65110, 66194, 66328, 67107, 67943, 69172, 69855, 69889, 70836, 72406, 72769, 74135, 74900, 75036, 75682, 76644, 76982, 77031, 78497, 83044, 83324, 83393, 83911, 87007, 90521, 115863]}, "edge": {"target": [], "time": []}}}, "displayed_time": "106.54", "trialTime": 117725, "trial_type": "mouselab-mdp", "trial_index": 3, "time_elapsed": 601422, "internal_node_id": "0.0-2.0-2.0-0.0"}}, {"uniqueid": "w65349158:a75488199", "current_trial": 4, "dateTime": 1693391299488, "trialdata": {"revealed_states": [], "clicked_states": ["1", "10", "11", "3", "4", "2", "5", "26", "29", "24", "30", "32", "12", "18", "14", "22", "20", "17"], "num_clicks_accrued": [0, 0, 0, 0, 0, 0, 0, 0, 0, 0, 0, 0, 0], "stateRewards": ["", -10, -10, -10, 10, -10, 10, 10, 10, 10, 10, -10, 10, -10, 10, 10, 10, -10, 10, -10, 10, -10, 10, -10, -10, 10, 10, 10, -10, 10, 10, -10, -10, 10], "withholdReward": false, "trial_id": "practice_2", "block": "test", "trialIndex": 1, "score": 4.5, "costs": -9, "simulationMode": [null, null, null, null, null], "rewards": [-10, -10, 10, 10, 10], "path": ["0", "0", "23", "24", "25", "26", "29"], "rt": [31861, 791, 525, 1229, 2921], "actions": ["left", "left", "left", "up", "left"], "actionTimes": [40891, 42192, 43224, 44960, 48400], "queries": {"click": {"state": {"target": ["1", "10", "11", "3", "4", "2", "5", "26", "29", "24", "30", "32", "12", "18", "14", "22", "20", "17"], "time": [11678, 13315, 14859, 16520, 18720, 19968, 21224, 22930, 24403, 25867, 27353, 28891, 30410, 32126, 33499, 35028, 36279, 37723]}, "edge": {"target": [], "time": []}}, "mouseover": {"state": {"target": ["0", "23", "1", "2", "10", "8", "11", "9", "3", "8", "8", "6", "4", "7", "2", "6", "5", "28", "26", "27", "29", "25", "24", "31", "30", "33", "33", "32", "19", "22", "12", "13", "18", "13", "14", "19", "22", "21", "20", "15", "17", "16", "18", "0"], "time": [9917, 10197, 11463, 12243, 12946, 13674, 14307, 15473, 16092, 16955, 17155, 18273, 18542, 19053, 19686, 20235, 20851, 21833, 22602, 23233, 24133, 24797, 25548, 26262, 26997, 27611, 27961, 28477, 29426, 29676, 30195, 31025, 31577, 32523, 33222, 33989, 34637, 35287, 35970, 36703, 37405, 37984, 38937, 39203]}, "edge": {"target": [], "time": []}}, "mouseout": {"state": {"target": ["0", "0", "23", "1", "2", "10", "8", "11", "9", "3", "3", "8", "8", "3", "6", "4", "7", "2", "6", "5", "2", "28", "26", "27", "29", "25", "24", "24", "31", "30", "33", "33", "32", "19", "22", "12", "13", "18", "13", "14", "14", "19", "22", "21", "20", "15", "17", "16", "18", "0", "26", "29", "1", "28", "27", "26", "25", "25", "31"], "time": [9134, 10081, 11196, 12126, 12829, 13508, 14274, 15023, 15959, 16692, 16938, 16988, 18106, 18137, 18457, 19003, 19653, 20119, 20819, 21484, 21584, 22336, 23133, 23882, 24731, 25499, 25946, 26212, 26929, 27594, 27861, 28409, 29260, 29542, 29925, 30608, 31474, 32490, 33073, 33659, 33889, 34607, 35237, 35920, 36436, 37302, 37850, 38886, 38967, 39386, 53006, 53472, 56986, 57237, 58367, 58468, 58635, 65710, 65793]}, "edge": {"target": [], "time": []}}}, "displayed_time": "48.91", "trialTime": 70489, "trial_type": "mouselab-mdp", "trial_index": 4, "time_elapsed": 672173, "internal_node_id": "0.0-2.0-2.0-1.0"}}, {"uniqueid": "w65349158:a75488199", "current_trial": 5, "dateTime": 1693391397481, "trialdata": {"view_history": [{"page_index": 0, "viewing_time": 79423}, {"page_index": 1, "viewing_time": 18567}], "rt": 97991, "trial_id": "mouselab_instructions_2_control", "trial_type": "instructions", "trial_index": 5, "time_elapsed": 770167, "internal_node_id": "0.0-2.0-3.0"}}, {"uniqueid": "w65349158:a75488199", "current_trial": 6, "dateTime": 1693391508160, "trialdata": {"rt": 110599, "response": {"Q0": "The cost for clicking on nodes may vary between nodes.", "Q1": "The better I perform the higher my bonus will be.", "Q2": "No, the structure of the web will be different each time.", "Q3": "To get the highest total score.", "Q4": "Only before moving the spider.", "Q5": "3 seconds"}, "question_order": [0, 1, 2, 3, 4, 5], "correct": {"Q0": "The cost for clicking on nodes may vary between nodes.", "Q1": "The better I perform the higher my bonus will be.", "Q2": "No, the amount of cash at each node of the web may be different each time.", "Q3": "To get the highest total score.", "Q4": "Only before moving the spider.", "Q5": "3 seconds"}, "trial_id": "mouselab_quiz_control", "trial_type": "survey-multi-choice", "trial_index": 6, "time_elapsed": 880846, "internal_node_id": "0.0-2.0-4.0"}}, {"uniqueid": "w65349158:a75488199", "current_trial": 7, "dateTime": 1693391526308, "trialdata": {"success": true, "trial_type": "fullscreen", "trial_index": 7, "time_elapsed": 898994, "internal_node_id": "0.0-2.1-0.1-0.1"}}, {"uniqueid": "w65349158:a75488199", "current_trial": 8, "dateTime": 1693391720858, "trialdata": {"view_history": [{"page_index": 0, "viewing_time": 75393}, {"page_index": 1, "viewing_time": 60528}, {"page_index": 2, "viewing_time": 20704}, {"page_index": 3, "viewing_time": 37920}], "rt": 194545, "trial_id": "mouselab_instructions_1_control", "trial_type": "instructions", "trial_index": 8, "time_elapsed": 1093544, "internal_node_id": "0.0-2.1-1.1"}}, {"uniqueid": "w65349158:a75488199", "current_trial": 9, "dateTime": 1693391765183, "trialdata": {"revealed_states": [], "clicked_states": ["23", "28", "27", "25", "30", "32", "12", "14", "22", "20", "15", "18", "7", "10", "3", "6", "5", "11", "24"], "num_clicks_accrued": [0, 0, 0, 0, 0, 0, 0, 0, 0, 0, 0, 0, 0], "stateRewards": ["", 10, -10, 10, 10, -10, -10, 10, 10, 10, 10, 10, 10, -10, -10, -10, 10, -10, 10, -10, 10, 10, 10, -10, -10, 10, 10, 10, -10, 10, 10, -10, -10, 10], "withholdReward": false, "trial_id": "practice_1", "block": "test", "trialIndex": 2, "score": -16, "costs": -9.5, "simulationMode": [null, null, null, null, null], "rewards": [-10, -10, 10, 10, -10], "path": ["0", "0", "23", "24", "25", "30", "32"], "rt": [29144, 244, 926, 966, 685], "actions": ["left", "left", "left", "down", "down"], "actionTimes": [32349, 33106, 34553, 36042, 37241], "queries": {"click": {"state": {"target": ["23", "28", "27", "25", "30", "32", "12", "14", "22", "20", "15", "18", "7", "10", "3", "6", "5", "11", "24"], "time": [5101, 6297, 7505, 8861, 10121, 11930, 13435, 14473, 15682, 16906, 18233, 19436, 20605, 22498, 23552, 24681, 25723, 27044, 29233]}, "edge": {"target": [], "time": []}}, "mouseover": {"state": {"target": ["0", "23", "24", "28", "26", "27", "29", "25", "31", "30", "33", "32", "12", "13", "14", "19", "22", "21", "20", "19", "15", "17", "18", "16", "7", "1", "2", "10", "8", "3", "4", "6", "5", "5", "9", "11", "8", "24", "23", "24", "23", "0", "23", "0"], "time": [4020, 4623, 5419, 5918, 6517, 7166, 7816, 8581, 9232, 9848, 10380, 11498, 13110, 13743, 14259, 14825, 15408, 16125, 16658, 17108, 17839, 18589, 19244, 19738, 20304, 20904, 21337, 22220, 22752, 23235, 23783, 24466, 25166, 25399, 26064, 26884, 27430, 28130, 28648, 28864, 29462, 29762, 30245, 31230]}, "edge": {"target": [], "time": []}}, "mouseout": {"state": {"target": ["0", "0", "23", "24", "28", "26", "27", "29", "25", "31", "30", "33", "32", "12", "13", "14", "19", "22", "21", "20", "19", "14", "15", "17", "15", "18", "16", "7", "1", "2", "10", "8", "3", "4", "6", "5", "5", "9", "11", "8", "24", "23", "24", "23", "0", "23", "0"], "time": [1141, 4522, 5285, 5868, 6484, 7083, 7700, 8332, 9132, 9814, 10347, 11215, 12412, 13627, 14143, 14776, 15358, 15892, 16508, 17073, 17723, 17789, 18372, 18956, 19188, 19588, 20221, 20804, 21287, 21840, 22668, 23218, 23750, 24299, 24883, 25216, 25915, 26564, 27280, 27946, 28163, 28782, 29355, 29562, 29945, 30942, 41718]}, "edge": {"target": [], "time": []}}}, "displayed_time": "37.76", "trialTime": 44050, "trial_type": "mouselab-mdp", "trial_index": 9, "time_elapsed": 1137868, "internal_node_id": "0.0-2.1-2.1-0.1"}}, {"uniqueid": "w65349158:a75488199", "current_trial": 10, "dateTime": 1693391812279, "trialdata": {"revealed_states": [], "clicked_states": ["23", "28", "27", "25", "31", "32", "12", "22", "21", "14", "15", "16", "1", "2", "8"], "num_clicks_accrued": [0, 0, 0, 0, 0, 0, 0, 0, 0, 0, 0, 0, 0], "stateRewards": ["", -10, -10, -10, 10, -10, 10, 10, 10, 10, 10, -10, 10, -10, 10, 10, 10, -10, 10, -10, 10, -10, 10, -10, -10, 10, 10, 10, -10, 10, 10, -10, -10, 10], "withholdReward": false, "trial_id": "practice_2", "block": "test", "trialIndex": 3, "score": 6, "costs": -7.5, "simulationMode": [null, null, null, null, null], "rewards": [10, -10, 10, -10, 10], "path": ["0", "0", "12", "13", "14", "19", "22"], "rt": [24833, 1378, 1632, 1060, 943], "actions": ["right", "right", "right", "down", "left"], "actionTimes": [34230, 36124, 38276, 39852, 41316], "queries": {"click": {"state": {"target": ["23", "28", "27", "25", "31", "32", "12", "22", "21", "14", "15", "16", "1", "2", "8"], "time": [11151, 12261, 13366, 14845, 16483, 17980, 20094, 21547, 22618, 23644, 25211, 26682, 28516, 29700, 31092]}, "edge": {"target": [], "time": []}}, "mouseover": {"state": {"target": ["23", "24", "28", "26", "27", "29", "29", "25", "30", "31", "30", "33", "32", "30", "0", "12", "13", "22", "19", "21", "20", "14", "18", "15", "17", "16", "7", "1", "2", "7", "10", "8", "0", "12", "0", "12"], "time": [10770, 11534, 11950, 12516, 13065, 13714, 13880, 14483, 15363, 16029, 16727, 16910, 17593, 18443, 19345, 19828, 20657, 21391, 21756, 22405, 22922, 23388, 24071, 25003, 25719, 26438, 27250, 27920, 29333, 29899, 30532, 30847, 31564, 32145, 32881, 33577]}, "edge": {"target": [], "time": []}}, "mouseout": {"state": {"target": ["0", "23", "24", "28", "26", "27", "29", "29", "25", "30", "31", "30", "33", "32", "30", "0", "12", "13", "22", "19", "21", "20", "14", "18", "15", "17", "16", "16", "7", "1", "1", "1", "2", "7", "10", "8", "1", "0", "12", "0", "12"], "time": [2649, 11367, 11900, 12373, 12983, 13631, 13748, 14397, 15262, 15963, 16694, 16794, 17543, 18193, 19125, 19578, 20407, 21190, 21641, 22272, 22626, 23355, 23871, 24771, 25386, 26185, 26736, 26967, 27820, 28637, 28866, 29283, 29882, 30231, 30814, 31247, 31380, 31697, 32831, 33548, 46049]}, "edge": {"target": [], "time": []}}}, "displayed_time": "41.82", "trialTime": 46877, "trial_type": "mouselab-mdp", "trial_index": 10, "time_elapsed": 1184964, "internal_node_id": "0.0-2.1-2.1-1.1"}}, {"uniqueid": "w65349158:a75488199", "current_trial": 11, "dateTime": 1693391848769, "trialdata": {"view_history": [{"page_index": 0, "viewing_time": 33326}, {"page_index": 1, "viewing_time": 3160}], "rt": 36486, "trial_id": "mouselab_instructions_2_control", "trial_type": "instructions", "trial_index": 11, "time_elapsed": 1221455, "internal_node_id": "0.0-2.1-3.1"}}, {"uniqueid": "w65349158:a75488199", "current_trial": 12, "dateTime": 1693391955586, "trialdata": {"rt": 106814, "response": {"Q0": "The cost for clicking on nodes may vary between nodes.", "Q1": "The better I perform the higher my bonus will be.", "Q2": "No, the structure of the web will be different each time.", "Q3": "To get the highest total score.", "Q4": "Only before moving the spider.", "Q5": "3 seconds"}, "question_order": [0, 1, 2, 3, 4, 5], "correct": {"Q0": "The cost for clicking on nodes may vary between nodes.", "Q1": "The better I perform the higher my bonus will be.", "Q2": "No, the amount of cash at each node of the web may be different each time.", "Q3": "To get the highest total score.", "Q4": "Only before moving the spider.", "Q5": "3 seconds"}, "trial_id": "mouselab_quiz_control", "trial_type": "survey-multi-choice", "trial_index": 12, "time_elapsed": 1328272, "internal_node_id": "0.0-2.1-4.1"}}, {"uniqueid": "w65349158:a75488199", "current_trial": 13, "dateTime": 1693391983074, "trialdata": {"success": true, "trial_type": "fullscreen", "trial_index": 13, "time_elapsed": 1355760, "internal_node_id": "0.0-2.2-0.2-0.2"}}, {"uniqueid": "w65349158:a75488199", "current_trial": 14, "dateTime": 1693392178768, "trialdata": {"view_history": [{"page_index": 0, "viewing_time": 55065}, {"page_index": 1, "viewing_time": 71048}, {"page_index": 2, "viewing_time": 26680}, {"page_index": 3, "viewing_time": 42896}], "rt": 195689, "trial_id": "mouselab_instructions_1_control", "trial_type": "instructions", "trial_index": 14, "time_elapsed": 1551454, "internal_node_id": "0.0-2.2-1.2"}}, {"uniqueid": "w65349158:a75488199", "current_trial": 15, "dateTime": 1693392234606, "trialdata": {"revealed_states": [], "clicked_states": ["23", "25", "31", "33", "28", "27", "29", "10", "1", "18", "16", "12", "14", "15", "19", "22", "2", "7", "6", "3", "9"], "num_clicks_accrued": [0, 0, 0, 0, 0, 0, 0, 0, 0, 0, 0, 0, 0], "stateRewards": ["", 10, -10, 10, 10, -10, -10, 10, 10, 10, 10, 10, 10, -10, -10, -10, 10, -10, 10, -10, 10, 10, 10, -10, -10, 10, 10, 10, -10, 10, 10, -10, -10, 10], "withholdReward": false, "trial_id": "practice_1", "block": "test", "trialIndex": 4, "score": 23, "costs": -10.5, "simulationMode": [null, null, null, null, null], "rewards": [10, -10, 10, 10, 10], "path": ["0", "0", "1", "2", "3", "8", "9"], "rt": [38970, 925, 956, 3627, 954], "actions": ["up", "up", "up", "left", "up"], "actionTimes": [42428, 43890, 45353, 49489, 50961], "queries": {"click": {"state": {"target": ["23", "25", "31", "33", "28", "27", "29", "10", "1", "18", "16", "12", "14", "15", "19", "22", "2", "7", "6", "3", "9"], "time": [4985, 6528, 8321, 9873, 11660, 13297, 15105, 16212, 17983, 19464, 20745, 22267, 23593, 26527, 27785, 29327, 30889, 32244, 33523, 34802, 36073]}, "edge": {"target": [], "time": []}}, "mouseover": {"state": {"target": ["0", "0", "23", "24", "25", "30", "31", "30", "32", "33", "26", "28", "26", "29", "27", "26", "29", "26", "10", "2", "1", "7", "18", "15", "16", "17", "14", "13", "12", "13", "14", "19", "22", "19", "22", "19", "15", "22", "19", "20", "22", "21", "13", "7", "2", "3", "7", "4", "6", "5", "3", "8", "9", "11", "28", "1", "0", "0"], "time": [3900, 4166, 4633, 5465, 5932, 7098, 7947, 8696, 8946, 9446, 10311, 11193, 12043, 12109, 12960, 13675, 14674, 15542, 15656, 16638, 17520, 18420, 19186, 19952, 20418, 21117, 21816, 21883, 21932, 22582, 23248, 24448, 24730, 24913, 25296, 25529, 26295, 26945, 27495, 28161, 28943, 29825, 30125, 30225, 30590, 31158, 31841, 32489, 33304, 33904, 34471, 35103, 35753, 36436, 38317, 38800, 38866, 39851]}, "edge": {"target": [], "time": []}}, "mouseout": {"state": {"target": ["12", "0", "0", "0", "0", "23", "24", "25", "30", "31", "30", "32", "33", "25", "26", "28", "26", "29", "27", "27", "26", "29", "26", "10", "2", "1", "7", "18", "18", "15", "16", "17", "14", "13", "12", "13", "14", "19", "22", "19", "22", "19", "14", "15", "14", "22", "19", "20", "19", "22", "21", "13", "7", "2", "3", "7", "4", "6", "5", "3", "8", "9", "11", "28", "1", "0", "0"], "time": [2369, 2603, 3134, 3933, 4482, 5216, 5915, 6931, 7880, 8630, 8713, 9349, 10045, 10211, 11028, 11993, 12076, 12843, 13429, 13641, 14606, 15539, 15572, 16330, 17472, 18141, 19004, 19610, 19686, 20335, 20951, 21755, 21849, 21915, 22532, 23148, 24381, 24514, 24879, 25213, 25432, 26013, 26045, 26845, 26895, 27461, 27922, 28860, 28926, 29508, 30058, 30141, 30408, 31058, 31624, 32406, 32972, 33705, 34387, 35070, 35652, 36353, 37634, 38349, 38833, 39034, 39898]}, "edge": {"target": [], "time": []}}}, "displayed_time": "51.47", "trialTime": 55602, "trial_type": "mouselab-mdp", "trial_index": 15, "time_elapsed": 1607291, "internal_node_id": "0.0-2.2-2.2-0.2"}}, {"uniqueid": "w65349158:a75488199", "current_trial": 16, "dateTime": 1693392280726, "trialdata": {"revealed_states": [], "clicked_states": ["12", "14", "22", "20", "18", "17", "15", "1", "7", "3", "6", "9", "10", "23", "25", "33", "31", "26", "27"], "num_clicks_accrued": [0, 0, 0, 0, 0, 0, 0, 0, 0, 0, 0, 0, 0], "stateRewards": ["", -10, -10, -10, 10, -10, 10, 10, 10, 10, 10, -10, 10, -10, 10, 10, 10, -10, 10, -10, 10, -10, 10, -10, -10, 10, 10, 10, -10, 10, 10, -10, -10, 10], "withholdReward": false, "trial_id": "practice_2", "block": "test", "trialIndex": 5, "score": 4, "costs": -9.5, "simulationMode": [null, null, null, null, null], "rewards": [-10, -10, 10, 10, 10], "path": ["0", "0", "23", "24", "25", "30", "33"], "rt": [31059, 765, 2411, 1233, 645], "actions": ["left", "left", "left", "down", "left"], "actionTimes": [34086, 35371, 38300, 40052, 41212], "queries": {"click": {"state": {"target": ["12", "14", "22", "20", "18", "17", "15", "1", "7", "3", "6", "9", "10", "23", "25", "33", "31", "26", "27"], "time": [4148, 5803, 7620, 9244, 10289, 11612, 13355, 14589, 15796, 17107, 18607, 19952, 21226, 22947, 24084, 25623, 27090, 28426, 30283]}, "edge": {"target": [], "time": []}}, "mouseover": {"state": {"target": ["0", "12", "13", "14", "19", "22", "21", "21", "20", "18", "15", "17", "16", "15", "7", "1", "1", "2", "7", "2", "10", "3", "4", "6", "5", "9", "8", "10", "11", "28", "24", "23", "24", "25", "30", "33", "32", "31", "24", "28", "26", "29", "27", "29", "0", "23"], "time": [3746, 3833, 4467, 5133, 6465, 7198, 7981, 8313, 8829, 9745, 10644, 11210, 11859, 12891, 13758, 14174, 14440, 14874, 15523, 16056, 16256, 16772, 17438, 18219, 18919, 19585, 20251, 20984, 21451, 22217, 22383, 22534, 23285, 23798, 24464, 25299, 26229, 26694, 27411, 27511, 28159, 28827, 29910, 30741, 32158, 32706]}, "edge": {"target": [], "time": []}}, "mouseout": {"state": {"target": ["0", "0", "12", "13", "14", "14", "19", "22", "21", "21", "20", "14", "18", "15", "17", "16", "15", "7", "1", "1", "2", "7", "2", "10", "3", "4", "6", "5", "9", "8", "10", "11", "28", "24", "23", "24", "25", "30", "33", "32", "31", "24", "28", "26", "29", "27", "29", "0", "23"], "time": [2435, 3800, 4350, 4983, 5903, 6398, 7130, 7947, 8168, 8763, 9596, 9729, 10527, 11079, 11725, 12858, 13675, 13774, 14241, 14757, 15357, 16022, 16189, 16672, 17338, 18170, 18802, 19402, 20201, 20884, 21350, 22100, 22353, 22399, 23181, 23781, 24431, 25118, 25963, 26633, 27215, 27494, 28110, 28777, 29792, 30677, 31789, 32624, 32872]}, "edge": {"target": [], "time": []}}}, "displayed_time": "41.73", "trialTime": 45876, "trial_type": "mouselab-mdp", "trial_index": 16, "time_elapsed": 1653411, "internal_node_id": "0.0-2.2-2.2-1.2"}}, {"uniqueid": "w65349158:a75488199", "current_trial": 17, "dateTime": 1693392327800, "trialdata": {"view_history": [{"page_index": 0, "viewing_time": 44927}, {"page_index": 1, "viewing_time": 2144}], "rt": 47071, "trial_id": "mouselab_instructions_2_control", "trial_type": "instructions", "trial_index": 17, "time_elapsed": 1700486, "internal_node_id": "0.0-2.2-3.2"}}, {"uniqueid": "w65349158:a75488199", "current_trial": 18, "dateTime": 1693392412953, "trialdata": {"rt": 85150, "response": {"Q0": "The cost for clicking on nodes may vary between nodes.", "Q1": "The better I perform the higher my bonus will be.", "Q2": "No, the amount of cash at each node of the web may be different each time.", "Q3": "To get the highest total score.", "Q4": "Only before moving the spider.", "Q5": "3 seconds"}, "question_order": [0, 1, 2, 3, 4, 5], "correct": {"Q0": "The cost for clicking on nodes may vary between nodes.", "Q1": "The better I perform the higher my bonus will be.", "Q2": "No, the amount of cash at each node of the web may be different each time.", "Q3": "To get the highest total score.", "Q4": "Only before moving the spider.", "Q5": "3 seconds"}, "trial_id": "mouselab_quiz_control", "trial_type": "survey-multi-choice", "trial_index": 18, "time_elapsed": 1785639, "internal_node_id": "0.0-2.2-4.2"}}, {"uniqueid": "w65349158:a75488199", "current_trial": 19, "dateTime": 1693392423952, "trialdata": {"rt": 10991, "response": {"Q0": "No"}, "question_order": [0], "trial_id": "repeat_check", "trial_type": "survey-multi-choice", "trial_index": 19, "time_elapsed": 1796638, "internal_node_id": "0.0-4.0-0.0"}}, {"uniqueid": "w65349158:a75488199", "current_trial": 20, "dateTime": 1693392455644, "trialdata": {"rt": 31684, "stimulus": "\n<h1> Get ready to start the game! </h1>\n\nThank you for reading the instructions. Get ready start with the 40 rounds of this game.\n<br><br>\nIf you need to take a break, feel free to take one after the end of a round, before continuing to the next one.\n<br><br>\nRemember, the more money the spider gets, the bigger your bonus will be!\n<br><br>\n<div style='text-align: center;'>Press <code>space</code> to begin.</div>\n\n<br><br>\n(If, at any point, the <code>space</code> key does not take you to the next page, click once on the text and try again.)", "response": " ", "trial_id": "mdp_ready", "trial_type": "html-keyboard-response", "trial_index": 20, "time_elapsed": 1828330, "internal_node_id": "0.0-6.0-0.0"}}, {"uniqueid": "w65349158:a75488199", "current_trial": 21, "dateTime": 1693392503845, "trialdata": {"revealed_states": [], "clicked_states": ["12", "14", "22", "20", "24", "30", "32", "26", "27", "2", "3", "11", "8", "9", "4"], "num_clicks_accrued": [0, 0, 0, 0, 0, 0, 0, 0, 0, 0, 0, 0, 0], "stateRewards": ["", 2, 3, 6, -5, -74, -53, 17, -12, 46, 44, 18, -2, 4, 1, -8, 22, -23, -49, 9, -45, 55, 81, 1, -1, -7, -16, -83, -71, -45, 2, 51, 82, 61], "withholdReward": false, "trial_id": "mdp_trial_1", "block": "test", "trialIndex": 6, "score": 24.000000000000004, "costs": -20.999999999999996, "simulationMode": [null, null, null, null, null], "rewards": [2, 3, 6, -12, 46], "path": ["0", "0", "1", "2", "3", "8", "9"], "rt": [33452, 902, 735, 1151, 789], "actions": ["up", "up", "up", "left", "up"], "actionTimes": [37255, 38668, 39916, 41581, 42885], "queries": {"click": {"state": {"target": ["12", "14", "22", "20", "24", "30", "32", "26", "27", "2", "3", "11", "8", "9", "4"], "time": [6008, 7647, 9624, 11148, 13389, 15068, 16690, 18688, 21062, 23072, 24788, 27693, 29380, 31276, 33367]}, "edge": {"target": [], "time": []}}, "mouseover": {"state": {"target": ["0", "0", "12", "13", "14", "19", "22", "21", "20", "20", "19", "23", "24", "25", "30", "31", "32", "33", "25", "26", "28", "29", "27", "1", "1", "2", "10", "10", "3", "7", "4", "8", "11", "8", "11", "10", "8", "9", "5", "4", "7", "1", "0", "0", "0"], "time": [4274, 5429, 5494, 6395, 7077, 8225, 9341, 10040, 10674, 10889, 11455, 11905, 12754, 13886, 14722, 15551, 16134, 17134, 18116, 18416, 19032, 19684, 20800, 21480, 21746, 22579, 23494, 23944, 24444, 25126, 25742, 26657, 26740, 26974, 27290, 28356, 28823, 29755, 31986, 32768, 34051, 34584, 34684, 34999, 36131]}, "edge": {"target": [], "time": []}}, "mouseout": {"state": {"target": ["0", "0", "0", "0", "12", "13", "14", "19", "22", "22", "21", "20", "20", "19", "22", "23", "24", "25", "30", "30", "31", "32", "33", "25", "26", "26", "28", "26", "29", "27", "1", "1", "2", "10", "10", "3", "7", "4", "3", "8", "11", "8", "11", "10", "8", "9", "5", "4", "7", "1", "0", "0", "0"], "time": [1981, 2896, 4554, 5461, 6315, 7044, 8126, 9142, 9661, 9924, 10623, 10723, 11439, 11472, 11489, 12659, 13870, 14636, 15197, 15368, 16018, 16901, 18033, 18365, 18815, 18998, 19597, 19648, 20496, 21447, 21496, 22462, 23478, 23511, 24377, 25043, 25659, 26524, 26641, 26707, 26890, 27256, 27944, 28756, 29605, 31457, 32751, 33801, 34534, 34634, 34717, 35182, 45554]}, "edge": {"target": [], "time": []}}}, "displayed_time": "43.39", "trialTime": 47941, "trial_type": "mouselab-mdp", "trial_index": 21, "time_elapsed": 1876530, "internal_node_id": "0.0-6.0-1.0-0.0"}}, {"uniqueid": "w65349158:a75488199", "current_trial": 22, "dateTime": 1693392556621, "trialdata": {"revealed_states": [], "clicked_states": ["12", "13", "14", "22", "20", "18", "17", "2", "10", "9", "4", "23", "25", "30", "33", "26", "29"], "num_clicks_accrued": [0, 0, 0, 0, 0, 0, 0, 0, 0, 0, 0, 0, 0], "stateRewards": ["", 2, 2, 3, -15, 23, -14, 73, -7, -32, -20, -6, 1, 1, -5, -12, 73, 6, -84, 11, -81, -57, 13, -2, -1, -4, -8, -52, -58, 49, 13, 5, -41, -41], "withholdReward": false, "trial_id": "mdp_trial_2", "block": "test", "trialIndex": 7, "score": 10.200000000000003, "costs": -23.799999999999994, "simulationMode": [null, null, null, null, null], "rewards": [-2, -1, -4, -8, 49], "path": ["0", "0", "23", "24", "25", "26", "29"], "rt": [33333, 1751, 1327, 1671, 849], "actions": ["left", "left", "left", "up", "left"], "actionTimes": [35531, 37792, 39648, 41840, 43200], "queries": {"click": {"state": {"target": ["12", "13", "14", "22", "20", "18", "17", "2", "10", "9", "4", "23", "25", "30", "33", "26", "29"], "time": [3386, 5074, 6858, 8713, 10303, 12101, 13638, 15720, 17482, 19759, 21343, 23586, 25205, 27102, 29047, 30957, 33248]}, "edge": {"target": [], "time": []}}, "mouseover": {"state": {"target": ["0", "12", "13", "13", "14", "19", "22", "21", "20", "15", "18", "16", "17", "15", "1", "2", "7", "10", "8", "11", "9", "3", "4", "6", "5", "10", "23", "24", "25", "30", "31", "30", "31", "32", "33", "26", "29", "26", "28", "27", "29", "24", "23", "23"], "time": [2619, 3002, 3719, 4768, 5517, 7315, 8430, 9114, 9913, 10679, 11813, 12644, 13409, 13841, 14241, 14674, 16076, 16973, 17805, 18588, 19386, 20203, 20952, 21702, 22434, 23099, 23266, 23943, 24898, 25614, 26347, 26795, 27345, 28111, 28793, 29626, 29943, 30564, 31293, 32058, 32924, 33873, 34008, 34207]}, "edge": {"target": [], "time": []}}, "mouseout": {"state": {"target": ["0", "12", "13", "13", "14", "19", "22", "21", "20", "15", "18", "16", "17", "15", "1", "2", "2", "7", "10", "8", "11", "9", "3", "4", "6", "5", "10", "23", "23", "24", "25", "30", "31", "30", "31", "32", "33", "26", "29", "26", "28", "27", "29", "29", "26", "24", "23", "23"], "time": [2970, 3703, 4218, 5434, 7282, 8367, 9014, 9796, 10546, 11595, 12294, 13093, 13825, 13858, 14624, 15832, 16057, 16706, 17738, 18554, 19203, 20070, 20869, 21685, 22318, 23016, 23116, 23713, 23832, 24815, 25581, 26297, 26762, 27312, 27978, 28577, 29225, 29693, 30476, 31243, 31876, 32757, 33295, 33723, 33740, 33940, 34090, 34689]}, "edge": {"target": [], "time": []}}}, "displayed_time": "43.72", "trialTime": 52537, "trial_type": "mouselab-mdp", "trial_index": 22, "time_elapsed": 1929307, "internal_node_id": "0.0-6.0-1.0-1.0"}}, {"uniqueid": "w65349158:a75488199", "current_trial": 23, "dateTime": 1693392602301, "trialdata": {"revealed_states": [], "clicked_states": ["12", "14", "22", "15", "18", "17", "2", "1", "7", "3", "11", "27", "25", "33"], "num_clicks_accrued": [0, 0, 0, 0, 0, 0, 0, 0, 0, 0, 0, 0, 0], "stateRewards": ["", -2, 2, -4, -4, -59, 88, 62, -3, 69, -15, -34, 1, -2, -5, 7, -54, -20, 78, -16, -74, -53, -21, 2, -4, 2, 13, -8, -44, 26, 9, 72, 4, 17], "withholdReward": false, "trial_id": "mdp_trial_3", "block": "test", "trialIndex": 8, "score": 34.400000000000006, "costs": -19.599999999999998, "simulationMode": [null, null, null, null, null], "rewards": [-2, 2, -4, -4, 62], "path": ["0", "0", "1", "2", "3", "4", "7"], "rt": [31164, 765, 1124, 1109, 941], "actions": ["up", "up", "up", "right", "down"], "actionTimes": [33758, 35037, 36677, 38294, 39741], "queries": {"click": {"state": {"target": ["12", "14", "22", "15", "18", "17", "2", "1", "7", "3", "11", "27", "25", "33"], "time": [3742, 5493, 7181, 9351, 11160, 12715, 14845, 16424, 18627, 20536, 23026, 25285, 27455, 29901]}, "edge": {"target": [], "time": []}}, "mouseover": {"state": {"target": ["0", "12", "13", "14", "19", "22", "21", "20", "20", "15", "18", "16", "18", "16", "17", "7", "7", "2", "10", "1", "3", "4", "7", "6", "5", "3", "9", "8", "11", "11", "28", "27", "26", "29", "25", "24", "30", "33", "32", "31", "0", "1"], "time": [3331, 3398, 4198, 4814, 5913, 6746, 7527, 8210, 8360, 9042, 9676, 10559, 10863, 11441, 12340, 12990, 13289, 14520, 15187, 15987, 16785, 17584, 18350, 18983, 19550, 20265, 20815, 21631, 22429, 22771, 23862, 24960, 25644, 26226, 27191, 27841, 28508, 29206, 30372, 30822, 30955, 31520]}, "edge": {"target": [], "time": []}}, "mouseout": {"state": {"target": ["23", "0", "12", "12", "0", "0", "12", "13", "14", "19", "22", "21", "20", "20", "15", "18", "16", "18", "16", "17", "7", "7", "2", "2", "10", "1", "2", "3", "4", "7", "6", "5", "3", "9", "8", "11", "11", "28", "27", "26", "29", "25", "25", "24", "30", "33", "33", "32", "31", "0"], "time": [1133, 1166, 1199, 1332, 2381, 3364, 4015, 4698, 5863, 6696, 7445, 8060, 8277, 8926, 9470, 10428, 10759, 11171, 12274, 12941, 13007, 14255, 14967, 15154, 15903, 16618, 16718, 17451, 18316, 18783, 19517, 20215, 20670, 21448, 22362, 22479, 23496, 24910, 25560, 26160, 26959, 27591, 27792, 28424, 29139, 30026, 30190, 30772, 30838, 31189]}, "edge": {"target": [], "time": []}}}, "displayed_time": "40.25", "trialTime": 45414, "trial_type": "mouselab-mdp", "trial_index": 23, "time_elapsed": 1974986, "internal_node_id": "0.0-6.0-1.0-2.0"}}, {"uniqueid": "w65349158:a75488199", "current_trial": 24, "dateTime": 1693392648562, "trialdata": {"revealed_states": [], "clicked_states": ["12", "14", "22", "20", "18", "17", "24", "31", "26", "27", "1", "3", "10", "4", "6"], "num_clicks_accrued": [0, 0, 0, 0, 0, 0, 0, 0, 0, 0, 0, 0, 0], "stateRewards": ["", 1, -1, 8, -3, 38, 85, -20, -4, 8, 23, 73, 2, -4, 6, -13, 44, 7, -28, -11, -77, 45, -69, 1, -1, -7, -11, 75, -51, -87, 7, 36, -53, -26], "withholdReward": false, "trial_id": "mdp_trial_4", "block": "test", "trialIndex": 9, "score": 69, "costs": -20.999999999999996, "simulationMode": [null, null, null, null, null], "rewards": [1, -1, 8, -3, 85], "path": ["0", "0", "1", "2", "3", "4", "6"], "rt": [33097, 528, 561, 1208, 699], "actions": ["up", "up", "up", "right", "right"], "actionTimes": [35456, 36474, 37554, 39282, 40490], "queries": {"click": {"state": {"target": ["12", "14", "22", "20", "18", "17", "24", "31", "26", "27", "1", "3", "10", "4", "6"], "time": [3475, 5082, 6754, 8296, 10010, 11601, 13490, 15722, 18517, 20099, 21717, 23382, 25333, 27729, 29245]}, "edge": {"target": [], "time": []}}, "mouseover": {"state": {"target": ["0", "12", "13", "14", "19", "22", "21", "20", "15", "18", "16", "17", "13", "12", "0", "23", "23", "24", "25", "30", "31", "30", "33", "32", "30", "25", "26", "29", "27", "28", "1", "2", "3", "8", "10", "11", "9", "4", "7", "6", "5", "7", "0", "1"], "time": [2840, 3040, 3823, 4456, 5555, 6354, 7070, 7969, 8684, 9500, 10450, 11316, 11949, 11982, 12282, 12365, 12465, 13147, 13780, 14563, 15345, 15961, 16011, 16877, 17526, 17592, 17725, 18908, 19708, 20606, 21489, 22006, 22922, 23837, 25002, 25735, 26368, 27266, 28166, 28831, 29564, 30765, 30966, 33843]}, "edge": {"target": [], "time": []}}, "mouseout": {"state": {"target": ["1", "0", "12", "13", "14", "14", "19", "22", "21", "20", "15", "18", "16", "17", "13", "12", "0", "23", "23", "24", "24", "25", "30", "31", "30", "33", "32", "30", "25", "26", "29", "27", "28", "1", "2", "3", "8", "10", "11", "9", "4", "7", "6", "5", "4", "7", "0"], "time": [1224, 3023, 3725, 4323, 5179, 5472, 6288, 7036, 7770, 8502, 9351, 10267, 11033, 11899, 11965, 12016, 12332, 12398, 12998, 13603, 13747, 14447, 15278, 15945, 15995, 16611, 17509, 17559, 17642, 18876, 19595, 20440, 21222, 21827, 22871, 23820, 24952, 25685, 26302, 27167, 28099, 28715, 29481, 30680, 30747, 30796, 31119]}, "edge": {"target": [], "time": []}}}, "displayed_time": "41.01", "trialTime": 45929, "trial_type": "mouselab-mdp", "trial_index": 24, "time_elapsed": 2021247, "internal_node_id": "0.0-6.0-1.0-3.0"}}, {"uniqueid": "w65349158:a75488199", "current_trial": 25, "dateTime": 1693392700380, "trialdata": {"revealed_states": [], "clicked_states": ["12", "14", "22", "15", "17", "2", "7", "5", "8", "10", "23", "25", "27", "30", "33"], "num_clicks_accrued": [0, 0, 0, 0, 0, 0, 0, 0, 0, 0, 0, 0, 0], "stateRewards": ["", -1, 3, 1, -7, 56, 76, 57, 3, 11, -9, 14, 1, -2, 2, 8, -77, -3, 79, -5, 88, 24, -66, -2, -1, 7, -7, -30, 14, -76, 11, -36, 28, -6], "withholdReward": false, "trial_id": "mdp_trial_5", "block": "test", "trialIndex": 10, "score": 32, "costs": -20.999999999999996, "simulationMode": [null, null, null, null, null], "rewards": [-1, 3, 1, -7, 57], "path": ["0", "0", "1", "2", "3", "4", "7"], "rt": [30781, 743, 866, 2117, 708], "actions": ["up", "up", "up", "right", "down"], "actionTimes": [37112, 38367, 39751, 42384, 43607], "queries": {"click": {"state": {"target": ["12", "14", "22", "15", "17", "2", "7", "5", "8", "10", "23", "25", "27", "30", "33"], "time": [7503, 9046, 10813, 12999, 15048, 16912, 18649, 21221, 22909, 24805, 26685, 28319, 30244, 32197, 34464]}, "edge": {"target": [], "time": []}}, "mouseover": {"state": {"target": ["12", "13", "14", "19", "22", "21", "20", "15", "18", "16", "17", "7", "2", "1", "2", "3", "7", "4", "6", "5", "9", "8", "11", "10", "28", "24", "23", "24", "25", "26", "28", "27", "29", "30", "31", "32", "33", "31", "0", "12", "1"], "time": [7180, 7798, 8663, 9628, 10462, 11161, 11844, 12641, 13442, 14058, 14789, 15524, 15756, 15906, 16423, 17521, 18237, 19053, 19670, 20650, 21784, 22616, 23498, 24497, 25280, 26179, 26362, 26929, 27479, 28727, 29411, 29958, 30825, 31724, 32556, 33339, 33988, 34971, 35089, 35154, 36235]}, "edge": {"target": [], "time": []}}, "mouseout": {"state": {"target": ["1", "0", "12", "13", "14", "19", "22", "21", "20", "15", "15", "18", "16", "17", "7", "2", "1", "2", "3", "7", "4", "6", "5", "9", "8", "11", "10", "28", "24", "23", "23", "24", "25", "26", "28", "27", "29", "30", "31", "32", "33", "31", "0", "12", "1", "0"], "time": [1153, 3370, 7608, 8431, 9378, 10429, 11078, 11744, 12359, 13011, 13392, 13891, 14673, 15063, 15725, 15790, 16356, 17016, 18174, 18920, 19619, 20501, 21584, 22483, 23265, 24248, 25180, 26030, 26303, 26800, 26895, 27445, 28465, 29360, 29908, 30525, 31457, 32523, 33223, 33921, 34592, 34988, 35123, 35353, 46809, 46858]}, "edge": {"target": [], "time": []}}}, "displayed_time": "44.12", "trialTime": 51519, "trial_type": "mouselab-mdp", "trial_index": 25, "time_elapsed": 2073065, "internal_node_id": "0.0-6.0-1.0-4.0"}}, {"uniqueid": "w65349158:a75488199", "current_trial": 26, "dateTime": 1693392734253, "trialdata": {"revealed_states": [], "clicked_states": [], "num_clicks_accrued": [0, 0, 0, 0, 0, 0, 0, 0, 0, 0, 0, 0, 0], "stateRewards": ["", -2, -4, -6, 12, -58, -70, -80, 2, 16, -88, -62, 1, 2, -5, 11, 77, -35, -44, -5, 18, -83, 87, 1, -3, -5, 13, -44, -21, -86, 10, -52, 8, 29], "withholdReward": false, "trial_id": "mdp_trial_6", "block": "test", "trialIndex": 11, "score": -80, "costs": 0, "simulationMode": [null, null, null, null, null], "rewards": [-2, -4, -6, 12, -80], "path": ["0", "0", "1", "2", "3", "4", "7"], "rt": [20099, 2231, 563, 722, 849], "actions": ["up", "up", "up", "right", "down"], "actionTimes": [22265, 25008, 26088, 27328, 28688], "queries": {"click": {"state": {"target": [], "time": []}, "edge": {"target": [], "time": []}}, "mouseover": {"state": {"target": ["0", "12", "13", "14", "13", "12", "0", "12", "0", "1", "2", "10", "10", "3", "2", "2", "7", "1", "2", "3"], "time": [5307, 5556, 6141, 6173, 6639, 12068, 12233, 12333, 13549, 14133, 14749, 15232, 15431, 15881, 16747, 16930, 17150, 17729, 18378, 18695]}, "edge": {"target": [], "time": []}}, "mouseout": {"state": {"target": ["23", "3", "23", "0", "0", "12", "13", "14", "13", "12", "0", "12", "0", "1", "2", "10", "10", "3", "2", "2", "7", "1", "2", "3", "12"], "time": [1060, 1210, 1517, 1726, 5423, 6139, 6156, 6373, 8520, 12200, 12301, 13150, 13836, 14682, 15215, 15249, 15831, 16697, 16880, 16947, 17696, 17795, 18578, 19427, 32115]}, "edge": {"target": [], "time": []}}}, "displayed_time": "29.20", "trialTime": 33584, "trial_type": "mouselab-mdp", "trial_index": 26, "time_elapsed": 2106938, "internal_node_id": "0.0-6.0-1.0-5.0"}}, {"uniqueid": "w65349158:a75488199", "current_trial": 27, "dateTime": 1693392778085, "trialdata": {"revealed_states": [], "clicked_states": ["12", "19", "21", "18", "1", "4", "9", "10", "25", "32", "26", "29"], "num_clicks_accrued": [0, 0, 0, 0, 0, 0, 0, 0, 0, 0, 0, 0, 0], "stateRewards": ["", -1, -3, -5, -14, -13, -47, 79, 8, -60, -64, 41, -1, 2, 3, 13, -46, 61, -79, -11, -64, -65, 23, 1, -2, 6, -14, 46, 32, 21, 7, 75, -66, 15], "withholdReward": false, "trial_id": "mdp_trial_7", "block": "test", "trialIndex": 12, "score": -52.8, "costs": -16.8, "simulationMode": [null, null, null, null, null], "rewards": [-1, -3, -5, -14, -13], "path": ["0", "0", "1", "2", "3", "4", "5"], "rt": [24578, 499, 797, 867, 1044], "actions": ["up", "up", "up", "right", "up"], "actionTimes": [27156, 28172, 29484, 30868, 32428], "queries": {"click": {"state": {"target": ["12", "19", "21", "18", "1", "4", "9", "10", "25", "32", "26", "29"], "time": [3541, 5516, 7090, 9196, 11201, 12739, 14772, 16493, 18655, 20692, 22234, 24279]}, "edge": {"target": [], "time": []}}, "mouseover": {"state": {"target": ["12", "13", "14", "19", "22", "22", "21", "20", "14", "14", "15", "18", "16", "17", "7", "1", "1", "2", "7", "4", "3", "5", "5", "9", "8", "11", "10", "23", "24", "25", "30", "31", "32", "33", "26", "26", "28", "27", "29", "24", "0", "1", "1", "0"], "time": [3077, 3893, 4558, 5157, 5791, 6145, 6776, 7406, 7938, 8122, 8255, 8953, 9470, 10290, 10536, 10818, 10951, 11385, 12067, 12500, 13117, 13700, 14199, 14531, 15098, 15631, 16264, 16814, 17479, 18161, 19077, 19678, 20475, 21014, 21708, 21991, 22640, 23206, 24022, 24838, 25105, 25521, 25837, 26140]}, "edge": {"target": [], "time": []}}, "mouseout": {"state": {"target": ["0", "1", "0", "0", "12", "12", "13", "14", "19", "22", "22", "21", "20", "14", "14", "15", "18", "16", "17", "7", "1", "1", "2", "7", "4", "3", "5", "5", "9", "8", "11", "10", "23", "24", "25", "25", "30", "31", "32", "33", "25", "26", "26", "28", "27", "29", "24", "0", "1", "1", "0", "0", "1", "1", "10", "28"], "time": [1460, 1643, 1976, 2325, 3653, 3742, 4309, 5107, 5758, 5974, 6523, 7239, 7905, 7971, 8172, 8670, 9275, 9936, 10502, 10569, 10901, 11334, 11851, 12450, 13067, 13500, 13900, 14249, 14965, 15498, 16064, 16680, 17462, 18128, 18799, 18960, 19577, 20225, 20821, 21592, 21675, 21808, 22262, 23107, 23757, 24756, 24855, 25405, 25588, 25970, 26353, 35183, 35227, 35327, 35611, 35777]}, "edge": {"target": [], "time": []}}}, "displayed_time": "32.95", "trialTime": 43548, "trial_type": "mouselab-mdp", "trial_index": 27, "time_elapsed": 2150770, "internal_node_id": "0.0-6.0-1.0-6.0"}}, {"uniqueid": "w65349158:a75488199", "current_trial": 28, "dateTime": 1693392820181, "trialdata": {"revealed_states": [], "clicked_states": ["23", "25", "31", "32", "29", "1", "10", "9", "7", "6", "12", "19", "22", "15", "18"], "num_clicks_accrued": [0, 0, 0, 0, 0, 0, 0, 0, 0, 0, 0, 0, 0], "stateRewards": ["", -1, -4, -1, -5, -28, -23, -15, -15, -38, 59, -87, 2, 2, -5, 9, -55, -39, -71, -6, 85, -85, -11, -1, -2, 5, -10, 1, 25, 41, -4, 69, -35, 86], "withholdReward": false, "trial_id": "mdp_trial_8", "block": "test", "trialIndex": 13, "score": 17, "costs": -20.999999999999996, "simulationMode": [null, null, null, null, null], "rewards": [-1, -4, -1, -15, 59], "path": ["0", "0", "1", "2", "3", "8", "10"], "rt": [29368, 548, 884, 725, 1172], "actions": ["up", "up", "up", "left", "down"], "actionTimes": [31227, 32298, 33698, 34938, 36618], "queries": {"click": {"state": {"target": ["23", "25", "31", "32", "29", "1", "10", "9", "7", "6", "12", "19", "22", "15", "18"], "time": [2845, 5002, 6848, 8365, 10313, 12162, 13713, 15647, 17209, 18959, 21051, 22898, 24587, 26658, 28458]}, "edge": {"target": [], "time": []}}, "mouseover": {"state": {"target": ["0", "23", "23", "24", "25", "30", "31", "30", "33", "32", "30", "26", "28", "26", "29", "27", "27", "10", "2", "1", "1", "2", "10", "8", "11", "9", "3", "7", "4", "5", "6", "16", "18", "12", "13", "14", "19", "20", "22", "21", "14", "15", "16", "17", "18", "0", "0", "0"], "time": [2441, 2476, 2558, 3325, 4706, 5712, 6771, 7254, 7387, 8108, 8537, 8820, 9236, 9819, 9918, 10624, 10968, 11470, 11534, 11667, 11866, 12450, 13349, 13964, 14718, 15347, 16030, 16912, 17529, 18011, 18677, 19330, 20009, 20791, 21391, 21843, 22540, 23589, 24338, 25142, 25970, 26435, 27036, 27618, 28233, 28867, 29167, 30514]}, "edge": {"target": [], "time": []}}, "mouseout": {"state": {"target": ["0", "0", "0", "23", "23", "24", "25", "25", "30", "31", "30", "33", "32", "30", "25", "26", "28", "26", "29", "27", "27", "10", "2", "1", "1", "2", "10", "8", "11", "9", "3", "7", "4", "5", "6", "6", "16", "18", "12", "12", "13", "14", "19", "20", "19", "22", "21", "19", "14", "15", "16", "17", "18", "0", "0", "0"], "time": [1192, 2283, 2458, 2531, 3158, 4674, 5028, 5373, 6489, 7221, 7338, 7954, 8487, 8570, 8636, 9220, 9803, 9869, 10457, 10701, 11384, 11507, 11608, 11700, 12366, 13116, 13914, 14498, 15131, 15996, 16779, 17378, 17978, 18611, 19083, 19227, 19926, 20607, 21147, 21258, 21808, 22490, 23456, 24105, 24188, 24787, 25853, 25919, 26383, 26811, 27518, 28068, 28717, 29017, 29300, 40858]}, "edge": {"target": [], "time": []}}}, "displayed_time": "37.13", "trialTime": 41803, "trial_type": "mouselab-mdp", "trial_index": 28, "time_elapsed": 2192866, "internal_node_id": "0.0-6.0-1.0-7.0"}}, {"uniqueid": "w65349158:a75488199", "current_trial": 29, "dateTime": 1693392854357, "trialdata": {"revealed_states": [], "clicked_states": ["12", "19", "20", "16", "2", "3", "9", "10", "24", "30"], "num_clicks_accrued": [0, 0, 0, 0, 0, 0, 0, 0, 0, 0, 0, 0, 0], "stateRewards": ["", -2, 3, 8, -9, 59, 41, -50, -1, 82, 66, 33, 2, -2, 7, 8, 1, -38, 12, -16, 24, -37, 67, 1, 4, -2, 5, 35, -83, 28, 8, -27, 69, -64], "withholdReward": false, "trial_id": "mdp_trial_9", "block": "test", "trialIndex": 14, "score": 60, "costs": -14.000000000000002, "simulationMode": [null, null, null, null, null], "rewards": [-2, 3, 8, -1, 66], "path": ["0", "0", "1", "2", "3", "8", "10"], "rt": [19937, 1097, 859, 1909, 742], "actions": ["up", "up", "up", "left", "down"], "actionTimes": [21997, 23604, 24980, 27428, 28676], "queries": {"click": {"state": {"target": ["12", "19", "20", "16", "2", "3", "9", "10", "24", "30"], "time": [2932, 4962, 6945, 8922, 11028, 12652, 14883, 16820, 18648, 20268]}, "edge": {"target": [], "time": []}}, "mouseover": {"state": {"target": ["12", "13", "14", "19", "22", "21", "20", "14", "15", "15", "18", "16", "7", "1", "2", "10", "8", "3", "4", "5", "9", "11", "8", "10", "28", "24", "23", "24", "31", "30", "25", "31", "0"], "time": [2657, 3232, 3922, 4703, 5221, 6037, 6602, 7168, 7218, 7401, 8001, 8650, 9383, 10100, 10565, 11415, 11898, 12398, 12884, 13729, 14511, 15511, 15960, 16592, 17126, 17592, 17875, 18358, 18941, 19873, 20573, 20722, 20822]}, "edge": {"target": [], "time": []}}, "mouseout": {"state": {"target": ["0", "12", "13", "14", "19", "19", "22", "21", "20", "14", "15", "15", "18", "16", "7", "1", "2", "10", "8", "3", "4", "5", "9", "9", "11", "8", "10", "10", "28", "24", "23", "24", "31", "30", "25", "31", "0", "23", "24", "31"], "time": [1256, 3173, 3789, 4619, 5051, 5171, 5771, 6519, 7102, 7185, 7235, 7901, 8384, 8939, 10016, 10515, 11298, 11831, 12348, 12846, 13630, 14311, 14983, 15311, 15910, 16475, 16864, 17026, 17576, 17758, 18331, 18874, 19790, 20378, 20689, 20739, 20839, 32177, 32260, 32328]}, "edge": {"target": [], "time": []}}}, "displayed_time": "29.18", "trialTime": 33901, "trial_type": "mouselab-mdp", "trial_index": 29, "time_elapsed": 2227042, "internal_node_id": "0.0-6.0-1.0-8.0"}}, {"uniqueid": "w65349158:a75488199", "current_trial": 30, "dateTime": 1693392891964, "trialdata": {"revealed_states": [], "clicked_states": ["12", "19", "20", "16", "2", "8", "10", "23", "25", "27", "30"], "num_clicks_accrued": [0, 0, 0, 0, 0, 0, 0, 0, 0, 0, 0, 0, 0], "stateRewards": ["", 2, -1, -1, 7, 11, -40, -22, -2, 69, 37, 8, -2, 4, -8, -12, -2, -72, -3, -12, 17, 63, 12, 1, 3, -7, 6, 25, 61, 61, -9, 28, -17, 27], "withholdReward": false, "trial_id": "mdp_trial_10", "block": "test", "trialIndex": 15, "score": 19.599999999999998, "costs": -15.400000000000002, "simulationMode": [null, null, null, null, null], "rewards": [2, -1, -1, -2, 37], "path": ["0", "0", "1", "2", "3", "8", "10"], "rt": [25003, 505, 731, 1890, 597], "actions": ["up", "up", "up", "left", "down"], "actionTimes": [27718, 28741, 29981, 32390, 33493], "queries": {"click": {"state": {"target": ["12", "19", "20", "16", "2", "8", "10", "23", "25", "27", "30"], "time": [3613, 5809, 7683, 9653, 11797, 13533, 15638, 17915, 20016, 21899, 24021]}, "edge": {"target": [], "time": []}}, "mouseover": {"state": {"target": ["0", "12", "13", "14", "19", "22", "21", "20", "15", "18", "16", "7", "2", "1", "2", "3", "8", "10", "8", "9", "11", "10", "10", "4", "7", "2", "28", "24", "23", "24", "25", "26", "28", "27", "29", "33", "33", "30", "32", "31", "0", "1"], "time": [3189, 3238, 4122, 4805, 5553, 6170, 6869, 7418, 8135, 8918, 9366, 10150, 10683, 10768, 11314, 12081, 12714, 12864, 13280, 14096, 14712, 15227, 15443, 15961, 16794, 17292, 17442, 17491, 17708, 18242, 19667, 20289, 20972, 21571, 22488, 22920, 23204, 23755, 24418, 25201, 26000, 26383]}, "edge": {"target": [], "time": []}}, "mouseout": {"state": {"target": ["0", "0", "12", "13", "14", "19", "19", "22", "21", "20", "15", "18", "16", "7", "2", "1", "2", "3", "8", "10", "8", "9", "11", "10", "10", "4", "7", "2", "28", "24", "23", "23", "24", "25", "26", "28", "27", "29", "33", "33", "30", "32", "31", "0", "1", "1"], "time": [1373, 3206, 3839, 4622, 5453, 5934, 6092, 6604, 7319, 7869, 8721, 9266, 9934, 10650, 10700, 11281, 11920, 12680, 12731, 13247, 13651, 14562, 15144, 15311, 15878, 16710, 17276, 17325, 17458, 17541, 18054, 18192, 19664, 20206, 20872, 21526, 22154, 22871, 22971, 23652, 24335, 24954, 25866, 26150, 35190, 35491]}, "edge": {"target": [], "time": []}}}, "displayed_time": "34.01", "trialTime": 37325, "trial_type": "mouselab-mdp", "trial_index": 30, "time_elapsed": 2264649, "internal_node_id": "0.0-6.0-1.0-9.0"}}, {"uniqueid": "w65349158:a75488199", "current_trial": 31, "dateTime": 1693392933440, "trialdata": {"revealed_states": [], "clicked_states": ["12", "19", "20", "16", "2", "3", "6", "8", "23", "30", "32", "26", "29"], "num_clicks_accrued": [0, 0, 0, 0, 0, 0, 0, 0, 0, 0, 0, 0, 0], "stateRewards": ["", -1, -2, 8, -6, -79, -6, 87, 9, -5, -66, -38, 2, 2, 5, -6, -82, 74, 85, -8, 67, -30, -15, 1, -2, -2, -2, 87, 64, 49, 7, 2, -38, -9], "withholdReward": false, "trial_id": "mdp_trial_11", "block": "test", "trialIndex": 16, "score": -97.2, "costs": -18.2, "simulationMode": [null, null, null, null, null], "rewards": [2, 2, 5, -6, -82], "path": ["0", "0", "12", "13", "14", "15", "16"], "rt": [27321, 3551, 259, 844, 921], "actions": ["right", "right", "right", "up", "up"], "actionTimes": [30714, 34777, 35547, 36899, 38339], "queries": {"click": {"state": {"target": ["12", "19", "20", "16", "2", "3", "6", "8", "23", "30", "32", "26", "29"], "time": [4703, 6866, 8866, 10722, 12297, 13857, 15776, 17961, 19910, 21842, 23870, 25792, 27713]}, "edge": {"target": [], "time": []}}, "mouseover": {"state": {"target": ["0", "12", "13", "14", "19", "22", "21", "20", "14", "15", "18", "16", "2", "1", "2", "10", "3", "7", "4", "4", "6", "5", "9", "8", "11", "10", "23", "24", "25", "30", "31", "33", "33", "32", "25", "26", "28", "27", "29"], "time": [3783, 4498, 5132, 5881, 6479, 7279, 7928, 8494, 9060, 9327, 10059, 10508, 11059, 11326, 11876, 12759, 13607, 14139, 14773, 15123, 15521, 16055, 17004, 17735, 18419, 19151, 19666, 20216, 20833, 21420, 22199, 22748, 23081, 23647, 24796, 25546, 26094, 26810, 27525]}, "edge": {"target": [], "time": []}}, "mouseout": {"state": {"target": ["0", "0", "12", "13", "14", "19", "22", "21", "20", "14", "15", "18", "16", "2", "1", "2", "10", "3", "7", "4", "4", "6", "5", "9", "8", "11", "10", "23", "24", "25", "30", "31", "30", "33", "33", "32", "30", "25", "26", "28", "27", "29", "26", "0", "28", "25", "33"], "time": [2999, 4231, 4788, 5581, 6412, 7201, 7751, 8411, 9011, 9260, 9827, 10393, 10852, 11093, 11808, 12452, 13423, 14089, 14706, 14839, 15487, 15971, 16721, 17668, 18108, 18952, 19501, 20038, 20733, 21365, 22065, 22715, 22732, 22765, 23513, 24346, 24480, 25511, 25983, 26544, 27293, 27993, 28026, 39948, 40046, 40082, 40113]}, "edge": {"target": [], "time": []}}}, "displayed_time": "38.85", "trialTime": 41217, "trial_type": "mouselab-mdp", "trial_index": 31, "time_elapsed": 2306125, "internal_node_id": "0.0-6.0-1.0-10.0"}}, {"uniqueid": "w65349158:a75488199", "current_trial": 32, "dateTime": 1693392980396, "trialdata": {"revealed_states": [], "clicked_states": ["12", "14", "21", "15", "17", "1", "7", "5", "11", "24", "26", "30", "33"], "num_clicks_accrued": [0, 0, 0, 0, 0, 0, 0, 0, 0, 0, 0, 0, 0], "stateRewards": ["", 1, -4, -6, 11, -20, 8, -30, 1, -38, 88, 42, 2, 3, 5, -12, -8, -74, 30, -8, 67, -19, 42, 2, -1, 4, 13, 50, -68, 2, -8, -15, 87, -46], "withholdReward": false, "trial_id": "mdp_trial_12", "block": "test", "trialIndex": 17, "score": 15.8, "costs": -18.2, "simulationMode": [null, null, null, null, null], "rewards": [1, -4, -6, 1, 42], "path": ["0", "0", "1", "2", "3", "8", "11"], "rt": [28270, 447, 578, 945, 942], "actions": ["up", "up", "up", "left", "left"], "actionTimes": [32677, 33636, 34732, 36196, 37659], "queries": {"click": {"state": {"target": ["12", "14", "21", "15", "17", "1", "7", "5", "11", "24", "26", "30", "33"], "time": [6377, 8002, 10026, 11900, 13938, 16610, 18274, 20094, 22261, 24115, 26148, 28294, 30441]}, "edge": {"target": [], "time": []}}, "mouseover": {"state": {"target": ["12", "13", "14", "14", "19", "22", "21", "20", "15", "15", "18", "16", "17", "7", "2", "1", "6", "6", "7", "2", "1", "2", "3", "7", "4", "6", "5", "9", "8", "11", "10", "23", "23", "24", "25", "28", "26", "27", "29", "30", "31", "32", "33", "31", "0", "1", "1"], "time": [5178, 6797, 7444, 7777, 8309, 9025, 9513, 10441, 10840, 11672, 12239, 12806, 13410, 14320, 14520, 14669, 15335, 15818, 15951, 16051, 16234, 16835, 17349, 18106, 18599, 19315, 19814, 20731, 21313, 21979, 22480, 23062, 23278, 23843, 24461, 25126, 25925, 26375, 27275, 28039, 28728, 29578, 30087, 30771, 30888, 31153, 31670]}, "edge": {"target": [], "time": []}}, "mouseout": {"state": {"target": ["33", "33", "30", "31", "0", "0", "12", "13", "14", "14", "19", "22", "21", "20", "15", "15", "18", "16", "17", "7", "2", "1", "6", "6", "7", "2", "1", "2", "3", "7", "4", "6", "5", "9", "8", "11", "10", "23", "23", "24", "25", "28", "26", "27", "29", "30", "31", "32", "33", "30", "31", "0", "1", "1", "27"], "time": [798, 964, 1015, 1148, 1314, 3129, 6762, 7351, 7493, 8209, 8858, 9475, 10174, 10791, 10858, 12045, 12722, 13321, 14153, 14370, 14620, 14886, 15569, 15851, 16017, 16068, 16767, 17301, 17834, 18421, 19232, 19784, 20237, 21246, 21845, 22430, 22969, 23129, 23694, 24252, 25043, 25775, 26295, 27008, 27789, 28556, 29305, 29971, 30704, 30754, 30788, 30921, 31354, 32058, 40327]}, "edge": {"target": [], "time": []}}}, "displayed_time": "38.17", "trialTime": 46676, "trial_type": "mouselab-mdp", "trial_index": 32, "time_elapsed": 2353081, "internal_node_id": "0.0-6.0-1.0-11.0"}}, {"uniqueid": "w65349158:a75488199", "current_trial": 33, "dateTime": 1693393016044, "trialdata": {"revealed_states": [], "clicked_states": ["23", "30", "32", "26", "27", "29", "1", "3", "11", "4"], "num_clicks_accrued": [0, 0, 0, 0, 0, 0, 0, 0, 0, 0, 0, 0, 0], "stateRewards": ["", 1, 1, 5, 6, -29, -7, 3, -16, 9, -46, 65, -1, 4, -1, -16, -63, -77, -87, 8, 80, -50, 43, -1, -1, -5, 5, -38, -71, -62, 9, 81, -50, -52], "withholdReward": false, "trial_id": "mdp_trial_13", "block": "test", "trialIndex": 18, "score": 42, "costs": -14.000000000000002, "simulationMode": [null, null, null, null, null], "rewards": [1, 1, 5, -16, 65], "path": ["0", "0", "1", "2", "3", "8", "11"], "rt": [22157, 494, 679, 1097, 882], "actions": ["up", "up", "up", "left", "left"], "actionTimes": [23825, 24832, 26031, 27648, 29048], "queries": {"click": {"state": {"target": ["23", "30", "32", "26", "27", "29", "1", "3", "11", "4"], "time": [3599, 5772, 7463, 8998, 10840, 13247, 14849, 16830, 18935, 21334]}, "edge": {"target": [], "time": []}}, "mouseover": {"state": {"target": ["0", "0", "12", "0", "23", "24", "25", "30", "31", "32", "33", "25", "26", "28", "28", "27", "27", "29", "10", "2", "1", "2", "10", "3", "8", "9", "11", "10", "2", "7", "4", "7", "1"], "time": [2264, 2471, 2855, 3204, 3288, 3972, 4654, 5385, 6120, 7068, 7807, 8584, 8783, 9266, 9666, 10232, 10564, 11231, 13729, 14012, 14594, 15135, 15826, 16541, 17191, 17741, 18722, 19307, 20189, 20472, 20571, 21853, 22307]}, "edge": {"target": [], "time": []}}, "mouseout": {"state": {"target": ["0", "0", "0", "12", "0", "23", "24", "25", "30", "31", "32", "33", "25", "26", "28", "28", "27", "27", "29", "10", "2", "1", "2", "10", "3", "8", "9", "11", "11", "10", "2", "7", "4", "7", "1", "0"], "time": [2253, 2305, 2505, 3171, 3238, 3905, 4554, 5319, 6086, 6952, 7684, 8501, 8601, 9129, 9283, 10199, 10265, 11114, 13578, 13962, 14544, 15027, 15693, 16441, 16963, 17674, 18358, 19062, 19290, 20122, 20406, 20521, 21836, 21886, 22336, 31793]}, "edge": {"target": [], "time": []}}}, "displayed_time": "29.57", "trialTime": 35344, "trial_type": "mouselab-mdp", "trial_index": 33, "time_elapsed": 2388729, "internal_node_id": "0.0-6.0-1.0-12.0"}}, {"uniqueid": "w65349158:a75488199", "current_trial": 34, "dateTime": 1693393054412, "trialdata": {"revealed_states": [], "clicked_states": ["12", "19", "20", "15", "18", "2", "5", "11", "23", "26", "27", "33", "31"], "num_clicks_accrued": [0, 0, 0, 0, 0, 0, 0, 0, 0, 0, 0, 0, 0], "stateRewards": ["", -2, 4, 3, 5, -61, 4, 30, 1, -47, 83, 10, 1, 4, 7, -14, 19, -74, -83, 6, -2, -2, -65, -1, -2, 4, -11, 12, -1, -68, 11, -38, -28, 66], "withholdReward": false, "trial_id": "mdp_trial_14", "block": "test", "trialIndex": 19, "score": 59.8, "costs": -18.2, "simulationMode": [null, null, null, null, null], "rewards": [-1, -2, 4, 11, 66], "path": ["0", "0", "23", "24", "25", "30", "33"], "rt": [26997, 344, 1351, 1109, 582], "actions": ["left", "left", "left", "down", "left"], "actionTimes": [29490, 30353, 32226, 33849, 34969], "queries": {"click": {"state": {"target": ["12", "19", "20", "15", "18", "2", "5", "11", "23", "26", "27", "33", "31"], "time": [3849, 6007, 7905, 9448, 11424, 13029, 14794, 16684, 18537, 20545, 22176, 23751, 25647]}, "edge": {"target": [], "time": []}}, "mouseover": {"state": {"target": ["12", "13", "14", "19", "22", "21", "20", "14", "15", "16", "15", "16", "16", "17", "18", "7", "1", "2", "4", "3", "5", "9", "8", "11", "10", "28", "23", "24", "25", "26", "28", "27", "29", "33", "30", "31", "32", "30", "25"], "time": [3331, 4106, 4980, 5762, 6413, 7046, 7611, 8145, 8245, 9027, 9243, 9676, 10009, 10742, 11140, 11658, 12265, 12757, 13347, 13961, 14522, 15105, 15821, 16402, 17053, 17985, 18283, 18883, 19749, 20282, 20782, 21498, 22580, 23563, 24212, 25427, 26043, 26643, 26776]}, "edge": {"target": [], "time": []}}, "mouseout": {"state": {"target": ["0", "12", "13", "14", "19", "22", "21", "20", "14", "15", "16", "15", "16", "16", "17", "15", "18", "7", "1", "2", "4", "3", "5", "9", "8", "11", "10", "28", "23", "24", "25", "26", "28", "27", "29", "33", "30", "31", "32", "30", "25"], "time": [2220, 4065, 4831, 5664, 6330, 6946, 7543, 8061, 8178, 8927, 9177, 9482, 9743, 10425, 11074, 11107, 11544, 12174, 12723, 13223, 13906, 14422, 14812, 15737, 16363, 16986, 17902, 18135, 18783, 19699, 20232, 20732, 21398, 22481, 23213, 24079, 25311, 25877, 26610, 26694, 27208]}, "edge": {"target": [], "time": []}}}, "displayed_time": "35.49", "trialTime": 38057, "trial_type": "mouselab-mdp", "trial_index": 34, "time_elapsed": 2427097, "internal_node_id": "0.0-6.0-1.0-13.0"}}, {"uniqueid": "w65349158:a75488199", "current_trial": 35, "dateTime": 1693393097652, "trialdata": {"revealed_states": [], "clicked_states": ["23", "30", "32", "26", "29", "2", "10", "9", "6", "13", "14", "21", "17"], "num_clicks_accrued": [0, 0, 0, 0, 0, 0, 0, 0, 0, 0, 0, 0, 0], "stateRewards": ["", 1, -1, 8, 4, 76, -33, -17, -3, -1, -54, -74, -2, 2, -5, 13, -51, 63, 83, 1, 84, 29, -36, 2, -1, 7, -12, -10, -44, -43, -14, 8, -69, 19], "withholdReward": false, "trial_id": "mdp_trial_15", "block": "test", "trialIndex": 20, "score": 6.800000000000001, "costs": -18.2, "simulationMode": [null, null, null, null, null], "rewards": [-2, 2, -5, 1, 29], "path": ["0", "0", "12", "13", "14", "19", "21"], "rt": [28564, 410, 680, 817, 524], "actions": ["right", "right", "right", "down", "down"], "actionTimes": [30594, 31522, 32722, 34058, 35098], "queries": {"click": {"state": {"target": ["23", "30", "32", "26", "29", "2", "10", "9", "6", "13", "14", "21", "17"], "time": [3732, 5657, 7274, 8808, 11114, 12689, 14725, 16416, 18545, 20622, 22153, 24163, 26017]}, "edge": {"target": [], "time": []}}, "mouseover": {"state": {"target": ["12", "0", "23", "24", "25", "30", "31", "32", "33", "25", "26", "28", "27", "29", "28", "1", "2", "7", "3", "10", "8", "11", "9", "4", "7", "6", "6", "5", "4", "12", "13", "18", "14", "19", "22", "21", "20", "15", "17", "16", "18", "12", "0", "0"], "time": [2818, 3351, 3418, 4018, 4691, 5267, 6000, 6766, 7565, 8297, 8380, 9179, 9995, 10844, 11461, 11877, 12410, 13158, 13775, 14523, 14924, 15524, 16097, 16839, 17538, 18037, 18286, 18827, 19452, 19786, 20301, 21068, 21717, 22483, 23132, 23747, 24548, 25480, 25763, 26329, 27228, 27960, 28060, 28809]}, "edge": {"target": [], "time": []}}, "mouseout": {"state": {"target": ["24", "1", "0", "12", "0", "23", "24", "25", "30", "31", "32", "33", "25", "26", "28", "27", "29", "28", "1", "2", "7", "3", "10", "8", "11", "9", "4", "7", "6", "6", "5", "4", "12", "13", "18", "14", "19", "22", "21", "20", "14", "15", "17", "16", "18", "12", "0", "0", "28", "7", "0"], "time": [470, 1253, 2719, 3267, 3384, 3991, 4634, 5217, 5983, 6682, 7498, 8247, 8331, 8996, 9678, 10528, 11328, 11494, 12360, 12847, 13708, 14374, 14843, 15424, 15973, 16706, 17488, 18004, 18104, 18754, 19436, 19469, 20267, 20690, 21667, 22450, 23083, 23699, 24364, 25114, 25181, 25713, 26279, 27062, 27877, 28010, 28227, 37318, 38034, 39865, 40032]}, "edge": {"target": [], "time": []}}}, "displayed_time": "35.61", "trialTime": 42954, "trial_type": "mouselab-mdp", "trial_index": 35, "time_elapsed": 2470337, "internal_node_id": "0.0-6.0-1.0-14.0"}}, {"uniqueid": "w65349158:a75488199", "current_trial": 36, "dateTime": 1693393128620, "trialdata": {"revealed_states": [], "clicked_states": ["12", "19", "21", "15", "18", "7", "5", "9", "10"], "num_clicks_accrued": [0, 0, 0, 0, 0, 0, 0, 0, 0, 0, 0, 0, 0], "stateRewards": ["", 1, -3, -1, 9, -34, -40, 22, -7, 45, 53, -11, 2, 4, 5, 15, 21, 37, -49, -3, 80, -28, -34, 1, -3, 1, 1, -40, -6, -5, -16, -85, -86, 59], "withholdReward": false, "trial_id": "mdp_trial_16", "block": "test", "trialIndex": 21, "score": 30.4, "costs": -12.600000000000001, "simulationMode": [null, null, null, null, null], "rewards": [1, -3, -1, -7, 53], "path": ["0", "0", "1", "2", "3", "8", "10"], "rt": [19579, 396, 770, 709, 998], "actions": ["up", "up", "up", "left", "down"], "actionTimes": [21298, 22226, 23514, 24738, 26258], "queries": {"click": {"state": {"target": ["12", "19", "21", "15", "18", "7", "5", "9", "10"], "time": [2777, 4963, 6826, 8345, 9912, 12096, 14273, 15788, 17766]}, "edge": {"target": [], "time": []}}, "mouseover": {"state": {"target": ["12", "13", "14", "19", "20", "21", "21", "22", "14", "17", "15", "17", "16", "18", "1", "2", "7", "4", "3", "5", "6", "4", "9", "8", "11", "10", "0", "0", "1"], "time": [2229, 3103, 3645, 4677, 5276, 5962, 6608, 7108, 7625, 7691, 8042, 8574, 9107, 9673, 10272, 10754, 11703, 12620, 13235, 13867, 14634, 15167, 15384, 16200, 16710, 17447, 18563, 18880, 19063]}, "edge": {"target": [], "time": []}}, "mouseout": {"state": {"target": ["12", "0", "0", "12", "13", "14", "19", "20", "21", "21", "22", "14", "17", "15", "17", "16", "18", "1", "2", "7", "4", "3", "5", "6", "4", "9", "8", "11", "10", "10", "0", "0", "1"], "time": [866, 1031, 1362, 3045, 3562, 4394, 5243, 5876, 6193, 7026, 7592, 7642, 7791, 8483, 9074, 9556, 10122, 10705, 11654, 12536, 13203, 13751, 14568, 15151, 15201, 16084, 16686, 17348, 17907, 18347, 18630, 19030, 28537]}, "edge": {"target": [], "time": []}}}, "displayed_time": "26.77", "trialTime": 30658, "trial_type": "mouselab-mdp", "trial_index": 36, "time_elapsed": 2501305, "internal_node_id": "0.0-6.0-1.0-15.0"}}, {"uniqueid": "w65349158:a75488199", "current_trial": 37, "dateTime": 1693393172677, "trialdata": {"revealed_states": [], "clicked_states": ["23", "30", "32", "26", "1", "3", "10", "4", "5", "13", "19", "20", "18", "2"], "num_clicks_accrued": [0, 0, 0, 0, 0, 0, 0, 0, 0, 0, 0, 0, 0], "stateRewards": ["", -1, 2, -7, -12, -62, 12, -13, 5, 77, -71, 83, 1, -4, 7, 15, -42, -87, -4, 5, -25, 44, 88, -1, 4, -5, -8, 14, 51, 8, -5, 83, -24, -19], "withholdReward": false, "trial_id": "mdp_trial_17", "block": "test", "trialIndex": 22, "score": -45.599999999999994, "costs": -19.599999999999998, "simulationMode": [null, null, null, null, null], "rewards": [-1, 4, -5, -5, -19], "path": ["0", "0", "23", "24", "25", "30", "33"], "rt": [31928, 62, 711, 1712, 399], "actions": ["left", "left", "left", "down", "left"], "actionTimes": [33495, 34089, 35320, 37552, 38472], "queries": {"click": {"state": {"target": ["23", "30", "32", "26", "1", "3", "10", "4", "5", "13", "19", "20", "18", "2"], "time": [2647, 4695, 6719, 8696, 10919, 12495, 14174, 16518, 18568, 20704, 22369, 24600, 26114, 28967]}, "edge": {"target": [], "time": []}}, "mouseover": {"state": {"target": ["12", "23", "24", "25", "30", "31", "33", "32", "25", "28", "26", "29", "27", "10", "1", "2", "2", "3", "3", "8", "10", "11", "9", "4", "7", "6", "5", "18", "12", "13", "14", "19", "22", "21", "20", "15", "18", "16", "17", "12", "0", "1", "2", "1"], "time": [2203, 2337, 2986, 3619, 4451, 5054, 5784, 6449, 7016, 7666, 8414, 9098, 9681, 10346, 10597, 11179, 11481, 11912, 12295, 13061, 13677, 14609, 15175, 16307, 16906, 17406, 18305, 19138, 19605, 20336, 21041, 22069, 22718, 23484, 24116, 25035, 25816, 26415, 27347, 27946, 28062, 28378, 28645, 29478]}, "edge": {"target": [], "time": []}}, "mouseout": {"state": {"target": ["0", "12", "23", "24", "25", "30", "31", "30", "33", "32", "30", "25", "28", "26", "29", "27", "10", "1", "2", "2", "3", "3", "8", "10", "11", "9", "4", "4", "7", "6", "5", "18", "12", "13", "14", "19", "19", "22", "21", "20", "15", "18", "16", "17", "12", "0", "1", "2", "1"], "time": [1105, 2225, 2953, 3602, 4301, 4985, 5618, 5651, 6233, 6755, 6950, 7599, 8314, 9032, 9581, 10279, 10479, 11113, 11346, 11879, 11979, 12705, 13644, 14475, 15108, 16041, 16650, 16840, 17323, 18105, 18922, 19489, 20253, 21020, 22019, 22513, 22667, 23434, 23999, 24705, 25732, 26226, 26997, 27795, 27979, 28212, 28528, 29428, 29495]}, "edge": {"target": [], "time": []}}}, "displayed_time": "38.99", "trialTime": 43752, "trial_type": "mouselab-mdp", "trial_index": 37, "time_elapsed": 2545361, "internal_node_id": "0.0-6.0-1.0-16.0"}}, {"uniqueid": "w65349158:a75488199", "current_trial": 38, "dateTime": 1693393213572, "trialdata": {"revealed_states": [], "clicked_states": ["12", "14", "21", "17", "18", "2", "7", "5", "3", "10", "24", "30", "32", "28", "29"], "num_clicks_accrued": [0, 0, 0, 0, 0, 0, 0, 0, 0, 0, 0, 0, 0], "stateRewards": ["", -1, -1, 7, -15, -43, -21, -84, -9, -45, -66, 2, 1, -2, 2, 8, -27, 44, -52, -5, -84, 11, 53, 1, 4, -4, 16, 83, -82, -15, -16, 68, -43, 81], "withholdReward": false, "trial_id": "mdp_trial_18", "block": "test", "trialIndex": 23, "score": -13.999999999999996, "costs": -20.999999999999996, "simulationMode": [null, null, null, null, null], "rewards": [1, -2, 2, -5, 11], "path": ["0", "0", "12", "13", "14", "19", "21"], "rt": [29315, 737, 954, 905, 977], "actions": ["right", "right", "right", "down", "down"], "actionTimes": [31338, 32593, 34058, 35473, 36961], "queries": {"click": {"state": {"target": ["12", "14", "21", "17", "18", "2", "7", "5", "3", "10", "24", "30", "32", "28", "29"], "time": [3157, 4674, 6879, 8487, 10167, 12585, 14185, 15889, 17914, 19930, 21724, 23249, 24776, 26929, 28687]}, "edge": {"target": [], "time": []}}, "mouseover": {"state": {"target": ["12", "13", "14", "19", "22", "21", "20", "15", "17", "15", "16", "18", "7", "1", "7", "2", "2", "3", "7", "7", "4", "6", "5", "9", "9", "3", "8", "11", "10", "23", "24", "25", "30", "33", "32", "31", "25", "26", "28", "28", "27", "27", "29", "25", "24"], "time": [2847, 3397, 4084, 5098, 5811, 6459, 7259, 7892, 8192, 8792, 8992, 9841, 10657, 10990, 11656, 12037, 12370, 12988, 13704, 13987, 14370, 14902, 15502, 16542, 16784, 17765, 18249, 18865, 19747, 20613, 21129, 22087, 22878, 23644, 24493, 25127, 25658, 25708, 26357, 26690, 27307, 27624, 28488, 29191, 29255]}, "edge": {"target": [], "time": []}}, "mouseout": {"state": {"target": ["1", "12", "13", "14", "19", "22", "21", "20", "15", "17", "15", "16", "18", "7", "1", "7", "2", "2", "3", "7", "7", "4", "6", "5", "9", "9", "3", "8", "11", "10", "10", "23", "24", "25", "30", "33", "32", "31", "25", "26", "28", "28", "27", "27", "29", "29", "25", "24", "0", "30", "31"], "time": [1214, 3330, 4046, 4979, 5745, 6360, 7109, 7819, 8142, 8759, 8941, 9641, 10557, 10806, 11556, 12014, 12071, 12730, 13654, 13720, 14214, 14836, 15419, 16268, 16617, 17515, 18216, 18832, 19464, 20086, 20264, 21096, 22035, 22761, 23611, 24377, 24923, 25625, 25675, 26340, 26424, 27274, 27340, 28156, 28861, 29139, 29235, 29283, 39028, 39277, 39511]}, "edge": {"target": [], "time": []}}}, "displayed_time": "37.48", "trialTime": 40601, "trial_type": "mouselab-mdp", "trial_index": 38, "time_elapsed": 2586257, "internal_node_id": "0.0-6.0-1.0-17.0"}}, {"uniqueid": "w65349158:a75488199", "current_trial": 39, "dateTime": 1693393251724, "trialdata": {"revealed_states": [], "clicked_states": ["12", "14", "21", "18", "1", "4", "9", "28", "24", "30", "32", "29"], "num_clicks_accrued": [0, 0, 0, 0, 0, 0, 0, 0, 0, 0, 0, 0, 0], "stateRewards": ["", -2, 2, -1, -6, 22, 6, 6, -5, 70, -42, 65, 1, 3, 5, -6, -67, -9, 3, 14, 7, -62, -13, -2, 4, 1, 16, 42, -21, -52, -8, 32, 53, 81], "withholdReward": false, "trial_id": "mdp_trial_19", "block": "test", "trialIndex": 24, "score": 31.2, "costs": -16.8, "simulationMode": [null, null, null, null, null], "rewards": [-2, 4, 1, -8, 53], "path": ["0", "0", "23", "24", "25", "30", "32"], "rt": [25400, 602, 955, 615, 131], "actions": ["left", "left", "left", "down", "down"], "actionTimes": [27294, 28406, 29873, 30998, 31646], "queries": {"click": {"state": {"target": ["12", "14", "21", "18", "1", "4", "9", "28", "24", "30", "32", "29"], "time": [3006, 4526, 6561, 8684, 10685, 12486, 14411, 16629, 18316, 20244, 21908, 24180]}, "edge": {"target": [], "time": []}}, "mouseover": {"state": {"target": ["12", "13", "14", "19", "22", "21", "20", "15", "18", "16", "17", "2", "1", "2", "7", "4", "4", "6", "5", "9", "11", "10", "28", "24", "24", "24", "23", "24", "23", "25", "30", "31", "32", "33", "26", "29", "26", "27", "28", "23"], "time": [2807, 3476, 4073, 4973, 5722, 6254, 6970, 7620, 8402, 8968, 9718, 10204, 10500, 10983, 11466, 12016, 12314, 13015, 13432, 14146, 14996, 15622, 16127, 17027, 17344, 17888, 17960, 18147, 18509, 19208, 19841, 20607, 21706, 22288, 22855, 23555, 24553, 24863, 25876, 25951]}, "edge": {"target": [], "time": []}}, "mouseout": {"state": {"target": ["7", "4", "7", "1", "0", "12", "12", "13", "14", "19", "22", "21", "20", "15", "18", "16", "17", "2", "1", "2", "7", "4", "4", "4", "6", "5", "9", "11", "10", "28", "24", "24", "24", "23", "24", "23", "24", "25", "30", "31", "32", "33", "26", "29", "26", "27", "28", "23", "0", "0", "23", "31"], "time": [825, 964, 1008, 1191, 2491, 3119, 3448, 4032, 4839, 5588, 6171, 6710, 7470, 8135, 8698, 9509, 10134, 10250, 10807, 11432, 11987, 12052, 12621, 12648, 13365, 13914, 14680, 15462, 16044, 16977, 17177, 17813, 17930, 18043, 18475, 19008, 19091, 19828, 20574, 21140, 22105, 22755, 23503, 24470, 24570, 25303, 25918, 33976, 34159, 35376, 35458, 35541]}, "edge": {"target": [], "time": []}}}, "displayed_time": "32.16", "trialTime": 37870, "trial_type": "mouselab-mdp", "trial_index": 39, "time_elapsed": 2624409, "internal_node_id": "0.0-6.0-1.0-18.0"}}, {"uniqueid": "w65349158:a75488199", "current_trial": 40, "dateTime": 1693393277580, "trialdata": {"revealed_states": [], "clicked_states": ["12", "19", "20", "16", "1"], "num_clicks_accrued": [0, 0, 0, 0, 0, 0, 0, 0, 0, 0, 0, 0, 0], "stateRewards": ["", -1, 2, 6, 11, 21, -21, -21, -6, 48, -71, 88, -1, -3, 3, 7, 64, 2, 9, -4, 37, -67, 72, 2, 2, -8, -8, -10, 71, -40, -3, 73, 80, 47], "withholdReward": false, "trial_id": "mdp_trial_20", "block": "test", "trialIndex": 25, "score": 63, "costs": -7, "simulationMode": [null, null, null, null, null], "rewards": [-1, -3, 3, 7, 64], "path": ["0", "0", "12", "13", "14", "15", "16"], "rt": [11956, 716, 629, 1921, 497], "actions": ["right", "right", "right", "up", "up"], "actionTimes": [15307, 16540, 17685, 20125, 21132], "queries": {"click": {"state": {"target": ["12", "19", "20", "16", "1"], "time": [4552, 6540, 8420, 10572, 12378]}, "edge": {"target": [], "time": []}}, "mouseover": {"state": {"target": ["0", "12", "13", "14", "19", "22", "21", "20", "15", "15", "18", "16", "17", "15", "18", "1", "2", "7", "0", "0", "0", "12"], "time": [3782, 4099, 4848, 5466, 6262, 6846, 7412, 8177, 8711, 9039, 9627, 10159, 11062, 11642, 11787, 12058, 12740, 13257, 13523, 13640, 13939, 14221]}, "edge": {"target": [], "time": []}}, "mouseout": {"state": {"target": ["0", "0", "12", "13", "14", "19", "22", "21", "20", "15", "15", "18", "16", "17", "15", "18", "1", "2", "7", "0", "0", "0", "12", "0", "33", "26"], "time": [2982, 3799, 4814, 5432, 6245, 6747, 7262, 7879, 8534, 8844, 9544, 10076, 10759, 11625, 11676, 11803, 12513, 13223, 13290, 13540, 13689, 14071, 22997, 23113, 23279, 23862]}, "edge": {"target": [], "time": []}}}, "displayed_time": "21.65", "trialTime": 25572, "trial_type": "mouselab-mdp", "trial_index": 40, "time_elapsed": 2650264, "internal_node_id": "0.0-6.0-1.0-19.0"}}, {"uniqueid": "w65349158:a75488199", "current_trial": 41, "dateTime": 1693393309299, "trialdata": {"revealed_states": [], "clicked_states": ["12", "19", "20", "16", "2", "4", "9", "28"], "num_clicks_accrued": [0, 0, 0, 0, 0, 0, 0, 0, 0, 0, 0, 0, 0], "stateRewards": ["", -2, -3, 4, 1, 33, -53, 15, 9, -12, 61, -6, -2, 4, 6, -11, 47, -43, -7, -11, 46, 23, -28, -1, -1, 3, -10, 11, 76, -76, 10, 18, -38, 87], "withholdReward": false, "trial_id": "mdp_trial_21", "block": "test", "trialIndex": 26, "score": 55.8, "costs": -11.200000000000001, "simulationMode": [null, null, null, null, null], "rewards": [-1, -1, 3, -10, 76], "path": ["0", "0", "23", "24", "25", "26", "28"], "rt": [19678, 619, 952, 880, 834], "actions": ["left", "left", "left", "up", "right"], "actionTimes": [21817, 22953, 24417, 25810, 27161], "queries": {"click": {"state": {"target": ["12", "19", "20", "16", "2", "4", "9", "28"], "time": [3294, 5441, 7369, 10177, 11968, 13618, 15754, 17458]}, "edge": {"target": [], "time": []}}, "mouseover": {"state": {"target": ["0", "12", "13", "13", "14", "19", "22", "21", "20", "15", "18", "16", "16", "17", "15", "18", "2", "7", "4", "6", "5", "9", "8", "11", "28", "24", "25", "30", "31", "0"], "time": [2782, 2915, 3449, 3715, 4131, 5196, 5846, 6429, 7027, 7614, 8344, 9675, 9958, 10542, 11275, 11374, 11723, 12257, 13156, 13922, 14691, 15453, 16187, 16370, 17185, 17851, 18455, 19215, 20631, 20732]}, "edge": {"target": [], "time": []}}, "mouseout": {"state": {"target": ["0", "0", "0", "12", "13", "13", "14", "19", "19", "22", "21", "20", "15", "18", "16", "16", "16", "17", "15", "18", "2", "2", "7", "4", "6", "5", "9", "8", "11", "28", "24", "25", "30", "31", "0", "12"], "time": [1266, 2151, 2882, 3363, 3599, 4098, 5064, 5580, 5776, 6279, 6954, 7478, 8145, 9625, 9692, 10291, 10442, 11258, 11324, 11427, 12096, 12224, 13039, 13772, 14405, 15270, 16120, 16353, 16902, 17785, 18435, 19099, 20615, 20664, 29239, 29272]}, "edge": {"target": [], "time": []}}}, "displayed_time": "27.68", "trialTime": 31433, "trial_type": "mouselab-mdp", "trial_index": 41, "time_elapsed": 2681984, "internal_node_id": "0.0-6.0-1.0-20.0"}}, {"uniqueid": "w65349158:a75488199", "current_trial": 42, "dateTime": 1693393343564, "trialdata": {"revealed_states": [], "clicked_states": ["1", "4", "6", "9", "10", "24", "28", "29", "32"], "num_clicks_accrued": [0, 0, 0, 0, 0, 0, 0, 0, 0, 0, 0, 0, 0], "stateRewards": ["", 2, -4, 7, 3, 23, -42, 4, 7, -81, -33, 7, -2, -4, 5, -1, 50, -57, -14, -13, -14, 44, 55, -2, -2, 5, -2, 33, 1, 57, -13, -7, 58, 87], "withholdReward": false, "trial_id": "mdp_trial_22", "block": "test", "trialIndex": 27, "score": 43.4, "costs": -12.600000000000001, "simulationMode": [null, null, null, null, null], "rewards": [-2, -2, 5, -2, 57], "path": ["0", "0", "23", "24", "25", "26", "29"], "rt": [22487, 489, 747, 698, 971], "actions": ["left", "left", "left", "up", "left"], "actionTimes": [24164, 25164, 26420, 27636, 29124], "queries": {"click": {"state": {"target": ["1", "4", "6", "9", "10", "24", "28", "29", "32"], "time": [3097, 5322, 6874, 8545, 10252, 11923, 14393, 16284, 18499]}, "edge": {"target": [], "time": []}}, "mouseover": {"state": {"target": ["0", "1", "2", "3", "3", "4", "7", "6", "5", "9", "11", "10", "23", "24", "25", "26", "28", "27", "29", "33", "32", "31", "0", "23"], "time": [2259, 2758, 3408, 3908, 4191, 4839, 5989, 6555, 7322, 8022, 9120, 9870, 11018, 11584, 12251, 12935, 13648, 15047, 16029, 16845, 17778, 19510, 20326, 22545]}, "edge": {"target": [], "time": []}}, "mouseout": {"state": {"target": ["23", "23", "0", "0", "1", "2", "3", "3", "4", "7", "6", "5", "9", "11", "10", "23", "24", "25", "26", "28", "27", "29", "29", "33", "32", "31", "0", "23"], "time": [1009, 1142, 1342, 2666, 3259, 3875, 3958, 4806, 5906, 6455, 7154, 7938, 9021, 9786, 10586, 11468, 12217, 12853, 13581, 14731, 15714, 16441, 16712, 17661, 18733, 20148, 22406, 31497]}, "edge": {"target": [], "time": []}}}, "displayed_time": "29.64", "trialTime": 33972, "trial_type": "mouselab-mdp", "trial_index": 42, "time_elapsed": 2716249, "internal_node_id": "0.0-6.0-1.0-21.0"}}, {"uniqueid": "w65349158:a75488199", "current_trial": 43, "dateTime": 1693393382061, "trialdata": {"revealed_states": [], "clicked_states": ["12", "19", "20", "18", "7", "10", "6", "11", "24", "30", "26", "27"], "num_clicks_accrued": [0, 0, 0, 0, 0, 0, 0, 0, 0, 0, 0, 0, 0], "stateRewards": ["", 1, -2, 7, -14, 88, -56, -44, -14, 64, -51, -57, -2, 3, -4, -9, -11, 19, -77, -1, 68, 75, -67, -1, 1, -2, 5, -37, 70, -34, -10, -72, 63, -41], "withholdReward": false, "trial_id": "mdp_trial_23", "block": "test", "trialIndex": 28, "score": 47.2, "costs": -16.8, "simulationMode": [null, null, null, null, null], "rewards": [-2, 3, -4, -1, 68], "path": ["0", "0", "12", "13", "14", "19", "20"], "rt": [25063, 522, 1003, 785, 553], "actions": ["right", "right", "right", "down", "right"], "actionTimes": [26908, 27947, 29459, 30756, 31827], "queries": {"click": {"state": {"target": ["12", "19", "20", "18", "7", "10", "6", "11", "24", "30", "26", "27"], "time": [3535, 5671, 7651, 9636, 11266, 13180, 14739, 16741, 18836, 20872, 22858, 24787]}, "edge": {"target": [], "time": []}}, "mouseover": {"state": {"target": ["0", "12", "12", "13", "14", "19", "22", "21", "20", "15", "16", "18", "15", "17", "7", "2", "1", "10", "2", "3", "4", "6", "5", "9", "11", "27", "28", "24", "25", "31", "30", "33", "25", "26", "29", "28", "27", "28", "0"], "time": [1990, 2694, 3144, 3795, 4510, 5392, 6026, 6608, 7306, 8157, 8706, 9388, 10005, 10304, 11021, 11770, 11903, 12935, 13352, 13518, 14001, 14484, 15038, 15833, 16464, 17048, 17797, 18580, 19196, 19895, 20577, 21926, 22458, 22592, 23209, 23995, 24473, 25357, 25607]}, "edge": {"target": [], "time": []}}, "mouseout": {"state": {"target": ["0", "0", "12", "12", "13", "14", "19", "19", "22", "21", "20", "15", "16", "18", "15", "17", "7", "2", "1", "10", "2", "3", "4", "6", "5", "9", "11", "27", "28", "24", "24", "25", "31", "30", "33", "25", "26", "29", "26", "28", "27", "28", "0", "23", "24", "25", "29"], "time": [1028, 2661, 2945, 3586, 4311, 5309, 5789, 5959, 6558, 7233, 7763, 8629, 9205, 9972, 10138, 10837, 11703, 11837, 12670, 13307, 13402, 13951, 14451, 14971, 15550, 16282, 16965, 17631, 18497, 18973, 19146, 19795, 20494, 21295, 22376, 22492, 22983, 23758, 23827, 24423, 25324, 25374, 34047, 34064, 34081, 34098, 34131]}, "edge": {"target": [], "time": []}}}, "displayed_time": "32.34", "trialTime": 38204, "trial_type": "mouselab-mdp", "trial_index": 43, "time_elapsed": 2754745, "internal_node_id": "0.0-6.0-1.0-22.0"}}, {"uniqueid": "w65349158:a75488199", "current_trial": 44, "dateTime": 1693393412668, "trialdata": {"revealed_states": [], "clicked_states": ["1", "3", "7", "9", "10", "28", "25", "29"], "num_clicks_accrued": [0, 0, 0, 0, 0, 0, 0, 0, 0, 0, 0, 0, 0], "stateRewards": ["", -2, 1, -3, -16, -39, -52, 30, -7, -41, -59, 11, 2, 1, 8, 2, -11, -26, -42, -13, 87, -59, -48, -1, -1, -1, 16, -79, 31, 50, -1, -84, 34, -82], "withholdReward": false, "trial_id": "mdp_trial_24", "block": "test", "trialIndex": 29, "score": 51.8, "costs": -11.200000000000001, "simulationMode": [null, null, null, null, null], "rewards": [-1, -1, -1, 16, 50], "path": ["0", "0", "23", "24", "25", "26", "29"], "rt": [21139, 235, 519, 750, 758], "actions": ["left", "left", "left", "up", "left"], "actionTimes": [22804, 23555, 24587, 25851, 27123], "queries": {"click": {"state": {"target": ["1", "3", "7", "9", "10", "28", "25", "29"], "time": [2971, 5153, 6771, 9752, 12025, 13635, 15208, 17915]}, "edge": {"target": [], "time": []}}, "mouseover": {"state": {"target": ["1", "1", "2", "7", "2", "3", "4", "7", "6", "5", "9", "8", "11", "10", "8", "28", "24", "25", "26", "27", "29", "29", "24", "30"], "time": [2319, 2636, 3285, 3869, 4269, 4883, 5733, 6481, 7132, 7749, 9362, 10372, 10629, 11673, 12493, 13409, 14242, 14926, 15440, 16173, 17555, 17671, 18838, 19752]}, "edge": {"target": [], "time": []}}, "mouseout": {"state": {"target": ["31", "23", "1", "1", "2", "7", "2", "3", "4", "7", "6", "5", "9", "8", "11", "10", "8", "28", "24", "25", "26", "27", "29", "29", "25", "24", "30", "31"], "time": [920, 987, 2436, 3084, 3685, 4102, 4683, 5469, 6400, 6982, 7732, 9246, 10279, 10562, 11494, 12443, 13093, 14142, 14908, 15316, 16074, 17271, 17604, 18521, 18754, 19619, 28843, 28876]}, "edge": {"target": [], "time": []}}}, "displayed_time": "27.63", "trialTime": 30307, "trial_type": "mouselab-mdp", "trial_index": 44, "time_elapsed": 2785353, "internal_node_id": "0.0-6.0-1.0-23.0"}}, {"uniqueid": "w65349158:a75488199", "current_trial": 45, "dateTime": 1693393440292, "trialdata": {"revealed_states": [], "clicked_states": ["12", "19", "21", "16", "18", "2"], "num_clicks_accrued": [0, 0, 0, 0, 0, 0, 0, 0, 0, 0, 0, 0, 0], "stateRewards": ["", -1, -2, -1, -10, -57, 73, -72, -16, 75, -14, -46, -2, -3, -7, -1, -61, -60, 76, -4, 50, 4, 14, 2, 2, -7, 12, -65, -32, 15, -8, -76, -25, -61], "withholdReward": false, "trial_id": "mdp_trial_25", "block": "test", "trialIndex": 30, "score": 54.6, "costs": -8.4, "simulationMode": [null, null, null, null, null], "rewards": [-2, -3, -7, -1, 76], "path": ["0", "0", "12", "13", "14", "15", "18"], "rt": [16554, 444, 928, 686, 863], "actions": ["right", "right", "right", "up", "left"], "actionTimes": [18368, 19336, 20785, 21992, 23368], "queries": {"click": {"state": {"target": ["12", "19", "21", "16", "18", "2"], "time": [3327, 6096, 8075, 11086, 12928, 14759]}, "edge": {"target": [], "time": []}}, "mouseover": {"state": {"target": ["12", "13", "14", "19", "22", "21", "20", "15", "18", "16", "17", "15", "18", "18", "1", "1", "2", "12", "12"], "time": [3106, 3671, 4220, 5801, 6435, 7782, 8433, 9016, 9282, 10846, 11663, 12413, 12448, 12744, 13428, 13728, 14360, 16707, 16957]}, "edge": {"target": [], "time": []}}, "mouseout": {"state": {"target": ["23", "12", "13", "14", "19", "22", "21", "20", "15", "18", "16", "16", "17", "15", "18", "18", "1", "1", "2", "12", "12", "28", "23"], "time": [1072, 3587, 4154, 4968, 6385, 7733, 8266, 8932, 9082, 10513, 11102, 11514, 12396, 12430, 12466, 13394, 13578, 14260, 14883, 16723, 25269, 25564, 25764]}, "edge": {"target": [], "time": []}}}, "displayed_time": "23.89", "trialTime": 27296, "trial_type": "mouselab-mdp", "trial_index": 45, "time_elapsed": 2812977, "internal_node_id": "0.0-6.0-1.0-24.0"}}, {"uniqueid": "w65349158:a75488199", "current_trial": 46, "dateTime": 1693393481283, "trialdata": {"revealed_states": [], "clicked_states": ["1", "3", "7", "5", "8", "11", "28", "25", "31", "33", "29", "27"], "num_clicks_accrued": [0, 0, 0, 0, 0, 0, 0, 0, 0, 0, 0, 0, 0], "stateRewards": ["", 2, -3, -4, -1, 25, -16, 16, 10, -71, -20, -55, 1, 3, -4, -9, 1, 32, 11, -6, 32, -50, -41, -1, 4, 4, -8, 7, -81, 70, 2, -52, 45, -10], "withholdReward": false, "trial_id": "mdp_trial_26", "block": "test", "trialIndex": 31, "score": 52.2, "costs": -16.8, "simulationMode": [null, null, null, null, null], "rewards": [-1, 4, 4, -8, 70], "path": ["0", "0", "23", "24", "25", "26", "29"], "rt": [27700, 631, 2355, 683, 917], "actions": ["left", "left", "left", "up", "left"], "actionTimes": [29992, 31144, 34017, 35208, 36640], "queries": {"click": {"state": {"target": ["1", "3", "7", "5", "8", "11", "28", "25", "31", "33", "29", "27"], "time": [3550, 5078, 6714, 8413, 11286, 13513, 15870, 18008, 19712, 21720, 23815, 25560]}, "edge": {"target": [], "time": []}}, "mouseover": {"state": {"target": ["23", "1", "2", "3", "4", "7", "7", "6", "5", "9", "8", "9", "11", "10", "28", "28", "23", "24", "25", "30", "31", "32", "33", "29", "27", "22", "12", "0", "26", "25"], "time": [3002, 3202, 3878, 4435, 5484, 6221, 6417, 7116, 7915, 9447, 10928, 11844, 13109, 13976, 15424, 15706, 16456, 17056, 17639, 18455, 19437, 20553, 21301, 22151, 24491, 26305, 26697, 26717, 26947, 27245]}, "edge": {"target": [], "time": []}}, "mouseout": {"state": {"target": ["0", "23", "1", "2", "3", "4", "7", "7", "6", "5", "9", "8", "9", "11", "10", "28", "28", "28", "23", "24", "25", "30", "31", "32", "33", "29", "27", "22", "12", "0", "26", "29", "25"], "time": [1880, 3085, 3565, 4386, 5225, 6201, 6245, 6866, 7849, 8964, 10845, 11794, 12976, 13942, 15342, 15640, 16081, 16357, 17023, 17588, 18388, 19288, 20270, 21224, 21858, 23961, 26200, 26321, 26714, 26913, 26964, 27130, 27312]}, "edge": {"target": [], "time": []}}}, "displayed_time": "37.16", "trialTime": 40680, "trial_type": "mouselab-mdp", "trial_index": 46, "time_elapsed": 2853968, "internal_node_id": "0.0-6.0-1.0-25.0"}}, {"uniqueid": "w65349158:a75488199", "current_trial": 47, "dateTime": 1693393519376, "trialdata": {"revealed_states": [], "clicked_states": ["12", "13", "19", "21", "15", "16", "1", "2", "3", "6", "9", "11", "23"], "num_clicks_accrued": [0, 0, 0, 0, 0, 0, 0, 0, 0, 0, 0, 0, 0], "stateRewards": ["", -1, 1, -2, 5, 73, 15, 61, 8, 7, 38, 76, 2, 2, -4, -6, -6, -26, 43, -5, -45, -85, -35, -2, 1, -4, 15, -10, 69, 72, -11, 84, -49, -38], "withholdReward": false, "trial_id": "mdp_trial_27", "block": "test", "trialIndex": 32, "score": 63.8, "costs": -18.2, "simulationMode": [null, null, null, null, null], "rewards": [-1, 1, -2, 8, 76], "path": ["0", "0", "1", "2", "3", "8", "11"], "rt": [27296, 434, 398, 1226, 839], "actions": ["up", "up", "up", "left", "left"], "actionTimes": [29070, 30022, 30934, 32678, 34038], "queries": {"click": {"state": {"target": ["12", "13", "19", "21", "15", "16", "1", "2", "3", "6", "9", "11", "23"], "time": [2766, 4388, 6221, 7991, 9895, 11500, 13512, 15318, 17156, 19342, 21037, 22716, 24868]}, "edge": {"target": [], "time": []}}, "mouseover": {"state": {"target": ["12", "13", "13", "14", "19", "22", "21", "20", "14", "15", "15", "18", "16", "17", "18", "1", "2", "7", "3", "4", "5", "6", "4", "8", "9", "11", "10", "24", "23", "24"], "time": [2343, 3294, 4143, 5125, 5914, 6691, 7590, 8422, 9221, 9404, 9826, 10387, 11169, 12069, 12842, 13050, 13917, 15715, 16680, 17646, 18296, 19077, 19744, 19927, 20593, 21680, 23258, 24372, 24688, 25472]}, "edge": {"target": [], "time": []}}, "mouseout": {"state": {"target": ["23", "23", "0", "12", "13", "13", "14", "19", "19", "22", "21", "20", "14", "15", "15", "18", "16", "16", "17", "18", "1", "2", "7", "3", "4", "5", "6", "4", "8", "9", "11", "10", "24", "23", "24", "31"], "time": [561, 911, 1911, 3044, 3843, 4445, 5808, 6351, 6558, 7540, 8304, 9154, 9354, 9438, 10063, 11020, 11516, 11802, 12791, 12873, 13657, 15681, 16631, 17614, 18196, 18878, 19471, 19761, 20526, 21459, 23125, 24289, 24455, 25288, 26953, 36094]}, "edge": {"target": [], "time": []}}}, "displayed_time": "34.55", "trialTime": 37789, "trial_type": "mouselab-mdp", "trial_index": 47, "time_elapsed": 2892061, "internal_node_id": "0.0-6.0-1.0-26.0"}}, {"uniqueid": "w65349158:a75488199", "current_trial": 48, "dateTime": 1693393548499, "trialdata": {"revealed_states": [], "clicked_states": ["1", "3", "9", "11", "4", "5", "7"], "num_clicks_accrued": [0, 0, 0, 0, 0, 0, 0, 0, 0, 0, 0, 0, 0], "stateRewards": ["", 2, -1, -4, -13, 74, 77, 3, 2, -43, -2, -11, 2, 3, 7, 11, -26, -29, -33, -3, -3, -13, -3, 1, 3, -7, 14, -59, 33, 9, -5, 34, 79, 68], "withholdReward": false, "trial_id": "mdp_trial_28", "block": "test", "trialIndex": 33, "score": 48.2, "costs": -9.8, "simulationMode": [null, null, null, null, null], "rewards": [2, -1, -4, -13, 74], "path": ["0", "0", "1", "2", "3", "4", "5"], "rt": [17225, 529, 537, 839, 667], "actions": ["up", "up", "up", "right", "up"], "actionTimes": [19644, 20708, 21764, 23116, 24292], "queries": {"click": {"state": {"target": ["1", "3", "9", "11", "4", "5", "7"], "time": [3732, 5429, 7308, 9212, 10951, 12860, 15082]}, "edge": {"target": [], "time": []}}, "mouseover": {"state": {"target": ["1", "2", "3", "8", "9", "8", "10", "11", "10", "4", "7", "5", "6", "7", "1", "1", "1"], "time": [3258, 4075, 5157, 5890, 7004, 7755, 7887, 8570, 9742, 10586, 11618, 12565, 13416, 14764, 16096, 16728, 18294]}, "edge": {"target": [], "time": []}}, "mouseout": {"state": {"target": ["31", "24", "28", "1", "12", "1", "2", "3", "8", "9", "8", "10", "11", "10", "4", "7", "5", "5", "6", "7", "1", "1", "1", "0"], "time": [1427, 1459, 1542, 1659, 1842, 3909, 5006, 5823, 6945, 7721, 7804, 8504, 9703, 10502, 11368, 12367, 12990, 13133, 14689, 15780, 16446, 17144, 25936, 25952]}, "edge": {"target": [], "time": []}}}, "displayed_time": "24.81", "trialTime": 28796, "trial_type": "mouselab-mdp", "trial_index": 48, "time_elapsed": 2921184, "internal_node_id": "0.0-6.0-1.0-27.0"}}, {"uniqueid": "w65349158:a75488199", "current_trial": 49, "dateTime": 1693393579443, "trialdata": {"revealed_states": [], "clicked_states": ["12", "19", "21", "15", "17", "1"], "num_clicks_accrued": [0, 0, 0, 0, 0, 0, 0, 0, 0, 0, 0, 0, 0], "stateRewards": ["", 2, -2, 7, -11, -76, -65, -23, 16, -58, 30, 81, 1, 2, 7, 14, 9, 55, -2, 6, 11, -15, 31, -1, -1, -3, 2, 15, 2, 46, 15, 18, 45, -34], "withholdReward": false, "trial_id": "mdp_trial_29", "block": "test", "trialIndex": 34, "score": 70.6, "costs": -8.4, "simulationMode": [null, null, null, null, null], "rewards": [1, 2, 7, 14, 55], "path": ["0", "0", "12", "13", "14", "15", "17"], "rt": [17440, 552, 902, 1224, 683], "actions": ["right", "right", "right", "up", "right"], "actionTimes": [19870, 20941, 22357, 24093, 25284], "queries": {"click": {"state": {"target": ["12", "19", "21", "15", "17", "1"], "time": [3963, 6412, 8514, 10051, 12435, 15076]}, "edge": {"target": [], "time": []}}, "mouseover": {"state": {"target": ["0", "12", "12", "12", "13", "14", "19", "22", "21", "20", "15", "18", "16", "17", "16", "7", "2", "1", "2", "0", "12", "0", "12"], "time": [3069, 3102, 3339, 3502, 4285, 5084, 6051, 6749, 8098, 8881, 9580, 10463, 11149, 12126, 12944, 13975, 14491, 14591, 16091, 17405, 17621, 17871, 18221]}, "edge": {"target": [], "time": []}}, "mouseout": {"state": {"target": ["33", "0", "0", "12", "12", "12", "13", "14", "19", "22", "21", "20", "15", "18", "16", "17", "16", "7", "2", "1", "2", "0", "12", "0", "12"], "time": [1237, 1303, 3086, 3168, 3385, 4268, 4937, 5899, 6726, 7997, 8714, 9397, 10445, 11045, 11778, 12638, 13843, 14425, 14524, 15944, 17088, 17538, 17826, 18088, 27695]}, "edge": {"target": [], "time": []}}}, "displayed_time": "25.80", "trialTime": 30629, "trial_type": "mouselab-mdp", "trial_index": 49, "time_elapsed": 2952128, "internal_node_id": "0.0-6.0-1.0-28.0"}}, {"uniqueid": "w65349158:a75488199", "current_trial": 50, "dateTime": 1693393606387, "trialdata": {"revealed_states": [], "clicked_states": ["12", "14", "18", "17", "22", "20"], "num_clicks_accrued": [0, 0, 0, 0, 0, 0, 0, 0, 0, 0, 0, 0, 0], "stateRewards": ["", -2, -3, -7, 7, -54, -69, -4, -14, -77, 22, 40, -2, -1, 5, 6, -35, 50, -60, 10, -28, 75, 57, 1, -4, -2, 2, 68, 34, -18, 12, 3, -21, -43], "withholdReward": false, "trial_id": "mdp_trial_30", "block": "test", "trialIndex": 35, "score": 60.6, "costs": -8.4, "simulationMode": [null, null, null, null, null], "rewards": [-2, -1, 5, 10, 57], "path": ["0", "0", "12", "13", "14", "19", "22"], "rt": [14693, 624, 787, 737, 993], "actions": ["right", "right", "right", "down", "left"], "actionTimes": [17079, 18222, 19518, 20766, 22270], "queries": {"click": {"state": {"target": ["12", "14", "18", "17", "22", "20"], "time": [3756, 5295, 7358, 9230, 11849, 13635]}, "edge": {"target": [], "time": []}}, "mouseover": {"state": {"target": ["0", "12", "13", "14", "15", "18", "16", "17", "20", "19", "22", "21", "20"], "time": [3259, 3375, 4341, 4908, 5607, 7022, 7991, 8956, 9758, 10003, 11184, 12434, 13216]}, "edge": {"target": [], "time": []}}, "mouseout": {"state": {"target": ["23", "0", "0", "0", "12", "13", "14", "15", "18", "16", "17", "20", "19", "22", "21", "20", "19", "29", "25"], "time": [1010, 1276, 1992, 3308, 4008, 4824, 5523, 6955, 7512, 8622, 9670, 9781, 11085, 12268, 13099, 24525, 24671, 24787, 25120]}, "edge": {"target": [], "time": []}}}, "displayed_time": "22.78", "trialTime": 26509, "trial_type": "mouselab-mdp", "trial_index": 50, "time_elapsed": 2979071, "internal_node_id": "0.0-6.0-1.0-29.0"}}, {"uniqueid": "w65349158:a75488199", "current_trial": 51, "dateTime": 1693393630971, "trialdata": {"revealed_states": [], "clicked_states": ["12", "14", "22", "20", "18", "17"], "num_clicks_accrued": [0, 0, 0, 0, 0, 0, 0, 0, 0, 0, 0, 0, 0], "stateRewards": ["", -2, 3, -1, -9, 44, 48, -37, -3, 71, -39, 87, -1, 3, -4, 4, -21, 59, -15, -8, -1, 28, -38, 2, 4, 4, 8, -85, -72, -63, 14, 58, 63, -46], "withholdReward": false, "trial_id": "mdp_trial_31", "block": "test", "trialIndex": 36, "score": 52.6, "costs": -8.4, "simulationMode": [null, null, null, null, null], "rewards": [-1, 3, -4, 4, 59], "path": ["0", "0", "12", "13", "14", "15", "17"], "rt": [15431, 352, 461, 641, 477], "actions": ["right", "right", "right", "up", "right"], "actionTimes": [16834, 17706, 18682, 19842, 20826], "queries": {"click": {"state": {"target": ["12", "14", "22", "20", "18", "17"], "time": [2450, 4231, 6008, 7535, 9688, 11305]}, "edge": {"target": [], "time": []}}, "mouseover": {"state": {"target": ["0", "0", "12", "13", "14", "19", "22", "22", "21", "20", "15", "18", "18", "16", "17", "15", "1", "2", "7", "13", "12", "0", "12"], "time": [1416, 1763, 1881, 2680, 3397, 4679, 5478, 5793, 6360, 7219, 8042, 8459, 9406, 10140, 11006, 11643, 11821, 12854, 13719, 13936, 14318, 15817, 15867]}, "edge": {"target": [], "time": []}}, "mouseout": {"state": {"target": ["0", "0", "0", "12", "13", "14", "19", "22", "22", "21", "20", "15", "18", "18", "16", "17", "15", "18", "1", "2", "7", "13", "12", "0", "12", "0", "31"], "time": [830, 1633, 1830, 2648, 3330, 4645, 5445, 5595, 6293, 7027, 7650, 8061, 9046, 9708, 10890, 11614, 11686, 11738, 12754, 13686, 13736, 13987, 14335, 15840, 22794, 22893, 23010]}, "edge": {"target": [], "time": []}}}, "displayed_time": "21.35", "trialTime": 24274, "trial_type": "mouselab-mdp", "trial_index": 51, "time_elapsed": 3003656, "internal_node_id": "0.0-6.0-1.0-30.0"}}, {"uniqueid": "w65349158:a75488199", "current_trial": 52, "dateTime": 1693393668715, "trialdata": {"revealed_states": [], "clicked_states": ["23", "25", "30", "32", "26", "27", "1", "7", "6", "9"], "num_clicks_accrued": [0, 0, 0, 0, 0, 0, 0, 0, 0, 0, 0, 0, 0], "stateRewards": ["", -1, -4, -6, -15, 21, -67, -63, 9, 51, 69, -14, -1, 3, 8, -8, 39, 72, 63, 15, 19, 47, 15, 1, 4, 5, 16, -18, 34, 35, -14, -80, 40, 1], "withholdReward": false, "trial_id": "mdp_trial_32", "block": "test", "trialIndex": 37, "score": 35, "costs": -14.000000000000002, "simulationMode": [null, null, null, null, null], "rewards": [-1, -4, -6, 9, 51], "path": ["0", "0", "1", "2", "3", "8", "9"], "rt": [25960, 453, 479, 818, 725], "actions": ["up", "up", "up", "left", "up"], "actionTimes": [27570, 28546, 29538, 30875, 32114], "queries": {"click": {"state": {"target": ["23", "25", "30", "32", "26", "27", "1", "7", "6", "9"], "time": [2581, 4208, 6225, 8128, 10112, 12453, 15066, 17401, 20170, 22040]}, "edge": {"target": [], "time": []}}, "mouseover": {"state": {"target": ["0", "23", "24", "25", "33", "30", "31", "32", "33", "26", "28", "28", "27", "29", "28", "1", "2", "7", "3", "4", "6", "6", "5", "9", "11", "10", "1", "0", "12", "12", "0", "0"], "time": [2031, 2247, 3131, 3614, 5129, 5994, 6663, 7693, 8626, 9773, 10658, 11141, 11905, 13005, 14386, 14752, 15452, 17083, 17801, 18500, 19198, 19664, 20714, 21613, 22545, 23211, 24059, 24545, 24642, 25728, 26091, 26274]}, "edge": {"target": [], "time": []}}, "mouseout": {"state": {"target": ["0", "0", "23", "24", "25", "33", "30", "31", "32", "33", "26", "28", "28", "27", "29", "26", "28", "1", "2", "7", "3", "4", "6", "6", "5", "9", "9", "11", "10", "1", "0", "12", "12", "0", "0"], "time": [1215, 2048, 2925, 3581, 4764, 5712, 6628, 7544, 8558, 9574, 10128, 10698, 11805, 12889, 14336, 14369, 14403, 15176, 17033, 17567, 18366, 19181, 19360, 20275, 21380, 22169, 22279, 23145, 23943, 24209, 24577, 25092, 26041, 26124, 26374]}, "edge": {"target": [], "time": []}}}, "displayed_time": "32.62", "trialTime": 37426, "trial_type": "mouselab-mdp", "trial_index": 52, "time_elapsed": 3041400, "internal_node_id": "0.0-6.0-1.0-31.0"}}, {"uniqueid": "w65349158:a75488199", "current_trial": 53, "dateTime": 1693393715883, "trialdata": {"revealed_states": [], "clicked_states": ["12", "14", "22", "20", "18", "17", "2", "4", "6", "3", "8", "11", "23", "30", "32", "26", "27"], "num_clicks_accrued": [0, 0, 0, 0, 0, 0, 0, 0, 0, 0, 0, 0, 0], "stateRewards": ["", 2, 3, -3, 4, 72, -28, 34, -12, 57, -64, -15, 2, 1, -4, -15, 2, 49, 31, -1, -42, -58, 31, -2, 1, -2, -13, -75, -19, -22, -6, 61, 10, -56], "withholdReward": false, "trial_id": "mdp_trial_33", "block": "test", "trialIndex": 38, "score": 9.200000000000003, "costs": -23.799999999999994, "simulationMode": [null, null, null, null, null], "rewards": [2, 1, -4, -15, 49], "path": ["0", "0", "12", "13", "14", "15", "17"], "rt": [36867, 505, 1018, 1023, 539], "actions": ["right", "right", "right", "up", "right"], "actionTimes": [38453, 39476, 41005, 42541, 43589], "queries": {"click": {"state": {"target": ["12", "14", "22", "20", "18", "17", "2", "4", "6", "3", "8", "11", "23", "30", "32", "26", "27"], "time": [2637, 4670, 6765, 8379, 11012, 12579, 14741, 16743, 19948, 22146, 24227, 25996, 28227, 30421, 31996, 33534, 35188]}, "edge": {"target": [], "time": []}}, "mouseover": {"state": {"target": ["12", "13", "12", "13", "14", "19", "22", "21", "20", "15", "18", "16", "17", "1", "2", "7", "4", "6", "5", "6", "5", "3", "9", "8", "11", "10", "28", "23", "24", "25", "30", "31", "32", "33", "25", "26", "28", "27", "29", "28", "1", "0"], "time": [1953, 2036, 2253, 3036, 4103, 5317, 6349, 7150, 7982, 9463, 10478, 11380, 12361, 13476, 14341, 15359, 16339, 17689, 19153, 19721, 20304, 21355, 22617, 23931, 24715, 26580, 27728, 28044, 28547, 29178, 30126, 30800, 31725, 32324, 33073, 33240, 33889, 34772, 35621, 36240, 36753, 37169]}, "edge": {"target": [], "time": []}}, "mouse