{"condition": 1, "counterbalance": 0, "assignmentId": "a30622065", "workerId": "w97258795", "hitId": "h17413022", "currenttrial": 56, "bonus": 0, "data": [{"uniqueid": "w97258795:a30622065", "current_trial": 0, "dateTime": 1691071189498, "trialdata": {"success": true, "trial_type": "fullscreen", "trial_index": 0, "time_elapsed": 3976, "internal_node_id": "0.0-0.0"}}, {"uniqueid": "w97258795:a30622065", "current_trial": 1, "dateTime": 1691071202096, "trialdata": {"view_history": [{"page_index": 0, "viewing_time": 12589}], "rt": 12591, "trial_id": "exp_instructions_misaligned", "trial_type": "instructions", "trial_index": 1, "time_elapsed": 16575, "internal_node_id": "0.0-1.0"}}, {"uniqueid": "w97258795:a30622065", "current_trial": 2, "dateTime": 1691071205291, "trialdata": {"success": true, "trial_type": "fullscreen", "trial_index": 2, "time_elapsed": 19770, "internal_node_id": "0.0-2.0-0.0"}}, {"uniqueid": "w97258795:a30622065", "current_trial": 3, "dateTime": 1691071328680, "trialdata": {"view_history": [{"page_index": 0, "viewing_time": 46910}, {"page_index": 1, "viewing_time": 41247}, {"page_index": 2, "viewing_time": 16197}, {"page_index": 3, "viewing_time": 19036}], "rt": 123391, "trial_id": "mouselab_instructions_1_misaligned", "trial_type": "instructions", "trial_index": 3, "time_elapsed": 143159, "internal_node_id": "0.0-2.0-1.0"}}, {"uniqueid": "w97258795:a30622065", "current_trial": 4, "dateTime": 1691071384065, "trialdata": {"revealed_states": [], "clicked_states": ["12", "13", "14", "15", "16", "17", "18", "19", "20", "21", "22", "1", "2", "3", "23", "24", "25", "30", "32", "26", "27", "8", "11", "4", "6", "5", "7"], "num_clicks_accrued": [0, 0, 0, 0, 0, 0, 0, 0, 0, 0, 0, 0, 0], "stateRewards": ["", 10, -10, -10, 10, 10, 10, -10, -10, 10, -10, 10, -10, -10, 10, 10, 10, -10, 10, 10, 10, 10, 10, 10, -10, 10, -10, -10, -10, -10, -10, -10, -10, 10], "withholdReward": false, "trial_id": "practice_1", "block": "test", "trialIndex": 0, "score": 0, "costs": -13.5, "simulationMode": [null, null, null, null, null], "rewards": [10, -10, -10, 10, 10], "path": ["0", "0", "1", "2", "3", "4", "6"], "rt": [47064, 333, 258, 107, 227], "actions": ["up", "up", "up", "right", "right"], "actionTimes": [48687, 49533, 50306, 50923, 51658], "queries": {"click": {"state": {"target": ["12", "13", "14", "15", "16", "17", "18", "19", "20", "21", "22", "1", "2", "3", "23", "24", "25", "30", "32", "26", "27", "8", "11", "4", "6", "5", "7"], "time": [3236, 5597, 7153, 8561, 9966, 11362, 12796, 14571, 15982, 17320, 18628, 20404, 21448, 23074, 24885, 26663, 28246, 29620, 31012, 33063, 34396, 36471, 37911, 39327, 40726, 45214, 46489]}, "edge": {"target": [], "time": []}}, "mouseover": {"state": {"target": ["12", "13", "13", "14", "15", "16", "17", "18", "14", "19", "20", "21", "22", "0", "1", "2", "3", "4", "23", "24", "25", "30", "32", "31", "10", "26", "27", "3", "8", "11", "4", "6", "7", "1", "2", "3", "4", "5", "4", "7"], "time": [2952, 3650, 5000, 6014, 7765, 9416, 10501, 12135, 13349, 14186, 15317, 16769, 17952, 19184, 19917, 20837, 22056, 23654, 24289, 25354, 27138, 28857, 30154, 31519, 32556, 32790, 33453, 35407, 35622, 36954, 38953, 39723, 42167, 42649, 43165, 44317, 44616, 45098, 45584, 45680]}, "edge": {"target": [], "time": []}}, "mouseout": {"state": {"target": ["12", "0", "12", "13", "13", "14", "15", "16", "17", "15", "18", "14", "19", "20", "21", "22", "0", "1", "2", "3", "4", "2", "1", "23", "24", "25", "30", "32", "31", "10", "26", "27", "3", "8", "11", "4", "6", "7", "1", "2", "3", "4", "5", "4", "7", "6", "21"], "time": [518, 2919, 3616, 4666, 5985, 7698, 9313, 10439, 11820, 11970, 13265, 13404, 15252, 16554, 17849, 19066, 19767, 20495, 21561, 23587, 23856, 23936, 24058, 25303, 27087, 28771, 30057, 31444, 32356, 32590, 33387, 34496, 35540, 36887, 38335, 39670, 41130, 42250, 43050, 43984, 44548, 44682, 45534, 45614, 46831, 53515, 53914]}, "edge": {"target": [], "time": []}}}, "displayed_time": "52.18", "trialTime": 54798, "trial_type": "mouselab-mdp", "trial_index": 4, "time_elapsed": 198540, "internal_node_id": "0.0-2.0-2.0-0.0"}}, {"uniqueid": "w97258795:a30622065", "current_trial": 5, "dateTime": 1691071399948, "trialdata": {"revealed_states": [], "clicked_states": ["1", "2", "3", "4", "6"], "num_clicks_accrued": [0, 0, 0, 0, 0, 0, 0, 0, 0, 0, 0, 0, 0], "stateRewards": ["", 10, 10, -10, 10, 10, 10, 10, -10, 10, -10, -10, -10, 10, -10, -10, -10, -10, 10, -10, 10, -10, 10, 10, 10, -10, 10, -10, 10, -10, -10, -10, -10, -10], "withholdReward": false, "trial_id": "practice_2", "block": "test", "trialIndex": 1, "score": 31, "costs": -2.5, "simulationMode": [null, null, null, null, null], "rewards": [10, 10, -10, 10, 10], "path": ["0", "0", "1", "2", "3", "4", "6"], "rt": [8855, 198, 122, 67, 198], "actions": ["up", "up", "up", "right", "right"], "actionTimes": [10308, 11015, 11658, 12237, 12949], "queries": {"click": {"state": {"target": ["1", "2", "3", "4", "6"], "time": [2289, 3423, 4800, 6359, 7889]}, "edge": {"target": [], "time": []}}, "mouseover": {"state": {"target": ["1", "2", "3", "4", "6"], "time": [1820, 2851, 4067, 5317, 6886]}, "edge": {"target": [], "time": []}}, "mouseout": {"state": {"target": ["0", "0", "1", "2", "3", "4", "6"], "time": [920, 1756, 2669, 4002, 5270, 6800, 8281]}, "edge": {"target": [], "time": []}}}, "displayed_time": "13.47", "trialTime": 15504, "trial_type": "mouselab-mdp", "trial_index": 5, "time_elapsed": 214424, "internal_node_id": "0.0-2.0-2.0-1.0"}}, {"uniqueid": "w97258795:a30622065", "current_trial": 6, "dateTime": 1691071424115, "trialdata": {"view_history": [{"page_index": 0, "viewing_time": 19352}, {"page_index": 1, "viewing_time": 4809}], "rt": 24162, "trial_id": "mouselab_instructions_2_misaligned", "trial_type": "instructions", "trial_index": 6, "time_elapsed": 238594, "internal_node_id": "0.0-2.0-3.0"}}, {"uniqueid": "w97258795:a30622065", "current_trial": 7, "dateTime": 1691071444694, "trialdata": {"rt": 20570, "response": {"Q0": "The cost for clicking on nodes may vary between nodes.", "Q1": "The better I perform the higher my bonus will be.", "Q2": "No, the amount of cash at each node of the web may be different each time.", "Q3": "To get the highest total score.", "Q4": "Only before moving the spider.", "Q5": "3 seconds"}, "question_order": [0, 1, 2, 3, 4, 5], "correct": {"Q0": "The cost for clicking on nodes may vary between nodes.", "Q1": "The better I perform the higher my bonus will be.", "Q2": "No, the amount of cash at each node of the web may be different each time.", "Q3": "To get the highest total score.", "Q4": "Only before moving the spider.", "Q5": "3 seconds"}, "trial_id": "mouselab_quiz_misaligned", "trial_type": "survey-multi-choice", "trial_index": 7, "time_elapsed": 259173, "internal_node_id": "0.0-2.0-4.0"}}, {"uniqueid": "w97258795:a30622065", "current_trial": 8, "dateTime": 1691071450680, "trialdata": {"rt": 5966, "stimulus": "\n<h1> Get ready to start the game! </h1>\n\nThank you for reading the instructions. Get ready start with the 40 rounds of this game.\n<br><br>\nIf you need to take a break, feel free to take one after the end of a round, before continuing to the next one.\n<br><br>\nRemember, the more money the spider gets, the bigger your bonus will be!\n<br><br>\n<div style='text-align: center;'>Press <code>space</code> to begin.</div>\n\n<br><br>\n(If, at any point, the <code>space</code> key does not take you to the next page, click once on the text and try again.)", "response": " ", "trial_id": "mdp_ready", "trial_type": "html-keyboard-response", "trial_index": 8, "time_elapsed": 265159, "internal_node_id": "0.0-4.0-0.0"}}, {"uniqueid": "w97258795:a30622065", "current_trial": 9, "dateTime": 1691071481154, "trialdata": {"revealed_states": [], "clicked_states": ["1", "2", "3", "4", "6", "23", "24", "25", "30", "32", "31", "33"], "num_clicks_accrued": [0, 0, 0, 0, 0, 0, 0, 0, 0, 0, 0, 0, 0], "stateRewards": ["", 1, -1, 1, 13, 31, -56, 72, 2, 41, 5, 63, -2, -3, -2, 3, -71, -26, 52, 13, -31, 24, -67, 2, -2, 5, 4, 66, 43, 72, 9, 86, -26, 44], "withholdReward": false, "trial_id": "mdp_trial_1", "block": "test", "trialIndex": 2, "score": 86.2, "costs": -13.8, "simulationMode": [null, null, null, null, null], "rewards": [2, -2, 5, 9, 86], "path": ["0", "0", "23", "24", "25", "30", "31"], "rt": [23493, 528, 307, 71, 190], "actions": ["left", "left", "left", "down", "right"], "actionTimes": [24487, 25528, 26357, 26938, 27642], "queries": {"click": {"state": {"target": ["1", "2", "3", "4", "6", "23", "24", "25", "30", "32", "31", "33"], "time": [1768, 2744, 3583, 4358, 5210, 9814, 10675, 11493, 12392, 13093, 16564, 20107]}, "edge": {"target": [], "time": []}}, "mouseover": {"state": {"target": ["1", "2", "3", "4", "6", "7", "12", "12", "7", "1", "23", "23", "24", "25", "30", "32", "31", "30", "33", "33", "33", "25", "24"], "time": [1288, 2150, 3196, 3967, 4784, 5700, 6616, 7400, 8519, 8570, 8652, 9620, 10300, 11183, 11919, 12783, 13999, 17013, 17130, 18566, 19598, 20646, 20680]}, "edge": {"target": [], "time": []}}, "mouseout": {"state": {"target": ["1", "1", "2", "3", "4", "6", "7", "12", "12", "6", "7", "1", "23", "23", "24", "25", "30", "32", "31", "30", "33", "33", "33", "25", "24"], "time": [418, 2084, 2864, 3691, 4700, 5651, 5716, 6884, 7718, 8437, 8533, 8587, 9420, 10216, 11083, 11868, 12716, 13413, 16996, 17063, 17615, 18781, 20597, 20664, 20712]}, "edge": {"target": [], "time": []}}}, "displayed_time": "28.17", "trialTime": 30097, "trial_type": "mouselab-mdp", "trial_index": 9, "time_elapsed": 295630, "internal_node_id": "0.0-4.0-1.0-0.0"}}, {"uniqueid": "w97258795:a30622065", "current_trial": 10, "dateTime": 1691071499174, "trialdata": {"revealed_states": [], "clicked_states": ["1", "2", "3", "4", "6"], "num_clicks_accrued": [0, 0, 0, 0, 0, 0, 0, 0, 0, 0, 0, 0, 0], "stateRewards": ["", 2, -1, 1, 10, -52, 86, -22, -2, -14, -63, 38, 1, 3, 7, -8, 11, -32, -27, 9, -71, 40, -87, -2, -1, 5, -7, 12, 31, -57, 13, 86, -58, 29], "withholdReward": false, "trial_id": "mdp_trial_2", "block": "test", "trialIndex": 3, "score": 93.25, "costs": -4.75, "simulationMode": [null, null, null, null, null], "rewards": [2, -1, 1, 10, 86], "path": ["0", "0", "1", "2", "3", "4", "6"], "rt": [9317, 102, 96, 11, 80], "actions": ["up", "up", "up", "right", "right"], "actionTimes": [10847, 11470, 12086, 12619, 13232], "queries": {"click": {"state": {"target": ["1", "2", "3", "4", "6"], "time": [2355, 3350, 4255, 5068, 5862]}, "edge": {"target": [], "time": []}}, "mouseover": {"state": {"target": ["1", "2", "3", "4", "6", "8", "3", "8", "3", "2", "1", "2", "3"], "time": [1987, 2718, 3768, 4752, 5517, 6417, 7521, 8068, 9335, 9485, 9603, 9969, 10169]}, "edge": {"target": [], "time": []}}, "mouseout": {"state": {"target": ["0", "1", "2", "3", "4", "6", "4", "8", "3", "3", "8", "3", "2", "1", "2", "3"], "time": [1857, 2669, 3459, 4719, 5487, 6301, 6335, 6851, 6967, 7921, 9253, 9388, 9534, 9936, 9983, 10183]}, "edge": {"target": [], "time": []}}}, "displayed_time": "15.53", "trialTime": 17672, "trial_type": "mouselab-mdp", "trial_index": 10, "time_elapsed": 313650, "internal_node_id": "0.0-4.0-1.0-1.0"}}, {"uniqueid": "w97258795:a30622065", "current_trial": 11, "dateTime": 1691071551347, "trialdata": {"revealed_states": [], "clicked_states": ["12", "13", "14", "19", "21", "20", "22", "15", "16", "17", "18", "27", "29", "28", "32", "31"], "num_clicks_accrued": [0, 0, 0, 0, 0, 0, 0, 0, 0, 0, 0, 0, 0], "stateRewards": ["", 2, -1, -1, -9, -81, -30, 55, -6, 78, 25, 62, 2, 4, -1, 9, -85, 1, -19, 1, -60, 12, -34, 1, 4, -1, -13, -24, -16, -83, -8, 16, 43, 9], "withholdReward": false, "trial_id": "mdp_trial_3", "block": "test", "trialIndex": 4, "score": 11.200000000000006, "costs": -27.799999999999994, "simulationMode": [null, null, null, null, null], "rewards": [1, 4, -1, -8, 43], "path": ["0", "0", "23", "24", "25", "30", "32"], "rt": [45710, 197, 103, 3, 115], "actions": ["left", "left", "left", "down", "down"], "actionTimes": [47152, 47869, 48489, 49005, 49650], "queries": {"click": {"state": {"target": ["12", "13", "14", "19", "21", "20", "22", "15", "16", "17", "18", "27", "29", "28", "32", "31"], "time": [2227, 2920, 3671, 4770, 5456, 10143, 13467, 16895, 18309, 21656, 24885, 29331, 32610, 35827, 39256, 43812]}, "edge": {"target": [], "time": []}}, "mouseover": {"state": {"target": ["12", "13", "14", "19", "21", "17", "15", "14", "20", "19", "22", "14", "15", "16", "17", "15", "18", "15", "14", "13", "12", "0", "24", "26", "27", "26", "29", "26", "28", "31", "32", "31", "31", "30", "33"], "time": [1794, 2592, 3342, 4458, 5191, 7475, 8164, 9777, 9828, 10576, 10745, 13926, 14873, 17585, 18755, 22183, 22988, 25236, 26135, 26166, 26218, 26683, 28199, 29053, 29202, 29799, 29983, 32984, 33064, 36967, 37614, 39704, 43603, 44169, 44284]}, "edge": {"target": [], "time": []}}, "mouseout": {"state": {"target": ["6", "12", "0", "12", "13", "14", "14", "19", "21", "17", "15", "14", "20", "19", "22", "14", "15", "16", "17", "15", "18", "15", "14", "13", "12", "0", "24", "26", "27", "26", "29", "26", "28", "31", "32", "31", "31", "30", "33", "30", "31"], "time": [509, 842, 1744, 2541, 3293, 4042, 4395, 5141, 5774, 7524, 9744, 9791, 10544, 10657, 13580, 13990, 17352, 18689, 22152, 22285, 25199, 25272, 26151, 26205, 26635, 26699, 28320, 29069, 29750, 29917, 32970, 33021, 36232, 37138, 39601, 43418, 44136, 44193, 50867, 50916, 50951]}, "edge": {"target": [], "time": []}}}, "displayed_time": "50.17", "trialTime": 51820, "trial_type": "mouselab-mdp", "trial_index": 11, "time_elapsed": 365823, "internal_node_id": "0.0-4.0-1.0-2.0"}}, {"uniqueid": "w97258795:a30622065", "current_trial": 12, "dateTime": 1691071585455, "trialdata": {"revealed_states": [], "clicked_states": ["23", "24", "25", "30", "32", "33", "31", "28", "27", "29"], "num_clicks_accrued": [0, 0, 0, 0, 0, 0, 0, 0, 0, 0, 0, 0, 0], "stateRewards": ["", -2, -1, -5, 10, -36, -70, 68, -9, 86, 71, -10, 2, -4, 7, -7, 66, 44, -66, -13, -69, 43, 15, -2, 2, 6, -13, 62, 57, 50, -10, -69, 42, -72], "withholdReward": false, "trial_id": "mdp_trial_4", "block": "test", "trialIndex": 5, "score": 39.5, "costs": -15.500000000000002, "simulationMode": [null, null, null, null, null], "rewards": [-2, 2, 6, -13, 62], "path": ["0", "0", "23", "24", "25", "26", "27"], "rt": [27356, 99, 116, 46, 45], "actions": ["left", "left", "left", "up", "up"], "actionTimes": [28777, 29385, 30021, 30586, 31164], "queries": {"click": {"state": {"target": ["23", "24", "25", "30", "32", "33", "31", "28", "27", "29"], "time": [3699, 4583, 5330, 6267, 8248, 11681, 15092, 18557, 21856, 25036]}, "edge": {"target": [], "time": []}}, "mouseover": {"state": {"target": ["12", "23", "23", "24", "25", "30", "30", "32", "33", "32", "33", "30", "31", "24", "28", "27", "29", "25", "23"], "time": [1738, 3286, 3551, 4135, 5099, 5716, 6048, 6681, 6936, 7765, 8682, 12066, 12132, 15598, 15783, 19048, 22585, 25554, 25851]}, "edge": {"target": [], "time": []}}, "mouseout": {"state": {"target": ["1", "12", "23", "23", "24", "25", "30", "30", "32", "33", "32", "33", "30", "31", "24", "28", "27", "29", "25", "23"], "time": [951, 1834, 3417, 4066, 5034, 5687, 5782, 6587, 6767, 7753, 8601, 12050, 12099, 15548, 15649, 18949, 22331, 25468, 25749, 25904]}, "edge": {"target": [], "time": []}}}, "displayed_time": "31.68", "trialTime": 33748, "trial_type": "mouselab-mdp", "trial_index": 12, "time_elapsed": 399933, "internal_node_id": "0.0-4.0-1.0-3.0"}}, {"uniqueid": "w97258795:a30622065", "current_trial": 13, "dateTime": 1691071623297, "trialdata": {"revealed_states": [], "clicked_states": ["1", "2", "3", "8", "11", "10", "9", "5", "7", "6", "16", "21"], "num_clicks_accrued": [0, 0, 0, 0, 0, 0, 0, 0, 0, 0, 0, 0, 0], "stateRewards": ["", 1, -3, -1, 9, -34, -40, 22, -7, 45, 53, -11, 2, 4, 5, 15, 21, 37, -49, -3, 80, -28, -34, 1, -3, 1, 1, -40, -6, -5, -16, -85, -86, 59], "withholdReward": false, "trial_id": "mdp_trial_5", "block": "test", "trialIndex": 6, "score": 15.2, "costs": -19.8, "simulationMode": [null, null, null, null, null], "rewards": [1, -3, -1, -7, 45], "path": ["0", "0", "1", "2", "3", "8", "9"], "rt": [31968, 2, 64, 36, 3], "actions": ["up", "up", "up", "left", "up"], "actionTimes": [33233, 33747, 34344, 34900, 35417], "queries": {"click": {"state": {"target": ["1", "2", "3", "8", "11", "10", "9", "5", "7", "6", "16", "21"], "time": [1832, 2400, 3117, 3899, 4634, 7870, 11049, 14767, 17984, 21197, 25471, 28926]}, "edge": {"target": [], "time": []}}, "mouseover": {"state": {"target": ["1", "2", "3", "8", "11", "10", "8", "9", "5", "4", "5", "4", "7", "6", "15", "16", "17", "21", "20", "19", "0"], "time": [1558, 2188, 2873, 3522, 4358, 5055, 8276, 8438, 12326, 14140, 14306, 15105, 15172, 18490, 24963, 25127, 25924, 26910, 32177, 32225, 32326]}, "edge": {"target": [], "time": []}}, "mouseout": {"state": {"target": ["0", "1", "2", "3", "8", "11", "10", "8", "9", "5", "4", "5", "4", "7", "6", "15", "16", "17", "21", "20", "19", "0", "0"], "time": [991, 2105, 2707, 3232, 4255, 4987, 8225, 8305, 11539, 14090, 14273, 15072, 15155, 18371, 21608, 25077, 25809, 26459, 29341, 32210, 32240, 36575, 36993]}, "edge": {"target": [], "time": []}}}, "displayed_time": "35.95", "trialTime": 37479, "trial_type": "mouselab-mdp", "trial_index": 13, "time_elapsed": 437773, "internal_node_id": "0.0-4.0-1.0-4.0"}}, {"uniqueid": "w97258795:a30622065", "current_trial": 14, "dateTime": 1691071648551, "trialdata": {"revealed_states": [], "clicked_states": ["29", "27", "28", "33", "32"], "num_clicks_accrued": [0, 0, 0, 0, 0, 0, 0, 0, 0, 0, 0, 0, 0], "stateRewards": ["", -1, -4, -1, -5, -28, -23, -15, -15, -38, 59, -87, 2, 2, -5, 9, -55, -39, -71, -6, 85, -85, -11, -1, -2, 5, -10, 1, 25, 41, -4, 69, -35, 86], "withholdReward": false, "trial_id": "mdp_trial_6", "block": "test", "trialIndex": 7, "score": 73.25, "costs": -10.75, "simulationMode": [null, null, null, null, null], "rewards": [-1, -2, 5, -4, 86], "path": ["0", "0", "23", "24", "25", "30", "33"], "rt": [17765, 203, 160, 539, 222], "actions": ["left", "left", "left", "down", "left"], "actionTimes": [19158, 19877, 20551, 21612, 22346], "queries": {"click": {"state": {"target": ["29", "27", "28", "33", "32"], "time": [2766, 5978, 9369, 12835, 16006]}, "edge": {"target": [], "time": []}}, "mouseover": {"state": {"target": ["23", "25", "26", "29", "27", "28", "24", "30", "33", "32", "31"], "time": [1713, 2096, 2295, 2543, 3223, 6422, 9893, 11922, 12271, 13274, 16622]}, "edge": {"target": [], "time": []}}, "mouseout": {"state": {"target": ["23", "23", "0", "23", "25", "26", "29", "27", "28", "24", "30", "33", "32", "31"], "time": [345, 643, 1659, 1847, 2263, 2359, 3023, 6356, 9838, 9988, 12105, 13222, 16406, 16674]}, "edge": {"target": [], "time": []}}}, "displayed_time": "22.84", "trialTime": 24902, "trial_type": "mouselab-mdp", "trial_index": 14, "time_elapsed": 463027, "internal_node_id": "0.0-4.0-1.0-5.0"}}, {"uniqueid": "w97258795:a30622065", "current_trial": 15, "dateTime": 1691071688940, "trialdata": {"revealed_states": [], "clicked_states": ["33", "32", "31", "28", "27", "29"], "num_clicks_accrued": [0, 0, 0, 0, 0, 0, 0, 0, 0, 0, 0, 0, 0], "stateRewards": ["", -1, 3, -7, 16, -32, -74, -48, 2, 10, 15, -30, 1, 1, -2, 10, 12, -83, 67, 13, -66, 47, 65, -2, 4, 2, -14, -8, -57, 24, 9, 65, 12, 46], "withholdReward": false, "trial_id": "mdp_trial_7", "block": "test", "trialIndex": 8, "score": 65.1, "costs": -12.9, "simulationMode": [null, null, null, null, null], "rewards": [-2, 4, 2, 9, 65], "path": ["0", "0", "23", "24", "25", "30", "31"], "rt": [22306, 170, 121, 500, 181], "actions": ["left", "left", "left", "down", "right"], "actionTimes": [34536, 35217, 35849, 36862, 37561], "queries": {"click": {"state": {"target": ["33", "32", "31", "28", "27", "29"], "time": [13631, 16914, 20040, 24079, 27302, 30466]}, "edge": {"target": [], "time": []}}, "mouseover": {"state": {"target": ["0", "23", "24", "25", "30", "33", "32", "31", "24", "28", "27", "29"], "time": [12589, 12739, 13007, 13057, 13240, 13423, 14054, 17403, 20538, 20788, 24594, 27895]}, "edge": {"target": [], "time": []}}, "mouseout": {"state": {"target": ["0", "0", "23", "24", "25", "30", "33", "32", "31", "24", "28", "27", "29", "26", "24"], "time": [931, 12654, 12974, 13040, 13158, 13340, 13970, 17302, 20487, 20587, 24480, 27779, 39264, 39314, 39396]}, "edge": {"target": [], "time": []}}}, "displayed_time": "38.08", "trialTime": 40030, "trial_type": "mouselab-mdp", "trial_index": 15, "time_elapsed": 503416, "internal_node_id": "0.0-4.0-1.0-6.0"}}, {"uniqueid": "w97258795:a30622065", "current_trial": 16, "dateTime": 1691071735243, "trialdata": {"revealed_states": [], "clicked_states": ["31", "32", "33", "29", "27", "28", "11", "10", "9", "5", "6", "7"], "num_clicks_accrued": [0, 0, 0, 0, 0, 0, 0, 0, 0, 0, 0, 0, 0], "stateRewards": ["", -1, 4, -3, 3, 57, -61, 5, -11, 23, -1, 34, -2, -4, -1, -13, 27, 38, -36, 4, -45, 21, 88, 1, -2, -1, 1, -69, -5, -78, -12, -9, 38, -54], "withholdReward": false, "trial_id": "mdp_trial_8", "block": "test", "trialIndex": 9, "score": 34.2, "costs": -25.799999999999994, "simulationMode": [null, null, null, null, null], "rewards": [-1, 4, -3, 3, 57], "path": ["0", "0", "1", "2", "3", "4", "5"], "rt": [39395, 555, 185, 59, 57], "actions": ["up", "up", "up", "right", "up"], "actionTimes": [40668, 41737, 42433, 43012, 43593], "queries": {"click": {"state": {"target": ["31", "32", "33", "29", "27", "28", "11", "10", "9", "5", "6", "7"], "time": [2505, 5651, 8785, 11831, 14894, 17996, 21079, 24307, 27495, 30889, 34250, 37531]}, "edge": {"target": [], "time": []}}, "mouseover": {"state": {"target": ["31", "32", "33", "29", "27", "28", "11", "10", "8", "9", "5", "6", "7"], "time": [2227, 3028, 6280, 9312, 12328, 15328, 18527, 21495, 24782, 24965, 28250, 31430, 34748]}, "edge": {"target": [], "time": []}}, "mouseout": {"state": {"target": ["0", "31", "32", "33", "29", "27", "28", "11", "10", "8", "9", "5", "6", "7"], "time": [1615, 2895, 6130, 9182, 12177, 15261, 18395, 21425, 24715, 24831, 27914, 31369, 34646, 45183]}, "edge": {"target": [], "time": []}}}, "displayed_time": "44.12", "trialTime": 45865, "trial_type": "mouselab-mdp", "trial_index": 16, "time_elapsed": 549719, "internal_node_id": "0.0-4.0-1.0-7.0"}}, {"uniqueid": "w97258795:a30622065", "current_trial": 17, "dateTime": 1691071752805, "trialdata": {"revealed_states": [], "clicked_states": ["16", "21"], "num_clicks_accrued": [0, 0, 0, 0, 0, 0, 0, 0, 0, 0, 0, 0, 0], "stateRewards": ["", 2, 3, 6, -5, -74, -53, 17, -12, 46, 44, 18, -2, 4, 1, -8, 22, -23, -49, 9, -45, 55, 81, 1, -1, -7, -16, -83, -71, -45, 2, 51, 82, 61], "withholdReward": false, "trial_id": "mdp_trial_9", "block": "test", "trialIndex": 10, "score": 62.7, "costs": -4.3, "simulationMode": [null, null, null, null, null], "rewards": [-2, 4, 1, 9, 55], "path": ["0", "0", "12", "13", "14", "19", "21"], "rt": [9014, 24, 97, 460, 168], "actions": ["right", "right", "right", "down", "down"], "actionTimes": [10446, 10991, 11593, 12573, 13251], "queries": {"click": {"state": {"target": ["16", "21"], "time": [3009, 6276]}, "edge": {"target": [], "time": []}}, "mouseover": {"state": {"target": ["7", "4", "5", "6", "16", "16", "20", "21", "20"], "time": [1713, 1798, 1913, 2576, 2630, 2779, 3494, 4196, 6745]}, "edge": {"target": [], "time": []}}, "mouseout": {"state": {"target": ["0", "7", "4", "5", "6", "16", "16", "20", "21", "20", "19", "22"], "time": [1546, 1765, 1863, 2563, 2593, 2664, 3329, 3594, 6633, 16363, 16414, 16543]}, "edge": {"target": [], "time": []}}}, "displayed_time": "15.44", "trialTime": 17112, "trial_type": "mouselab-mdp", "trial_index": 17, "time_elapsed": 567284, "internal_node_id": "0.0-4.0-1.0-8.0"}}, {"uniqueid": "w97258795:a30622065", "current_trial": 18, "dateTime": 1691071773300, "trialdata": {"revealed_states": [], "clicked_states": ["6", "5", "7"], "num_clicks_accrued": [0, 0, 0, 0, 0, 0, 0, 0, 0, 0, 0, 0, 0], "stateRewards": ["", -2, 1, -7, 9, 8, 25, 61, -7, -17, 69, -81, 1, 4, -4, -11, 16, 67, 44, 3, 6, -45, -54, -2, 3, 6, -11, -15, 32, -47, 3, -39, -6, -88], "withholdReward": false, "trial_id": "mdp_trial_10", "block": "test", "trialIndex": 11, "score": 55.55, "costs": -6.449999999999999, "simulationMode": [null, null, null, null, null], "rewards": [-2, 1, -7, 9, 61], "path": ["0", "0", "1", "2", "3", "4", "7"], "rt": [12583, 39, 47, 486, 73], "actions": ["up", "up", "up", "right", "down"], "actionTimes": [15249, 15804, 16378, 17386, 17969], "queries": {"click": {"state": {"target": ["6", "5", "7"], "time": [3956, 7844, 11556]}, "edge": {"target": [], "time": []}}, "mouseover": {"state": {"target": ["1", "2", "3", "5", "6", "3", "8", "11", "11", "5", "4", "7"], "time": [2850, 2896, 2999, 3233, 3700, 4312, 4332, 4365, 4650, 7648, 8179, 8381]}, "edge": {"target": [], "time": []}}, "mouseout": {"state": {"target": ["12", "22", "0", "1", "2", "3", "5", "6", "3", "8", "11", "11", "5", "4", "7"], "time": [649, 1198, 2801, 2883, 2932, 3066, 3647, 4281, 4330, 4348, 4399, 7282, 8163, 8249, 12014]}, "edge": {"target": [], "time": []}}}, "displayed_time": "18.48", "trialTime": 20096, "trial_type": "mouselab-mdp", "trial_index": 18, "time_elapsed": 587778, "internal_node_id": "0.0-4.0-1.0-9.0"}}, {"uniqueid": "w97258795:a30622065", "current_trial": 19, "dateTime": 1691071796585, "trialdata": {"revealed_states": [], "clicked_states": ["11", "9", "10"], "num_clicks_accrued": [0, 0, 0, 0, 0, 0, 0, 0, 0, 0, 0, 0, 0], "stateRewards": ["", -2, -4, 4, -11, -63, -60, -7, 2, -14, 81, -43, -1, -1, -5, 7, 10, 69, 40, 8, -83, 52, 60, 1, 2, 5, -5, 16, 64, 14, -3, 29, 7, -51], "withholdReward": false, "trial_id": "mdp_trial_11", "block": "test", "trialIndex": 12, "score": 74.55, "costs": -6.449999999999999, "simulationMode": [null, null, null, null, null], "rewards": [-2, -4, 4, 2, 81], "path": ["0", "0", "1", "2", "3", "8", "10"], "rt": [11208, 100, 113, 59, 46], "actions": ["up", "up", "up", "left", "down"], "actionTimes": [12419, 13044, 13685, 14265, 14834], "queries": {"click": {"state": {"target": ["11", "9", "10"], "time": [2072, 5280, 8317]}, "edge": {"target": [], "time": []}}, "mouseover": {"state": {"target": ["1", "2", "8", "11", "9", "8", "10", "2", "7"], "time": [1473, 1538, 1656, 1790, 2456, 5670, 5872, 8770, 8918]}, "edge": {"target": [], "time": []}}, "mouseout": {"state": {"target": ["1", "0", "1", "2", "8", "11", "9", "8", "10", "2", "7", "12"], "time": [255, 1391, 1522, 1591, 1722, 2369, 5636, 5771, 8736, 8822, 16669, 16769]}, "edge": {"target": [], "time": []}}}, "displayed_time": "15.35", "trialTime": 22845, "trial_type": "mouselab-mdp", "trial_index": 19, "time_elapsed": 611063, "internal_node_id": "0.0-4.0-1.0-10.0"}}, {"uniqueid": "w97258795:a30622065", "current_trial": 20, "dateTime": 1691071925566, "trialdata": {"revealed_states": [], "clicked_states": ["6"], "num_clicks_accrued": [0, 0, 0, 0, 0, 0, 0, 0, 0, 0, 0, 0, 0], "stateRewards": ["", -2, -1, -6, -14, -55, 78, -13, 11, 14, -71, 59, 2, 2, 6, -6, 9, 38, 14, 7, 85, 11, 68, 1, -4, -1, -3, -63, -85, 9, -2, 63, -86, -10], "withholdReward": false, "trial_id": "mdp_trial_12", "block": "test", "trialIndex": 13, "score": 52.85, "costs": -2.15, "simulationMode": [null, null, null, null, null], "rewards": [-2, -1, -6, -14, 78], "path": ["0", "0", "1", "2", "3", "4", "6"], "rt": [5239, 3, 304, 486, 169], "actions": ["up", "up", "up", "right", "right"], "actionTimes": [118101, 118631, 119459, 120460, 121144], "queries": {"click": {"state": {"target": ["6"], "time": [114263]}, "edge": {"target": [], "time": []}}, "mouseover": {"state": {"target": ["1", "2", "3", "4", "6", "5", "5"], "time": [113272, 113489, 113551, 113905, 113973, 114686, 114769]}, "edge": {"target": [], "time": []}}, "mouseout": {"state": {"target": ["0", "1", "2", "3", "4", "6", "5", "5"], "time": [113090, 113420, 113538, 113872, 113939, 114618, 114719, 117606]}, "edge": {"target": [], "time": []}}}, "displayed_time": "126.86", "trialTime": 128539, "trial_type": "mouselab-mdp", "trial_index": 20, "time_elapsed": 740044, "internal_node_id": "0.0-4.0-1.0-11.0"}}, {"uniqueid": "w97258795:a30622065", "current_trial": 21, "dateTime": 1691071949422, "trialdata": {"revealed_states": [], "clicked_states": ["6", "11", "5", "7"], "num_clicks_accrued": [0, 0, 0, 0, 0, 0, 0, 0, 0, 0, 0, 0, 0], "stateRewards": ["", -2, -3, -6, -7, 9, 16, 65, 5, -41, 20, -25, -1, -4, 1, -11, -49, -4, 71, 1, 39, -62, 52, -2, -3, 7, -9, -28, -70, 84, 8, 24, -58, 82], "withholdReward": false, "trial_id": "mdp_trial_13", "block": "test", "trialIndex": 14, "score": 38.4, "costs": -8.6, "simulationMode": [null, null, null, null, null], "rewards": [-2, -3, -6, -7, 65], "path": ["0", "0", "1", "2", "3", "4", "7"], "rt": [13849, 155, 125, 590, 99], "actions": ["up", "up", "up", "right", "down"], "actionTimes": [17852, 18527, 19178, 20293, 20914], "queries": {"click": {"state": {"target": ["6", "11", "5", "7"], "time": [4581, 7856, 10996, 14131]}, "edge": {"target": [], "time": []}}, "mouseover": {"state": {"target": ["7", "6", "4", "3", "8", "11", "5", "4", "7"], "time": [4201, 4281, 4931, 4949, 4982, 5031, 8366, 11366, 11449]}, "edge": {"target": [], "time": []}}, "mouseout": {"state": {"target": ["7", "7", "7", "6", "0", "7", "6", "4", "3", "8", "11", "5", "4", "7"], "time": [536, 733, 1014, 1133, 3732, 4214, 4689, 4948, 4964, 5017, 8232, 11332, 11399, 14532]}, "edge": {"target": [], "time": []}}}, "displayed_time": "21.43", "trialTime": 23424, "trial_type": "mouselab-mdp", "trial_index": 21, "time_elapsed": 763900, "internal_node_id": "0.0-4.0-1.0-12.0"}}, {"uniqueid": "w97258795:a30622065", "current_trial": 22, "dateTime": 1691071971914, "trialdata": {"revealed_states": [], "clicked_states": ["32", "27", "29", "28"], "num_clicks_accrued": [0, 0, 0, 0, 0, 0, 0, 0, 0, 0, 0, 0, 0], "stateRewards": ["", -1, 3, 2, 9, 41, 4, -46, -12, -54, -87, -25, 2, 3, -1, 11, -77, 12, -33, -9, -32, 35, 72, 1, 3, -7, 4, 37, 65, -73, 6, 77, -43, 8], "withholdReward": false, "trial_id": "mdp_trial_14", "block": "test", "trialIndex": 15, "score": 57.4, "costs": -8.6, "simulationMode": [null, null, null, null, null], "rewards": [1, 3, -7, 4, 65], "path": ["0", "0", "23", "24", "25", "26", "28"], "rt": [15656, 235, 219, 219, 116], "actions": ["left", "left", "left", "up", "right"], "actionTimes": [16942, 17691, 18426, 19158, 19788], "queries": {"click": {"state": {"target": ["32", "27", "29", "28"], "time": [3440, 6668, 9786, 12911]}, "edge": {"target": [], "time": []}}, "mouseover": {"state": {"target": ["23", "23", "24", "25", "30", "32", "30", "27", "26", "29", "26", "28"], "time": [1842, 2140, 2225, 2374, 2790, 3309, 3805, 4408, 7323, 7505, 10155, 10238]}, "edge": {"target": [], "time": []}}, "mouseout": {"state": {"target": ["0", "23", "23", "24", "25", "30", "32", "30", "27", "26", "29", "26", "28", "23"], "time": [1741, 1940, 2192, 2290, 2741, 2974, 3756, 3821, 7254, 7453, 10122, 10205, 13337, 21589]}, "edge": {"target": [], "time": []}}}, "displayed_time": "20.31", "trialTime": 22040, "trial_type": "mouselab-mdp", "trial_index": 22, "time_elapsed": 786392, "internal_node_id": "0.0-4.0-1.0-13.0"}}, {"uniqueid": "w97258795:a30622065", "current_trial": 23, "dateTime": 1691072027335, "trialdata": {"revealed_states": [], "clicked_states": ["6", "11"], "num_clicks_accrued": [0, 0, 0, 0, 0, 0, 0, 0, 0, 0, 0, 0, 0], "stateRewards": ["", 1, 2, -5, 14, 54, -14, -25, 16, -5, -87, 78, -1, 1, 3, -3, 52, 53, 53, -10, 73, -69, -48, 2, 3, 1, 8, -62, -7, 85, 7, 82, 52, -28], "withholdReward": false, "trial_id": "mdp_trial_15", "block": "test", "trialIndex": 16, "score": 87.7, "costs": -4.3, "simulationMode": [null, null, null, null, null], "rewards": [1, 2, -5, 16, 78], "path": ["0", "0", "1", "2", "3", "8", "11"], "rt": [8578, 186, 122, 28, 178], "actions": ["up", "up", "up", "left", "left"], "actionTimes": [10436, 11144, 11792, 12333, 13033], "queries": {"click": {"state": {"target": ["6", "11"], "time": [2872, 6188]}, "edge": {"target": [], "time": []}}, "mouseover": {"state": {"target": ["1", "4", "6", "3", "8", "11", "9", "8"], "time": [2197, 2466, 2564, 3943, 4027, 4293, 6645, 9647]}, "edge": {"target": [], "time": []}}, "mouseout": {"state": {"target": ["12", "0", "1", "4", "6", "3", "8", "11", "9", "8", "10"], "time": [712, 1579, 2212, 2531, 3345, 3993, 4111, 6545, 9630, 9700, 18867]}, "edge": {"target": [], "time": []}}}, "displayed_time": "15.86", "trialTime": 54995, "trial_type": "mouselab-mdp", "trial_index": 23, "time_elapsed": 841813, "internal_node_id": "0.0-4.0-1.0-14.0"}}, {"uniqueid": "w97258795:a30622065", "current_trial": 24, "dateTime": 1691072058076, "trialdata": {"revealed_states": [], "clicked_states": ["11", "9", "10", "6", "5", "7"], "num_clicks_accrued": [0, 0, 0, 0, 0, 0, 0, 0, 0, 0, 0, 0, 0], "stateRewards": ["", 1, 1, 1, 15, -76, 52, -32, 14, -57, 37, 49, 1, -4, -3, 6, 83, -76, 25, 9, 36, -1, -17, -1, 4, 4, -2, -22, -21, 58, -15, -57, 49, -24], "withholdReward": false, "trial_id": "mdp_trial_16", "block": "test", "trialIndex": 17, "score": 57.1, "costs": -12.9, "simulationMode": [null, null, null, null, null], "rewards": [1, 1, 1, 15, 52], "path": ["0", "0", "1", "2", "3", "4", "6"], "rt": [23005, 453, 159, 118, 71], "actions": ["up", "up", "up", "right", "right"], "actionTimes": [24287, 25258, 25930, 26555, 27142], "queries": {"click": {"state": {"target": ["11", "9", "10", "6", "5", "7"], "time": [2188, 5721, 8874, 12938, 16708, 21035]}, "edge": {"target": [], "time": []}}, "mouseover": {"state": {"target": ["1", "2", "3", "8", "8", "11", "8", "3", "4", "6", "9", "8", "10", "2", "4", "6", "5", "7", "6"], "time": [1531, 1616, 1747, 1815, 1896, 1982, 2579, 2612, 2645, 2729, 5600, 6094, 6396, 12464, 12547, 12764, 13645, 20838, 21536]}, "edge": {"target": [], "time": []}}, "mouseout": {"state": {"target": ["0", "1", "2", "3", "8", "8", "11", "8", "3", "4", "6", "9", "8", "10", "2", "4", "6", "5", "6", "6", "7"], "time": [1480, 1581, 1699, 1761, 1833, 1911, 2562, 2594, 2629, 2680, 5316, 6061, 6178, 9628, 12498, 12632, 13410, 17077, 18344, 20755, 21320]}, "edge": {"target": [], "time": []}}}, "displayed_time": "27.65", "trialTime": 30260, "trial_type": "mouselab-mdp", "trial_index": 24, "time_elapsed": 872553, "internal_node_id": "0.0-4.0-1.0-15.0"}}, {"uniqueid": "w97258795:a30622065", "current_trial": 25, "dateTime": 1691072104740, "trialdata": {"revealed_states": [], "clicked_states": ["17", "16", "18", "21", "22", "20", "27", "32", "31", "33", "29", "28"], "num_clicks_accrued": [0, 0, 0, 0, 0, 0, 0, 0, 0, 0, 0, 0, 0], "stateRewards": ["", -2, -3, 1, -7, 39, -67, 16, 5, -20, 73, 66, -1, 4, 5, -3, 23, -68, -87, -8, 3, -3, 17, 1, -4, -2, -13, -32, 34, 61, -5, -11, -18, 12], "withholdReward": false, "trial_id": "mdp_trial_17", "block": "test", "trialIndex": 18, "score": 17.200000000000003, "costs": -25.799999999999994, "simulationMode": [null, null, null, null, null], "rewards": [1, -4, -2, -13, 61], "path": ["0", "0", "23", "24", "25", "26", "29"], "rt": [39583, 121, 146, 423, 60], "actions": ["left", "left", "left", "up", "left"], "actionTimes": [41433, 42077, 42747, 43688, 44267], "queries": {"click": {"state": {"target": ["17", "16", "18", "21", "22", "20", "27", "32", "31", "33", "29", "28"], "time": [3221, 6498, 9714, 12807, 15951, 19066, 22337, 25444, 28555, 31660, 34906, 38267]}, "edge": {"target": [], "time": []}}, "mouseover": {"state": {"target": ["12", "13", "14", "17", "16", "18", "14", "19", "21", "22", "19", "20", "13", "12", "0", "23", "24", "25", "27", "29", "33", "32", "31", "30", "33", "29", "26", "28"], "time": [1976, 2046, 2147, 2578, 3726, 7027, 10108, 10141, 10224, 13290, 16374, 16458, 19540, 19559, 19574, 19629, 19975, 20040, 20549, 22935, 23115, 23333, 25900, 28983, 29067, 32263, 35383, 35514]}, "edge": {"target": [], "time": []}}, "mouseout": {"state": {"target": ["6", "0", "12", "13", "14", "17", "16", "18", "14", "19", "21", "22", "19", "20", "13", "12", "0", "23", "24", "25", "27", "29", "33", "32", "31", "30", "33", "29", "26"], "time": [494, 1962, 2013, 2095, 2345, 3316, 6925, 10075, 10124, 10175, 13191, 16357, 16423, 19522, 19557, 19572, 19612, 19689, 20023, 20100, 22851, 22972, 23183, 25818, 28949, 29014, 32082, 35349, 35434]}, "edge": {"target": [], "time": []}}}, "displayed_time": "44.78", "trialTime": 46231, "trial_type": "mouselab-mdp", "trial_index": 25, "time_elapsed": 919218, "internal_node_id": "0.0-4.0-1.0-16.0"}}, {"uniqueid": "w97258795:a30622065", "current_trial": 26, "dateTime": 1691072126525, "trialdata": {"revealed_states": [], "clicked_states": ["11", "6", "5", "7"], "num_clicks_accrued": [0, 0, 0, 0, 0, 0, 0, 0, 0, 0, 0, 0, 0], "stateRewards": ["", -1, -4, 8, 8, -68, 47, 24, -7, -61, 49, -69, -1, -1, 8, -7, 42, 1, -45, -11, 10, -63, -6, 1, 4, 6, -16, 79, -37, -58, -12, 81, 18, -53], "withholdReward": false, "trial_id": "mdp_trial_18", "block": "test", "trialIndex": 19, "score": 49.4, "costs": -8.6, "simulationMode": [null, null, null, null, null], "rewards": [-1, -4, 8, 8, 47], "path": ["0", "0", "1", "2", "3", "4", "6"], "rt": [14346, 175, 72, 486, 157], "actions": ["up", "up", "up", "right", "right"], "actionTimes": [15368, 16055, 16636, 17633, 18305], "queries": {"click": {"state": {"target": ["11", "6", "5", "7"], "time": [2012, 5239, 9113, 12311]}, "edge": {"target": [], "time": []}}, "mouseover": {"state": {"target": ["1", "2", "9", "11", "8", "4", "6", "6", "5", "4", "7"], "time": [1169, 1249, 1485, 1818, 2317, 2383, 2465, 2783, 5798, 9464, 9530]}, "edge": {"target": [], "time": []}}, "mouseout": {"state": {"target": ["28", "12", "0", "1", "2", "9", "11", "8", "4", "6", "6", "5", "4", "7"], "time": [200, 433, 1086, 1217, 1319, 1750, 2094, 2331, 2432, 2632, 5598, 9450, 9497, 12697]}, "edge": {"target": [], "time": []}}}, "displayed_time": "18.81", "trialTime": 21400, "trial_type": "mouselab-mdp", "trial_index": 26, "time_elapsed": 941003, "internal_node_id": "0.0-4.0-1.0-17.0"}}, {"uniqueid": "w97258795:a30622065", "current_trial": 27, "dateTime": 1691072143943, "trialdata": {"revealed_states": [], "clicked_states": ["6"], "num_clicks_accrued": [0, 0, 0, 0, 0, 0, 0, 0, 0, 0, 0, 0, 0], "stateRewards": ["", 2, -1, 8, -2, -16, 69, -39, -7, -13, -27, -86, 2, -2, 2, 13, -34, -16, -20, -5, 19, 81, 32, -2, -1, 2, -14, 20, 80, 58, 4, 70, 12, 73], "withholdReward": false, "trial_id": "mdp_trial_19", "block": "test", "trialIndex": 20, "score": 73.85, "costs": -2.15, "simulationMode": [null, null, null, null, null], "rewards": [2, -1, 8, -2, 69], "path": ["0", "0", "1", "2", "3", "4", "6"], "rt": [4255, 73, 124, 347, 46], "actions": ["up", "up", "up", "right", "right"], "actionTimes": [5762, 6344, 6978, 7833, 8398], "queries": {"click": {"state": {"target": ["6"], "time": [2105]}, "edge": {"target": [], "time": []}}, "mouseover": {"state": {"target": ["7", "6"], "time": [1703, 1920]}, "edge": {"target": [], "time": []}}, "mouseout": {"state": {"target": ["0", "7", "6"], "time": [1604, 1737, 2485]}, "edge": {"target": [], "time": []}}}, "displayed_time": "15.51", "trialTime": 17025, "trial_type": "mouselab-mdp", "trial_index": 27, "time_elapsed": 958421, "internal_node_id": "0.0-4.0-1.0-18.0"}}, {"uniqueid": "w97258795:a30622065", "current_trial": 28, "dateTime": 1691072192860, "trialdata": {"revealed_states": [], "clicked_states": ["6", "5", "7", "11", "9", "10", "16", "17", "18", "21", "22", "20"], "num_clicks_accrued": [0, 0, 0, 0, 0, 0, 0, 0, 0, 0, 0, 0, 0], "stateRewards": ["", 2, -1, -2, -5, -47, -57, -33, -11, 31, -18, -72, -2, 1, -4, -8, -46, -53, -50, 15, -85, -9, 39, -2, -2, 1, 14, -1, -8, 53, -12, -41, -74, 62], "withholdReward": false, "trial_id": "mdp_trial_20", "block": "test", "trialIndex": 21, "score": 23.200000000000006, "costs": -25.799999999999994, "simulationMode": [null, null, null, null, null], "rewards": [-2, 1, -4, 15, 39], "path": ["0", "0", "12", "13", "14", "19", "22"], "rt": [41946, 129, 122, 430, 236], "actions": ["right", "right", "right", "down", "left"], "actionTimes": [43304, 43953, 44592, 45533, 46275], "queries": {"click": {"state": {"target": ["6", "5", "7", "11", "9", "10", "16", "17", "18", "21", "22", "20"], "time": [2084, 5703, 8883, 12926, 16049, 19300, 23134, 26380, 29548, 32714, 35876, 39172]}, "edge": {"target": [], "time": []}}, "mouseover": {"state": {"target": ["7", "6", "5", "4", "7", "7", "7", "4", "11", "9", "8", "10", "16", "17", "15", "18", "14", "19", "21", "22", "19", "20"], "time": [1709, 1907, 5408, 6080, 6162, 7897, 8479, 12149, 12347, 13056, 16477, 16827, 22913, 23559, 26869, 27005, 29986, 30017, 30119, 33269, 36251, 36300]}, "edge": {"target": [], "time": []}}, "mouseout": {"state": {"target": ["0", "0", "7", "6", "5", "5", "4", "7", "7", "7", "7", "7", "4", "11", "9", "8", "10", "16", "17", "15", "18", "14", "19", "21", "22", "19", "20", "19", "22"], "time": [823, 1611, 1725, 2587, 5818, 6044, 6111, 7528, 8146, 9200, 11278, 12098, 12162, 12963, 16429, 16528, 19761, 23478, 26836, 26935, 29952, 30000, 30052, 33151, 36217, 36284, 47354, 47405, 47452]}, "edge": {"target": [], "time": []}}}, "displayed_time": "46.78", "trialTime": 48480, "trial_type": "mouselab-mdp", "trial_index": 28, "time_elapsed": 1007338, "internal_node_id": "0.0-4.0-1.0-19.0"}}, {"uniqueid": "w97258795:a30622065", "current_trial": 29, "dateTime": 1691072211295, "trialdata": {"revealed_states": [], "clicked_states": ["33", "32", "31"], "num_clicks_accrued": [0, 0, 0, 0, 0, 0, 0, 0, 0, 0, 0, 0, 0], "stateRewards": ["", 1, 3, -2, 15, 51, 15, -19, 11, 67, -45, -73, 2, 4, -2, -13, 36, 9, -28, 10, -30, 31, 16, 1, 2, -1, -16, 14, -22, 36, -1, 88, -5, 45], "withholdReward": false, "trial_id": "mdp_trial_21", "block": "test", "trialIndex": 22, "score": 82.55, "costs": -6.449999999999999, "simulationMode": [null, null, null, null, null], "rewards": [1, 2, -1, -1, 88], "path": ["0", "0", "23", "24", "25", "30", "31"], "rt": [11282, 190, 188, 79, 156], "actions": ["left", "left", "left", "down", "right"], "actionTimes": [12577, 13283, 13982, 14572, 15246], "queries": {"click": {"state": {"target": ["33", "32", "31"], "time": [2323, 6147, 9262]}, "edge": {"target": [], "time": []}}, "mouseover": {"state": {"target": ["23", "24", "33", "25", "28", "23", "31", "26", "3", "4", "6", "7", "31", "32", "31", "30"], "time": [1578, 1607, 1776, 2673, 2724, 2876, 2908, 3258, 3340, 3373, 3977, 5657, 5726, 5960, 6557, 9842]}, "edge": {"target": [], "time": []}}, "mouseout": {"state": {"target": ["0", "23", "24", "33", "25", "28", "23", "31", "26", "3", "4", "6", "7", "31", "32", "31", "30"], "time": [1545, 1591, 1625, 2641, 2692, 2741, 2891, 2941, 3274, 3358, 3409, 5643, 5673, 5760, 6475, 9733, 10389]}, "edge": {"target": [], "time": []}}}, "displayed_time": "15.76", "trialTime": 17972, "trial_type": "mouselab-mdp", "trial_index": 29, "time_elapsed": 1025773, "internal_node_id": "0.0-4.0-1.0-20.0"}}, {"uniqueid": "w97258795:a30622065", "current_trial": 30, "dateTime": 1691072230207, "trialdata": {"revealed_states": [], "clicked_states": ["31", "33", "32"], "num_clicks_accrued": [0, 0, 0, 0, 0, 0, 0, 0, 0, 0, 0, 0, 0], "stateRewards": ["", -2, 1, -5, 2, -68, 80, 33, 10, 67, -59, 20, -1, -3, 3, 14, 74, -2, 24, -16, 63, 80, 46, -1, 4, 6, 12, 83, -38, -43, -4, 43, 14, -79], "withholdReward": false, "trial_id": "mdp_trial_22", "block": "test", "trialIndex": 23, "score": 41.55, "costs": -6.449999999999999, "simulationMode": [null, null, null, null, null], "rewards": [-1, 4, 6, -4, 43], "path": ["0", "0", "23", "24", "25", "30", "31"], "rt": [12523, 189, 194, 50, 91], "actions": ["left", "left", "left", "down", "right"], "actionTimes": [13695, 14408, 15126, 15697, 16311], "queries": {"click": {"state": {"target": ["31", "33", "32"], "time": [1957, 5745, 8995]}, "edge": {"target": [], "time": []}}, "mouseover": {"state": {"target": ["0", "31", "24", "25", "33", "32", "32"], "time": [1350, 1850, 4695, 5414, 5548, 6096, 6629]}, "edge": {"target": [], "time": []}}, "mouseout": {"state": {"target": ["25", "24", "23", "0", "0", "31", "24", "25", "33", "32", "32"], "time": [348, 397, 649, 715, 1534, 2314, 5100, 5428, 5841, 6112, 9345]}, "edge": {"target": [], "time": []}}}, "displayed_time": "16.83", "trialTime": 18432, "trial_type": "mouselab-mdp", "trial_index": 30, "time_elapsed": 1044685, "internal_node_id": "0.0-4.0-1.0-21.0"}}, {"uniqueid": "w97258795:a30622065", "current_trial": 31, "dateTime": 1691072248409, "trialdata": {"revealed_states": [], "clicked_states": ["27", "32", "28"], "num_clicks_accrued": [0, 0, 0, 0, 0, 0, 0, 0, 0, 0, 0, 0, 0], "stateRewards": ["", -2, -1, 3, -3, 71, -58, -21, 7, -10, -75, -37, 2, 4, -1, -12, -79, -29, -48, 3, -41, -10, -30, -1, -2, 1, -15, 13, 66, 22, -1, -42, -86, -55], "withholdReward": false, "trial_id": "mdp_trial_23", "block": "test", "trialIndex": 24, "score": 42.55, "costs": -6.449999999999999, "simulationMode": [null, null, null, null, null], "rewards": [-1, -2, 1, -15, 66], "path": ["0", "0", "23", "24", "25", "26", "28"], "rt": [11580, 235, 294, 105, 59], "actions": ["left", "left", "left", "up", "right"], "actionTimes": [12745, 13496, 14305, 14930, 15503], "queries": {"click": {"state": {"target": ["27", "32", "28"], "time": [1782, 5029, 8315]}, "edge": {"target": [], "time": []}}, "mouseover": {"state": {"target": ["27", "28", "32", "32", "24", "28", "26", "29"], "time": [1557, 2205, 2704, 2854, 5537, 5772, 8771, 8854]}, "edge": {"target": [], "time": []}}, "mouseout": {"state": {"target": ["0", "27", "28", "32", "32", "24", "28", "26"], "time": [1275, 2121, 2621, 2754, 5421, 5688, 8738, 8805]}, "edge": {"target": [], "time": []}}}, "displayed_time": "16.02", "trialTime": 17751, "trial_type": "mouselab-mdp", "trial_index": 31, "time_elapsed": 1062887, "internal_node_id": "0.0-4.0-1.0-22.0"}}, {"uniqueid": "w97258795:a30622065", "current_trial": 32, "dateTime": 1691072270913, "trialdata": {"revealed_states": [], "clicked_states": ["27", "29", "28", "33"], "num_clicks_accrued": [0, 0, 0, 0, 0, 0, 0, 0, 0, 0, 0, 0, 0], "stateRewards": ["", -2, -3, 8, -4, -30, 31, 69, 9, 66, 87, 64, -2, 2, 8, 5, 47, 16, -39, -8, -54, 51, -19, 1, -2, -2, -11, -25, -26, 43, -9, 19, -84, 86], "withholdReward": false, "trial_id": "mdp_trial_24", "block": "test", "trialIndex": 25, "score": 65.4, "costs": -8.6, "simulationMode": [null, null, null, null, null], "rewards": [1, -2, -2, -9, 86], "path": ["0", "0", "23", "24", "25", "30", "33"], "rt": [15774, 224, 228, 53, 153], "actions": ["left", "left", "left", "down", "left"], "actionTimes": [17071, 17809, 18550, 19121, 19803], "queries": {"click": {"state": {"target": ["27", "29", "28", "33"], "time": [1992, 5204, 8426, 12415]}, "edge": {"target": [], "time": []}}, "mouseover": {"state": {"target": ["27", "10", "28", "26", "29", "26", "28", "28", "30", "33", "30", "31", "31"], "time": [1746, 2609, 2858, 3009, 3125, 5544, 5592, 5927, 12079, 12144, 12841, 12877, 13208]}, "edge": {"target": [], "time": []}}, "mouseout": {"state": {"target": ["29", "26", "28", "27", "10", "28", "26", "29", "26", "28", "28", "30", "33", "30", "31"], "time": [260, 378, 711, 2409, 2658, 2960, 3058, 5524, 5576, 5675, 8907, 12092, 12825, 12875, 12926]}, "edge": {"target": [], "time": []}}}, "displayed_time": "20.32", "trialTime": 22074, "trial_type": "mouselab-mdp", "trial_index": 32, "time_elapsed": 1085391, "internal_node_id": "0.0-4.0-1.0-23.0"}}, {"uniqueid": "w97258795:a30622065", "current_trial": 33, "dateTime": 1691072292412, "trialdata": {"revealed_states": [], "clicked_states": ["33", "22", "20", "21"], "num_clicks_accrued": [0, 0, 0, 0, 0, 0, 0, 0, 0, 0, 0, 0, 0], "stateRewards": ["", -1, -2, -1, -10, -57, 73, -72, -16, 75, -14, -46, -2, -3, -7, -1, -61, -60, 76, -4, 50, 4, 14, 2, 2, -7, 12, -65, -32, 15, -8, -76, -25, -61], "withholdReward": false, "trial_id": "mdp_trial_25", "block": "test", "trialIndex": 26, "score": 25.4, "costs": -8.6, "simulationMode": [null, null, null, null, null], "rewards": [-2, -3, -7, -4, 50], "path": ["0", "0", "12", "13", "14", "19", "20"], "rt": [14971, 110, 111, 469, 233], "actions": ["right", "right", "right", "down", "right"], "actionTimes": [16097, 16727, 17356, 18345, 19094], "queries": {"click": {"state": {"target": ["33", "22", "20", "21"], "time": [1882, 5868, 9407, 12965]}, "edge": {"target": [], "time": []}}, "mouseover": {"state": {"target": ["23", "24", "30", "33", "30", "22", "31", "31", "31", "31", "20", "20", "21"], "time": [1463, 1501, 1542, 1678, 2209, 5711, 6375, 6977, 7425, 7758, 8929, 9295, 12796]}, "edge": {"target": [], "time": []}}, "mouseout": {"state": {"target": ["31", "0", "23", "24", "30", "33", "30", "22", "31", "31", "31", "31", "20", "20", "21"], "time": [15, 794, 1495, 1518, 1559, 2193, 2226, 6277, 6742, 7193, 7610, 7877, 8961, 9725, 13259]}, "edge": {"target": [], "time": []}}}, "displayed_time": "19.61", "trialTime": 21033, "trial_type": "mouselab-mdp", "trial_index": 33, "time_elapsed": 1106890, "internal_node_id": "0.0-4.0-1.0-24.0"}}, {"uniqueid": "w97258795:a30622065", "current_trial": 34, "dateTime": 1691072310062, "trialdata": {"revealed_states": [], "clicked_states": ["20"], "num_clicks_accrued": [0, 0, 0, 0, 0, 0, 0, 0, 0, 0, 0, 0, 0], "stateRewards": ["", 2, 3, -2, -8, -8, -41, 74, 15, -23, -80, 1, 1, 3, 3, -15, -63, -78, 67, 13, 75, -41, 86, 2, -2, 6, -3, -8, -49, 50, -6, 83, 74, 80], "withholdReward": false, "trial_id": "mdp_trial_26", "block": "test", "trialIndex": 27, "score": 92.85, "costs": -2.15, "simulationMode": [null, null, null, null, null], "rewards": [1, 3, 3, 13, 75], "path": ["0", "0", "12", "13", "14", "19", "20"], "rt": [4809, 135, 96, 104, 105], "actions": ["right", "right", "right", "down", "right"], "actionTimes": [6268, 6914, 7527, 8149, 8770], "queries": {"click": {"state": {"target": ["20"], "time": [2286]}, "edge": {"target": [], "time": []}}, "mouseover": {"state": {"target": ["12", "13", "14", "20", "17", "17"], "time": [1633, 1696, 1778, 2111, 4643, 5096]}, "edge": {"target": [], "time": []}}, "mouseout": {"state": {"target": ["21", "0", "12", "13", "14", "20", "17", "17", "20", "21"], "time": [338, 1614, 1660, 1729, 1793, 2776, 4838, 5613, 5679, 16431]}, "edge": {"target": [], "time": []}}}, "displayed_time": "15.46", "trialTime": 17229, "trial_type": "mouselab-mdp", "trial_index": 34, "time_elapsed": 1124541, "internal_node_id": "0.0-4.0-1.0-25.0"}}, {"uniqueid": "w97258795:a30622065", "current_trial": 35, "dateTime": 1691072327850, "trialdata": {"revealed_states": [], "clicked_states": ["20"], "num_clicks_accrued": [0, 0, 0, 0, 0, 0, 0, 0, 0, 0, 0, 0, 0], "stateRewards": ["", 1, 1, 7, -11, 80, -20, -53, -14, 3, 31, 27, 2, -1, -8, -10, 33, 41, 86, 9, 78, -37, -13, -1, -2, -6, -8, -80, 75, 4, -16, -49, -74, 24], "withholdReward": false, "trial_id": "mdp_trial_27", "block": "test", "trialIndex": 28, "score": 77.85, "costs": -2.15, "simulationMode": [null, null, null, null, null], "rewards": [2, -1, -8, 9, 78], "path": ["0", "0", "12", "13", "14", "19", "20"], "rt": [4737, 87, 312, 114, 168], "actions": ["right", "right", "right", "down", "right"], "actionTimes": [6254, 6850, 7673, 8307, 8995], "queries": {"click": {"state": {"target": ["20"], "time": [2351]}, "edge": {"target": [], "time": []}}, "mouseover": {"state": {"target": ["12", "19", "20", "17"], "time": [1878, 1946, 2014, 5026]}, "edge": {"target": [], "time": []}}, "mouseout": {"state": {"target": ["0", "12", "19", "20", "17"], "time": [1865, 1892, 1960, 2742, 5665]}, "edge": {"target": [], "time": []}}}, "displayed_time": "15.52", "trialTime": 17333, "trial_type": "mouselab-mdp", "trial_index": 35, "time_elapsed": 1142328, "internal_node_id": "0.0-4.0-1.0-26.0"}}, {"uniqueid": "w97258795:a30622065", "current_trial": 36, "dateTime": 1691072352879, "trialdata": {"revealed_states": [], "clicked_states": ["20", "21", "22", "16"], "num_clicks_accrued": [0, 0, 0, 0, 0, 0, 0, 0, 0, 0, 0, 0, 0], "stateRewards": ["", 1, -3, -2, 14, 49, -40, -39, 2, 26, -61, 73, 1, -4, -8, 12, 79, 29, -65, -13, 55, -26, 27, -1, 3, 3, 9, -17, -60, -18, -8, 35, -88, 69], "withholdReward": false, "trial_id": "mdp_trial_28", "block": "test", "trialIndex": 29, "score": 71.4, "costs": -8.6, "simulationMode": [null, null, null, null, null], "rewards": [1, -4, -8, 12, 79], "path": ["0", "0", "12", "13", "14", "15", "16"], "rt": [16970, 87, 326, 243, 212], "actions": ["right", "right", "right", "up", "up"], "actionTimes": [18590, 19192, 20034, 20796, 21531], "queries": {"click": {"state": {"target": ["20", "21", "22", "16"], "time": [2381, 6183, 9423, 14436]}, "edge": {"target": [], "time": []}}, "mouseover": {"state": {"target": ["12", "19", "20", "21", "22", "17", "16", "17", "17"], "time": [1896, 1980, 2078, 5945, 6584, 13888, 14189, 14868, 15739]}, "edge": {"target": [], "time": []}}, "mouseout": {"state": {"target": ["12", "19", "20", "21", "22", "17", "16", "17"], "time": [1916, 2030, 2677, 6517, 13355, 14087, 14835, 14917]}, "edge": {"target": [], "time": []}}}, "displayed_time": "22.06", "trialTime": 24520, "trial_type": "mouselab-mdp", "trial_index": 36, "time_elapsed": 1167357, "internal_node_id": "0.0-4.0-1.0-27.0"}}, {"uniqueid": "w97258795:a30622065", "current_trial": 37, "dateTime": 1691072380347, "trialdata": {"revealed_states": [], "clicked_states": ["16", "21", "20", "22", "18", "17"], "num_clicks_accrued": [0, 0, 0, 0, 0, 0, 0, 0, 0, 0, 0, 0, 0], "stateRewards": ["", 1, 1, 4, 11, 83, -66, 18, -16, -23, 5, 25, 1, -3, 1, -12, 18, 24, -86, -11, -64, 36, 40, 2, 1, -6, 13, 55, 29, 72, -2, 81, -72, -41], "withholdReward": false, "trial_id": "mdp_trial_29", "block": "test", "trialIndex": 30, "score": 15.100000000000001, "costs": -12.9, "simulationMode": [null, null, null, null, null], "rewards": [1, -3, 1, -11, 40], "path": ["0", "0", "12", "13", "14", "19", "22"], "rt": [21070, 116, 96, 61, 290], "actions": ["right", "right", "right", "down", "left"], "actionTimes": [22373, 23010, 23624, 24205, 25018], "queries": {"click": {"state": {"target": ["16", "21", "20", "22", "18", "17"], "time": [1947, 5195, 9088, 12255, 15990, 19143]}, "edge": {"target": [], "time": []}}, "mouseover": {"state": {"target": ["18", "16", "15", "14", "19", "21", "17", "20", "19", "22", "14", "17", "15", "18", "15", "17"], "time": [1557, 1791, 2273, 2304, 2355, 2421, 6056, 8625, 9504, 9688, 12704, 12839, 12953, 13172, 16336, 16403]}, "edge": {"target": [], "time": []}}, "mouseout": {"state": {"target": ["17", "15", "18", "18", "16", "15", "14", "19", "21", "17", "20", "19", "22", "14", "17", "15", "18", "15", "17"], "time": [403, 472, 587, 1590, 2255, 2289, 2338, 2388, 5540, 8574, 9470, 9537, 12655, 12737, 12904, 13038, 16320, 16371, 19539]}, "edge": {"target": [], "time": []}}}, "displayed_time": "25.53", "trialTime": 26908, "trial_type": "mouselab-mdp", "trial_index": 37, "time_elapsed": 1194825, "internal_node_id": "0.0-4.0-1.0-28.0"}}, {"uniqueid": "w97258795:a30622065", "current_trial": 38, "dateTime": 1691072404957, "trialdata": {"revealed_states": [], "clicked_states": ["11", "6", "5", "7"], "num_clicks_accrued": [0, 0, 0, 0, 0, 0, 0, 0, 0, 0, 0, 0, 0], "stateRewards": ["", -1, 1, -5, -6, -78, 47, -13, 12, 48, -88, 20, 2, -3, -2, 13, -20, 37, -57, 14, -38, 30, 31, -2, -2, 8, 2, -23, 78, 28, 12, -74, -88, 8], "withholdReward": false, "trial_id": "mdp_trial_30", "block": "test", "trialIndex": 31, "score": 27.4, "costs": -8.6, "simulationMode": [null, null, null, null, null], "rewards": [-1, 1, -5, -6, 47], "path": ["0", "0", "1", "2", "3", "4", "6"], "rt": [15690, 83, 132, 478, 147], "actions": ["up", "up", "up", "right", "right"], "actionTimes": [17525, 18120, 18769, 19765, 20432], "queries": {"click": {"state": {"target": ["11", "6", "5", "7"], "time": [3061, 7094, 11092, 14285]}, "edge": {"target": [], "time": []}}, "mouseover": {"state": {"target": ["1", "2", "3", "9", "11", "8", "3", "4", "6", "6", "4", "10", "6", "5", "4", "7"], "time": [1983, 2031, 2118, 2350, 2768, 3380, 3399, 3415, 3449, 3829, 6404, 6464, 6899, 10866, 11436, 11561]}, "edge": {"target": [], "time": []}}, "mouseout": {"state": {"target": ["14", "13", "12", "0", "1", "2", "3", "9", "11", "8", "3", "4", "6", "6", "4", "10", "6", "5", "5", "4", "7"], "time": [198, 280, 682, 1933, 2018, 2080, 2251, 2718, 3153, 3397, 3413, 3447, 3496, 6399, 6422, 6683, 7512, 11190, 11400, 11462, 14617]}, "edge": {"target": [], "time": []}}}, "displayed_time": "20.95", "trialTime": 24158, "trial_type": "mouselab-mdp", "trial_index": 38, "time_elapsed": 1219435, "internal_node_id": "0.0-4.0-1.0-29.0"}}, {"uniqueid": "w97258795:a30622065", "current_trial": 39, "dateTime": 1691072430798, "trialdata": {"revealed_states": [], "clicked_states": ["6", "11", "9", "10", "7"], "num_clicks_accrued": [0, 0, 0, 0, 0, 0, 0, 0, 0, 0, 0, 0, 0], "stateRewards": ["", 1, 1, -2, 7, -31, -6, 76, 1, -36, -16, -53, 2, 1, 7, 13, -47, -10, 47, -7, 72, 46, -56, -2, -2, -2, 11, -80, 44, 38, 16, 67, 85, -78], "withholdReward": false, "trial_id": "mdp_trial_31", "block": "test", "trialIndex": 32, "score": 72.25, "costs": -10.75, "simulationMode": [null, null, null, null, null], "rewards": [1, 1, -2, 7, 76], "path": ["0", "0", "1", "2", "3", "4", "7"], "rt": [17475, 111, 135, 4, 43], "actions": ["up", "up", "up", "right", "down"], "actionTimes": [18887, 19510, 20168, 20694, 21267], "queries": {"click": {"state": {"target": ["6", "11", "9", "10", "7"], "time": [2112, 5412, 8588, 11800, 14908]}, "edge": {"target": [], "time": []}}, "mouseover": {"state": {"target": ["6", "4", "3", "8", "11", "9", "9", "8", "10", "2", "7", "5"], "time": [1954, 2548, 2566, 2598, 2700, 5866, 6098, 8966, 9017, 12266, 12349, 15664]}, "edge": {"target": [], "time": []}}, "mouseout": {"state": {"target": ["7", "0", "6", "4", "3", "8", "11", "9", "9", "8", "10", "2", "7"], "time": [700, 1485, 2532, 2565, 2581, 2632, 5783, 5966, 8932, 8998, 12233, 12315, 15314]}, "edge": {"target": [], "time": []}}}, "displayed_time": "21.79", "trialTime": 25365, "trial_type": "mouselab-mdp", "trial_index": 39, "time_elapsed": 1245276, "internal_node_id": "0.0-4.0-1.0-30.0"}}, {"uniqueid": "w97258795:a30622065", "current_trial": 40, "dateTime": 1691072461655, "trialdata": {"revealed_states": [], "clicked_states": ["7", "6", "5", "9", "11", "10"], "num_clicks_accrued": [0, 0, 0, 0, 0, 0, 0, 0, 0, 0, 0, 0, 0], "stateRewards": ["", -2, -4, -2, 10, -8, -15, -47, 7, -84, 53, 5, -1, 2, -7, 3, 83, 31, 47, -1, 30, -8, 69, 2, -4, -1, 8, -7, 12, -8, -8, -13, 30, -84], "withholdReward": false, "trial_id": "mdp_trial_32", "block": "test", "trialIndex": 33, "score": 39.1, "costs": -12.9, "simulationMode": [null, null, null, null, null], "rewards": [-2, -4, -2, 7, 53], "path": ["0", "0", "1", "2", "3", "8", "10"], "rt": [21160, 167, 160, 61, 88], "actions": ["up", "up", "up", "left", "down"], "actionTimes": [25402, 26083, 26760, 27343, 27953], "queries": {"click": {"state": {"target": ["7", "6", "5", "9", "11", "10"], "time": [4865, 7996, 11251, 14614, 17737, 20870]}, "edge": {"target": [], "time": []}}, "mouseover": {"state": {"target": ["7", "7", "6", "5", "9", "11", "11", "10", "27"], "time": [4480, 4696, 5293, 8643, 14462, 15787, 16830, 20198, 23934]}, "edge": {"target": [], "time": []}}, "mouseout": {"state": {"target": ["5", "4", "7", "0", "0", "7", "7", "6", "5", "9", "11", "11", "10", "27"], "time": [183, 300, 3567, 3665, 3883, 4514, 5143, 8325, 11625, 14724, 16348, 18030, 21198, 24716]}, "edge": {"target": [], "time": []}}}, "displayed_time": "28.47", "trialTime": 30382, "trial_type": "mouselab-mdp", "trial_index": 40, "time_elapsed": 1276133, "internal_node_id": "0.0-4.0-1.0-31.0"}}, {"uniqueid": "w97258795:a30622065", "current_trial": 41, "dateTime": 1691072487980, "trialdata": {"revealed_states": [], "clicked_states": ["29", "27", "28", "32", "31", "33"], "num_clicks_accrued": [0, 0, 0, 0, 0, 0, 0, 0, 0, 0, 0, 0, 0], "stateRewards": ["", -2, -2, -7, -13, -10, 49, -68, -1, 84, 70, 88, 1, 4, 4, 12, -57, 25, 30, 8, -1, -77, 57, 2, 3, 2, 3, -18, -80, 23, -15, -41, 70, 11], "withholdReward": false, "trial_id": "mdp_trial_33", "block": "test", "trialIndex": 34, "score": 49.1, "costs": -12.9, "simulationMode": [null, null, null, null, null], "rewards": [2, 3, 2, -15, 70], "path": ["0", "0", "23", "24", "25", "30", "32"], "rt": [19836, 208, 173, 102, 160], "actions": ["left", "left", "left", "down", "down"], "actionTimes": [21001, 21720, 22416, 23027, 23706], "queries": {"click": {"state": {"target": ["29", "27", "28", "32", "31", "33"], "time": [1889, 5006, 8228, 11369, 14622, 17760]}, "edge": {"target": [], "time": []}}, "mouseover": {"state": {"target": ["26", "29", "27", "28", "30", "32", "31", "30", "33", "30"], "time": [1474, 1540, 2504, 5487, 8704, 9120, 11920, 15056, 15124, 18192]}, "edge": {"target": [], "time": []}}, "mouseout": {"state": {"target": ["0", "26", "29", "27", "28", "30", "32", "31", "30", "33", "30"], "time": [1393, 1508, 2305, 5389, 8639, 8736, 11753, 15039, 15091, 18173, 18224]}, "edge": {"target": [], "time": []}}}, "displayed_time": "24.23", "trialTime": 25783, "trial_type": "mouselab-mdp", "trial_index": 41, "time_elapsed": 1302458, "internal_node_id": "0.0-4.0-1.0-32.0"}}, {"uniqueid": "w97258795:a30622065", "current_trial": 42, "dateTime": 1691072504931, "trialdata": {"revealed_states": [], "clicked_states": ["32", "27"], "num_clicks_accrued": [0, 0, 0, 0, 0, 0, 0, 0, 0, 0, 0, 0, 0], "stateRewards": ["", -2, -3, -7, 7, -54, -69, -4, -14, -77, 22, 40, -2, -1, 5, 6, -35, 50, -60, 10, -28, 75, 57, 1, -4, -2, 2, 68, 34, -18, 12, 3, -21, -43], "withholdReward": false, "trial_id": "mdp_trial_34", "block": "test", "trialIndex": 35, "score": 60.7, "costs": -4.3, "simulationMode": [null, null, null, null, null], "rewards": [1, -4, -2, 2, 68], "path": ["0", "0", "23", "24", "25", "26", "27"], "rt": [8068, 184, 193, 120, 120], "actions": ["left", "left", "left", "up", "up"], "actionTimes": [9381, 10072, 10782, 11408, 12045], "queries": {"click": {"state": {"target": ["32", "27"], "time": [2010, 5272]}, "edge": {"target": [], "time": []}}, "mouseover": {"state": {"target": ["0", "31", "32", "27", "7", "6", "4", "3", "8"], "time": [1409, 1537, 1836, 3101, 6385, 6800, 8555, 8606, 8621]}, "edge": {"target": [], "time": []}}, "mouseout": {"state": {"target": ["0", "0", "31", "32", "27", "7", "6", "4", "3", "8"], "time": [936, 1453, 1620, 2301, 5671, 6401, 8541, 8570, 8620, 8654]}, "edge": {"target": [], "time": []}}}, "displayed_time": "15.32", "trialTime": 16478, "trial_type": "mouselab-mdp", "trial_index": 42, "time_elapsed": 1319409, "internal_node_id": "0.0-4.0-1.0-33.0"}}, {"uniqueid": "w97258795:a30622065", "current_trial": 43, "dateTime": 1691072525396, "trialdata": {"revealed_states": [], "clicked_states": ["27", "29", "28"], "num_clicks_accrued": [0, 0, 0, 0, 0, 0, 0, 0, 0, 0, 0, 0, 0], "stateRewards": ["", 1, 4, -8, -13, -13, -87, -77, -10, -44, 54, 42, 2, -3, -4, 12, -9, -80, 52, 9, 84, -2, -65, 1, -4, -5, -6, 8, 80, 32, 13, -59, -5, -13], "withholdReward": false, "trial_id": "mdp_trial_35", "block": "test", "trialIndex": 36, "score": 59.55, "costs": -6.449999999999999, "simulationMode": [null, null, null, null, null], "rewards": [1, -4, -5, -6, 80], "path": ["0", "0", "23", "24", "25", "26", "28"], "rt": [11325, 150, 159, 109, 28], "actions": ["left", "left", "left", "up", "right"], "actionTimes": [12385, 13061, 13736, 14355, 14889], "queries": {"click": {"state": {"target": ["27", "29", "28"], "time": [1717, 5335, 8585]}, "edge": {"target": [], "time": []}}, "mouseover": {"state": {"target": ["28", "27", "28", "28", "29", "26", "28"], "time": [1346, 1481, 2160, 2795, 5096, 5693, 5760]}, "edge": {"target": [], "time": []}}, "mouseout": {"state": {"target": ["1", "0", "28", "27", "28", "28", "29", "26", "28"], "time": [325, 1181, 1414, 2078, 2544, 3010, 5679, 5727, 9011]}, "edge": {"target": [], "time": []}}}, "displayed_time": "15.41", "trialTime": 20013, "trial_type": "mouselab-mdp", "trial_index": 43, "time_elapsed": 1339874, "internal_node_id": "0.0-4.0-1.0-34.0"}}, {"uniqueid": "w97258795:a30622065", "current_trial": 44, "dateTime": 1691072542652, "trialdata": {"revealed_states": [], "clicked_states": ["28", "27"], "num_clicks_accrued": [0, 0, 0, 0, 0, 0, 0, 0, 0, 0, 0, 0, 0], "stateRewards": ["", -2, -1, -2, -15, 87, 57, 29, -10, 77, -80, -7, 1, -3, 6, 14, -11, 87, -59, 4, -71, 16, -11, 2, 2, -7, 2, -47, 61, 50, 14, -20, 17, 81], "withholdReward": false, "trial_id": "mdp_trial_36", "block": "test", "trialIndex": 37, "score": 55.7, "costs": -4.3, "simulationMode": [null, null, null, null, null], "rewards": [2, 2, -7, 2, 61], "path": ["0", "0", "23", "24", "25", "26", "28"], "rt": [7719, 440, 141, 661, 87], "actions": ["left", "left", "left", "up", "right"], "actionTimes": [8922, 9874, 10524, 11696, 12295], "queries": {"click": {"state": {"target": ["28", "27"], "time": [1819, 5642]}, "edge": {"target": [], "time": []}}, "mouseover": {"state": {"target": ["28", "27"], "time": [1651, 2815]}, "edge": {"target": [], "time": []}}, "mouseout": {"state": {"target": ["23", "0", "28", "27"], "time": [338, 1354, 2251, 5964]}, "edge": {"target": [], "time": []}}}, "displayed_time": "15.21", "trialTime": 16814, "trial_type": "mouselab-mdp", "trial_index": 44, "time_elapsed": 1357130, "internal_node_id": "0.0-4.0-1.0-35.0"}}, {"uniqueid": "w97258795:a30622065", "current_trial": 45, "dateTime": 1691072561648, "trialdata": {"revealed_states": [], "clicked_states": ["16", "21", "22"], "num_clicks_accrued": [0, 0, 0, 0, 0, 0, 0, 0, 0, 0, 0, 0, 0], "stateRewards": ["", -1, 2, -7, -12, -62, 12, -13, 5, 77, -71, 83, 1, -4, 7, 15, -42, -87, -4, 5, -25, 44, 88, -1, 4, -5, -8, 14, 51, 8, -5, 83, -24, -19], "withholdReward": false, "trial_id": "mdp_trial_37", "block": "test", "trialIndex": 38, "score": 90.55, "costs": -6.449999999999999, "simulationMode": [null, null, null, null, null], "rewards": [1, -4, 7, 5, 88], "path": ["0", "0", "12", "13", "14", "19", "22"], "rt": [12088, 150, 107, 45, 208], "actions": ["right", "right", "right", "down", "left"], "actionTimes": [13638, 14298, 14915, 15470, 16198], "queries": {"click": {"state": {"target": ["16", "21", "22"], "time": [2233, 5419, 9704]}, "edge": {"target": [], "time": []}}, "mouseover": {"state": {"target": ["18", "16", "15", "14", "21", "32", "19", "22", "19", "20", "20"], "time": [1850, 2016, 2563, 2582, 3079, 8914, 9465, 9631, 9996, 10045, 10312]}, "edge": {"target": [], "time": []}}, "mouseout": {"state": {"target": ["23", "18", "16", "15", "14", "21", "32", "19", "22", "19", "20"], "time": [982, 1883, 2547, 2580, 2596, 6020, 9065, 9549, 9962, 10012, 10095]}, "edge": {"target": [], "time": []}}}, "displayed_time": "16.71", "trialTime": 18551, "trial_type": "mouselab-mdp", "trial_index": 45, "time_elapsed": 1376126, "internal_node_id": "0.0-4.0-1.0-36.0"}}, {"uniqueid": "w97258795:a30622065", "current_trial": 46, "dateTime": 1691072581375, "trialdata": {"revealed_states": [], "clicked_states": ["22", "21", "20"], "num_clicks_accrued": [0, 0, 0, 0, 0, 0, 0, 0, 0, 0, 0, 0, 0], "stateRewards": ["", 1, -3, -4, -11, -56, 61, -47, -16, -28, -9, 69, -2, -3, -4, -8, 40, -86, 59, -4, 80, 27, 54, -1, 3, -1, 8, 67, 23, 50, 6, 83, -43, -29], "withholdReward": false, "trial_id": "mdp_trial_38", "block": "test", "trialIndex": 39, "score": 60.55, "costs": -6.449999999999999, "simulationMode": [null, null, null, null, null], "rewards": [-2, -3, -4, -4, 80], "path": ["0", "0", "12", "13", "14", "19", "20"], "rt": [10803, 147, 150, 232, 433], "actions": ["right", "right", "right", "down", "right"], "actionTimes": [12157, 12827, 13496, 14244, 15195], "queries": {"click": {"state": {"target": ["22", "21", "20"], "time": [2182, 5583, 8983]}, "edge": {"target": [], "time": []}}, "mouseover": {"state": {"target": ["12", "22", "21", "21", "20"], "time": [1626, 2027, 2574, 2890, 6045]}, "edge": {"target": [], "time": []}}, "mouseout": {"state": {"target": ["20", "19", "22", "0", "12", "22", "21", "21", "20", "21"], "time": [41, 257, 308, 993, 1641, 2506, 2657, 5928, 9361, 17113]}, "edge": {"target": [], "time": []}}}, "displayed_time": "15.72", "trialTime": 19247, "trial_type": "mouselab-mdp", "trial_index": 46, "time_elapsed": 1395853, "internal_node_id": "0.0-4.0-1.0-37.0"}}, {"uniqueid": "w97258795:a30622065", "current_trial": 47, "dateTime": 1691072608478, "trialdata": {"revealed_states": [], "clicked_states": ["20", "21", "22", "16", "18", "17"], "num_clicks_accrued": [0, 0, 0, 0, 0, 0, 0, 0, 0, 0, 0, 0, 0], "stateRewards": ["", 2, 3, -3, 4, 72, -28, 34, -12, 57, -64, -15, 2, 1, -4, -15, 2, 49, 31, -1, -42, -58, 31, -2, 1, -2, -13, -75, -19, -22, -6, 61, 10, -56], "withholdReward": false, "trial_id": "mdp_trial_39", "block": "test", "trialIndex": 40, "score": 20.1, "costs": -12.9, "simulationMode": [null, null, null, null, null], "rewards": [2, 1, -4, -15, 49], "path": ["0", "0", "12", "13", "14", "15", "17"], "rt": [20627, 53, 99, 63, 552], "actions": ["right", "right", "right", "up", "right"], "actionTimes": [21745, 22309, 22937, 23520, 24594], "queries": {"click": {"state": {"target": ["20", "21", "22", "16", "18", "17"], "time": [1955, 5237, 8506, 11757, 14892, 18090]}, "edge": {"target": [], "time": []}}, "mouseover": {"state": {"target": ["12", "13", "14", "20", "21", "22", "14", "15", "15", "16", "18", "15", "17"], "time": [1375, 1409, 1461, 1796, 3176, 5760, 8971, 9035, 9202, 9323, 12255, 15269, 15402]}, "edge": {"target": [], "time": []}}, "mouseout": {"state": {"target": ["0", "12", "13", "14", "20", "21", "22", "14", "15", "15", "16", "18", "15", "17"], "time": [1361, 1392, 1446, 1514, 2492, 5575, 8921, 9003, 9103, 9219, 12187, 15237, 15304, 18536]}, "edge": {"target": [], "time": []}}}, "displayed_time": "25.10", "trialTime": 26582, "trial_type": "mouselab-mdp", "trial_index": 47, "time_elapsed": 1422956, "internal_node_id": "0.0-4.0-1.0-38.0"}}, {"uniqueid": "w97258795:a30622065", "current_trial": 48, "dateTime": 1691072660641, "trialdata": {"revealed_states": [], "clicked_states": ["6", "11", "27", "32", "21", "16", "20", "31", "33", "29", "28", "7"], "num_clicks_accrued": [0, 0, 0, 0, 0, 0, 0, 0, 0, 0, 0, 0, 0], "stateRewards": ["", 2, 3, -1, 16, -78, -11, 46, 2, -20, 79, -67, 2, 3, 2, 11, -83, -42, -58, -11, -67, -22, 55, 2, -1, -1, -16, -83, -82, 23, -11, -29, 13, 13], "withholdReward": false, "trial_id": "mdp_trial_40", "block": "test", "trialIndex": 41, "score": 40.2, "costs": -25.799999999999994, "simulationMode": [null, null, null, null, null], "rewards": [2, 3, -1, 16, 46], "path": ["0", "0", "1", "2", "3", "4", "7"], "rt": [45344, 143, 237, 125, 33], "actions": ["up", "up", "up", "right", "down"], "actionTimes": [46665, 47331, 48079, 48713, 49255], "queries": {"click": {"state": {"target": ["6", "11", "27", "32", "21", "16", "20", "31", "33", "29", "28", "7"], "time": [2410, 5726, 10103, 13416, 16811, 20042, 23497, 27442, 30687, 35210, 38440, 42364]}, "edge": {"target": [], "time": []}}, "mouseover": {"state": {"target": ["1", "6", "4", "3", "8", "11", "28", "26", "29", "27", "26", "25", "30", "32", "32", "21", "20", "16", "17", "20", "22", "32", "31", "30", "33", "30", "24", "29", "29", "26", "28", "28", "10", "2", "7", "4", "5", "4"], "time": [1605, 2122, 2701, 2735, 2766, 2953, 9438, 9537, 9754, 9936, 10473, 10522, 10588, 11223, 12756, 14572, 17289, 18221, 20438, 20738, 24136, 27023, 27308, 27869, 28004, 31037, 34673, 34840, 35073, 35521, 35570, 36019, 41790, 41840, 42238, 42786, 42869, 45670]}, "edge": {"target": [], "time": []}}, "mouseout": {"state": {"target": ["14", "13", "12", "1", "6", "4", "3", "8", "11", "28", "26", "29", "27", "26", "25", "30", "32", "32", "21", "20", "16", "17", "20", "22", "32", "31", "30", "33", "30", "24", "29", "29", "26", "28", "28", "10", "2", "7", "4", "5", "4"], "time": [120, 339, 669, 1636, 2687, 2733, 2750, 2802, 6166, 9458, 9552, 9803, 10440, 10505, 10555, 10738, 12138, 13788, 16919, 17521, 20387, 20455, 23871, 26907, 27190, 27837, 27919, 31021, 31054, 34708, 34872, 35503, 35537, 35621, 38837, 41805, 41905, 42481, 42820, 45639, 45723]}, "edge": {"target": [], "time": []}}}, "displayed_time": "49.78", "trialTime": 51612, "trial_type": "mouselab-mdp", "trial_index": 48, "time_elapsed": 1475119, "internal_node_id": "0.0-4.0-1.0-39.0"}}, {"uniqueid": "w97258795:a30622065", "current_trial": 49, "dateTime": 1691072723543, "trialdata": {"rt": 62895, "response": {"Q0": "$-16 to 16", "Q1": "$-32 to $32", "Q2": "$-88 to $88", "Q3": "The cost for clicking on nodes varied between nodes.", "Q4": "Very motivated"}, "question_order": [0, 1, 2, 3, 4], "trial_id": "final_quiz_control", "trial_type": "survey-multi-choice", "trial_index": 49, "time_elapsed": 1538021, "internal_node_id": "0.0-4.0-2.0"}}, {"uniqueid": "w97258795:a30622065", "current_trial": 50, "dateTime": 1691072997864, "trialdata": {"rt": 274315, "response": {"Q0": "Click on the furthest-away nodes, find the highest value node I could out of those ones, and then chart a course to navigate the spider to that node. ", "Q1": "The first couple of rounds, I clicked on basically every node. After about round 3, I kind of realised that was a waste of money; I didn't get rewarded for clicking on nodes (cash added) nearly as much as I got 'punished' by having cash subtracted. So after that, I focused solely on clicking around the furthest-away nodes. If I found a node that was +40 or higher I'd head there, figuring that there was only 1 route to get to each node and I'd always come out with a positive cash result that way. ", "Q2": "Somewhat difficult; the highest-value nodes weren't in the same place every time, or clustered together, so it was kind of hard to guess in advance where they'd be and navigate towards them without clicking around a lot"}, "trial_id": "self_report_control", "trial_type": "survey-text", "trial_index": 50, "time_elapsed": 1812343, "internal_node_id": "0.0-4.0-3.0"}}, {"uniqueid": "w97258795:a30622065", "current_trial": 51, "dateTime": 1691073033208, "trialdata": {"rt": 35336, "response": {"Q0": "Strongly disagree", "Q1": "Disagree", "Q2": "Disagree", "Q3": "Agree", "Q4": "Strongly disagree", "Q5": "Strongly disagree", "Q6": "Strongly agree"}, "question_order": [0, 1, 2, 3, 4, 5, 6], "trial_id": "self_report_2", "trial_type": "survey-multi-choice", "trial_index": 51, "time_elapsed": 1847687, "internal_node_id": "0.0-4.0-4.0"}}, {"uniqueid": "w97258795:a30622065", "current_trial": 52, "dateTime": 1691073060559, "trialdata": {"rt": 27334, "response": {"gender": "female", "age": "29", "colorblind": "0", "effort": "0"}, "trial_type": "survey-html-form", "trial_index": 52, "time_elapsed": 1875038, "internal_node_id": "0.0-4.0-5.0"}}, {"uniqueid": "w97258795:a30622065", "current_trial": 53, "dateTime": 1691073110005, "trialdata": {"rt": 49436, "response": {"Q0": "Not really; I probably should have clicked on more nodes at the 'first level' rather than writing off clicking on these nodes as pointless", "Q1": "No", "Q2": "N/A"}, "trial_type": "survey-text", "trial_index": 53, "time_elapsed": 1924484, "internal_node_id": "0.0-4.0-6.0"}}, {"uniqueid": "w97258795:a30622065", "current_trial": 54, "dateTime": 1691073112279, "trialdata": {"rt": 2265, "stimulus": "Press 'Finish HIT' in order to reach the completion code. Once the data has been saved, you will receive the code either in this window or in the original browser window where you started the experiment.\n", "response": 0, "trial_type": "html-button-response", "trial_index": 54, "time_elapsed": 1926757, "internal_node_id": "0.0-5.0"}}, {"uniqueid": "w97258795:a30622065", "current_trial": 55, "dateTime": 1691073113289, "trialdata": {"success": true, "trial_type": "fullscreen", "trial_index": 55, "time_elapsed": 1927768, "internal_node_id": "0.0-6.0"}}], "questiondata": {"params": {"CODE": "C6DMOQA6", "MIN_TIME": 14, "inspectCost": 1, "startTime": "Thu Aug 03 2023 14:59:44 GMT+0100 (British Summer Time)", "bonusRate": 0.002, "variance": "1_2_4_8_44", "branching": "31123"}, "final_score": 2157.65}, "eventdata": [{"eventtype": "initialized", "value": null, "timestamp": 1691071183023, "interval": 0}, {"eventtype": "window_resize", "value": [1440, 900], "timestamp": 1691071183023, "interval": 0}, {"eventtype": "window_resize", "value": [1440, 900], "timestamp": 1691071183507, "interval": 484}], "useragent": "Mozilla/5.0 (Macintosh; Intel Mac OS X 10_12_6) AppleWebKit/537.36 (KHTML, like Gecko) Chrome/103.0.0.0 Safari/537.36", "mode": "live", "id": "w97258795:a30622065", "status": "user data saved", "Beginhit": "2023-08-03 13:59:42.367605", "Beginexp": "2023-08-03 13:59:49.965349", "Endhit": "2023-08-03 14:31:54.565888", "psiturkStatus": 3, "browser": "<redacted>", "platform": "macos", "language": "en-GB", "excludeReason": "invalidClickStrats"}