{"condition": 0, "counterbalance": 0, "assignmentId": "a99131987", "workerId": "w20188397", "hitId": "h71453665", "currenttrial": 61, "bonus": 0, "data": [{"uniqueid": "w20188397:a99131987", "current_trial": 0, "dateTime": 1693660423483, "trialdata": {"success": true, "trial_type": "fullscreen", "trial_index": 0, "time_elapsed": 58784, "internal_node_id": "0.0-0.0"}}, {"uniqueid": "w20188397:a99131987", "current_trial": 1, "dateTime": 1693660458823, "trialdata": {"view_history": [{"page_index": 0, "viewing_time": 35331}], "rt": 35332, "trial_id": "exp_instructions_control", "trial_type": "instructions", "trial_index": 1, "time_elapsed": 94124, "internal_node_id": "0.0-1.0"}}, {"uniqueid": "w20188397:a99131987", "current_trial": 2, "dateTime": 1693660832553, "trialdata": {"view_history": [{"page_index": 0, "viewing_time": 160909}, {"page_index": 1, "viewing_time": 127181}, {"page_index": 2, "viewing_time": 39303}, {"page_index": 3, "viewing_time": 46313}], "rt": 373706, "trial_id": "mouselab_instructions_1_control", "trial_type": "instructions", "trial_index": 2, "time_elapsed": 467855, "internal_node_id": "0.0-2.0-1.0"}}, {"uniqueid": "w20188397:a99131987", "current_trial": 3, "dateTime": 1693660880756, "trialdata": {"revealed_states": [], "clicked_states": [], "num_clicks_accrued": [0, 0, 0, 0, 0, 0, 0, 0, 0, 0, 0, 0, 0], "stateRewards": ["", 10, 10, -10, -10, -10, 10, -10, 10, -10, 10, -10, -10, -10, 10, -10, 10, 10, -10, -10, 10, 10, 10, 10, -10, 10, 10, -10, -10, -10, -10, 10, -10, -10], "withholdReward": false, "trial_id": "practice_1", "block": "test", "trialIndex": 0, "score": -6.5, "costs": 0, "simulationMode": [null, null, null, null, null], "rewards": [-10, -10, 10, -10, 10], "path": ["0", "0", "12", "13", "14", "19", "21"], "rt": [23049, 265, 624, 227, 508], "actions": ["right", "right", "right", "down", "down"], "actionTimes": [33041, 33805, 34932, 35656, 36670], "queries": {"click": {"state": {"target": [], "time": []}, "edge": {"target": [], "time": []}}, "mouseover": {"state": {"target": ["0", "12", "0"], "time": [10512, 30815, 31232]}, "edge": {"target": [], "time": []}}, "mouseout": {"state": {"target": ["0", "0", "12"], "time": [9189, 30749, 31116]}, "edge": {"target": [], "time": []}}}, "displayed_time": "37.16", "trialTime": 47652, "trial_type": "mouselab-mdp", "trial_index": 3, "time_elapsed": 516057, "internal_node_id": "0.0-2.0-2.0-0.0"}}, {"uniqueid": "w20188397:a99131987", "current_trial": 4, "dateTime": 1693660898520, "trialdata": {"revealed_states": [], "clicked_states": [], "num_clicks_accrued": [0, 0, 0, 0, 0, 0, 0, 0, 0, 0, 0, 0, 0], "stateRewards": ["", 10, -10, 10, -10, -10, -10, 10, -10, 10, 10, -10, -10, 10, 10, 10, 10, -10, -10, 10, 10, 10, -10, 10, -10, 10, -10, -10, -10, 10, -10, 10, 10, 10], "withholdReward": false, "trial_id": "practice_2", "block": "test", "trialIndex": 1, "score": 13.5, "costs": 0, "simulationMode": [null, null, null, null, null], "rewards": [10, -10, 10, -10, 10], "path": ["0", "0", "1", "2", "3", "4", "7"], "rt": [744, 729, 146, 320, 265], "actions": ["up", "up", "up", "right", "down"], "actionTimes": [1916, 3147, 3802, 4626, 5390], "queries": {"click": {"state": {"target": [], "time": []}, "edge": {"target": [], "time": []}}, "mouseover": {"state": {"target": [], "time": []}, "edge": {"target": [], "time": []}}, "mouseout": {"state": {"target": [], "time": []}, "edge": {"target": [], "time": []}}}, "displayed_time": "5.89", "trialTime": 17433, "trial_type": "mouselab-mdp", "trial_index": 4, "time_elapsed": 533822, "internal_node_id": "0.0-2.0-2.0-1.0"}}, {"uniqueid": "w20188397:a99131987", "current_trial": 5, "dateTime": 1693660919398, "trialdata": {"view_history": [{"page_index": 0, "viewing_time": 8772}, {"page_index": 1, "viewing_time": 12102}], "rt": 20874, "trial_id": "mouselab_instructions_2_control", "trial_type": "instructions", "trial_index": 5, "time_elapsed": 554700, "internal_node_id": "0.0-2.0-3.0"}}, {"uniqueid": "w20188397:a99131987", "current_trial": 6, "dateTime": 1693660985190, "trialdata": {"rt": 65778, "response": {"Q0": "The cost for clicking on nodes may vary between nodes.", "Q1": "The better I perform the higher my bonus will be.", "Q2": "No, the structure of the web will be different each time.", "Q3": "To get the highest total score.", "Q4": "Only before moving the spider.", "Q5": "3 seconds"}, "question_order": [0, 1, 2, 3, 4, 5], "correct": {"Q0": "The cost for clicking on nodes may vary between nodes.", "Q1": "The better I perform the higher my bonus will be.", "Q2": "No, the amount of cash at each node of the web may be different each time.", "Q3": "To get the highest total score.", "Q4": "Only before moving the spider.", "Q5": "3 seconds"}, "trial_id": "mouselab_quiz_control", "trial_type": "survey-multi-choice", "trial_index": 6, "time_elapsed": 620492, "internal_node_id": "0.0-2.0-4.0"}}, {"uniqueid": "w20188397:a99131987", "current_trial": 7, "dateTime": 1693661003341, "trialdata": {"success": true, "trial_type": "fullscreen", "trial_index": 7, "time_elapsed": 638643, "internal_node_id": "0.0-2.1-0.1-0.1"}}, {"uniqueid": "w20188397:a99131987", "current_trial": 8, "dateTime": 1693661245999, "trialdata": {"view_history": [{"page_index": 0, "viewing_time": 82533}, {"page_index": 1, "viewing_time": 88649}, {"page_index": 2, "viewing_time": 28682}, {"page_index": 3, "viewing_time": 42783}], "rt": 242648, "trial_id": "mouselab_instructions_1_control", "trial_type": "instructions", "trial_index": 8, "time_elapsed": 881301, "internal_node_id": "0.0-2.1-1.1"}}, {"uniqueid": "w20188397:a99131987", "current_trial": 9, "dateTime": 1693661273157, "trialdata": {"revealed_states": [], "clicked_states": ["2"], "num_clicks_accrued": [0, 0, 0, 0, 0, 0, 0, 0, 0, 0, 0, 0, 0], "stateRewards": ["", 10, 10, -10, -10, -10, 10, -10, 10, -10, 10, -10, -10, -10, 10, -10, 10, 10, -10, -10, 10, 10, 10, 10, -10, 10, 10, -10, -10, -10, -10, 10, -10, -10], "withholdReward": false, "trial_id": "practice_1", "block": "test", "trialIndex": 2, "score": -7, "costs": -0.5, "simulationMode": [null, null, null, null, null], "rewards": [10, 10, -10, -10, -10], "path": ["0", "0", "1", "2", "3", "4", "5"], "rt": [3095, 11, 67, 12915, 855], "actions": ["up", "up", "up", "right", "up"], "actionTimes": [6468, 6985, 7559, 20974, 22333], "queries": {"click": {"state": {"target": ["2"], "time": [5221]}, "edge": {"target": [], "time": []}}, "mouseover": {"state": {"target": ["1", "2"], "time": [4618, 4954]}, "edge": {"target": [], "time": []}}, "mouseout": {"state": {"target": ["0", "1", "2", "7", "3", "2"], "time": [4570, 4667, 11217, 14276, 16968, 18805]}, "edge": {"target": [], "time": []}}}, "displayed_time": "22.83", "trialTime": 26776, "trial_type": "mouselab-mdp", "trial_index": 9, "time_elapsed": 908458, "internal_node_id": "0.0-2.1-2.1-0.1"}}, {"uniqueid": "w20188397:a99131987", "current_trial": 10, "dateTime": 1693661287835, "trialdata": {"revealed_states": [], "clicked_states": ["24"], "num_clicks_accrued": [0, 0, 0, 0, 0, 0, 0, 0, 0, 0, 0, 0, 0], "stateRewards": ["", 10, -10, 10, -10, -10, -10, 10, -10, 10, 10, -10, -10, 10, 10, 10, 10, -10, -10, 10, 10, 10, -10, 10, -10, 10, -10, -10, -10, 10, -10, 10, 10, 10], "withholdReward": false, "trial_id": "practice_2", "block": "test", "trialIndex": 3, "score": -7, "costs": -0.5, "simulationMode": [null, null, null, null, null], "rewards": [10, -10, 10, -10, -10], "path": ["0", "0", "1", "2", "3", "4", "5"], "rt": [3167, 627, 450, 447, 251], "actions": ["up", "up", "up", "right", "up"], "actionTimes": [5162, 6291, 7250, 8200, 8957], "queries": {"click": {"state": {"target": ["24"], "time": [3490]}, "edge": {"target": [], "time": []}}, "mouseover": {"state": {"target": ["23", "24"], "time": [2788, 3140]}, "edge": {"target": [], "time": []}}, "mouseout": {"state": {"target": ["3", "2", "1", "0", "23", "24", "25"], "time": [766, 817, 848, 2636, 3073, 13532, 13601]}, "edge": {"target": [], "time": []}}}, "displayed_time": "9.46", "trialTime": 14309, "trial_type": "mouselab-mdp", "trial_index": 10, "time_elapsed": 923137, "internal_node_id": "0.0-2.1-2.1-1.1"}}, {"uniqueid": "w20188397:a99131987", "current_trial": 11, "dateTime": 1693661326063, "trialdata": {"view_history": [{"page_index": 0, "viewing_time": 34083}, {"page_index": 1, "viewing_time": 4140}], "rt": 38223, "trial_id": "mouselab_instructions_2_control", "trial_type": "instructions", "trial_index": 11, "time_elapsed": 961365, "internal_node_id": "0.0-2.1-3.1"}}, {"uniqueid": "w20188397:a99131987", "current_trial": 12, "dateTime": 1693661426136, "trialdata": {"rt": 100066, "response": {"Q0": "The cost for clicking on nodes may vary between nodes.", "Q1": "The better I perform the higher my bonus will be.", "Q2": "No, the amount of cash at each node of the web may be different each time.", "Q3": "To get the highest total score.", "Q4": "Only before moving the spider.", "Q5": "3 seconds"}, "question_order": [0, 1, 2, 3, 4, 5], "correct": {"Q0": "The cost for clicking on nodes may vary between nodes.", "Q1": "The better I perform the higher my bonus will be.", "Q2": "No, the amount of cash at each node of the web may be different each time.", "Q3": "To get the highest total score.", "Q4": "Only before moving the spider.", "Q5": "3 seconds"}, "trial_id": "mouselab_quiz_control", "trial_type": "survey-multi-choice", "trial_index": 12, "time_elapsed": 1061438, "internal_node_id": "0.0-2.1-4.1"}}, {"uniqueid": "w20188397:a99131987", "current_trial": 13, "dateTime": 1693661433016, "trialdata": {"rt": 6871, "response": {"Q0": "No"}, "question_order": [0], "trial_id": "repeat_check", "trial_type": "survey-multi-choice", "trial_index": 13, "time_elapsed": 1068318, "internal_node_id": "0.0-4.0-0.0"}}, {"uniqueid": "w20188397:a99131987", "current_trial": 14, "dateTime": 1693661446880, "trialdata": {"rt": 13855, "stimulus": "\n<h1> Get ready to start the game! </h1>\n\nThank you for reading the instructions. Get ready start with the 40 rounds of this game.\n<br><br>\nIf you need to take a break, feel free to take one after the end of a round, before continuing to the next one.\n<br><br>\nRemember, the more money the spider gets, the bigger your bonus will be!\n<br><br>\n<div style='text-align: center;'>Press <code>space</code> to begin.</div>\n\n<br><br>\n(If, at any point, the <code>space</code> key does not take you to the next page, click once on the text and try again.)", "response": " ", "trial_id": "mdp_ready", "trial_type": "html-keyboard-response", "trial_index": 14, "time_elapsed": 1082181, "internal_node_id": "0.0-6.0-0.0"}}, {"uniqueid": "w20188397:a99131987", "current_trial": 15, "dateTime": 1693661469224, "trialdata": {"revealed_states": [], "clicked_states": [], "num_clicks_accrued": [0, 0, 0, 0, 0, 0, 0, 0, 0, 0, 0, 0, 0], "stateRewards": ["", -1, -3, 1, -4, -48, -63, -49, -2, -84, -19, 65, 2, -2, -2, -12, -4, 59, 9, 6, 75, 69, -13, -1, -3, -3, -2, -37, -68, -36, 13, 32, 18, -14], "withholdReward": false, "trial_id": "mdp_trial_1", "block": "test", "trialIndex": 4, "score": 24, "costs": 0, "simulationMode": [null, null, null, null, null], "rewards": [-1, -3, -3, 13, 18], "path": ["0", "0", "23", "24", "25", "30", "32"], "rt": [1197, 607, 38, 549, 104], "actions": ["left", "left", "left", "down", "down"], "actionTimes": [5993, 7110, 7650, 8706, 9314], "queries": {"click": {"state": {"target": [], "time": []}, "edge": {"target": [], "time": []}}, "mouseover": {"state": {"target": [], "time": []}, "edge": {"target": [], "time": []}}, "mouseout": {"state": {"target": ["0", "0", "0"], "time": [2857, 3344, 12635]}, "edge": {"target": [], "time": []}}}, "displayed_time": "18.80", "trialTime": 21899, "trial_type": "mouselab-mdp", "trial_index": 15, "time_elapsed": 1104526, "internal_node_id": "0.0-6.0-1.0-0.0"}}, {"uniqueid": "w20188397:a99131987", "current_trial": 16, "dateTime": 1693661492824, "trialdata": {"revealed_states": [], "clicked_states": ["14", "25"], "num_clicks_accrued": [0, 0, 0, 0, 0, 0, 0, 0, 0, 0, 0, 0, 0], "stateRewards": ["", -2, -4, -2, -13, -15, 87, -19, -6, -80, 30, 12, 1, 1, -8, 2, 55, 56, 15, 11, -68, -7, 55, -2, 3, -3, -3, 48, 62, 4, 1, -3, 69, -33], "withholdReward": false, "trial_id": "mdp_trial_2", "block": "test", "trialIndex": 5, "score": 63.2, "costs": -2.8, "simulationMode": [null, null, null, null, null], "rewards": [-2, -4, -2, -13, 87], "path": ["0", "0", "1", "2", "3", "4", "6"], "rt": [8502, 781, 56, 458, 2], "actions": ["up", "up", "up", "right", "right"], "actionTimes": [12091, 13379, 13940, 14911, 15409], "queries": {"click": {"state": {"target": ["14", "25"], "time": [6238, 8000]}, "edge": {"target": [], "time": []}}, "mouseover": {"state": {"target": ["18", "15", "14", "25", "26", "3"], "time": [4226, 4372, 5963, 7758, 8790, 9222]}, "edge": {"target": [], "time": []}}, "mouseout": {"state": {"target": ["32", "31", "0", "0", "18", "15", "14", "25", "26"], "time": [886, 947, 1264, 4127, 4307, 5928, 7283, 8788, 8803]}, "edge": {"target": [], "time": []}}}, "displayed_time": "17.60", "trialTime": 23199, "trial_type": "mouselab-mdp", "trial_index": 16, "time_elapsed": 1128125, "internal_node_id": "0.0-6.0-1.0-1.0"}}, {"uniqueid": "w20188397:a99131987", "current_trial": 17, "dateTime": 1693661519852, "trialdata": {"revealed_states": [], "clicked_states": ["32"], "num_clicks_accrued": [0, 0, 0, 0, 0, 0, 0, 0, 0, 0, 0, 0, 0], "stateRewards": ["", -2, 1, 6, -2, -10, -78, -69, 14, -15, 7, -1, 1, -1, -2, 13, 77, 32, 87, 5, -74, 30, -26, 1, 3, 4, 12, 39, 54, -43, 2, 10, 23, 13], "withholdReward": false, "trial_id": "mdp_trial_3", "block": "test", "trialIndex": 6, "score": 16.6, "costs": -1.4, "simulationMode": [null, null, null, null, null], "rewards": [-2, 1, 6, 14, -1], "path": ["0", "0", "1", "2", "3", "8", "11"], "rt": [5890, 640, 86, 193, 78], "actions": ["up", "up", "up", "left", "left"], "actionTimes": [12300, 13444, 14028, 14720, 15305], "queries": {"click": {"state": {"target": ["32"], "time": [9393]}, "edge": {"target": [], "time": []}}, "mouseover": {"state": {"target": ["31", "32", "31"], "time": [8409, 9195, 10498]}, "edge": {"target": [], "time": []}}, "mouseout": {"state": {"target": ["3", "2", "0", "31", "32"], "time": [1439, 1488, 7944, 9076, 10114]}, "edge": {"target": [], "time": []}}}, "displayed_time": "20.42", "trialTime": 26638, "trial_type": "mouselab-mdp", "trial_index": 17, "time_elapsed": 1155154, "internal_node_id": "0.0-6.0-1.0-2.0"}}, {"uniqueid": "w20188397:a99131987", "current_trial": 18, "dateTime": 1693661542806, "trialdata": {"revealed_states": [], "clicked_states": ["1", "23", "12"], "num_clicks_accrued": [0, 0, 0, 0, 0, 0, 0, 0, 0, 0, 0, 0, 0], "stateRewards": ["", -1, 3, -7, 16, -32, -74, -48, 2, 10, 15, -30, 1, 1, -2, 10, 12, -83, 67, 13, -66, 47, 65, -2, 4, 2, -14, -8, -57, 24, 9, 65, 12, 46], "withholdReward": false, "trial_id": "mdp_trial_4", "block": "test", "trialIndex": 7, "score": -37.2, "costs": -4.199999999999999, "simulationMode": [null, null, null, null, null], "rewards": [-1, 3, -7, 2, -30], "path": ["0", "0", "1", "2", "3", "8", "11"], "rt": [7818, 128, 20, 1559, 862], "actions": ["up", "up", "up", "left", "left"], "actionTimes": [10969, 11600, 12129, 14202, 15562], "queries": {"click": {"state": {"target": ["1", "23", "12"], "time": [5516, 7377, 9280]}, "edge": {"target": [], "time": []}}, "mouseover": {"state": {"target": ["12", "1", "1", "23", "0", "12"], "time": [4069, 4936, 5338, 6312, 8047, 8295]}, "edge": {"target": [], "time": []}}, "mouseout": {"state": {"target": ["31", "0", "12", "0", "12", "1", "1", "1", "23", "0"], "time": [443, 524, 776, 4000, 4837, 5121, 5679, 6275, 8014, 8147]}, "edge": {"target": [], "time": []}}}, "displayed_time": "17.16", "trialTime": 22556, "trial_type": "mouselab-mdp", "trial_index": 18, "time_elapsed": 1178107, "internal_node_id": "0.0-6.0-1.0-3.0"}}, {"uniqueid": "w20188397:a99131987", "current_trial": 19, "dateTime": 1693661565041, "trialdata": {"revealed_states": [], "clicked_states": [], "num_clicks_accrued": [0, 0, 0, 0, 0, 0, 0, 0, 0, 0, 0, 0, 0], "stateRewards": ["", 1, -1, -7, -7, -22, 15, -13, 13, 26, -32, 38, -1, 1, -7, -4, 16, -62, 86, 12, -54, 56, 64, -2, -1, 6, 14, -57, 37, 62, -6, -25, 50, -70], "withholdReward": false, "trial_id": "mdp_trial_5", "block": "test", "trialIndex": 8, "score": 54, "costs": 0, "simulationMode": [null, null, null, null, null], "rewards": [-2, -1, 6, 14, 37], "path": ["0", "0", "23", "24", "25", "26", "28"], "rt": [7200, 527, 89, 476, 383], "actions": ["left", "left", "left", "up", "right"], "actionTimes": [8897, 9926, 10525, 11496, 12373], "queries": {"click": {"state": {"target": [], "time": []}, "edge": {"target": [], "time": []}}, "mouseover": {"state": {"target": ["23", "24", "24", "28"], "time": [2799, 2946, 4334, 4419]}, "edge": {"target": [], "time": []}}, "mouseout": {"state": {"target": ["12", "0", "23", "24", "24", "28"], "time": [927, 2748, 2881, 3883, 4388, 18477]}, "edge": {"target": [], "time": []}}}, "displayed_time": "15.70", "trialTime": 21862, "trial_type": "mouselab-mdp", "trial_index": 19, "time_elapsed": 1200343, "internal_node_id": "0.0-6.0-1.0-4.0"}}, {"uniqueid": "w20188397:a99131987", "current_trial": 20, "dateTime": 1693661584804, "trialdata": {"revealed_states": [], "clicked_states": ["15", "27", "9"], "num_clicks_accrued": [0, 0, 0, 0, 0, 0, 0, 0, 0, 0, 0, 0, 0], "stateRewards": ["", -2, 3, 8, -9, 59, 41, -50, -1, 82, 66, 33, 2, -2, 7, 8, 1, -38, 12, -16, 24, -37, 67, 1, 4, -2, 5, 35, -83, 28, 8, -27, 69, -64], "withholdReward": false, "trial_id": "mdp_trial_6", "block": "test", "trialIndex": 9, "score": 38.8, "costs": -4.199999999999999, "simulationMode": [null, null, null, null, null], "rewards": [1, 4, -2, 5, 35], "path": ["0", "0", "23", "24", "25", "26", "27"], "rt": [8125, 969, 141, 962, 121], "actions": ["left", "left", "left", "up", "up"], "actionTimes": [9980, 11452, 12093, 13548, 14166], "queries": {"click": {"state": {"target": ["15", "27", "9"], "time": [3632, 5359, 7675]}, "edge": {"target": [], "time": []}}, "mouseover": {"state": {"target": ["12", "15", "18", "28", "27", "27", "10", "8", "9"], "time": [2778, 3113, 4482, 4768, 4844, 5250, 6539, 6840, 7006]}, "edge": {"target": [], "time": []}}, "mouseout": {"state": {"target": ["1", "12", "15", "18", "28", "27", "27", "10", "8"], "time": [1123, 2826, 4465, 4501, 4791, 4946, 5482, 6806, 6925]}, "edge": {"target": [], "time": []}}}, "displayed_time": "15.86", "trialTime": 19328, "trial_type": "mouselab-mdp", "trial_index": 20, "time_elapsed": 1220105, "internal_node_id": "0.0-6.0-1.0-5.0"}}, {"uniqueid": "w20188397:a99131987", "current_trial": 21, "dateTime": 1693661602844, "trialdata": {"revealed_states": [], "clicked_states": [], "num_clicks_accrued": [0, 0, 0, 0, 0, 0, 0, 0, 0, 0, 0, 0, 0], "stateRewards": ["", -1, 2, -6, 6, -82, -19, -39, -16, -83, 11, -33, -2, -2, 4, -6, -82, -1, -19, -6, -10, -67, -41, -2, 1, -7, 16, -23, -78, -52, 14, 31, -71, 74], "withholdReward": false, "trial_id": "mdp_trial_7", "block": "test", "trialIndex": 10, "score": -10, "costs": 0, "simulationMode": [null, null, null, null, null], "rewards": [-1, 2, -6, -16, 11], "path": ["0", "0", "1", "2", "3", "8", "10"], "rt": [2191, 484, 423, 298, 192], "actions": ["up", "up", "up", "left", "down"], "actionTimes": [3963, 4951, 5870, 6666, 7361], "queries": {"click": {"state": {"target": [], "time": []}, "edge": {"target": [], "time": []}}, "mouseover": {"state": {"target": [], "time": []}, "edge": {"target": [], "time": []}}, "mouseout": {"state": {"target": ["9", "3", "0", "0"], "time": [685, 751, 1120, 11149]}, "edge": {"target": [], "time": []}}}, "displayed_time": "15.79", "trialTime": 17645, "trial_type": "mouselab-mdp", "trial_index": 21, "time_elapsed": 1238146, "internal_node_id": "0.0-6.0-1.0-6.0"}}, {"uniqueid": "w20188397:a99131987", "current_trial": 22, "dateTime": 1693661624165, "trialdata": {"revealed_states": [], "clicked_states": ["32", "9"], "num_clicks_accrued": [0, 0, 0, 0, 0, 0, 0, 0, 0, 0, 0, 0, 0], "stateRewards": ["", -2, 4, -3, -13, 63, -36, 62, 11, 78, 34, -51, 2, -2, 8, -6, -40, -18, 31, 9, 64, 39, 79, 1, 4, -4, 15, -12, 76, 73, -10, -77, 86, -4], "withholdReward": false, "trial_id": "mdp_trial_8", "block": "test", "trialIndex": 11, "score": 74.2, "costs": -2.8, "simulationMode": [null, null, null, null, null], "rewards": [1, 4, -4, -10, 86], "path": ["0", "0", "23", "24", "25", "30", "32"], "rt": [7815, 14, 105, 512, 475], "actions": ["left", "left", "left", "down", "down"], "actionTimes": [9144, 9659, 10285, 11300, 12280], "queries": {"click": {"state": {"target": ["32", "9"], "time": [2756, 5853]}, "edge": {"target": [], "time": []}}, "mouseover": {"state": {"target": ["31", "32", "30", "24", "28", "10", "8", "9"], "time": [2309, 2510, 3461, 3544, 3601, 3726, 3847, 4879]}, "edge": {"target": [], "time": []}}, "mouseout": {"state": {"target": ["0", "31", "32", "30", "24", "28", "10", "8", "9", "8", "10"], "time": [2109, 2374, 3427, 3494, 3570, 3644, 3740, 4415, 15059, 15143, 18251]}, "edge": {"target": [], "time": []}}}, "displayed_time": "15.34", "trialTime": 20902, "trial_type": "mouselab-mdp", "trial_index": 22, "time_elapsed": 1259467, "internal_node_id": "0.0-6.0-1.0-7.0"}}, {"uniqueid": "w20188397:a99131987", "current_trial": 23, "dateTime": 1693661647614, "trialdata": {"revealed_states": [], "clicked_states": ["17", "29", "33", "32", "9", "5"], "num_clicks_accrued": [0, 0, 0, 0, 0, 0, 0, 0, 0, 0, 0, 0, 0], "stateRewards": ["", -1, 2, 5, -6, 13, -64, -47, 8, -79, -80, -33, 1, 2, -2, -16, 56, -71, -10, 3, 29, 44, 85, -1, 4, 5, 4, -36, -56, 19, 8, 52, -13, -2], "withholdReward": false, "trial_id": "mdp_trial_9", "block": "test", "trialIndex": 12, "score": 22.6, "costs": -8.4, "simulationMode": [null, null, null, null, null], "rewards": [-1, 4, 5, 4, 19], "path": ["0", "0", "23", "24", "25", "26", "29"], "rt": [14487, 20, 10, 477, 910], "actions": ["left", "left", "left", "up", "left"], "actionTimes": [16258, 16780, 17307, 18291, 19709], "queries": {"click": {"state": {"target": ["17", "29", "33", "32", "9", "5"], "time": [2784, 5640, 7439, 9483, 11829, 14240]}, "edge": {"target": [], "time": []}}, "mouseover": {"state": {"target": ["12", "13", "14", "17", "18", "24", "25", "29", "33", "32", "30", "24", "28", "8", "9", "5"], "time": [2188, 2209, 2237, 2589, 3427, 3492, 3525, 3876, 6553, 8345, 10311, 10409, 10725, 10828, 11614, 14037]}, "edge": {"target": [], "time": []}}, "mouseout": {"state": {"target": ["2", "1", "0", "12", "13", "14", "17", "18", "24", "25", "29", "33", "32", "30", "24", "28", "8", "9"], "time": [1020, 1069, 2172, 2204, 2219, 2253, 3407, 3440, 3509, 3607, 6366, 8253, 9612, 10365, 10428, 10779, 10862, 11970]}, "edge": {"target": [], "time": []}}}, "displayed_time": "20.20", "trialTime": 23024, "trial_type": "mouselab-mdp", "trial_index": 23, "time_elapsed": 1282915, "internal_node_id": "0.0-6.0-1.0-8.0"}}, {"uniqueid": "w20188397:a99131987", "current_trial": 24, "dateTime": 1693661666405, "trialdata": {"revealed_states": [], "clicked_states": ["17", "21"], "num_clicks_accrued": [0, 0, 0, 0, 0, 0, 0, 0, 0, 0, 0, 0, 0], "stateRewards": ["", 1, -1, 1, -14, -10, 67, -28, -11, 72, 40, -65, -1, 1, 1, -2, 8, -55, 34, -10, 61, 33, -15, 2, -4, 7, 4, -75, 63, -21, -16, 61, 19, 21], "withholdReward": false, "trial_id": "mdp_trial_10", "block": "test", "trialIndex": 13, "score": 21.2, "costs": -2.8, "simulationMode": [null, null, null, null, null], "rewards": [-1, 1, 1, -10, 33], "path": ["0", "0", "12", "13", "14", "19", "21"], "rt": [7806, 275, 123, 286, 31], "actions": ["right", "right", "right", "down", "down"], "actionTimes": [9101, 9871, 10488, 11269, 11799], "queries": {"click": {"state": {"target": ["17", "21"], "time": [2877, 6816]}, "edge": {"target": [], "time": []}}, "mouseover": {"state": {"target": ["15", "17", "17", "20", "21", "21"], "time": [2009, 2043, 2341, 5470, 6386, 6621]}, "edge": {"target": [], "time": []}}, "mouseout": {"state": {"target": ["5", "15", "17", "17", "20", "21", "21"], "time": [369, 2025, 2160, 5185, 6121, 6437, 7809]}, "edge": {"target": [], "time": []}}}, "displayed_time": "15.30", "trialTime": 18405, "trial_type": "mouselab-mdp", "trial_index": 24, "time_elapsed": 1301706, "internal_node_id": "0.0-6.0-1.0-9.0"}}, {"uniqueid": "w20188397:a99131987", "current_trial": 25, "dateTime": 1693661689292, "trialdata": {"revealed_states": [], "clicked_states": ["3", "9", "5"], "num_clicks_accrued": [0, 0, 0, 0, 0, 0, 0, 0, 0, 0, 0, 0, 0], "stateRewards": ["", 1, 2, -3, -5, 66, -50, -47, -5, 1, 28, -27, 1, 1, -1, -6, 37, -25, 56, 1, -82, -66, -40, -1, -4, -7, 15, -61, -23, 26, 10, 14, -56, 29], "withholdReward": false, "trial_id": "mdp_trial_11", "block": "test", "trialIndex": 14, "score": 56.8, "costs": -4.199999999999999, "simulationMode": [null, null, null, null, null], "rewards": [1, 2, -3, -5, 66], "path": ["0", "0", "1", "2", "3", "4", "5"], "rt": [10709, 552, 345, 562, 48], "actions": ["up", "up", "up", "right", "up"], "actionTimes": [15692, 16746, 17591, 18659, 19200], "queries": {"click": {"state": {"target": ["3", "9", "5"], "time": [7267, 10397, 12977]}, "edge": {"target": [], "time": []}}, "mouseover": {"state": {"target": ["1", "2", "3", "2", "3", "9", "5"], "time": [6201, 6249, 6283, 6602, 6818, 8126, 12753]}, "edge": {"target": [], "time": []}}, "mouseout": {"state": {"target": ["0", "1", "2", "3", "2", "3", "9", "5"], "time": [6153, 6234, 6267, 6420, 6701, 7822, 12617, 22096]}, "edge": {"target": [], "time": []}}}, "displayed_time": "19.72", "trialTime": 22523, "trial_type": "mouselab-mdp", "trial_index": 25, "time_elapsed": 1324594, "internal_node_id": "0.0-6.0-1.0-10.0"}}, {"uniqueid": "w20188397:a99131987", "current_trial": 26, "dateTime": 1693661707507, "trialdata": {"revealed_states": [], "clicked_states": ["28", "31", "29"], "num_clicks_accrued": [0, 0, 0, 0, 0, 0, 0, 0, 0, 0, 0, 0, 0], "stateRewards": ["", 2, 3, -6, -5, -3, 55, 40, 11, 61, 11, 51, 2, -4, -6, 9, -25, 29, -15, -6, 7, -77, -2, -2, -4, 1, 14, -43, -1, 56, -12, -54, 41, -74], "withholdReward": false, "trial_id": "mdp_trial_12", "block": "test", "trialIndex": 15, "score": 60.8, "costs": -4.199999999999999, "simulationMode": [null, null, null, null, null], "rewards": [-2, -4, 1, 14, 56], "path": ["0", "0", "23", "24", "25", "26", "29"], "rt": [10286, 565, 101, 891, 590], "actions": ["left", "left", "left", "up", "left"], "actionTimes": [11851, 12911, 13516, 14908, 15994], "queries": {"click": {"state": {"target": ["28", "31", "29"], "time": [3428, 6071, 9428]}, "edge": {"target": [], "time": []}}, "mouseover": {"state": {"target": ["23", "24", "25", "29", "26", "28", "24", "31", "29"], "time": [2268, 2284, 2319, 2586, 3118, 3169, 4325, 4593, 9204]}, "edge": {"target": [], "time": []}}, "mouseout": {"state": {"target": ["2", "1", "0", "23", "24", "25", "29", "26", "28", "24", "31"], "time": [844, 879, 2232, 2280, 2317, 2351, 3085, 3134, 4292, 4460, 8802]}, "edge": {"target": [], "time": []}}}, "displayed_time": "16.50", "trialTime": 17787, "trial_type": "mouselab-mdp", "trial_index": 26, "time_elapsed": 1342809, "internal_node_id": "0.0-6.0-1.0-11.0"}}, {"uniqueid": "w20188397:a99131987", "current_trial": 27, "dateTime": 1693661726234, "trialdata": {"revealed_states": [], "clicked_states": ["27", "11"], "num_clicks_accrued": [0, 0, 0, 0, 0, 0, 0, 0, 0, 0, 0, 0, 0], "stateRewards": ["", -1, 3, -4, -14, 78, 67, 2, 13, -32, 28, 39, -2, 1, -4, -4, -4, -42, -86, 11, 64, -29, -32, -1, -4, 2, -7, 5, 68, -61, 2, -21, 85, 50], "withholdReward": false, "trial_id": "mdp_trial_13", "block": "test", "trialIndex": 16, "score": 47.2, "costs": -2.8, "simulationMode": [null, null, null, null, null], "rewards": [-1, 3, -4, 13, 39], "path": ["0", "0", "1", "2", "3", "8", "11"], "rt": [7082, 670, 80, 428, 52], "actions": ["up", "up", "up", "left", "left"], "actionTimes": [9799, 10971, 11550, 12481, 13042], "queries": {"click": {"state": {"target": ["27", "11"], "time": [4688, 7813]}, "edge": {"target": [], "time": []}}, "mouseover": {"state": {"target": ["23", "28", "27", "8", "11"], "time": [3447, 3547, 4215, 7241, 7576]}, "edge": {"target": [], "time": []}}, "mouseout": {"state": {"target": ["29", "26", "23", "0", "23", "28", "27", "8", "11", "11", "10", "23"], "time": [888, 938, 1407, 3397, 3497, 3600, 7126, 7479, 14175, 14326, 14408, 17572]}, "edge": {"target": [], "time": []}}}, "displayed_time": "16.72", "trialTime": 18357, "trial_type": "mouselab-mdp", "trial_index": 27, "time_elapsed": 1361535, "internal_node_id": "0.0-6.0-1.0-12.0"}}, {"uniqueid": "w20188397:a99131987", "current_trial": 28, "dateTime": 1693661745197, "trialdata": {"revealed_states": [], "clicked_states": [], "num_clicks_accrued": [0, 0, 0, 0, 0, 0, 0, 0, 0, 0, 0, 0, 0], "stateRewards": ["", -1, 3, 2, 9, 41, 4, -46, -12, -54, -87, -25, 2, 3, -1, 11, -77, 12, -33, -9, -32, 35, 72, 1, 3, -7, 4, 37, 65, -73, 6, 77, -43, 8], "withholdReward": false, "trial_id": "mdp_trial_14", "block": "test", "trialIndex": 17, "score": -40, "costs": 0, "simulationMode": [null, null, null, null, null], "rewards": [1, 3, -7, 6, -43], "path": ["0", "0", "23", "24", "25", "30", "32"], "rt": [8035, 104, 94, 712, 43], "actions": ["left", "left", "left", "down", "down"], "actionTimes": [10953, 11552, 12145, 13363, 13898], "queries": {"click": {"state": {"target": [], "time": []}, "edge": {"target": [], "time": []}}, "mouseover": {"state": {"target": ["1", "2", "3", "10", "24", "31", "32", "23"], "time": [4213, 4628, 4681, 5163, 5213, 5234, 5614, 7489]}, "edge": {"target": [], "time": []}}, "mouseout": {"state": {"target": ["0", "1", "2", "3", "10", "24", "31", "32", "23"], "time": [4097, 4614, 4663, 5132, 5181, 5232, 5514, 7437, 7504]}, "edge": {"target": [], "time": []}}}, "displayed_time": "16.93", "trialTime": 18533, "trial_type": "mouselab-mdp", "trial_index": 28, "time_elapsed": 1380498, "internal_node_id": "0.0-6.0-1.0-13.0"}}, {"uniqueid": "w20188397:a99131987", "current_trial": 29, "dateTime": 1693661762433, "trialdata": {"revealed_states": [], "clicked_states": ["9"], "num_clicks_accrued": [0, 0, 0, 0, 0, 0, 0, 0, 0, 0, 0, 0, 0], "stateRewards": ["", 2, 3, 6, -12, -29, 12, 87, 4, 35, -30, 67, 2, 3, -5, -9, 44, 69, -8, 1, 45, -8, 28, -2, -1, -8, 11, -12, -5, 81, 9, 87, 82, 88], "withholdReward": false, "trial_id": "mdp_trial_15", "block": "test", "trialIndex": 18, "score": 48.6, "costs": -1.4, "simulationMode": [null, null, null, null, null], "rewards": [2, 3, 6, 4, 35], "path": ["0", "0", "1", "2", "3", "8", "9"], "rt": [4661, 489, 88, 350, 452], "actions": ["up", "up", "up", "left", "up"], "actionTimes": [5751, 6735, 7320, 8167, 9122], "queries": {"click": {"state": {"target": ["9"], "time": [3008]}, "edge": {"target": [], "time": []}}, "mouseover": {"state": {"target": ["1", "2", "3", "9"], "time": [1536, 1799, 2315, 2772]}, "edge": {"target": [], "time": []}}, "mouseout": {"state": {"target": ["0", "0", "1", "2", "3", "9", "3", "2"], "time": [351, 1449, 1717, 2285, 2466, 11577, 11657, 11691]}, "edge": {"target": [], "time": []}}}, "displayed_time": "15.10", "trialTime": 16844, "trial_type": "mouselab-mdp", "trial_index": 29, "time_elapsed": 1397734, "internal_node_id": "0.0-6.0-1.0-14.0"}}, {"uniqueid": "w20188397:a99131987", "current_trial": 30, "dateTime": 1693661781063, "trialdata": {"revealed_states": [], "clicked_states": ["6", "5"], "num_clicks_accrued": [0, 0, 0, 0, 0, 0, 0, 0, 0, 0, 0, 0, 0], "stateRewards": ["", 1, 1, -7, -9, -44, 24, -83, -15, 44, -24, 72, -2, -3, 4, -5, 57, 55, 29, -11, 22, 12, -25, -1, 2, 7, 12, 33, -8, 47, -4, 8, 50, -4], "withholdReward": false, "trial_id": "mdp_trial_16", "block": "test", "trialIndex": 19, "score": 7.199999999999999, "costs": -2.8, "simulationMode": [null, null, null, null, null], "rewards": [1, 1, -7, -9, 24], "path": ["0", "0", "1", "2", "3", "4", "6"], "rt": [8125, 117, 4, 556, 62], "actions": ["up", "up", "up", "right", "right"], "actionTimes": [9828, 10444, 10949, 12020, 12581], "queries": {"click": {"state": {"target": ["6", "5"], "time": [3189, 6562]}, "edge": {"target": [], "time": []}}, "mouseover": {"state": {"target": ["6", "5"], "time": [2756, 4515]}, "edge": {"target": [], "time": []}}, "mouseout": {"state": {"target": ["12", "0", "6", "5", "4"], "time": [1085, 2405, 3287, 13902, 14053]}, "edge": {"target": [], "time": []}}}, "displayed_time": "15.70", "trialTime": 18217, "trial_type": "mouselab-mdp", "trial_index": 30, "time_elapsed": 1416364, "internal_node_id": "0.0-6.0-1.0-15.0"}}, {"uniqueid": "w20188397:a99131987", "current_trial": 31, "dateTime": 1693661799073, "trialdata": {"revealed_states": [], "clicked_states": ["29", "28", "32"], "num_clicks_accrued": [0, 0, 0, 0, 0, 0, 0, 0, 0, 0, 0, 0, 0], "stateRewards": ["", 2, -1, 1, 10, -52, 86, -22, -2, -14, -63, 38, 1, 3, 7, -8, 11, -32, -27, 9, -71, 40, -87, -2, -1, 5, -7, 12, 31, -57, 13, 86, -58, 29], "withholdReward": false, "trial_id": "mdp_trial_17", "block": "test", "trialIndex": 20, "score": 21.8, "costs": -4.199999999999999, "simulationMode": [null, null, null, null, null, null], "rewards": [-2, -1, 5, -7, 31], "path": ["0", "0", "23", "24", "25", "26", "28"], "rt": [8883, 688, 107, 4, 501, 136], "actions": ["left", "left", "left", "left", "up", "right"], "actionTimes": [10569, 11263, 11871, 12370, 13385, 14023], "queries": {"click": {"state": {"target": ["29", "28", "32"], "time": [4306, 6778, 9215]}, "edge": {"target": [], "time": []}}, "mouseover": {"state": {"target": ["1", "24", "25", "29", "25", "28", "25", "30", "32"], "time": [2704, 3301, 3584, 4139, 5766, 6500, 7466, 7833, 8105]}, "edge": {"target": [], "time": []}}, "mouseout": {"state": {"target": ["1", "1", "24", "25", "29", "25", "28", "25", "30"], "time": [995, 2754, 3521, 3670, 5471, 6264, 7390, 7485, 7952]}, "edge": {"target": [], "time": []}}}, "displayed_time": "15.69", "trialTime": 17653, "trial_type": "mouselab-mdp", "trial_index": 31, "time_elapsed": 1434375, "internal_node_id": "0.0-6.0-1.0-16.0"}}, {"uniqueid": "w20188397:a99131987", "current_trial": 32, "dateTime": 1693661817796, "trialdata": {"revealed_states": [], "clicked_states": ["10"], "num_clicks_accrued": [0, 0, 0, 0, 0, 0, 0, 0, 0, 0, 0, 0, 0], "stateRewards": ["", 2, 3, -1, 6, 44, -4, -59, -14, -3, 64, 16, 1, -3, 3, 6, 3, 49, 19, 3, -49, -14, -86, 1, 2, -3, -8, -33, 14, 32, -13, -77, -47, -67], "withholdReward": false, "trial_id": "mdp_trial_18", "block": "test", "trialIndex": 21, "score": 52.6, "costs": -1.4, "simulationMode": [null, null, null, null, null], "rewards": [2, 3, -1, -14, 64], "path": ["0", "0", "1", "2", "3", "8", "10"], "rt": [4617, 604, 75, 490, 504], "actions": ["up", "up", "up", "left", "down"], "actionTimes": [7523, 8621, 9195, 10181, 11197], "queries": {"click": {"state": {"target": ["10"], "time": [4240]}, "edge": {"target": [], "time": []}}, "mouseover": {"state": {"target": ["1", "10", "2"], "time": [3603, 3919, 6162]}, "edge": {"target": [], "time": []}}, "mouseout": {"state": {"target": ["32", "0", "0", "1", "10", "2", "2", "23"], "time": [2049, 2181, 3521, 3753, 6111, 6177, 17675, 17743]}, "edge": {"target": [], "time": []}}}, "displayed_time": "16.91", "trialTime": 18322, "trial_type": "mouselab-mdp", "trial_index": 32, "time_elapsed": 1453097, "internal_node_id": "0.0-6.0-1.0-17.0"}}, {"uniqueid": "w20188397:a99131987", "current_trial": 33, "dateTime": 1693661847305, "trialdata": {"revealed_states": [], "clicked_states": ["14", "16", "17", "20", "21", "5"], "num_clicks_accrued": [0, 0, 0, 0, 0, 0, 0, 0, 0, 0, 0, 0, 0], "stateRewards": ["", 1, 1, -3, 2, 22, -25, -11, -5, 50, 49, 3, 1, -1, 8, 14, -85, -30, 57, -6, -39, -16, 59, -2, -1, 5, 5, 59, -16, 8, 4, 67, 56, -9], "withholdReward": false, "trial_id": "mdp_trial_19", "block": "test", "trialIndex": 22, "score": 14.6, "costs": -8.4, "simulationMode": [null, null, null, null, null], "rewards": [1, 1, -3, 2, 22], "path": ["0", "0", "1", "2", "3", "4", "5"], "rt": [21304, 544, 59, 591, 158], "actions": ["up", "up", "up", "right", "up"], "actionTimes": [23161, 24226, 24778, 25876, 26531], "queries": {"click": {"state": {"target": ["14", "16", "17", "20", "21", "5"], "time": [4638, 7611, 11233, 14428, 17518, 20642]}, "edge": {"target": [], "time": []}}, "mouseover": {"state": {"target": ["12", "13", "13", "14", "15", "16", "17", "20", "22", "21", "19", "18", "6", "5"], "time": [3594, 3759, 4148, 4247, 6936, 7236, 11066, 14206, 16745, 17314, 19221, 19653, 19987, 20359]}, "edge": {"target": [], "time": []}}, "mouseout": {"state": {"target": ["0", "0", "12", "13", "13", "14", "15", "16", "17", "20", "22", "21", "19", "18", "6"], "time": [1220, 3558, 3628, 3879, 4196, 4722, 7021, 10499, 14087, 14547, 16783, 18701, 19585, 19668, 20022]}, "edge": {"target": [], "time": []}}}, "displayed_time": "27.02", "trialTime": 29085, "trial_type": "mouselab-mdp", "trial_index": 33, "time_elapsed": 1482607, "internal_node_id": "0.0-6.0-1.0-18.0"}}, {"uniqueid": "w20188397:a99131987", "current_trial": 34, "dateTime": 1693661865378, "trialdata": {"revealed_states": [], "clicked_states": ["27"], "num_clicks_accrued": [0, 0, 0, 0, 0, 0, 0, 0, 0, 0, 0, 0, 0], "stateRewards": ["", 2, -1, 3, -12, -83, 6, -33, 9, 28, 24, -50, -2, -1, -2, -5, -87, 37, 82, 12, 80, -5, 10, -2, -3, -6, 9, 22, -1, 16, 9, 77, -62, 58], "withholdReward": false, "trial_id": "mdp_trial_20", "block": "test", "trialIndex": 23, "score": 18.6, "costs": -1.4, "simulationMode": [null, null, null, null, null], "rewards": [-2, -3, -6, 9, 22], "path": ["0", "0", "23", "24", "25", "26", "27"], "rt": [5061, 1046, 54, 487, 83], "actions": ["left", "left", "left", "up", "up"], "actionTimes": [7701, 9245, 9806, 10807, 11394], "queries": {"click": {"state": {"target": ["27"], "time": [5603]}, "edge": {"target": [], "time": []}}, "mouseover": {"state": {"target": ["1", "2", "8", "11", "27", "26", "25"], "time": [3870, 3953, 4069, 4587, 5172, 6459, 6702]}, "edge": {"target": [], "time": []}}, "mouseout": {"state": {"target": ["5", "4", "2", "1", "0", "1", "2", "8", "11", "27", "26", "25", "26"], "time": [1329, 1360, 1631, 1796, 3817, 3920, 4002, 4457, 5091, 6362, 6611, 15782, 15868]}, "edge": {"target": [], "time": []}}}, "displayed_time": "16.65", "trialTime": 17669, "trial_type": "mouselab-mdp", "trial_index": 34, "time_elapsed": 1500679, "internal_node_id": "0.0-6.0-1.0-19.0"}}, {"uniqueid": "w20188397:a99131987", "current_trial": 35, "dateTime": 1693661883117, "trialdata": {"revealed_states": [], "clicked_states": ["33", "31", "29"], "num_clicks_accrued": [0, 0, 0, 0, 0, 0, 0, 0, 0, 0, 0, 0, 0], "stateRewards": ["", 1, 4, -8, -13, -13, -87, -77, -10, -44, 54, 42, 2, -3, -4, 12, -9, -80, 52, 9, 84, -2, -65, 1, -4, -5, -6, 8, 80, 32, 13, -59, -5, -13], "withholdReward": false, "trial_id": "mdp_trial_21", "block": "test", "trialIndex": 24, "score": 13.8, "costs": -4.199999999999999, "simulationMode": [null, null, null, null, null], "rewards": [1, -4, -5, -6, 32], "path": ["0", "0", "23", "24", "25", "26", "29"], "rt": [10716, 54, 4, 556, 147], "actions": ["left", "left", "left", "up", "left"], "actionTimes": [12201, 12776, 13279, 14349, 14993], "queries": {"click": {"state": {"target": ["33", "31", "29"], "time": [3137, 6838, 9703]}, "edge": {"target": [], "time": []}}, "mouseover": {"state": {"target": ["23", "31", "33", "30", "31", "25", "26", "29", "26"], "time": [2261, 2316, 2777, 6121, 6273, 9112, 9145, 9313, 10668]}, "edge": {"target": [], "time": []}}, "mouseout": {"state": {"target": ["28", "0", "0", "23", "31", "33", "30", "31", "25", "26", "29", "26", "28", "23", "0"], "time": [721, 873, 2245, 2277, 2343, 6024, 6255, 9016, 9129, 9216, 10632, 10785, 16099, 16352, 16602]}, "edge": {"target": [], "time": []}}}, "displayed_time": "15.50", "trialTime": 17306, "trial_type": "mouselab-mdp", "trial_index": 35, "time_elapsed": 1518418, "internal_node_id": "0.0-6.0-1.0-20.0"}}, {"uniqueid": "w20188397:a99131987", "current_trial": 36, "dateTime": 1693661902045, "trialdata": {"revealed_states": [], "clicked_states": ["11", "9"], "num_clicks_accrued": [0, 0, 0, 0, 0, 0, 0, 0, 0, 0, 0, 0, 0], "stateRewards": ["", -2, 1, -5, 2, -68, 80, 33, 10, 67, -59, 20, -1, -3, 3, 14, 74, -2, 24, -16, 63, 80, 46, -1, 4, 6, 12, 83, -38, -43, -4, 43, 14, -79], "withholdReward": false, "trial_id": "mdp_trial_22", "block": "test", "trialIndex": 25, "score": 68.2, "costs": -2.8, "simulationMode": [null, null, null, null, null], "rewards": [-2, 1, -5, 10, 67], "path": ["0", "0", "1", "2", "3", "8", "9"], "rt": [7198, 518, 31, 184, 201], "actions": ["up", "up", "up", "left", "up"], "actionTimes": [9314, 10328, 10861, 11548, 12253], "queries": {"click": {"state": {"target": ["11", "9"], "time": [5121, 7410]}, "edge": {"target": [], "time": []}}, "mouseover": {"state": {"target": ["1", "2", "8", "9", "11", "9"], "time": [3810, 3843, 4227, 4594, 4882, 6056]}, "edge": {"target": [], "time": []}}, "mouseout": {"state": {"target": ["0", "1", "2", "8", "9", "11"], "time": [3745, 3827, 3861, 4563, 4829, 5803]}, "edge": {"target": [], "time": []}}}, "displayed_time": "16.12", "trialTime": 18530, "trial_type": "mouselab-mdp", "trial_index": 36, "time_elapsed": 1537346, "internal_node_id": "0.0-6.0-1.0-21.0"}}, {"uniqueid": "w20188397:a99131987", "current_trial": 37, "dateTime": 1693661924468, "trialdata": {"revealed_states": [], "clicked_states": ["7", "6", "11", "10"], "num_clicks_accrued": [0, 0, 0, 0, 0, 0, 0, 0, 0, 0, 0, 0, 0], "stateRewards": ["", 1, -2, -3, 14, -42, -87, -37, -11, -50, 33, -44, -2, 4, -7, 13, 48, -75, -66, 12, 23, -2, 82, 1, -4, 3, 12, 51, -15, -26, -11, -52, -29, 82], "withholdReward": false, "trial_id": "mdp_trial_23", "block": "test", "trialIndex": 26, "score": 12.399999999999999, "costs": -5.6, "simulationMode": [null, null, null, null, null], "rewards": [1, -2, -3, -11, 33], "path": ["0", "0", "1", "2", "3", "8", "10"], "rt": [14913, 482, 56, 162, 424], "actions": ["up", "up", "up", "left", "down"], "actionTimes": [16450, 17431, 17990, 18663, 19594], "queries": {"click": {"state": {"target": ["7", "6", "11", "10"], "time": [3084, 5925, 9905, 12862]}, "edge": {"target": [], "time": []}}, "mouseover": {"state": {"target": ["1", "7", "7", "6", "5", "8", "11", "8", "10"], "time": [2357, 2407, 2824, 5384, 8389, 9327, 9509, 12251, 12400]}, "edge": {"target": [], "time": []}}, "mouseout": {"state": {"target": ["9", "3", "2", "1", "1", "7", "7", "6", "5", "8", "11", "8", "10", "2"], "time": [633, 684, 752, 1002, 2373, 2624, 5263, 8205, 9108, 9443, 12184, 12353, 12977, 21324]}, "edge": {"target": [], "time": []}}}, "displayed_time": "20.09", "trialTime": 22020, "trial_type": "mouselab-mdp", "trial_index": 37, "time_elapsed": 1559769, "internal_node_id": "0.0-6.0-1.0-22.0"}}, {"uniqueid": "w20188397:a99131987", "current_trial": 38, "dateTime": 1693661942358, "trialdata": {"revealed_states": [], "clicked_states": ["32"], "num_clicks_accrued": [0, 0, 0, 0, 0, 0, 0, 0, 0, 0, 0, 0, 0], "stateRewards": ["", 1, -4, -6, -1, -21, 17, -72, 10, 77, 67, -46, -1, 4, -2, 14, -66, -49, -45, -15, -52, 23, -67, 2, -2, -2, 15, -3, 45, -64, 5, -44, 83, 61], "withholdReward": false, "trial_id": "mdp_trial_24", "block": "test", "trialIndex": 27, "score": 84.6, "costs": -1.4, "simulationMode": [null, null, null, null, null], "rewards": [2, -2, -2, 5, 83], "path": ["0", "0", "23", "24", "25", "30", "32"], "rt": [4508, 67, 101, 434, 97], "actions": ["left", "left", "left", "down", "down"], "actionTimes": [6314, 6881, 7484, 8423, 9018], "queries": {"click": {"state": {"target": ["32"], "time": [3684]}, "edge": {"target": [], "time": []}}, "mouseover": {"state": {"target": ["0", "23", "31", "32", "30", "25"], "time": [2902, 2987, 3055, 3470, 4704, 4982]}, "edge": {"target": [], "time": []}}, "mouseout": {"state": {"target": ["0", "0", "23", "31", "32", "30"], "time": [980, 2955, 3004, 3389, 4575, 4846]}, "edge": {"target": [], "time": []}}}, "displayed_time": "15.81", "trialTime": 17393, "trial_type": "mouselab-mdp", "trial_index": 38, "time_elapsed": 1577659, "internal_node_id": "0.0-6.0-1.0-23.0"}}, {"uniqueid": "w20188397:a99131987", "current_trial": 39, "dateTime": 1693661961792, "trialdata": {"revealed_states": [], "clicked_states": ["29", "33"], "num_clicks_accrued": [0, 0, 0, 0, 0, 0, 0, 0, 0, 0, 0, 0, 0], "stateRewards": ["", 2, 4, -6, -13, -75, -81, 30, 7, 5, 59, -65, -1, -1, 7, 14, -38, 36, -41, 1, -54, -5, 64, 2, -1, 5, 6, -19, 79, 11, 16, -33, -50, 58], "withholdReward": false, "trial_id": "mdp_trial_25", "block": "test", "trialIndex": 28, "score": 77.2, "costs": -2.8, "simulationMode": [null, null, null, null, null], "rewards": [2, -1, 5, 16, 58], "path": ["0", "0", "23", "24", "25", "30", "33"], "rt": [8624, 58, 589, 369, 446], "actions": ["left", "left", "left", "down", "left"], "actionTimes": [10393, 10966, 12051, 12918, 13885], "queries": {"click": {"state": {"target": ["29", "33"], "time": [4201, 7834]}, "edge": {"target": [], "time": []}}, "mouseover": {"state": {"target": ["26", "26", "29", "27", "26", "25", "30", "33"], "time": [3406, 3841, 3939, 6581, 7082, 7146, 7436, 7667]}, "edge": {"target": [], "time": []}}, "mouseout": {"state": {"target": ["25", "24", "23", "0", "26", "26", "29", "27", "26", "25", "30"], "time": [964, 998, 1215, 2704, 3640, 3857, 6264, 7065, 7134, 7199, 7450]}, "edge": {"target": [], "time": []}}}, "displayed_time": "15.78", "trialTime": 18930, "trial_type": "mouselab-mdp", "trial_index": 39, "time_elapsed": 1597093, "internal_node_id": "0.0-6.0-1.0-24.0"}}, {"uniqueid": "w20188397:a99131987", "current_trial": 40, "dateTime": 1693661986487, "trialdata": {"revealed_states": [], "clicked_states": ["21", "16", "3", "9", "11"], "num_clicks_accrued": [0, 0, 0, 0, 0, 0, 0, 0, 0, 0, 0, 0, 0], "stateRewards": ["", -1, -3, -6, -2, -7, 80, -45, -3, -38, -72, 76, 2, 1, 7, 4, -62, 14, -74, 14, -87, -21, -88, -2, 1, -7, -10, 66, 56, -76, 10, -29, -72, -70], "withholdReward": false, "trial_id": "mdp_trial_26", "block": "test", "trialIndex": 29, "score": 56, "costs": -7, "simulationMode": [null, null, null, null, null], "rewards": [-1, -3, -6, -3, 76], "path": ["0", "0", "1", "2", "3", "8", "11"], "rt": [15798, 545, 1608, 88, 9], "actions": ["up", "up", "up", "left", "left"], "actionTimes": [17602, 18654, 20768, 21354, 21861], "queries": {"click": {"state": {"target": ["21", "16", "3", "9", "11"], "time": [3560, 6604, 9525, 11909, 15018]}, "edge": {"target": [], "time": []}}, "mouseover": {"state": {"target": ["22", "21", "21", "19", "14", "15", "16", "7", "2", "3", "9", "11"], "time": [2699, 2764, 3434, 5875, 5912, 5958, 6342, 8886, 8932, 9288, 11265, 14865]}, "edge": {"target": [], "time": []}}, "mouseout": {"state": {"target": ["33", "24", "23", "0", "22", "21", "21", "19", "14", "15", "16", "7", "2", "3", "9", "11"], "time": [879, 960, 1059, 2581, 2715, 3016, 5822, 5909, 5942, 5990, 8832, 8899, 8950, 10688, 14616, 23773]}, "edge": {"target": [], "time": []}}}, "displayed_time": "22.37", "trialTime": 24252, "trial_type": "mouselab-mdp", "trial_index": 40, "time_elapsed": 1621788, "internal_node_id": "0.0-6.0-1.0-25.0"}}, {"uniqueid": "w20188397:a99131987", "current_trial": 41, "dateTime": 1693662010372, "trialdata": {"revealed_states": [], "clicked_states": [], "num_clicks_accrued": [0, 0, 0, 0, 0, 0, 0, 0, 0, 0, 0, 0, 0], "stateRewards": ["", 1, 4, -8, -5, -15, -7, 21, 13, -30, 40, -65, 1, 1, 5, -14, 35, 27, -38, -11, 36, -58, -47, -2, 4, -3, 13, -16, -49, 22, 15, -56, -44, -10], "withholdReward": false, "trial_id": "mdp_trial_27", "block": "test", "trialIndex": 30, "score": -55, "costs": 0, "simulationMode": [null, null, null, null, null], "rewards": [1, 4, -8, 13, -65], "path": ["0", "0", "1", "2", "3", "8", "11"], "rt": [7503, 350, 123, 460, 153], "actions": ["up", "up", "up", "left", "left"], "actionTimes": [9025, 9879, 10504, 11461, 12124], "queries": {"click": {"state": {"target": [], "time": []}, "edge": {"target": [], "time": []}}, "mouseover": {"state": {"target": ["23", "24", "25", "26", "27", "29", "26", "28", "26", "29", "26", "28", "29"], "time": [2225, 2274, 2326, 2626, 2930, 3212, 3644, 3713, 4046, 4249, 5868, 5900, 7656]}, "edge": {"target": [], "time": []}}, "mouseout": {"state": {"target": ["1", "0", "0", "23", "24", "25", "26", "27", "29", "26", "28", "26", "29", "26", "28", "29", "26"], "time": [754, 838, 2194, 2259, 2309, 2361, 2691, 3128, 3613, 3680, 4029, 4098, 5835, 5884, 5917, 22598, 22749]}, "edge": {"target": [], "time": []}}}, "displayed_time": "15.53", "trialTime": 23431, "trial_type": "mouselab-mdp", "trial_index": 41, "time_elapsed": 1645674, "internal_node_id": "0.0-6.0-1.0-26.0"}}, {"uniqueid": "w20188397:a99131987", "current_trial": 42, "dateTime": 1693662030619, "trialdata": {"revealed_states": [], "clicked_states": ["5"], "num_clicks_accrued": [0, 0, 0, 0, 0, 0, 0, 0, 0, 0, 0, 0, 0], "stateRewards": ["", -2, -1, -2, -15, 87, 57, 29, -10, 77, -80, -7, 1, -3, 6, 14, -11, 87, -59, 4, -71, 16, -11, 2, 2, -7, 2, -47, 61, 50, 14, -20, 17, 81], "withholdReward": false, "trial_id": "mdp_trial_28", "block": "test", "trialIndex": 31, "score": 65.6, "costs": -1.4, "simulationMode": [null, null, null, null, null], "rewards": [-2, -1, -2, -15, 87], "path": ["0", "0", "1", "2", "3", "4", "5"], "rt": [4472, 554, 6, 502, 355], "actions": ["up", "up", "up", "right", "up"], "actionTimes": [5847, 6910, 7419, 8443, 9301], "queries": {"click": {"state": {"target": ["5"], "time": [3167]}, "edge": {"target": [], "time": []}}, "mouseover": {"state": {"target": ["1", "2", "4", "5"], "time": [2028, 2142, 2549, 2798]}, "edge": {"target": [], "time": []}}, "mouseout": {"state": {"target": ["12", "1", "2", "4"], "time": [823, 2111, 2159, 2680]}, "edge": {"target": [], "time": []}}}, "displayed_time": "15.39", "trialTime": 19749, "trial_type": "mouselab-mdp", "trial_index": 42, "time_elapsed": 1665921, "internal_node_id": "0.0-6.0-1.0-27.0"}}, {"uniqueid": "w20188397:a99131987", "current_trial": 43, "dateTime": 1693662051314, "trialdata": {"revealed_states": [], "clicked_states": ["11"], "num_clicks_accrued": [0, 0, 0, 0, 0, 0, 0, 0, 0, 0, 0, 0, 0], "stateRewards": ["", -2, 2, 5, -14, -56, 64, 84, -5, 52, 39, 85, -2, 1, 7, 8, 21, 29, -78, -9, -10, -69, 10, -2, -1, -7, 15, 72, 20, 41, -2, 52, 80, 22], "withholdReward": false, "trial_id": "mdp_trial_29", "block": "test", "trialIndex": 32, "score": 83.6, "costs": -1.4, "simulationMode": [null, null, null, null, null], "rewards": [-2, 2, 5, -5, 85], "path": ["0", "0", "1", "2", "3", "8", "11"], "rt": [4376, 1645, 25, 390, 150], "actions": ["up", "up", "up", "left", "left"], "actionTimes": [9313, 11456, 11987, 12874, 13521], "queries": {"click": {"state": {"target": ["11"], "time": [6666]}, "edge": {"target": [], "time": []}}, "mouseover": {"state": {"target": ["1", "10", "8", "11"], "time": [5651, 5735, 5766, 6332]}, "edge": {"target": [], "time": []}}, "mouseout": {"state": {"target": ["5", "1", "10", "8", "11"], "time": [1089, 5663, 5749, 6204, 19335]}, "edge": {"target": [], "time": []}}}, "displayed_time": "18.95", "trialTime": 20201, "trial_type": "mouselab-mdp", "trial_index": 43, "time_elapsed": 1686615, "internal_node_id": "0.0-6.0-1.0-28.0"}}, {"uniqueid": "w20188397:a99131987", "current_trial": 44, "dateTime": 1693662070783, "trialdata": {"revealed_states": [], "clicked_states": ["27", "33", "32"], "num_clicks_accrued": [0, 0, 0, 0, 0, 0, 0, 0, 0, 0, 0, 0, 0], "stateRewards": ["", 2, 3, -3, 4, 72, -28, 34, -12, 57, -64, -15, 2, 1, -4, -15, 2, 49, 31, -1, -42, -58, 31, -2, 1, -2, -13, -75, -19, -22, -6, 61, 10, -56], "withholdReward": false, "trial_id": "mdp_trial_30", "block": "test", "trialIndex": 33, "score": -3.1999999999999993, "costs": -4.199999999999999, "simulationMode": [null, null, null, null, null], "rewards": [-2, 1, -2, -6, 10], "path": ["0", "0", "23", "24", "25", "30", "32"], "rt": [10108, 594, 43, 599, 488], "actions": ["left", "left", "left", "down", "down"], "actionTimes": [11869, 12967, 13517, 14624, 15618], "queries": {"click": {"state": {"target": ["27", "33", "32"], "time": [3104, 6409, 9200]}, "edge": {"target": [], "time": []}}, "mouseover": {"state": {"target": ["28", "26", "27", "29", "33", "32"], "time": [2431, 2496, 2878, 5621, 6172, 8761]}, "edge": {"target": [], "time": []}}, "mouseout": {"state": {"target": ["11", "10", "28", "26", "27", "29", "33", "32"], "time": [939, 1007, 2462, 2810, 5335, 5853, 8694, 18370]}, "edge": {"target": [], "time": []}}}, "displayed_time": "16.11", "trialTime": 18984, "trial_type": "mouselab-mdp", "trial_index": 44, "time_elapsed": 1706084, "internal_node_id": "0.0-6.0-1.0-29.0"}}, {"uniqueid": "w20188397:a99131987", "current_trial": 45, "dateTime": 1693662097991, "trialdata": {"revealed_states": [], "clicked_states": ["6", "5", "9", "11", "29", "27"], "num_clicks_accrued": [0, 0, 0, 0, 0, 0, 0, 0, 0, 0, 0, 0, 0], "stateRewards": ["", -1, -1, 7, -15, -43, -21, -84, -9, -45, -66, 2, 1, -2, 2, 8, -27, 44, -52, -5, -84, 11, 53, 1, 4, -4, 16, 83, -82, -15, -16, 68, -43, 81], "withholdReward": false, "trial_id": "mdp_trial_31", "block": "test", "trialIndex": 34, "score": 91.6, "costs": -8.4, "simulationMode": [null, null, null, null, null], "rewards": [1, 4, -4, 16, 83], "path": ["0", "0", "23", "24", "25", "26", "27"], "rt": [18029, 470, 29, 646, 27], "actions": ["left", "left", "left", "up", "up"], "actionTimes": [19603, 20583, 21112, 22262, 22796], "queries": {"click": {"state": {"target": ["6", "5", "9", "11", "29", "27"], "time": [2804, 5154, 7815, 10495, 13720, 16325]}, "edge": {"target": [], "time": []}}, "mouseover": {"state": {"target": ["7", "6", "7", "1", "1", "2", "3", "5", "9", "9", "11", "3", "8", "26", "29", "25", "25", "26", "27", "26"], "time": [2414, 2482, 3367, 3473, 3548, 3659, 4076, 4371, 5824, 7495, 10169, 12626, 12842, 13295, 13526, 15683, 15967, 16015, 16068, 18825]}, "edge": {"target": [], "time": []}}, "mouseout": {"state": {"target": ["32", "0", "7", "6", "7", "1", "1", "2", "3", "5", "9", "9", "11", "3", "8", "26", "29", "25", "25", "26", "27", "26", "24"], "time": [760, 1127, 2429, 3315, 3400, 3530, 3625, 4021, 4165, 5674, 7263, 9984, 12347, 12807, 12860, 13428, 15536, 15700, 15984, 16033, 18141, 19024, 25812]}, "edge": {"target": [], "time": []}}}, "displayed_time": "23.30", "trialTime": 26744, "trial_type": "mouselab-mdp", "trial_index": 45, "time_elapsed": 1733292, "internal_node_id": "0.0-6.0-1.0-30.0"}}, {"uniqueid": "w20188397:a99131987", "current_trial": 46, "dateTime": 1693662116945, "trialdata": {"revealed_states": [], "clicked_states": ["21"], "num_clicks_accrued": [0, 0, 0, 0, 0, 0, 0, 0, 0, 0, 0, 0, 0], "stateRewards": ["", 1, 1, -2, 7, -31, -6, 76, 1, -36, -16, -53, 2, 1, 7, 13, -47, -10, 47, -7, 72, 46, -56, -2, -2, -2, 11, -80, 44, 38, 16, 67, 85, -78], "withholdReward": false, "trial_id": "mdp_trial_32", "block": "test", "trialIndex": 35, "score": 47.6, "costs": -1.4, "simulationMode": [null, null, null, null, null], "rewards": [2, 1, 7, -7, 46], "path": ["0", "0", "12", "13", "14", "19", "21"], "rt": [4425, 733, 30, 576, 78], "actions": ["right", "right", "right", "down", "down"], "actionTimes": [6556, 7816, 8341, 9420, 9991], "queries": {"click": {"state": {"target": ["21"], "time": [3775]}, "edge": {"target": [], "time": []}}, "mouseover": {"state": {"target": ["12", "22", "21"], "time": [2779, 2862, 3145]}, "edge": {"target": [], "time": []}}, "mouseout": {"state": {"target": ["0", "12", "22"], "time": [1087, 2791, 3029]}, "edge": {"target": [], "time": []}}}, "displayed_time": "16.14", "trialTime": 18469, "trial_type": "mouselab-mdp", "trial_index": 46, "time_elapsed": 1752246, "internal_node_id": "0.0-6.0-1.0-31.0"}}, {"uniqueid": "w20188397:a99131987", "current_trial": 47, "dateTime": 1693662134806, "trialdata": {"revealed_states": [], "clicked_states": ["33"], "num_clicks_accrued": [0, 0, 0, 0, 0, 0, 0, 0, 0, 0, 0, 0, 0], "stateRewards": ["", -2, -3, -5, 8, 27, 11, 43, -6, -24, -87, 69, -2, 1, 1, 9, 19, 48, -37, 9, -14, 45, 62, 1, 2, 1, 16, -81, -41, 22, 4, -6, -63, 47], "withholdReward": false, "trial_id": "mdp_trial_33", "block": "test", "trialIndex": 36, "score": 53.6, "costs": -1.4, "simulationMode": [null, null, null, null, null], "rewards": [1, 2, 1, 4, 47], "path": ["0", "0", "23", "24", "25", "30", "33"], "rt": [5805, 752, 82, 506, 376], "actions": ["left", "left", "left", "down", "left"], "actionTimes": [7965, 9222, 9806, 10815, 11689], "queries": {"click": {"state": {"target": ["33"], "time": [4780]}, "edge": {"target": [], "time": []}}, "mouseover": {"state": {"target": ["31", "30", "33", "33"], "time": [2772, 2838, 3808, 4508]}, "edge": {"target": [], "time": []}}, "mouseout": {"state": {"target": ["21", "0", "31", "30", "33"], "time": [1184, 2703, 2803, 3640, 4378]}, "edge": {"target": [], "time": []}}}, "displayed_time": "16.17", "trialTime": 17355, "trial_type": "mouselab-mdp", "trial_index": 47, "time_elapsed": 1770107, "internal_node_id": "0.0-6.0-1.0-32.0"}}, {"uniqueid": "w20188397:a99131987", "current_trial": 48, "dateTime": 1693662153415, "trialdata": {"revealed_states": [], "clicked_states": ["29"], "num_clicks_accrued": [0, 0, 0, 0, 0, 0, 0, 0, 0, 0, 0, 0, 0], "stateRewards": ["", -1, -1, 4, -16, -75, 81, -51, -7, -84, 73, -30, -2, 1, -3, -16, -77, 33, 14, 1, 45, 87, -66, 2, 2, -5, -7, -19, -17, 79, -3, 8, 49, 47], "withholdReward": false, "trial_id": "mdp_trial_34", "block": "test", "trialIndex": 37, "score": 69.6, "costs": -1.4, "simulationMode": [null, null, null, null, null], "rewards": [2, 2, -5, -7, 79], "path": ["0", "0", "23", "24", "25", "26", "29"], "rt": [4641, 576, 6, 556, 452], "actions": ["left", "left", "left", "up", "left"], "actionTimes": [6604, 7694, 8204, 9288, 10240], "queries": {"click": {"state": {"target": ["29"], "time": [3347]}, "edge": {"target": [], "time": []}}, "mouseover": {"state": {"target": ["23", "29", "29", "26"], "time": [2690, 2764, 3118, 5478]}, "edge": {"target": [], "time": []}}, "mouseout": {"state": {"target": ["33", "23", "0", "23", "29", "29", "26"], "time": [1011, 1080, 2684, 2723, 2811, 3446, 5507]}, "edge": {"target": [], "time": []}}}, "displayed_time": "15.97", "trialTime": 18081, "trial_type": "mouselab-mdp", "trial_index": 48, "time_elapsed": 1788716, "internal_node_id": "0.0-6.0-1.0-33.0"}}, {"uniqueid": "w20188397:a99131987", "current_trial": 49, "dateTime": 1693662171995, "trialdata": {"revealed_states": [], "clicked_states": ["29", "27"], "num_clicks_accrued": [0, 0, 0, 0, 0, 0, 0, 0, 0, 0, 0, 0, 0], "stateRewards": ["", 2, 3, 8, 11, 25, -80, 6, -4, -56, 84, -23, -2, -4, -3, 4, -51, -9, -61, -15, -64, 67, -35, 1, -1, -7, -6, 83, 59, -15, 12, -79, 56, 41], "withholdReward": false, "trial_id": "mdp_trial_35", "block": "test", "trialIndex": 38, "score": -16.8, "costs": -2.8, "simulationMode": [null, null, null, null, null], "rewards": [2, 3, 8, -4, -23], "path": ["0", "0", "1", "2", "3", "8", "11"], "rt": [7473, 3673, 402, 498, 40], "actions": ["up", "up", "up", "left", "left"], "actionTimes": [8954, 13122, 14027, 15027, 15570], "queries": {"click": {"state": {"target": ["29", "27"], "time": [3239, 5901]}, "edge": {"target": [], "time": []}}, "mouseover": {"state": {"target": ["10", "27", "29", "27"], "time": [2197, 2662, 3062, 5384]}, "edge": {"target": [], "time": []}}, "mouseout": {"state": {"target": ["28", "10", "27", "29", "27", "28"], "time": [809, 2210, 2760, 5302, 17518, 17553]}, "edge": {"target": [], "time": []}}}, "displayed_time": "16.07", "trialTime": 18054, "trial_type": "mouselab-mdp", "trial_index": 49, "time_elapsed": 1807296, "internal_node_id": "0.0-6.0-1.0-34.0"}}, {"uniqueid": "w20188397:a99131987", "current_trial": 50, "dateTime": 1693662189730, "trialdata": {"revealed_states": [], "clicked_states": ["27", "33"], "num_clicks_accrued": [0, 0, 0, 0, 0, 0, 0, 0, 0, 0, 0, 0, 0], "stateRewards": ["", -1, -4, -1, -5, -28, -23, -15, -15, -38, 59, -87, 2, 2, -5, 9, -55, -39, -71, -6, 85, -85, -11, -1, -2, 5, -10, 1, 25, 41, -4, 69, -35, 86], "withholdReward": false, "trial_id": "mdp_trial_36", "block": "test", "trialIndex": 39, "score": 81.2, "costs": -2.8, "simulationMode": [null, null, null, null, null], "rewards": [-1, -2, 5, -4, 86], "path": ["0", "0", "23", "24", "25", "30", "33"], "rt": [7482, 481, 356, 647, 493], "actions": ["left", "left", "left", "down", "left"], "actionTimes": [9390, 10369, 11231, 12385, 13373], "queries": {"click": {"state": {"target": ["27", "33"], "time": [3101, 6614]}, "edge": {"target": [], "time": []}}, "mouseover": {"state": {"target": ["23", "28", "27", "26", "25", "29", "33", "33", "32"], "time": [2434, 2533, 2801, 5241, 5442, 5741, 6026, 6426, 7485]}, "edge": {"target": [], "time": []}}, "mouseout": {"state": {"target": ["1", "23", "28", "27", "26", "25", "29", "33", "33"], "time": [1328, 2452, 2750, 5207, 5258, 5579, 5992, 6061, 7353]}, "edge": {"target": [], "time": []}}}, "displayed_time": "15.91", "trialTime": 17212, "trial_type": "mouselab-mdp", "trial_index": 50, "time_elapsed": 1825032, "internal_node_id": "0.0-6.0-1.0-35.0"}}, {"uniqueid": "w20188397:a99131987", "current_trial": 51, "dateTime": 1693662214165, "trialdata": {"revealed_states": [], "clicked_states": ["6", "17", "20", "21"], "num_clicks_accrued": [0, 0, 0, 0, 0, 0, 0, 0, 0, 0, 0, 0, 0], "stateRewards": ["", -2, 2, -1, -6, 22, 6, 6, -5, 70, -42, 65, 1, 3, 5, -6, -67, -9, 3, 14, 7, -62, -13, -2, 4, 1, 16, 42, -21, -52, -8, 32, 53, 81], "withholdReward": false, "trial_id": "mdp_trial_37", "block": "test", "trialIndex": 40, "score": 42.4, "costs": -5.6, "simulationMode": [null, null, null, null, null], "rewards": [-2, 4, 1, -8, 53], "path": ["0", "0", "23", "24", "25", "30", "32"], "rt": [16823, 494, 79, 314, 497], "actions": ["left", "left", "left", "down", "down"], "actionTimes": [18495, 19491, 20079, 20898, 21901], "queries": {"click": {"state": {"target": ["6", "17", "20", "21"], "time": [3473, 6600, 9544, 12017]}, "edge": {"target": [], "time": []}}, "mouseover": {"state": {"target": ["1", "2", "4", "6", "6", "4", "16", "17", "20", "19", "21", "22", "13", "16", "2", "3", "8", "27", "33"], "time": [2351, 2431, 2784, 2802, 3321, 5708, 5892, 6194, 9370, 11545, 11757, 14367, 14463, 15066, 15418, 15457, 15505, 15755, 17090]}, "edge": {"target": [], "time": []}}, "mouseout": {"state": {"target": ["32", "0", "1", "2", "4", "6", "6", "6", "4", "6", "16", "17", "20", "19", "21", "22", "13", "16", "2", "3", "8", "27", "33", "30", "31"], "time": [811, 2272, 2401, 2503, 2799, 2866, 3585, 5610, 5776, 5827, 5942, 9002, 9718, 11724, 14298, 14416, 14717, 15285, 15440, 15474, 15705, 15769, 23204, 23256, 23356]}, "edge": {"target": [], "time": []}}}, "displayed_time": "22.41", "trialTime": 23916, "trial_type": "mouselab-mdp", "trial_index": 51, "time_elapsed": 1849466, "internal_node_id": "0.0-6.0-1.0-36.0"}}, {"uniqueid": "w20188397:a99131987", "current_trial": 52, "dateTime": 1693662242285, "trialdata": {"revealed_states": [], "clicked_states": ["9", "27", "29", "6", "5"], "num_clicks_accrued": [0, 0, 0, 0, 0, 0, 0, 0, 0, 0, 0, 0, 0], "stateRewards": ["", 1, 1, 7, -11, 80, -20, -53, -14, 3, 31, 27, 2, -1, -8, -10, 33, 41, 86, 9, 78, -37, -13, -1, -2, -6, -8, -80, 75, 4, -16, -49, -74, 24], "withholdReward": false, "trial_id": "mdp_trial_38", "block": "test", "trialIndex": 41, "score": 71, "costs": -7, "simulationMode": [null, null, null, null, null], "rewards": [1, 1, 7, -11, 80], "path": ["0", "0", "1", "2", "3", "4", "5"], "rt": [15734, 803, 240, 579, 330], "actions": ["up", "up", "up", "right", "up"], "actionTimes": [17506, 18811, 19552, 20635, 21463], "queries": {"click": {"state": {"target": ["9", "27", "29", "6", "5"], "time": [3145, 6506, 9363, 12197, 14538]}, "edge": {"target": [], "time": []}}, "mouseover": {"state": {"target": ["1", "10", "8", "9", "11", "27", "29", "29", "10", "4", "6", "5"], "time": [2513, 2562, 2601, 2968, 5605, 6309, 8949, 9182, 11554, 11623, 11991, 14329]}, "edge": {"target": [], "time": []}}, "mouseout": {"state": {"target": ["0", "1", "10", "8", "9", "11", "27", "29", "29", "10", "4", "6"], "time": [1058, 2528, 2582, 2898, 5503, 6158, 8895, 8981, 11521, 11570, 11637, 14162]}, "edge": {"target": [], "time": []}}}, "displayed_time": "21.97", "trialTime": 27583, "trial_type": "mouselab-mdp", "trial_index": 52, "time_elapsed": 1877586, "internal_node_id": "0.0-6.0-1.0-37.0"}}, {"uniqueid": "w20188397:a99131987", "current_trial": 53, "dateTime": 1693662263072, "trialdata": {"revealed_states": [], "clicked_states": ["9", "5", "32"], "num_clicks_accrued": [0, 0, 0, 0, 0, 0, 0, 0, 0, 0, 0, 0, 0], "stateRewards": ["", -1, -2, -8, 8, -27, -82, 19, -14, -62, 4, 1, -2, 2, 6, 10, 73, -51, -2, 2, 73, -48, 54, -1, 2, -4, 11, -25, 47, 86, 15, 33, 43, -42], "withholdReward": false, "trial_id": "mdp_trial_39", "block": "test", "trialIndex": 42, "score": 50.8, "costs": -4.199999999999999, "simulationMode": [null, null, null, null, null], "rewards": [-1, 2, -4, 15, 43], "path": ["0", "0", "23", "24", "25", "30", "32"], "rt": [12313, 555, 181, 414, 133], "actions": ["left", "left", "left", "down", "down"], "actionTimes": [14556, 15642, 16334, 17253, 17899], "queries": {"click": {"state": {"target": ["9", "5", "32"], "time": [4894, 7257, 11697]}, "edge": {"target": [], "time": []}}, "mouseover": {"state": {"target": ["1", "2", "3", "9", "5", "2", "1", "23", "31", "30", "32"], "time": [3268, 3316, 3399, 4335, 7012, 10971, 11004, 11306, 11354, 11403, 11522]}, "edge": {"target": [], "time": []}}, "mouseout": {"state": {"target": ["5", "1", "0", "1", "2", "3", "9", "5", "2", "1", "23", "31", "30", "32"], "time": [925, 1195, 3218, 3301, 3349, 3419, 6909, 9837, 10985, 11040, 11321, 11372, 11420, 13779]}, "edge": {"target": [], "time": []}}}, "displayed_time": "18.41", "trialTime": 20244, "trial_type": "mouselab-mdp", "trial_index": 53, "time_elapsed": 1898373, "internal_node_id": "0.0-6.0-1.0-38.0"}}, {"uniqueid": "w20188397:a99131987", "current_trial": 54, "dateTime": 1693662282187, "trialdata": {"revealed_states": [], "clicked_states": ["29"], "num_clicks_accrued": [0, 0, 0, 0, 0, 0, 0, 0, 0, 0, 0, 0, 0], "stateRewards": ["", 1, 2, -3, 6, -88, 74, -45, 7, -46, 40, -77, 1, -4, 4, 3, 22, -25, -59, 8, -83, 19, -60, -1, -1, -1, -8, 26, -29, 64, -7, -88, -51, -55], "withholdReward": false, "trial_id": "mdp_trial_40", "block": "test", "trialIndex": 43, "score": 51.6, "costs": -1.4, "simulationMode": [null, null, null, null, null], "rewards": [-1, -1, -1, -8, 64], "path": ["0", "0", "23", "24", "25", "26", "29"], "rt": [4295, 538, 123, 649, 85], "actions": ["left", "left", "left", "up", "left"], "actionTimes": [7576, 8618, 9240, 10390, 11009], "queries": {"click": {"state": {"target": ["29"], "time": [4636]}, "edge": {"target": [], "time": []}}, "mouseover": {"state": {"target": ["23", "29"], "time": [3948, 4436]}, "edge": {"target": [], "time": []}}, "mouseout": {"state": {"target": ["0", "23"], "time": [3933, 3965]}, "edge": {"target": [], "time": []}}}, "displayed_time": "17.29", "trialTime": 18553, "trial_type": "mouselab-mdp", "trial_index": 54, "time_elapsed": 1917488, "internal_node_id": "0.0-6.0-1.0-39.0"}}, {"uniqueid": "w20188397:a99131987", "current_trial": 55, "dateTime": 1693662371321, "trialdata": {"rt": 89120, "response": {"Q0": "$-16 to 16", "Q1": "$-16 to $16", "Q2": "$-32 to $32", "Q3": "The cost for clicking on nodes varied between nodes.", "Q4": "Very unmotivated"}, "question_order": [0, 1, 2, 3, 4], "trial_id": "final_quiz_control", "trial_type": "survey-multi-choice", "trial_index": 55, "time_elapsed": 2006622, "internal_node_id": "0.0-6.0-2.0"}}, {"uniqueid": "w20188397:a99131987", "current_trial": 56, "dateTime": 1693662432326, "trialdata": {"rt": 60992, "response": {"Q0": "clicking on the nodes and choose the one with highest value", "Q1": "following the value of the nodes", "Q2": "not difficult at all"}, "trial_id": "self_report_control", "trial_type": "survey-text", "trial_index": 56, "time_elapsed": 2067628, "internal_node_id": "0.0-6.0-3.0"}}, {"uniqueid": "w20188397:a99131987", "current_trial": 57, "dateTime": 1693662447055, "trialdata": {"rt": 14722, "response": {"gender": "female", "age": "40", "colorblind": "0", "effort": "0"}, "trial_type": "survey-html-form", "trial_index": 57, "time_elapsed": 2082357, "internal_node_id": "0.0-6.0-4.0"}}, {"uniqueid": "w20188397:a99131987", "current_trial": 58, "dateTime": 1693662466878, "trialdata": {"rt": 19807, "response": {"Q0": "none", "Q1": "nope", "Q2": "none"}, "trial_type": "survey-text", "trial_index": 58, "time_elapsed": 2102180, "internal_node_id": "0.0-6.0-5.0"}}, {"uniqueid": "w20188397:a99131987", "current_trial": 59, "dateTime": 1693662498878, "trialdata": {"rt": 31991, "stimulus": "<h1>Completion Code Instructions (1/2)</h1>\n<br><br><br><br>\nYou have reached the end of the experiment! The completion code consists of two parts: (1) a code with 2 characters (2) a code with 6 characters. On this page, you will receive the second part of the code. The first part of the completion code will be on the next page.\n<br><br>\nThe second part of your completion code is: <b>EWEK22</b>\n<br><br>\nPlease note this down. Then, press 'Next' in order to find the first part of your completion code. Once the data has been saved, you will receive this code either in this window or in the original browser window where you started the experiment.\n <br><br>\n<h2 style='color: red;'>Note: this is <strong>NOT</strong> the full completion code. Copy this down and click 'Next' to get the full completion code on the next page.</h2>", "response": 0, "trial_type": "html-button-response", "trial_index": 59, "time_elapsed": 2134179, "internal_node_id": "0.0-6.0-6.0"}}, {"uniqueid": "w20188397:a99131987", "current_trial": 60, "dateTime": 1693662499892, "trialdata": {"success": true, "trial_type": "fullscreen", "trial_index": 60, "time_elapsed": 2135193, "internal_node_id": "0.0-7.0"}}], "questiondata": {"params": {"CODE": "C6DMOQA6", "MIN_TIME": 14, "inspectCost": 1, "startTime": "Sat Sep 02 2023 14:12:42 GMT+0100 (British Summer Time)", "bonusRate": 0.002, "variance": "1_2_4_8_44", "branching": "31123"}, "final_score": 1501.4}, "eventdata": [{"eventtype": "initialized", "value": null, "timestamp": 1693660362300, "interval": 0}, {"eventtype": "window_resize", "value": [1024, 767], "timestamp": 1693660362300, "interval": 0}, {"eventtype": "window_resize", "value": [1024, 767], "timestamp": 1693660362655, "interval": 355}, {"eventtype": "window_resize", "value": [1440, 865], "timestamp": 1693660369375, "interval": 6720}, {"eventtype": "window_resize", "value": [1440, 900], "timestamp": 1693660422697, "interval": 53322}, {"eventtype": "focus", "value": "off", "timestamp": 1693660995954, "interval": 573257}, {"eventtype": "focus", "value": "on", "timestamp": 1693660996131, "interval": 177}, {"eventtype": "window_resize", "value": [1440, 865], "timestamp": 1693660996173, "interval": 42}, {"eventtype": "window_resize", "value": [1440, 900], "timestamp": 1693661002556, "interval": 6383}, {"eventtype": "window_resize", "value": [1440, 865], "timestamp": 1693662499124, "interval": 1496568}], "useragent": "Mozilla/5.0 (Macintosh; Intel Mac OS X 10_15_7) AppleWebKit/537.36 (KHTML, like Gecko) Chrome/115.0.0.0 Safari/537.36", "mode": "live", "id": "w20188397:a99131987", "status": "user data saved", "Beginhit": "2023-09-02 13:12:39.465303", "Beginexp": "2023-09-02 13:13:43.577608", "Endhit": "2023-09-02 13:48:20.384268", "psiturkStatus": 3, "browser": "<redacted>", "platform": "macos", "language": "en-GB"}