{"condition": 1, "counterbalance": 0, "assignmentId": "a59036325", "workerId": "w80470571", "hitId": "h68282546", "currenttrial": 56, "bonus": 0, "data": [{"uniqueid": "w80470571:a59036325", "current_trial": 0, "dateTime": 1693660520579, "trialdata": {"success": true, "trial_type": "fullscreen", "trial_index": 0, "time_elapsed": 9414, "internal_node_id": "0.0-0.0"}}, {"uniqueid": "w80470571:a59036325", "current_trial": 1, "dateTime": 1693660559348, "trialdata": {"view_history": [{"page_index": 0, "viewing_time": 38740}], "rt": 38741, "trial_id": "exp_instructions_misaligned", "trial_type": "instructions", "trial_index": 1, "time_elapsed": 48182, "internal_node_id": "0.0-1.0"}}, {"uniqueid": "w80470571:a59036325", "current_trial": 2, "dateTime": 1693661059177, "trialdata": {"view_history": [{"page_index": 0, "viewing_time": 173171}, {"page_index": 1, "viewing_time": 183413}, {"page_index": 2, "viewing_time": 48029}, {"page_index": 3, "viewing_time": 95189}], "rt": 499807, "trial_id": "mouselab_instructions_1_misaligned", "trial_type": "instructions", "trial_index": 2, "time_elapsed": 548012, "internal_node_id": "0.0-2.0-1.0"}}, {"uniqueid": "w80470571:a59036325", "current_trial": 3, "dateTime": 1693661181546, "trialdata": {"revealed_states": [], "clicked_states": ["23", "24", "1", "2", "3", "8", "4", "6", "7", "5", "12", "13", "14", "19", "15", "17"], "num_clicks_accrued": [0, 0, 0, 0, 0, 0, 0, 0, 0, 0, 0, 0, 0], "stateRewards": ["", 10, 10, -10, 10, -10, -10, -10, -10, -10, -10, -10, 10, 10, 10, 10, 10, 10, -10, -10, 10, -10, 10, -10, 10, 10, -10, 10, -10, -10, -10, -10, 10, -10], "withholdReward": false, "trial_id": "practice_1", "block": "test", "trialIndex": 0, "score": 45.5, "costs": -8, "simulationMode": [null, null, null, null, null], "rewards": [10, 10, 10, 10, 10], "path": ["0", "0", "12", "13", "14", "15", "17"], "rt": [65880, 1653, 1256, 835, 712], "actions": ["right", "right", "right", "up", "right"], "actionTimes": [81493, 83846, 85777, 87316, 88865], "queries": {"click": {"state": {"target": ["23", "24", "1", "2", "3", "8", "4", "6", "7", "5", "12", "13", "14", "19", "15", "17"], "time": [19193, 22600, 25886, 29276, 32182, 35734, 38453, 41548, 44393, 47542, 52184, 55125, 57864, 60801, 63495, 66146]}, "edge": {"target": [], "time": []}}, "mouseover": {"state": {"target": ["23", "24", "0", "1", "2", "3", "8", "4", "6", "7", "4", "5", "3", "2", "12", "13", "14", "19", "14", "15", "17", "13", "0", "0", "12", "0", "12", "12"], "time": [18078, 20833, 24524, 24955, 28473, 31536, 35047, 37993, 41122, 43797, 46800, 47186, 50604, 50893, 51633, 54532, 57291, 60282, 62754, 63083, 65673, 68162, 68621, 71157, 72807, 73989, 79660, 80537]}, "edge": {"target": [], "time": []}}, "mouseout": {"state": {"target": ["14", "19", "13", "23", "24", "23", "0", "26", "24", "0", "23", "24", "0", "1", "2", "3", "3", "8", "4", "6", "7", "4", "5", "3", "2", "12", "13", "14", "19", "14", "15", "17", "13", "0", "0", "12", "0", "12", "12", "17"], "time": [null, null, null, 3698, 4005, 4265, 4692, 6695, 8200, 15803, 20606, 24227, 24737, 28236, 31152, 34418, 34676, 37642, 40891, 43623, 44681, 47068, 50047, 50828, 51024, 54309, 57105, 59974, 60953, 62951, 65524, 67181, 68382, 68802, 71361, 73786, 75947, 80244, 106225, 106972]}, "edge": {"target": [], "time": []}}}, "displayed_time": "89.64", "trialTime": 114129, "trial_type": "mouselab-mdp", "trial_index": 3, "time_elapsed": 670380, "internal_node_id": "0.0-2.0-2.0-0.0"}}, {"uniqueid": "w80470571:a59036325", "current_trial": 4, "dateTime": 1693661260410, "trialdata": {"revealed_states": [], "clicked_states": ["23", "12", "13", "1", "2", "3", "14", "24", "25", "4", "8", "10", "11", "9"], "num_clicks_accrued": [0, 0, 0, 0, 0, 0, 0, 0, 0, 0, 0, 0, 0], "stateRewards": ["", 10, 10, -10, -10, -10, -10, -10, 10, 10, -10, -10, 10, -10, 10, -10, -10, -10, 10, 10, -10, 10, 10, -10, 10, -10, -10, -10, -10, 10, -10, -10, -10, 10], "withholdReward": false, "trial_id": "practice_2", "block": "test", "trialIndex": 1, "score": 26.5, "costs": -7, "simulationMode": [null, null, null, null, null], "rewards": [10, 10, -10, 10, 10], "path": ["0", "0", "1", "2", "3", "8", "9"], "rt": [48797, 1480, 878, 807, 575], "actions": ["up", "up", "up", "left", "up"], "actionTimes": [62950, 65222, 66890, 68395, 69618], "queries": {"click": {"state": {"target": ["23", "12", "13", "1", "2", "3", "14", "24", "25", "4", "8", "10", "11", "9"], "time": [16554, 19387, 22283, 25784, 28796, 31594, 36039, 39114, 42749, 46289, 49228, 52284, 55038, 57553]}, "edge": {"target": [], "time": []}}, "mouseover": {"state": {"target": ["23", "12", "13", "1", "2", "3", "14", "24", "25", "4", "8", "10", "11", "9", "7"], "time": [15994, 18799, 21837, 25290, 28325, 31161, 35423, 38254, 42323, 45705, 48742, 51840, 54525, 56868, 60613]}, "edge": {"target": [], "time": []}}, "mouseout": {"state": {"target": ["17", "12", "23", "12", "13", "1", "2", "3", "14", "14", "24", "25", "4", "8", "10", "11", "9", "9", "7"], "time": [7265, 8078, 18556, 21694, 24800, 28075, 30914, 34624, 36428, 37941, 42052, 45193, 48550, 51706, 54340, 56741, 57702, 59673, 60784]}, "edge": {"target": [], "time": []}}}, "displayed_time": "70.45", "trialTime": 74294, "trial_type": "mouselab-mdp", "trial_index": 4, "time_elapsed": 749245, "internal_node_id": "0.0-2.0-2.0-1.0"}}, {"uniqueid": "w80470571:a59036325", "current_trial": 5, "dateTime": 1693661341683, "trialdata": {"view_history": [{"page_index": 0, "viewing_time": 67306}, {"page_index": 1, "viewing_time": 13958}], "rt": 81265, "trial_id": "mouselab_instructions_2_misaligned", "trial_type": "instructions", "trial_index": 5, "time_elapsed": 830517, "internal_node_id": "0.0-2.0-3.0"}}, {"uniqueid": "w80470571:a59036325", "current_trial": 6, "dateTime": 1693661401293, "trialdata": {"rt": 59589, "response": {"Q0": "The cost for clicking on nodes may vary between nodes.", "Q1": "The better I perform the higher my bonus will be.", "Q2": "No, the amount of cash at each node of the web may be different each time.", "Q3": "To get the highest total score.", "Q4": "Only before moving the spider.", "Q5": "3 seconds"}, "question_order": [0, 1, 2, 3, 4, 5], "correct": {"Q0": "The cost for clicking on nodes may vary between nodes.", "Q1": "The better I perform the higher my bonus will be.", "Q2": "No, the amount of cash at each node of the web may be different each time.", "Q3": "To get the highest total score.", "Q4": "Only before moving the spider.", "Q5": "3 seconds"}, "trial_id": "mouselab_quiz_misaligned", "trial_type": "survey-multi-choice", "trial_index": 6, "time_elapsed": 890128, "internal_node_id": "0.0-2.0-4.0"}}, {"uniqueid": "w80470571:a59036325", "current_trial": 7, "dateTime": 1693661413195, "trialdata": {"rt": 11858, "response": {"Q0": "No"}, "question_order": [0], "trial_id": "repeat_check", "trial_type": "survey-multi-choice", "trial_index": 7, "time_elapsed": 902029, "internal_node_id": "0.0-4.0-0.0"}}, {"uniqueid": "w80470571:a59036325", "current_trial": 8, "dateTime": 1693661457637, "trialdata": {"rt": 44419, "stimulus": "\n<h1> Get ready to start the game! </h1>\n\nThank you for reading the instructions. Get ready start with the 40 rounds of this game.\n<br><br>\nIf you need to take a break, feel free to take one after the end of a round, before continuing to the next one.\n<br><br>\nRemember, the more money the spider gets, the bigger your bonus will be!\n<br><br>\n<div style='text-align: center;'>Press <code>space</code> to begin.</div>\n\n<br><br>\n(If, at any point, the <code>space</code> key does not take you to the next page, click once on the text and try again.)", "response": " ", "trial_id": "mdp_ready", "trial_type": "html-keyboard-response", "trial_index": 8, "time_elapsed": 946472, "internal_node_id": "0.0-6.0-0.0"}}, {"uniqueid": "w80470571:a59036325", "current_trial": 9, "dateTime": 1693661501413, "trialdata": {"revealed_states": [], "clicked_states": ["1", "2", "3", "8", "4", "11"], "num_clicks_accrued": [0, 0, 0, 0, 0, 0, 0, 0, 0, 0, 0, 0, 0], "stateRewards": ["", -2, 4, -7, -3, -76, 39, -28, 10, 14, 12, 60, 2, -3, 6, -10, 88, -34, -41, -3, 72, -13, -56, 1, 3, 2, 8, -51, 23, -57, 1, 14, -46, -16], "withholdReward": false, "trial_id": "mdp_trial_1", "block": "test", "trialIndex": 2, "score": 58.7, "costs": -6.299999999999999, "simulationMode": [null, null, null, null, null], "rewards": [-2, 4, -7, 10, 60], "path": ["0", "0", "1", "2", "3", "8", "11"], "rt": [17954, 810, 649, 434, 464], "actions": ["up", "up", "up", "left", "left"], "actionTimes": [25931, 27391, 28749, 29898, 31003], "queries": {"click": {"state": {"target": ["1", "2", "3", "8", "4", "11"], "time": [9696, 11526, 13432, 15324, 17206, 19236]}, "edge": {"target": [], "time": []}}, "mouseover": {"state": {"target": ["1", "2", "3", "8", "4", "11", "8", "10"], "time": [8999, 11190, 12870, 14937, 16839, 18748, 20385, 20834]}, "edge": {"target": [], "time": []}}, "mouseout": {"state": {"target": ["0", "1", "2", "3", "8", "4", "11", "8", "10", "18"], "time": [8268, 10947, 12678, 14897, 16379, 18277, 19431, 20822, 24488, 38026]}, "edge": {"target": [], "time": []}}}, "displayed_time": "31.66", "trialTime": 39873, "trial_type": "mouselab-mdp", "trial_index": 9, "time_elapsed": 990248, "internal_node_id": "0.0-6.0-1.0-0.0"}}, {"uniqueid": "w80470571:a59036325", "current_trial": 10, "dateTime": 1693661563039, "trialdata": {"revealed_states": [], "clicked_states": ["1", "2", "3", "4", "8", "11", "10", "23", "24", "25", "26", "30", "28", "29"], "num_clicks_accrued": [0, 0, 0, 0, 0, 0, 0, 0, 0, 0, 0, 0, 0], "stateRewards": ["", -1, -4, -1, -11, 43, 69, 39, 4, 17, -20, -82, -2, -1, 4, 8, -79, 24, -79, 11, 36, 64, 41, 2, 4, -1, 11, -79, -47, 75, -3, 63, -36, -19], "withholdReward": false, "trial_id": "mdp_trial_2", "block": "test", "trialIndex": 3, "score": 74.1, "costs": -16.9, "simulationMode": [null, null, null, null, null], "rewards": [2, 4, -1, 11, 75], "path": ["0", "0", "23", "24", "25", "26", "29"], "rt": [39214, 461, 488, 561, 565], "actions": ["left", "left", "left", "up", "left"], "actionTimes": [45877, 47156, 48388, 49725, 50913], "queries": {"click": {"state": {"target": ["1", "2", "3", "4", "8", "11", "10", "23", "24", "25", "26", "30", "28", "29"], "time": [7899, 9690, 11575, 13416, 15289, 17304, 21542, 26700, 28622, 30375, 32444, 34517, 36836, 40642]}, "edge": {"target": [], "time": []}}, "mouseover": {"state": {"target": ["1", "2", "3", "4", "8", "11", "8", "10", "2", "23", "24", "25", "26", "30", "28", "29", "27"], "time": [7181, 9254, 10995, 13188, 14899, 16759, 19676, 20695, 24744, 26069, 28233, 29897, 31925, 33874, 36172, 38743, 43203]}, "edge": {"target": [], "time": []}}, "mouseout": {"state": {"target": ["14", "1", "2", "3", "4", "8", "11", "8", "10", "2", "23", "24", "25", "26", "30", "28", "29", "27"], "time": [2274, 9079, 10689, 12904, 14856, 16648, 18695, 20371, 21894, 24910, 28015, 28992, 31764, 33616, 35991, 36967, 40826, 44963]}, "edge": {"target": [], "time": []}}}, "displayed_time": "51.59", "trialTime": 57491, "trial_type": "mouselab-mdp", "trial_index": 10, "time_elapsed": 1051873, "internal_node_id": "0.0-6.0-1.0-1.0"}}, {"uniqueid": "w80470571:a59036325", "current_trial": 11, "dateTime": 1693661670343, "trialdata": {"revealed_states": [], "clicked_states": ["12", "13", "14", "23", "24", "25", "1", "2", "3", "30", "26", "29", "28", "8", "4", "7", "6", "5", "9", "11", "10", "18", "16", "17", "20", "21"], "num_clicks_accrued": [0, 0, 0, 0, 0, 0, 0, 0, 0, 0, 0, 0, 0], "stateRewards": ["", -1, 4, -3, 3, 57, -61, 5, -11, 23, -1, 34, -2, -4, -1, -13, 27, 38, -36, 4, -45, 21, 88, 1, -2, -1, 1, -69, -5, -78, -12, -9, 38, -54], "withholdReward": false, "trial_id": "mdp_trial_3", "block": "test", "trialIndex": 4, "score": 22.70000000000001, "costs": -37.29999999999999, "simulationMode": [null, null, null, null, null], "rewards": [-1, 4, -3, 3, 57], "path": ["0", "0", "1", "2", "3", "4", "5"], "rt": [87081, 476, 377, 315, 539], "actions": ["up", "up", "up", "right", "up"], "actionTimes": [94526, 95643, 96831, 97807, 98997], "queries": {"click": {"state": {"target": ["12", "13", "14", "23", "24", "25", "1", "2", "3", "30", "26", "29", "28", "8", "4", "7", "6", "5", "9", "11", "10", "18", "16", "17", "20", "21"], "time": [9486, 11386, 13761, 16221, 18058, 19557, 21946, 23703, 25363, 28515, 30680, 33036, 36702, 41687, 43766, 45657, 49336, 53766, 58322, 62888, 67088, 71863, 76915, 81686, 86415, 90421]}, "edge": {"target": [], "time": []}}, "mouseover": {"state": {"target": ["12", "13", "14", "0", "23", "24", "25", "1", "2", "3", "25", "30", "26", "29", "26", "28", "27", "8", "4", "7", "6", "5", "9", "11", "10", "15", "18", "15", "16", "16", "17", "20", "21"], "time": [8734, 10917, 13260, 15527, 15676, 17722, 19196, 21210, 23126, 24709, 27529, 27829, 30175, 32337, 34465, 35053, 39188, 41017, 43227, 45200, 47605, 53034, 57402, 62318, 66625, 71178, 71495, 73662, 75924, 76429, 81112, 85873, 89006]}, "edge": {"target": [], "time": []}}, "mouseout": {"state": {"target": ["12", "13", "14", "0", "23", "24", "25", "1", "1", "2", "3", "25", "30", "26", "29", "26", "28", "27", "8", "4", "7", "6", "5", "9", "11", "10", "10", "15", "18", "15", "16", "16", "17", "20"], "time": [10697, 12815, 15478, 15635, 17392, 19123, 21105, 22091, 23028, 24009, 27199, 27744, 29784, 32205, 34361, 34842, 38379, 40431, 42958, 44928, 47148, 52740, 55549, 62114, 66212, 67238, 70231, 71393, 71977, 75762, 76110, 77082, 85357, 88446]}, "edge": {"target": [], "time": []}}}, "displayed_time": "99.57", "trialTime": 102381, "trial_type": "mouselab-mdp", "trial_index": 11, "time_elapsed": 1159177, "internal_node_id": "0.0-6.0-1.0-2.0"}}, {"uniqueid": "w80470571:a59036325", "current_trial": 12, "dateTime": 1693661718024, "trialdata": {"revealed_states": [], "clicked_states": ["1", "2", "3", "4", "8", "9", "7", "5"], "num_clicks_accrued": [0, 0, 0, 0, 0, 0, 0, 0, 0, 0, 0, 0, 0], "stateRewards": ["", -1, 1, -6, -1, 80, 23, 2, -11, 73, -81, 59, 1, 3, 5, -1, -26, 28, -3, 16, -59, -13, -50, -2, -2, 2, 15, -50, 86, 17, -4, 37, 35, 44], "withholdReward": false, "trial_id": "mdp_trial_4", "block": "test", "trialIndex": 5, "score": 62.4, "costs": -10.6, "simulationMode": [null, null, null, null, null], "rewards": [-1, 1, -6, -1, 80], "path": ["0", "0", "1", "2", "3", "4", "5"], "rt": [26060, 335, 232, 201, 348], "actions": ["up", "up", "up", "right", "up"], "actionTimes": [34386, 35329, 36229, 37071, 38190], "queries": {"click": {"state": {"target": ["1", "2", "3", "4", "8", "9", "7", "5"], "time": [10199, 11974, 13907, 15934, 17783, 19543, 24362, 29063]}, "edge": {"target": [], "time": []}}, "mouseover": {"state": {"target": ["1", "2", "3", "4", "3", "8", "9", "4", "7", "4", "5"], "time": [9517, 11415, 13338, 15553, 17238, 17574, 19185, 21147, 21734, 27327, 28474]}, "edge": {"target": [], "time": []}}, "mouseout": {"state": {"target": ["21", "0", "1", "2", "3", "4", "3", "8", "9", "4", "7", "4"], "time": [4055, 4709, 11351, 13267, 15480, 17182, 17513, 18948, 19845, 21515, 26847, 27549]}, "edge": {"target": [], "time": []}}}, "displayed_time": "38.87", "trialTime": 43667, "trial_type": "mouselab-mdp", "trial_index": 12, "time_elapsed": 1206858, "internal_node_id": "0.0-6.0-1.0-3.0"}}, {"uniqueid": "w80470571:a59036325", "current_trial": 13, "dateTime": 1693661758628, "trialdata": {"revealed_states": [], "clicked_states": ["23", "24", "25", "30", "33", "32", "31"], "num_clicks_accrued": [0, 0, 0, 0, 0, 0, 0, 0, 0, 0, 0, 0, 0], "stateRewards": ["", -1, 3, -5, -2, -13, -9, -34, -7, -81, 32, 35, -2, -2, 1, -14, -32, 81, 7, 4, 82, 56, -8, -1, 3, -8, 6, -24, -24, -53, 2, 38, 61, 54], "withholdReward": false, "trial_id": "mdp_trial_5", "block": "test", "trialIndex": 6, "score": 47.95, "costs": -9.05, "simulationMode": [null, null, null, null, null], "rewards": [-1, 3, -8, 2, 61], "path": ["0", "0", "23", "24", "25", "30", "32"], "rt": [22352, 185, 160, 58, 109], "actions": ["left", "left", "left", "down", "down"], "actionTimes": [29810, 30653, 31576, 32370, 33244], "queries": {"click": {"state": {"target": ["23", "24", "25", "30", "33", "32", "31"], "time": [8772, 10796, 12929, 15044, 17820, 21552, 26209]}, "edge": {"target": [], "time": []}}, "mouseover": {"state": {"target": ["23", "24", "25", "30", "25", "33", "30", "32", "31"], "time": [7778, 10065, 12507, 14633, 16461, 17205, 19832, 20473, 25179]}, "edge": {"target": [], "time": []}}, "mouseout": {"state": {"target": ["5", "23", "24", "25", "30", "25", "33", "30", "32"], "time": [3083, 10046, 12348, 14450, 16411, 16798, 19648, 20263, 25035]}, "edge": {"target": [], "time": []}}}, "displayed_time": "33.97", "trialTime": 36921, "trial_type": "mouselab-mdp", "trial_index": 13, "time_elapsed": 1247463, "internal_node_id": "0.0-6.0-1.0-4.0"}}, {"uniqueid": "w80470571:a59036325", "current_trial": 14, "dateTime": 1693661814618, "trialdata": {"revealed_states": [], "clicked_states": ["1", "2", "3", "4", "5", "6", "7", "8", "9", "10", "27"], "num_clicks_accrued": [0, 0, 0, 0, 0, 0, 0, 0, 0, 0, 0, 0, 0], "stateRewards": ["", -2, -3, 4, 1, 33, -53, 15, 9, -12, 61, -6, -2, 4, 6, -11, 47, -43, -7, -11, 46, 23, -28, -1, -1, 3, -10, 11, 76, -76, 10, 18, -38, 87], "withholdReward": false, "trial_id": "mdp_trial_6", "block": "test", "trialIndex": 7, "score": 51.95, "costs": -17.05, "simulationMode": [null, null, null, null, null], "rewards": [-2, -3, 4, 9, 61], "path": ["0", "0", "1", "2", "3", "8", "10"], "rt": [38370, 181, 203, 461, 238], "actions": ["up", "up", "up", "left", "down"], "actionTimes": [44601, 45480, 46457, 47534, 48470], "queries": {"click": {"state": {"target": ["1", "2", "3", "4", "5", "6", "7", "8", "9", "10", "27"], "time": [7652, 9280, 11187, 13123, 15665, 20072, 24163, 28605, 30598, 35221, 40688]}, "edge": {"target": [], "time": []}}, "mouseover": {"state": {"target": ["1", "2", "3", "4", "5", "6", "4", "7", "3", "8", "9", "10", "27"], "time": [7025, 8706, 10668, 12650, 15175, 19748, 23069, 23576, 27845, 28139, 30117, 34709, 40173]}, "edge": {"target": [], "time": []}}, "mouseout": {"state": {"target": ["31", "0", "1", "2", "3", "4", "4", "4", "5", "4", "6", "4", "7", "3", "8", "9", "10", "27"], "time": [1500, 6511, 8629, 10566, 12561, 13256, 14827, 15037, 15914, 18583, 22769, 23356, 24318, 28043, 29928, 34546, 39959, 40900]}, "edge": {"target": [], "time": []}}}, "displayed_time": "49.16", "trialTime": 51990, "trial_type": "mouselab-mdp", "trial_index": 14, "time_elapsed": 1303453, "internal_node_id": "0.0-6.0-1.0-5.0"}}, {"uniqueid": "w80470571:a59036325", "current_trial": 15, "dateTime": 1693661857257, "trialdata": {"revealed_states": [], "clicked_states": ["31", "32", "33", "22", "21", "20"], "num_clicks_accrued": [0, 0, 0, 0, 0, 0, 0, 0, 0, 0, 0, 0, 0], "stateRewards": ["", 2, 3, 3, 10, 19, -21, 6, 9, 54, 68, 16, 2, 2, -6, -8, 40, -2, -75, -2, -42, 55, 59, -1, 2, 4, -14, 11, -34, -30, -6, 61, -53, 13], "withholdReward": false, "trial_id": "mdp_trial_7", "block": "test", "trialIndex": 8, "score": 47.1, "costs": -12.9, "simulationMode": [null, null, null, null, null], "rewards": [-1, 2, 4, -6, 61], "path": ["0", "0", "23", "24", "25", "30", "31"], "rt": [27633, 203, 278, 326, 240], "actions": ["left", "left", "left", "down", "right"], "actionTimes": [33289, 34340, 35354, 36186, 37066], "queries": {"click": {"state": {"target": ["31", "32", "33", "22", "21", "20"], "time": [7250, 11395, 15949, 20335, 24478, 29221]}, "edge": {"target": [], "time": []}}, "mouseover": {"state": {"target": ["31", "31", "32", "33", "22", "21", "20"], "time": [5921, 6622, 9828, 15329, 19741, 23744, 28144]}, "edge": {"target": [], "time": []}}, "mouseout": {"state": {"target": ["1", "31", "31", "32", "32", "33", "22", "22", "21"], "time": [1002, 6083, 9024, 11559, 14446, 17041, 20540, 23362, 24633]}, "edge": {"target": [], "time": []}}}, "displayed_time": "37.85", "trialTime": 38911, "trial_type": "mouselab-mdp", "trial_index": 15, "time_elapsed": 1346091, "internal_node_id": "0.0-6.0-1.0-6.0"}}, {"uniqueid": "w80470571:a59036325", "current_trial": 16, "dateTime": 1693661889238, "trialdata": {"revealed_states": [], "clicked_states": ["9", "10", "11"], "num_clicks_accrued": [0, 0, 0, 0, 0, 0, 0, 0, 0, 0, 0, 0, 0], "stateRewards": ["", 1, -1, 8, -3, 38, 85, -20, -4, 8, 23, 73, 2, -4, 6, -13, 44, 7, -28, -11, -77, 45, -69, 1, -1, -7, -11, 75, -51, -87, 7, 36, -53, -26], "withholdReward": false, "trial_id": "mdp_trial_8", "block": "test", "trialIndex": 9, "score": 70.55, "costs": -6.449999999999999, "simulationMode": [null, null, null, null, null], "rewards": [1, -1, 8, -4, 73], "path": ["0", "0", "1", "2", "3", "8", "11"], "rt": [15448, 199, 144, 62, 181], "actions": ["up", "up", "up", "left", "left"], "actionTimes": [21289, 22222, 23192, 24011, 24950], "queries": {"click": {"state": {"target": ["9", "10", "11"], "time": [7330, 11872, 15932]}, "edge": {"target": [], "time": []}}, "mouseover": {"state": {"target": ["8", "9", "8", "10", "11"], "time": [6644, 6941, 10214, 11421, 15283]}, "edge": {"target": [], "time": []}}, "mouseout": {"state": {"target": ["20", "19", "8", "9", "8", "10", "11"], "time": [1365, 1683, 6875, 9924, 11142, 14997, 19008]}, "edge": {"target": [], "time": []}}}, "displayed_time": "25.57", "trialTime": 28677, "trial_type": "mouselab-mdp", "trial_index": 16, "time_elapsed": 1378072, "internal_node_id": "0.0-6.0-1.0-7.0"}}, {"uniqueid": "w80470571:a59036325", "current_trial": 17, "dateTime": 1693661931634, "trialdata": {"revealed_states": [], "clicked_states": ["27", "28", "31", "32", "11"], "num_clicks_accrued": [0, 0, 0, 0, 0, 0, 0, 0, 0, 0, 0, 0, 0], "stateRewards": ["", -2, -1, 3, -3, 71, -58, -21, 7, -10, -75, -37, 2, 4, -1, -12, -79, -29, -48, 3, -41, -10, -30, -1, -2, 1, -15, 13, 66, 22, -1, -42, -86, -55], "withholdReward": false, "trial_id": "mdp_trial_9", "block": "test", "trialIndex": 10, "score": 38.25, "costs": -10.75, "simulationMode": [null, null, null, null, null], "rewards": [-1, -2, 1, -15, 66], "path": ["0", "0", "23", "24", "25", "26", "28"], "rt": [25306, 94, 166, 566, 105], "actions": ["left", "left", "left", "up", "right"], "actionTimes": [31274, 32127, 32994, 34225, 35066], "queries": {"click": {"state": {"target": ["27", "28", "31", "32", "11"], "time": [7921, 12453, 17415, 22175, 26935]}, "edge": {"target": [], "time": []}}, "mouseover": {"state": {"target": ["26", "27", "28", "24", "31", "32", "31", "8", "11"], "time": [7305, 7595, 11900, 16082, 16809, 21734, 25776, 26093, 26395]}, "edge": {"target": [], "time": []}}, "mouseout": {"state": {"target": ["26", "27", "28", "24", "31", "32", "31", "8"], "time": [7385, 11015, 15906, 16288, 21520, 22411, 25990, 26273]}, "edge": {"target": [], "time": []}}}, "displayed_time": "35.74", "trialTime": 38634, "trial_type": "mouselab-mdp", "trial_index": 17, "time_elapsed": 1420469, "internal_node_id": "0.0-6.0-1.0-8.0"}}, {"uniqueid": "w80470571:a59036325", "current_trial": 18, "dateTime": 1693661983849, "trialdata": {"revealed_states": [], "clicked_states": ["22", "21", "16", "6", "11", "27", "32"], "num_clicks_accrued": [0, 0, 0, 0, 0, 0, 0, 0, 0, 0, 0, 0, 0], "stateRewards": ["", 2, -3, 5, 11, -79, 54, 11, -9, -78, 33, 22, -2, -1, 2, 14, 43, 34, 1, 10, 49, -65, 39, -1, 1, -1, 3, -16, -2, 11, 2, 12, 48, -65], "withholdReward": false, "trial_id": "mdp_trial_10", "block": "test", "trialIndex": 11, "score": 53.95, "costs": -15.05, "simulationMode": [null, null, null, null, null], "rewards": [2, -3, 5, 11, 54], "path": ["0", "0", "1", "2", "3", "4", "6"], "rt": [35537, 112, 94, 133, 332], "actions": ["up", "up", "up", "right", "right"], "actionTimes": [41925, 42726, 43642, 44570, 45584], "queries": {"click": {"state": {"target": ["22", "21", "16", "6", "11", "27", "32"], "time": [9345, 13897, 18265, 22559, 27113, 31555, 36652]}, "edge": {"target": [], "time": []}}, "mouseover": {"state": {"target": ["14", "14", "22", "21", "14", "16", "6", "8", "11", "27", "25", "30", "32", "31"], "time": [6722, 7738, 8607, 13391, 17393, 17873, 22020, 26502, 26689, 31075, 35328, 35637, 36194, 40900]}, "edge": {"target": [], "time": []}}, "mouseout": {"state": {"target": ["11", "1", "14", "14", "22", "22", "21", "14", "16", "6", "8", "11", "27", "27", "25", "30", "32", "31"], "time": [1678, 2366, 7495, 7985, 9744, 12033, 17229, 17613, 18388, 26273, 26633, 30785, 31616, 35104, 35533, 35935, 40029, 41285]}, "edge": {"target": [], "time": []}}}, "displayed_time": "46.33", "trialTime": 48366, "trial_type": "mouselab-mdp", "trial_index": 18, "time_elapsed": 1472683, "internal_node_id": "0.0-6.0-1.0-9.0"}}, {"uniqueid": "w80470571:a59036325", "current_trial": 19, "dateTime": 1693662031060, "trialdata": {"revealed_states": [], "clicked_states": ["5", "7", "31", "32", "21"], "num_clicks_accrued": [0, 0, 0, 0, 0, 0, 0, 0, 0, 0, 0, 0, 0], "stateRewards": ["", 1, 2, -3, -6, 50, -7, 7, -7, -80, 21, -1, 2, 2, 4, -1, 33, 84, 1, 14, -53, 81, 6, -2, -2, -3, -9, -87, -38, -59, -5, -74, -3, -71], "withholdReward": false, "trial_id": "mdp_trial_11", "block": "test", "trialIndex": 12, "score": 92.25, "costs": -10.75, "simulationMode": [null, null, null, null, null], "rewards": [2, 2, 4, 14, 81], "path": ["0", "0", "12", "13", "14", "19", "21"], "rt": [26881, 139, 130, 266, 166], "actions": ["right", "right", "right", "down", "down"], "actionTimes": [36681, 37498, 38331, 39358, 40271], "queries": {"click": {"state": {"target": ["5", "7", "31", "32", "21"], "time": [11468, 16875, 21805, 26467, 32041]}, "edge": {"target": [], "time": []}}, "mouseover": {"state": {"target": ["1", "4", "5", "7", "7", "31", "32", "21"], "time": [10313, 10602, 11019, 15844, 16455, 21221, 26000, 30652]}, "edge": {"target": [], "time": []}}, "mouseout": {"state": {"target": ["23", "1", "1", "4", "5", "7", "7", "31", "32", "21"], "time": [5605, 5809, 10435, 10892, 15546, 15994, 20899, 25733, 30140, 35841]}, "edge": {"target": [], "time": []}}}, "displayed_time": "40.91", "trialTime": 43542, "trial_type": "mouselab-mdp", "trial_index": 19, "time_elapsed": 1519894, "internal_node_id": "0.0-6.0-1.0-10.0"}}, {"uniqueid": "w80470571:a59036325", "current_trial": 20, "dateTime": 1693662068929, "trialdata": {"revealed_states": [], "clicked_states": ["21", "9", "32", "16"], "num_clicks_accrued": [0, 0, 0, 0, 0, 0, 0, 0, 0, 0, 0, 0, 0], "stateRewards": ["", -2, 2, 8, -6, -25, 3, 87, 2, -62, -2, 74, -2, -1, 2, -1, 79, 49, -37, -14, 5, 67, -9, -1, 2, -2, 5, 15, 38, 32, -14, -38, -38, 30], "withholdReward": false, "trial_id": "mdp_trial_12", "block": "test", "trialIndex": 13, "score": 68.4, "costs": -8.6, "simulationMode": [null, null, null, null, null], "rewards": [-2, -1, 2, -1, 79], "path": ["0", "0", "12", "13", "14", "15", "16"], "rt": [21822, 164, 201, 214, 278], "actions": ["right", "right", "right", "up", "up"], "actionTimes": [26922, 27775, 28636, 29654, 30604], "queries": {"click": {"state": {"target": ["21", "9", "32", "16"], "time": [7081, 12229, 17521, 22210]}, "edge": {"target": [], "time": []}}, "mouseover": {"state": {"target": ["12", "20", "21", "8", "9", "10", "25", "32", "13", "16"], "time": [5775, 6146, 6610, 11297, 11949, 16236, 16413, 16932, 21165, 21851]}, "edge": {"target": [], "time": []}}, "mouseout": {"state": {"target": ["19", "12", "12", "20", "21", "8", "9", "10", "25", "32", "13"], "time": [1208, 1380, 6028, 6438, 9869, 11607, 15919, 16324, 16567, 20224, 21401]}, "edge": {"target": [], "time": []}}}, "displayed_time": "31.27", "trialTime": 34030, "trial_type": "mouselab-mdp", "trial_index": 20, "time_elapsed": 1557763, "internal_node_id": "0.0-6.0-1.0-11.0"}}, {"uniqueid": "w80470571:a59036325", "current_trial": 21, "dateTime": 1693662108962, "trialdata": {"revealed_states": [], "clicked_states": ["33", "27", "16", "20", "5"], "num_clicks_accrued": [0, 0, 0, 0, 0, 0, 0, 0, 0, 0, 0, 0, 0], "stateRewards": ["", 1, -4, -4, 8, 1, -79, 68, -10, -79, 8, -74, -1, -3, -6, 14, 43, 23, 9, 5, -51, 63, 61, -2, 4, 6, -10, 69, -32, 57, 15, -80, -80, -77], "withholdReward": false, "trial_id": "mdp_trial_13", "block": "test", "trialIndex": 14, "score": 56.25, "costs": -10.75, "simulationMode": [null, null, null, null, null], "rewards": [-2, 4, 6, -10, 69], "path": ["0", "0", "23", "24", "25", "26", "27"], "rt": [25605, 65, 215, 83, 116], "actions": ["left", "left", "left", "up", "up"], "actionTimes": [31036, 31852, 32740, 33582, 34383], "queries": {"click": {"state": {"target": ["33", "27", "16", "20", "5"], "time": [7528, 12143, 17274, 21897, 26869]}, "edge": {"target": [], "time": []}}, "mouseover": {"state": {"target": ["0", "33", "26", "27", "18", "16", "15", "20", "6", "5"], "time": [6407, 7034, 11289, 11653, 16203, 16746, 21039, 21539, 25920, 26442]}, "edge": {"target": [], "time": []}}, "mouseout": {"state": {"target": ["16", "0", "0", "33", "26", "27", "18", "16", "15", "20", "6"], "time": [1187, 1468, 6667, 10370, 11530, 15036, 16638, 20953, 21245, 25701, 26261]}, "edge": {"target": [], "time": []}}}, "displayed_time": "35.02", "trialTime": 36614, "trial_type": "mouselab-mdp", "trial_index": 21, "time_elapsed": 1597796, "internal_node_id": "0.0-6.0-1.0-12.0"}}, {"uniqueid": "w80470571:a59036325", "current_trial": 22, "dateTime": 1693662137965, "trialdata": {"revealed_states": [], "clicked_states": ["21", "20"], "num_clicks_accrued": [0, 0, 0, 0, 0, 0, 0, 0, 0, 0, 0, 0, 0], "stateRewards": ["", 2, 3, 8, 11, 25, -80, 6, -4, -56, 84, -23, -2, -4, -3, 4, -51, -9, -61, -15, -64, 67, -35, 1, -1, -7, -6, 83, 59, -15, 12, -79, 56, 41], "withholdReward": false, "trial_id": "mdp_trial_14", "block": "test", "trialIndex": 15, "score": 38.7, "costs": -4.3, "simulationMode": [null, null, null, null, null], "rewards": [-2, -4, -3, -15, 67], "path": ["0", "0", "12", "13", "14", "19", "21"], "rt": [11805, 61, 113, 409, 144], "actions": ["right", "right", "right", "down", "down"], "actionTimes": [18192, 19060, 19890, 20893, 21834], "queries": {"click": {"state": {"target": ["21", "20"], "time": [9302, 14135]}, "edge": {"target": [], "time": []}}, "mouseover": {"state": {"target": ["31", "24", "11", "21", "20"], "time": [6550, 6910, 7200, 8632, 13468]}, "edge": {"target": [], "time": []}}, "mouseout": {"state": {"target": ["5", "0", "31", "24", "11", "21"], "time": [1886, 2453, 6826, 7109, 7856, 13012]}, "edge": {"target": [], "time": []}}}, "displayed_time": "23.84", "trialTime": 26351, "trial_type": "mouselab-mdp", "trial_index": 22, "time_elapsed": 1626800, "internal_node_id": "0.0-6.0-1.0-13.0"}}, {"uniqueid": "w80470571:a59036325", "current_trial": 23, "dateTime": 1693662168784, "trialdata": {"revealed_states": [], "clicked_states": ["1", "2", "3", "4", "5", "7"], "num_clicks_accrued": [0, 0, 0, 0, 0, 0, 0, 0, 0, 0, 0, 0, 0], "stateRewards": ["", 1, 1, -2, 7, -31, -6, 76, 1, -36, -16, -53, 2, 1, 7, 13, -47, -10, 47, -7, 72, 46, -56, -2, -2, -2, 11, -80, 44, 38, 16, 67, 85, -78], "withholdReward": false, "trial_id": "mdp_trial_15", "block": "test", "trialIndex": 16, "score": 76.1, "costs": -6.9, "simulationMode": [null, null, null, null, null], "rewards": [1, 1, -2, 7, 76], "path": ["0", "0", "1", "2", "3", "4", "7"], "rt": [17335, 81, 222, 108, 185], "actions": ["up", "up", "up", "right", "down"], "actionTimes": [21890, 22730, 23575, 24417, 25234], "queries": {"click": {"state": {"target": ["1", "2", "3", "4", "5", "7"], "time": [5609, 7513, 9534, 11267, 13050, 17264]}, "edge": {"target": [], "time": []}}, "mouseover": {"state": {"target": ["1", "2", "3", "4", "5", "4", "7", "6"], "time": [5058, 6918, 9144, 11092, 12588, 16108, 16421, 20671]}, "edge": {"target": [], "time": []}}, "mouseout": {"state": {"target": ["20", "12", "1", "2", "3", "4", "5", "4", "7"], "time": [1285, 1576, 6618, 8853, 10680, 11641, 14863, 16334, 17471]}, "edge": {"target": [], "time": []}}}, "displayed_time": "25.98", "trialTime": 27940, "trial_type": "mouselab-mdp", "trial_index": 23, "time_elapsed": 1657618, "internal_node_id": "0.0-6.0-1.0-14.0"}}, {"uniqueid": "w80470571:a59036325", "current_trial": 24, "dateTime": 1693662209252, "trialdata": {"revealed_states": [], "clicked_states": ["23", "24", "25", "30", "26", "28", "27", "29"], "num_clicks_accrued": [0, 0, 0, 0, 0, 0, 0, 0, 0, 0, 0, 0, 0], "stateRewards": ["", 1, -2, -3, 14, -42, -87, -37, -11, -50, 33, -44, -2, 4, -7, 13, 48, -75, -66, 12, 23, -2, 82, 1, -4, 3, 12, 51, -15, -26, -11, -52, -29, 82], "withholdReward": false, "trial_id": "mdp_trial_16", "block": "test", "trialIndex": 17, "score": 52.4, "costs": -10.6, "simulationMode": [null, null, null, null, null], "rewards": [1, -4, 3, 12, 51], "path": ["0", "0", "23", "24", "25", "26", "27"], "rt": [25841, 83, 45, 78, 60], "actions": ["left", "left", "left", "up", "up"], "actionTimes": [31860, 32700, 33549, 34373, 35139], "queries": {"click": {"state": {"target": ["23", "24", "25", "30", "26", "28", "27", "29"], "time": [7449, 9690, 11872, 14159, 16313, 18428, 23030, 27480]}, "edge": {"target": [], "time": []}}, "mouseover": {"state": {"target": ["23", "0", "24", "25", "30", "25", "26", "28", "27", "29", "26"], "time": [6365, 8510, 9066, 11497, 13762, 15463, 15711, 18090, 22471, 26607, 31174]}, "edge": {"target": [], "time": []}}, "mouseout": {"state": {"target": ["6", "12", "23", "0", "24", "25", "30", "25", "26", "28", "27", "29", "26"], "time": [1102, 1557, 7899, 8827, 11181, 13653, 14276, 15654, 17696, 22184, 26367, 27784, 31392]}, "edge": {"target": [], "time": []}}}, "displayed_time": "35.88", "trialTime": 37346, "trial_type": "mouselab-mdp", "trial_index": 24, "time_elapsed": 1698087, "internal_node_id": "0.0-6.0-1.0-15.0"}}, {"uniqueid": "w80470571:a59036325", "current_trial": 25, "dateTime": 1693662277238, "trialdata": {"revealed_states": [], "clicked_states": ["1", "2", "3", "8", "4", "5", "7", "6", "16", "17", "20", "21", "32", "31"], "num_clicks_accrued": [0, 0, 0, 0, 0, 0, 0, 0, 0, 0, 0, 0, 0], "stateRewards": ["", -1, 3, 2, 9, 41, 4, -46, -12, -54, -87, -25, 2, 3, -1, 11, -77, 12, -33, -9, -32, 35, 72, 1, 3, -7, 4, 37, 65, -73, 6, 77, -43, 8], "withholdReward": false, "trial_id": "mdp_trial_17", "block": "test", "trialIndex": 18, "score": 56.5, "costs": -23.499999999999996, "simulationMode": [null, null, null, null, null], "rewards": [1, 3, -7, 6, 77], "path": ["0", "0", "23", "24", "25", "30", "31"], "rt": [51934, 102, 1773, 200, 93], "actions": ["left", "left", "left", "down", "right"], "actionTimes": [57260, 58002, 60498, 61374, 62260], "queries": {"click": {"state": {"target": ["1", "2", "3", "8", "4", "5", "7", "6", "16", "17", "20", "21", "32", "31"], "time": [7077, 8973, 10970, 13010, 14907, 17293, 21532, 25771, 30829, 35050, 39595, 44116, 48831, 53106]}, "edge": {"target": [], "time": []}}, "mouseover": {"state": {"target": ["1", "2", "3", "8", "4", "5", "4", "7", "6", "16", "17", "20", "21", "32", "31", "30"], "time": [6389, 8469, 10529, 12356, 14493, 16640, 20238, 20754, 25400, 30386, 34540, 38982, 43681, 48332, 52655, 56562]}, "edge": {"target": [], "time": []}}, "mouseout": {"state": {"target": ["26", "0", "1", "2", "3", "8", "3", "4", "5", "4", "7", "6", "16", "17", "20", "21", "32", "31", "30"], "time": [1336, 1746, 8250, 10317, 12301, 14115, 14415, 16444, 18882, 20505, 21748, 30115, 34324, 38842, 43381, 47852, 52372, 56351, 56810]}, "edge": {"target": [], "time": []}}}, "displayed_time": "62.98", "trialTime": 64795, "trial_type": "mouselab-mdp", "trial_index": 25, "time_elapsed": 1766072, "internal_node_id": "0.0-6.0-1.0-16.0"}}, {"uniqueid": "w80470571:a59036325", "current_trial": 26, "dateTime": 1693662305487, "trialdata": {"revealed_states": [], "clicked_states": ["33", "29"], "num_clicks_accrued": [0, 0, 0, 0, 0, 0, 0, 0, 0, 0, 0, 0, 0], "stateRewards": ["", -1, 1, 8, -8, -49, 62, -78, 16, 28, -81, 78, -2, -3, -1, -4, 67, 49, -2, -13, -16, -39, 83, 1, -4, 4, -5, -20, 7, 84, 7, -32, -59, 19], "withholdReward": false, "trial_id": "mdp_trial_18", "block": "test", "trialIndex": 19, "score": 75.7, "costs": -4.3, "simulationMode": [null, null, null, null, null], "rewards": [1, -4, 4, -5, 84], "path": ["0", "0", "23", "24", "25", "26", "29"], "rt": [10691, 228, 258, 99, 163], "actions": ["left", "left", "left", "up", "left"], "actionTimes": [15073, 15917, 17063, 17938, 18836], "queries": {"click": {"state": {"target": ["33", "29"], "time": [6648, 10529]}, "edge": {"target": [], "time": []}}, "mouseover": {"state": {"target": ["23", "33", "29", "11"], "time": [5174, 5762, 8944, 13481]}, "edge": {"target": [], "time": []}}, "mouseout": {"state": {"target": ["31", "23", "33", "29"], "time": [909, 5428, 8714, 12241]}, "edge": {"target": [], "time": []}}}, "displayed_time": "22.78", "trialTime": 24480, "trial_type": "mouselab-mdp", "trial_index": 26, "time_elapsed": 1794322, "internal_node_id": "0.0-6.0-1.0-17.0"}}, {"uniqueid": "w80470571:a59036325", "current_trial": 27, "dateTime": 1693662368366, "trialdata": {"revealed_states": [], "clicked_states": ["33", "29", "11", "5", "16", "20", "21", "32", "27", "9"], "num_clicks_accrued": [0, 0, 0, 0, 0, 0, 0, 0, 0, 0, 0, 0, 0], "stateRewards": ["", 1, 1, -5, 10, -31, 73, 14, -8, -23, 63, -70, -1, 2, 8, 7, 25, -59, 27, -10, -40, -71, -15, -2, 3, -8, -5, -19, 77, -34, 7, 67, 63, 19], "withholdReward": false, "trial_id": "mdp_trial_19", "block": "test", "trialIndex": 20, "score": 41.5, "costs": -21.499999999999996, "simulationMode": [null, null, null, null, null], "rewards": [-2, 3, -8, 7, 63], "path": ["0", "0", "23", "24", "25", "30", "32"], "rt": [47487, 175, 428, 402, 101], "actions": ["left", "left", "left", "down", "down"], "actionTimes": [53811, 54738, 55807, 57022, 57949], "queries": {"click": {"state": {"target": ["33", "29", "11", "5", "16", "20", "21", "32", "27", "9"], "time": [8166, 12681, 17042, 21131, 25705, 30096, 34578, 39079, 43847, 49150]}, "edge": {"target": [], "time": []}}, "mouseover": {"state": {"target": ["0", "31", "33", "29", "11", "5", "6", "16", "20", "20", "21", "32", "30", "26", "27", "9", "6"], "time": [7135, 7387, 7619, 11875, 16588, 20697, 25012, 25227, 29303, 29631, 33989, 38549, 42577, 42998, 43258, 48181, 53269]}, "edge": {"target": [], "time": []}}, "mouseout": {"state": {"target": ["11", "0", "0", "31", "33", "29", "11", "11", "5", "6", "16", "20", "20", "21", "32", "30", "26", "27", "9"], "time": [2577, 3276, 7297, 7548, 8236, 16210, 17336, 20131, 24819, 25171, 29133, 29455, 33829, 37686, 39219, 42725, 43106, 47827, 53082]}, "edge": {"target": [], "time": []}}}, "displayed_time": "58.55", "trialTime": 60260, "trial_type": "mouselab-mdp", "trial_index": 27, "time_elapsed": 1857201, "internal_node_id": "0.0-6.0-1.0-18.0"}}, {"uniqueid": "w80470571:a59036325", "current_trial": 28, "dateTime": 1693662396436, "trialdata": {"revealed_states": [], "clicked_states": ["21", "5"], "num_clicks_accrued": [0, 0, 0, 0, 0, 0, 0, 0, 0, 0, 0, 0, 0], "stateRewards": ["", 2, -1, -4, -13, 74, 77, 3, 2, -43, -2, -11, 2, 3, 7, 11, -26, -29, -33, -3, -3, -13, -3, 1, 3, -7, 14, -59, 33, 9, -5, 34, 79, 68], "withholdReward": false, "trial_id": "mdp_trial_20", "block": "test", "trialIndex": 21, "score": 53.7, "costs": -4.3, "simulationMode": [null, null, null, null, null], "rewards": [2, -1, -4, -13, 74], "path": ["0", "0", "1", "2", "3", "4", "5"], "rt": [10866, 173, 120, 106, 172], "actions": ["up", "up", "up", "right", "up"], "actionTimes": [15203, 16104, 17010, 17911, 18719], "queries": {"click": {"state": {"target": ["21", "5"], "time": [5806, 10436]}, "edge": {"target": [], "time": []}}, "mouseover": {"state": {"target": ["22", "21", "19", "18", "4", "5", "9"], "time": [5031, 5293, 9120, 9561, 9811, 10052, 13444]}, "edge": {"target": [], "time": []}}, "mouseout": {"state": {"target": ["6", "0", "22", "21", "19", "18", "4", "5"], "time": [1034, 1468, 5240, 6136, 9251, 9729, 10004, 12265]}, "edge": {"target": [], "time": []}}}, "displayed_time": "22.49", "trialTime": 24322, "trial_type": "mouselab-mdp", "trial_index": 28, "time_elapsed": 1885271, "internal_node_id": "0.0-6.0-1.0-19.0"}}, {"uniqueid": "w80470571:a59036325", "current_trial": 29, "dateTime": 1693662463355, "trialdata": {"revealed_states": [], "clicked_states": ["17", "29", "33", "20", "21", "32", "9", "5", "6", "16", "18"], "num_clicks_accrued": [0, 0, 0, 0, 0, 0, 0, 0, 0, 0, 0, 0, 0], "stateRewards": ["", -1, -2, 4, 9, 10, -75, 39, 16, -43, 88, -19, -1, 1, 2, 4, -31, 10, 73, 12, 41, -64, -81, -2, 2, -6, 1, -81, -1, -26, 3, -59, -3, -20], "withholdReward": false, "trial_id": "mdp_trial_21", "block": "test", "trialIndex": 22, "score": 55.35000000000001, "costs": -23.649999999999995, "simulationMode": [null, null, null, null, null], "rewards": [-1, 1, 2, 4, 73], "path": ["0", "0", "12", "13", "14", "15", "18"], "rt": [52280, 90, 73, 58, 205], "actions": ["right", "right", "right", "up", "left"], "actionTimes": [57054, 57836, 58679, 59540, 60475], "queries": {"click": {"state": {"target": ["17", "29", "33", "20", "21", "32", "9", "5", "6", "16", "18"], "time": [6676, 11416, 16333, 21188, 25876, 30410, 35118, 39368, 43865, 48257, 52619]}, "edge": {"target": [], "time": []}}, "mouseover": {"state": {"target": ["18", "17", "1", "28", "29", "33", "31", "19", "20", "21", "32", "9", "5", "6", "16", "18", "7"], "time": [5709, 6237, 10217, 10604, 11152, 15365, 19618, 20309, 20806, 25217, 29840, 34427, 38921, 43345, 47846, 52075, 56326]}, "edge": {"target": [], "time": []}}, "mouseout": {"state": {"target": ["9", "18", "17", "1", "28", "29", "33", "31", "19", "20", "21", "32", "9", "5", "6", "6", "16", "16", "18"], "time": [1079, 6051, 9753, 10314, 10839, 15141, 19502, 20112, 20609, 24148, 28994, 34070, 36735, 43094, 44107, 47604, 48362, 51771, 56029]}, "edge": {"target": [], "time": []}}}, "displayed_time": "61.20", "trialTime": 64633, "trial_type": "mouselab-mdp", "trial_index": 29, "time_elapsed": 1952190, "internal_node_id": "0.0-6.0-1.0-20.0"}}, {"uniqueid": "w80470571:a59036325", "current_trial": 30, "dateTime": 1693662500999, "trialdata": {"revealed_states": [], "clicked_states": ["10", "7", "18", "22", "31"], "num_clicks_accrued": [0, 0, 0, 0, 0, 0, 0, 0, 0, 0, 0, 0, 0], "stateRewards": ["", 2, 3, -1, 6, 44, -4, -59, -14, -3, 64, 16, 1, -3, 3, 6, 3, 49, 19, 3, -49, -14, -86, 1, 2, -3, -8, -33, 14, 32, -13, -77, -47, -67], "withholdReward": false, "trial_id": "mdp_trial_22", "block": "test", "trialIndex": 23, "score": 43.25, "costs": -10.75, "simulationMode": [null, null, null, null, null], "rewards": [2, 3, -1, -14, 64], "path": ["0", "0", "1", "2", "3", "8", "10"], "rt": [24622, 85, 69, 232, 74], "actions": ["up", "up", "up", "left", "down"], "actionTimes": [29039, 29904, 30875, 31932, 32722], "queries": {"click": {"state": {"target": ["10", "7", "18", "22", "31"], "time": [6216, 11214, 16084, 20998, 25641]}, "edge": {"target": [], "time": []}}, "mouseover": {"state": {"target": ["10", "2", "7", "18", "22", "31"], "time": [5650, 9446, 10103, 15534, 20206, 25201]}, "edge": {"target": [], "time": []}}, "mouseout": {"state": {"target": ["7", "10", "2", "7", "18", "22", "31"], "time": [903, 9364, 9666, 15375, 20038, 24769, 25871]}, "edge": {"target": [], "time": []}}}, "displayed_time": "33.46", "trialTime": 35455, "trial_type": "mouselab-mdp", "trial_index": 30, "time_elapsed": 1989834, "internal_node_id": "0.0-6.0-1.0-21.0"}}, {"uniqueid": "w80470571:a59036325", "current_trial": 31, "dateTime": 1693662576932, "trialdata": {"revealed_states": [], "clicked_states": ["32", "16", "10", "21", "29", "5", "20", "17", "11", "6", "7", "27", "31"], "num_clicks_accrued": [0, 0, 0, 0, 0, 0, 0, 0, 0, 0, 0, 0, 0], "stateRewards": ["", 2, -1, -3, 16, -3, -16, -62, -1, 13, -26, 43, -1, 4, 3, -9, -54, -37, -3, -12, -71, -68, -57, 1, -3, 2, -9, 2, -2, -9, -11, 84, -52, 55], "withholdReward": false, "trial_id": "mdp_trial_23", "block": "test", "trialIndex": 24, "score": 45.05000000000001, "costs": -27.949999999999992, "simulationMode": [null, null, null, null, null], "rewards": [1, -3, 2, -11, 84], "path": ["0", "0", "23", "24", "25", "30", "31"], "rt": [62688, 170, 128, 52, 73], "actions": ["left", "left", "left", "down", "right"], "actionTimes": [67658, 68482, 69333, 70127, 70946], "queries": {"click": {"state": {"target": ["32", "16", "10", "21", "29", "5", "20", "17", "11", "6", "7", "27", "31"], "time": [6842, 11563, 16313, 20771, 25547, 30725, 35665, 40118, 44965, 49800, 53785, 58434, 62987]}, "edge": {"target": [], "time": []}}, "mouseover": {"state": {"target": ["0", "32", "13", "16", "14", "10", "22", "21", "24", "29", "26", "24", "5", "16", "20", "17", "11", "6", "7", "27", "27", "31", "33"], "time": [5918, 6375, 10669, 11136, 15175, 15752, 19710, 20260, 24413, 24900, 28616, 28863, 30247, 34468, 35005, 39656, 44139, 49149, 53120, 57591, 58036, 62217, 66509]}, "edge": {"target": [], "time": []}}, "mouseout": {"state": {"target": ["31", "0", "0", "32", "13", "16", "14", "10", "22", "21", "24", "29", "26", "24", "5", "16", "20", "20", "17", "11", "6", "7", "7", "27", "27", "31", "33"], "time": [1229, 1647, 6158, 8438, 10818, 13053, 15348, 19619, 20218, 24287, 24626, 28543, 28815, 29295, 33700, 34657, 35785, 39448, 43662, 48984, 52805, 53920, 57371, 57834, 62069, 66052, 67141]}, "edge": {"target": [], "time": []}}}, "displayed_time": "71.63", "trialTime": 73474, "trial_type": "mouselab-mdp", "trial_index": 31, "time_elapsed": 2065767, "internal_node_id": "0.0-6.0-1.0-22.0"}}, {"uniqueid": "w80470571:a59036325", "current_trial": 32, "dateTime": 1693662651433, "trialdata": {"revealed_states": [], "clicked_states": ["28", "18", "21", "31", "22", "20", "17", "16", "6", "7", "10", "27", "33"], "num_clicks_accrued": [0, 0, 0, 0, 0, 0, 0, 0, 0, 0, 0, 0, 0], "stateRewards": ["", 2, -4, 7, 3, 23, -42, 4, 7, -81, -33, 7, -2, -4, 5, -1, 50, -57, -14, -13, -14, 44, 55, -2, -2, 5, -2, 33, 1, 57, -13, -7, 58, 87], "withholdReward": false, "trial_id": "mdp_trial_24", "block": "test", "trialIndex": 25, "score": 47.05000000000001, "costs": -27.949999999999992, "simulationMode": [null, null, null, null, null], "rewards": [-2, -2, 5, -13, 87], "path": ["0", "0", "23", "24", "25", "30", "33"], "rt": [62289, 59, 68, 19, 119], "actions": ["left", "left", "left", "down", "left"], "actionTimes": [66332, 67183, 68099, 68939, 69859], "queries": {"click": {"state": {"target": ["28", "18", "21", "31", "22", "20", "17", "16", "6", "7", "10", "27", "33"], "time": [5438, 9486, 13843, 19205, 24037, 28706, 33194, 38339, 42563, 47021, 52167, 57798, 61964]}, "edge": {"target": [], "time": []}}, "mouseover": {"state": {"target": ["28", "18", "21", "22", "31", "22", "19", "20", "17", "6", "16", "6", "7", "8", "10", "28", "24", "27", "26", "33", "32"], "time": [4771, 7639, 13287, 18169, 18757, 23466, 27851, 28379, 32708, 37170, 37579, 41835, 46423, 51254, 51630, 56478, 56898, 57255, 60325, 61264, 65166]}, "edge": {"target": [], "time": []}}, "mouseout": {"state": {"target": ["31", "0", "28", "18", "21", "22", "31", "22", "19", "20", "20", "17", "17", "6", "16", "6", "7", "8", "10", "28", "24", "27", "26", "33"], "time": [998, 1334, 5559, 13098, 17950, 18515, 22917, 24290, 28127, 28945, 32033, 34797, 36722, 37362, 41480, 46230, 50841, 51460, 56067, 56777, 57081, 60248, 60525, 64521]}, "edge": {"target": [], "time": []}}}, "displayed_time": "70.45", "trialTime": 72412, "trial_type": "mouselab-mdp", "trial_index": 32, "time_elapsed": 2140267, "internal_node_id": "0.0-6.0-1.0-23.0"}}, {"uniqueid": "w80470571:a59036325", "current_trial": 33, "dateTime": 1693662688664, "trialdata": {"revealed_states": [], "clicked_states": ["33", "28", "31", "32", "27"], "num_clicks_accrued": [0, 0, 0, 0, 0, 0, 0, 0, 0, 0, 0, 0, 0], "stateRewards": ["", -2, 1, -5, 2, -68, 80, 33, 10, 67, -59, 20, -1, -3, 3, 14, 74, -2, 24, -16, 63, 80, 46, -1, 4, 6, 12, 83, -38, -43, -4, 43, 14, -79], "withholdReward": false, "trial_id": "mdp_trial_25", "block": "test", "trialIndex": 26, "score": 93.25, "costs": -10.75, "simulationMode": [null, null, null, null, null], "rewards": [-1, 4, 6, 12, 83], "path": ["0", "0", "23", "24", "25", "26", "27"], "rt": [23631, 115, 171, 178, 170], "actions": ["left", "left", "left", "up", "up"], "actionTimes": [28107, 28975, 29854, 30842, 31682], "queries": {"click": {"state": {"target": ["33", "28", "31", "32", "27"], "time": [6222, 10903, 15136, 19450, 24088]}, "edge": {"target": [], "time": []}}, "mouseover": {"state": {"target": ["24", "33", "31", "24", "28", "31", "32", "24", "27"], "time": [5402, 6140, 8917, 9236, 9813, 14635, 18985, 23280, 23534]}, "edge": {"target": [], "time": []}}, "mouseout": {"state": {"target": ["32", "0", "24", "33", "31", "24", "28", "31", "32", "24", "27"], "time": [771, 1060, 5653, 6773, 9189, 9405, 14447, 18456, 22005, 23479, 24236]}, "edge": {"target": [], "time": []}}}, "displayed_time": "32.33", "trialTime": 34550, "trial_type": "mouselab-mdp", "trial_index": 33, "time_elapsed": 2177499, "internal_node_id": "0.0-6.0-1.0-24.0"}}, {"uniqueid": "w80470571:a59036325", "current_trial": 34, "dateTime": 1693662744318, "trialdata": {"revealed_states": [], "clicked_states": ["31", "32", "33", "28", "29", "27", "10", "11", "9"], "num_clicks_accrued": [0, 0, 0, 0, 0, 0, 0, 0, 0, 0, 0, 0, 0], "stateRewards": ["", 2, -1, -1, -9, -81, -30, 55, -6, 78, 25, 62, 2, 4, -1, 9, -85, 1, -19, 1, -60, 12, -34, 1, 4, -1, -13, -24, -16, -83, -8, 16, 43, 9], "withholdReward": false, "trial_id": "mdp_trial_26", "block": "test", "trialIndex": 27, "score": 52.650000000000006, "costs": -19.349999999999998, "simulationMode": [null, null, null, null, null], "rewards": [2, -1, -1, -6, 78], "path": ["0", "0", "1", "2", "3", "8", "9"], "rt": [39919, 112, 137, 202, 186], "actions": ["up", "up", "up", "left", "up"], "actionTimes": [45618, 46548, 47463, 48380, 49235], "queries": {"click": {"state": {"target": ["31", "32", "33", "28", "29", "27", "10", "11", "9"], "time": [7666, 11967, 16195, 20256, 24645, 28949, 33057, 37068, 41191]}, "edge": {"target": [], "time": []}}, "mouseover": {"state": {"target": ["0", "31", "32", "33", "24", "28", "29", "27", "10", "11", "8", "9", "5"], "time": [6497, 6969, 11375, 15661, 18987, 19672, 24141, 28377, 32585, 36460, 39027, 40693, 45195]}, "edge": {"target": [], "time": []}}, "mouseout": {"state": {"target": ["27", "23", "0", "31", "32", "33", "24", "28", "29", "27", "10", "11", "8", "9"], "time": [2549, 2821, 6633, 9551, 15370, 18438, 19529, 23865, 26500, 30900, 36204, 38953, 40511, 44709]}, "edge": {"target": [], "time": []}}}, "displayed_time": "49.94", "trialTime": 53452, "trial_type": "mouselab-mdp", "trial_index": 34, "time_elapsed": 2233152, "internal_node_id": "0.0-6.0-1.0-25.0"}}, {"uniqueid": "w80470571:a59036325", "current_trial": 35, "dateTime": 1693662770787, "trialdata": {"revealed_states": [], "clicked_states": ["9", "11"], "num_clicks_accrued": [0, 0, 0, 0, 0, 0, 0, 0, 0, 0, 0, 0, 0], "stateRewards": ["", -2, -3, 1, -7, 39, -67, 16, 5, -20, 73, 66, -1, 4, 5, -3, 23, -68, -87, -8, 3, -3, 17, 1, -4, -2, -13, -32, 34, 61, -5, -11, -18, 12], "withholdReward": false, "trial_id": "mdp_trial_27", "block": "test", "trialIndex": 28, "score": 62.7, "costs": -4.3, "simulationMode": [null, null, null, null, null], "rewards": [-2, -3, 1, 5, 66], "path": ["0", "0", "1", "2", "3", "8", "11"], "rt": [11580, 199, 3, 97, 417], "actions": ["up", "up", "up", "left", "left"], "actionTimes": [16334, 17181, 18441, 19514, 20656], "queries": {"click": {"state": {"target": ["9", "11"], "time": [6983, 11316]}, "edge": {"target": [], "time": []}}, "mouseover": {"state": {"target": ["10", "9", "11", "10"], "time": [5004, 6480, 10750, 14673]}, "edge": {"target": [], "time": []}}, "mouseout": {"state": {"target": ["5", "0", "10", "9", "11"], "time": [1215, 1591, 5816, 10624, 14417]}, "edge": {"target": [], "time": []}}}, "displayed_time": "22.42", "trialTime": 24290, "trial_type": "mouselab-mdp", "trial_index": 35, "time_elapsed": 2259622, "internal_node_id": "0.0-6.0-1.0-26.0"}}, {"uniqueid": "w80470571:a59036325", "current_trial": 36, "dateTime": 1693662824239, "trialdata": {"revealed_states": [], "clicked_states": ["22", "21", "20", "17", "18", "16", "7", "6", "5"], "num_clicks_accrued": [0, 0, 0, 0, 0, 0, 0, 0, 0, 0, 0, 0, 0], "stateRewards": ["", 2, 4, -5, 7, 81, 35, 6, 11, 14, -72, 42, -1, 2, 3, -7, -77, -44, -40, -15, -85, 51, -32, -2, -1, -5, 7, -74, 47, 52, 16, -49, 48, -46], "withholdReward": false, "trial_id": "mdp_trial_28", "block": "test", "trialIndex": 29, "score": 69.65, "costs": -19.349999999999998, "simulationMode": [null, null, null, null, null], "rewards": [2, 4, -5, 7, 81], "path": ["0", "0", "1", "2", "3", "4", "5"], "rt": [39512, 93, 230, 237, 63], "actions": ["up", "up", "up", "right", "up"], "actionTimes": [45327, 46160, 47117, 47893, 48833], "queries": {"click": {"state": {"target": ["22", "21", "20", "17", "18", "16", "7", "6", "5"], "time": [7351, 11534, 15606, 19998, 24188, 28512, 32551, 36781, 41066]}, "edge": {"target": [], "time": []}}, "mouseover": {"state": {"target": ["13", "22", "19", "21", "20", "17", "15", "18", "16", "7", "6", "5"], "time": [6133, 6671, 9049, 10758, 13403, 19522, 23515, 23939, 28149, 31868, 35803, 40621]}, "edge": {"target": [], "time": []}}, "mouseout": {"state": {"target": ["10", "0", "13", "22", "19", "21", "20", "17", "15", "18", "16", "7", "6"], "time": [2514, 3198, 6412, 8995, 10447, 11800, 18000, 23310, 23720, 27671, 28580, 35510, 40357]}, "edge": {"target": [], "time": []}}}, "displayed_time": "49.68", "trialTime": 51334, "trial_type": "mouselab-mdp", "trial_index": 36, "time_elapsed": 2313073, "internal_node_id": "0.0-6.0-1.0-27.0"}}, {"uniqueid": "w80470571:a59036325", "current_trial": 37, "dateTime": 1693662888718, "trialdata": {"revealed_states": [], "clicked_states": ["10", "11", "9", "5", "6", "7", "28", "27", "29", "31", "32"], "num_clicks_accrued": [0, 0, 0, 0, 0, 0, 0, 0, 0, 0, 0, 0, 0], "stateRewards": ["", 2, 3, 6, -5, -74, -53, 17, -12, 46, 44, 18, -2, 4, 1, -8, 22, -23, -49, 9, -45, 55, 81, 1, -1, -7, -16, -83, -71, -45, 2, 51, 82, 61], "withholdReward": false, "trial_id": "mdp_trial_29", "block": "test", "trialIndex": 30, "score": 53.35000000000001, "costs": -23.649999999999995, "simulationMode": [null, null, null, null, null], "rewards": [1, -1, -7, 2, 82], "path": ["0", "0", "23", "24", "25", "30", "32"], "rt": [48337, 178, 385, 132, 193], "actions": ["left", "left", "left", "down", "down"], "actionTimes": [55613, 56583, 57767, 58711, 59672], "queries": {"click": {"state": {"target": ["10", "11", "9", "5", "6", "7", "28", "27", "29", "31", "32"], "time": [8820, 13096, 17318, 21228, 25477, 29680, 34639, 38777, 43013, 46991, 51148]}, "edge": {"target": [], "time": []}}, "mouseover": {"state": {"target": ["10", "2", "11", "9", "5", "6", "7", "28", "26", "27", "29", "25", "31", "32", "33"], "time": [8034, 9915, 12282, 16432, 20636, 24941, 28766, 33984, 36482, 37590, 42587, 45621, 46414, 50492, 54760]}, "edge": {"target": [], "time": []}}, "mouseout": {"state": {"target": ["5", "10", "2", "11", "9", "5", "6", "7", "28", "28", "26", "27", "29", "25", "31", "32", "33"], "time": [1276, 9239, 10180, 13197, 19779, 24622, 28520, 33459, 34834, 36394, 37388, 42352, 45411, 46148, 50267, 51371, 55173]}, "edge": {"target": [], "time": []}}}, "displayed_time": "60.36", "trialTime": 62191, "trial_type": "mouselab-mdp", "trial_index": 37, "time_elapsed": 2377551, "internal_node_id": "0.0-6.0-1.0-28.0"}}, {"uniqueid": "w80470571:a59036325", "current_trial": 38, "dateTime": 1693662942610, "trialdata": {"revealed_states": [], "clicked_states": ["10", "11", "9", "5", "6", "7", "28", "27", "29"], "num_clicks_accrued": [0, 0, 0, 0, 0, 0, 0, 0, 0, 0, 0, 0, 0], "stateRewards": ["", 1, 2, -6, -13, -51, 22, -4, -12, -44, -12, 6, -2, -2, -2, -14, -46, -4, -77, -2, 36, -79, 41, 2, -4, 2, -6, -55, 59, 70, -5, 39, -19, 24], "withholdReward": false, "trial_id": "mdp_trial_30", "block": "test", "trialIndex": 31, "score": 44.650000000000006, "costs": -19.349999999999998, "simulationMode": [null, null, null, null, null], "rewards": [2, -4, 2, -6, 70], "path": ["0", "0", "23", "24", "25", "26", "29"], "rt": [40127, 100, 175, 110, 76], "actions": ["left", "left", "left", "up", "left"], "actionTimes": [45056, 45883, 46744, 47721, 48516], "queries": {"click": {"state": {"target": ["10", "11", "9", "5", "6", "7", "28", "27", "29"], "time": [6577, 10724, 14732, 19159, 23022, 27355, 32173, 36598, 40634]}, "edge": {"target": [], "time": []}}, "mouseover": {"state": {"target": ["10", "10", "2", "2", "8", "11", "9", "5", "6", "7", "28", "27", "29", "31"], "time": [5083, 6033, 8047, 8788, 9147, 9995, 14196, 18713, 22623, 26728, 31663, 35821, 39914, 43223]}, "edge": {"target": [], "time": []}}, "mouseout": {"state": {"target": ["31", "0", "10", "10", "2", "2", "8", "11", "9", "5", "6", "6", "7", "28", "27", "29"], "time": [879, 1265, 5633, 7997, 8197, 9061, 9942, 13953, 14942, 20717, 23233, 24675, 30626, 34837, 39720, 42023]}, "edge": {"target": [], "time": []}}}, "displayed_time": "49.32", "trialTime": 51315, "trial_type": "mouselab-mdp", "trial_index": 38, "time_elapsed": 2431445, "internal_node_id": "0.0-6.0-1.0-29.0"}}, {"uniqueid": "w80470571:a59036325", "current_trial": 39, "dateTime": 1693662967808, "trialdata": {"revealed_states": [], "clicked_states": ["31"], "num_clicks_accrued": [0, 0, 0, 0, 0, 0, 0, 0, 0, 0, 0, 0, 0], "stateRewards": ["", -2, -2, -3, -6, -15, -11, 41, -12, -63, -76, 2, -2, -3, 8, 9, -36, -2, -18, -16, -32, -85, -17, -2, 1, 5, -16, 82, 35, -88, -1, 80, -82, -20], "withholdReward": false, "trial_id": "mdp_trial_31", "block": "test", "trialIndex": 32, "score": 80.85, "costs": -2.15, "simulationMode": [null, null, null, null, null], "rewards": [-2, 1, 5, -1, 80], "path": ["0", "0", "23", "24", "25", "30", "31"], "rt": [5104, 306, 207, 107, 287], "actions": ["left", "left", "left", "down", "right"], "actionTimes": [9489, 10420, 11348, 12265, 13092], "queries": {"click": {"state": {"target": ["31"], "time": [5413]}, "edge": {"target": [], "time": []}}, "mouseover": {"state": {"target": ["31"], "time": [4673]}, "edge": {"target": [], "time": []}}, "mouseout": {"state": {"target": ["31", "0"], "time": [864, 1371]}, "edge": {"target": [], "time": []}}}, "displayed_time": "21.03", "trialTime": 22962, "trial_type": "mouselab-mdp", "trial_index": 39, "time_elapsed": 2456643, "internal_node_id": "0.0-6.0-1.0-30.0"}}, {"uniqueid": "w80470571:a59036325", "current_trial": 40, "dateTime": 1693663038826, "trialdata": {"revealed_states": [], "clicked_states": ["32", "31", "33", "28", "29", "27", "10", "11", "9", "5", "6", "7"], "num_clicks_accrued": [0, 0, 0, 0, 0, 0, 0, 0, 0, 0, 0, 0, 0], "stateRewards": ["", 2, -3, -2, 14, -4, 85, 46, 15, -28, 41, 31, -1, -1, -1, 5, 62, 79, 57, 12, -73, -64, 86, -1, 1, -3, -5, 68, 11, -32, 8, -80, -21, -56], "withholdReward": false, "trial_id": "mdp_trial_32", "block": "test", "trialIndex": 33, "score": 70.2, "costs": -25.799999999999994, "simulationMode": [null, null, null, null, null], "rewards": [2, -3, -2, 14, 85], "path": ["0", "0", "1", "2", "3", "4", "6"], "rt": [57759, 65, 192, 46, 50], "actions": ["up", "up", "up", "right", "right"], "actionTimes": [61804, 62648, 63478, 64197, 65079], "queries": {"click": {"state": {"target": ["32", "31", "33", "28", "29", "27", "10", "11", "9", "5", "6", "7"], "time": [5575, 9973, 13979, 18312, 23185, 27280, 33584, 38005, 43171, 47939, 52108, 56582]}, "edge": {"target": [], "time": []}}, "mouseover": {"state": {"target": ["31", "32", "31", "30", "33", "28", "29", "27", "10", "11", "9", "5", "6", "7", "16"], "time": [4478, 5003, 9369, 13157, 13562, 17424, 22698, 26729, 31790, 37505, 42611, 47088, 51534, 55758, 60858]}, "edge": {"target": [], "time": []}}, "mouseout": {"state": {"target": ["31", "0", "31", "32", "31", "30", "33", "28", "29", "27", "10", "11", "9", "5", "6", "7"], "time": [893, 1039, 4774, 7058, 13061, 13305, 17024, 22441, 23304, 31482, 37201, 42313, 46830, 51262, 55480, 60399]}, "edge": {"target": [], "time": []}}}, "displayed_time": "65.85", "trialTime": 68750, "trial_type": "mouselab-mdp", "trial_index": 40, "time_elapsed": 2527661, "internal_node_id": "0.0-6.0-1.0-31.0"}}, {"uniqueid": "w80470571:a59036325", "current_trial": 41, "dateTime": 1693663100411, "trialdata": {"revealed_states": [], "clicked_states": ["31", "27", "6", "16", "18", "17", "20", "21", "22"], "num_clicks_accrued": [0, 0, 0, 0, 0, 0, 0, 0, 0, 0, 0, 0, 0], "stateRewards": ["", 2, -2, -8, 9, -20, 55, -58, 14, 42, 2, 36, 1, -3, -5, 5, -58, 57, 60, 16, 57, 30, -70, -2, 1, 3, 10, 59, 23, 77, -13, -26, 88, -72], "withholdReward": false, "trial_id": "mdp_trial_33", "block": "test", "trialIndex": 34, "score": 36.650000000000006, "costs": -19.349999999999998, "simulationMode": [null, null, null, null, null], "rewards": [2, -2, -8, 9, 55], "path": ["0", "0", "1", "2", "3", "4", "6"], "rt": [43104, 131, 81, 92, 134], "actions": ["up", "up", "up", "right", "right"], "actionTimes": [46825, 47762, 48489, 49329, 50153], "queries": {"click": {"state": {"target": ["31", "27", "6", "16", "18", "17", "20", "21", "22"], "time": [5290, 9795, 14188, 19042, 23104, 27328, 31705, 36208, 40381]}, "edge": {"target": [], "time": []}}, "mouseover": {"state": {"target": ["31", "23", "27", "10", "6", "16", "18", "17", "20", "21", "22", "14"], "time": [4719, 8878, 9516, 12514, 13504, 18167, 22596, 26535, 31142, 35027, 39959, 43897]}, "edge": {"target": [], "time": []}}, "mouseout": {"state": {"target": ["16", "0", "31", "23", "27", "10", "6", "16", "18", "17", "20", "21", "21", "22", "14"], "time": [801, 4434, 6665, 9161, 10341, 13102, 18067, 21893, 26345, 31003, 34787, 36484, 39579, 43604, 44664]}, "edge": {"target": [], "time": []}}}, "displayed_time": "50.94", "trialTime": 59302, "trial_type": "mouselab-mdp", "trial_index": 41, "time_elapsed": 2589246, "internal_node_id": "0.0-6.0-1.0-32.0"}}, {"uniqueid": "w80470571:a59036325", "current_trial": 42, "dateTime": 1693663130771, "trialdata": {"revealed_states": [], "clicked_states": ["31", "27", "6"], "num_clicks_accrued": [0, 0, 0, 0, 0, 0, 0, 0, 0, 0, 0, 0, 0], "stateRewards": ["", -1, 1, -1, 2, 19, 85, -18, 2, -3, -26, 36, 2, 4, 7, -9, -18, 70, 72, -5, 35, -20, -28, 1, -2, -4, -3, -59, -11, -63, -2, -72, 59, -69], "withholdReward": false, "trial_id": "mdp_trial_34", "block": "test", "trialIndex": 35, "score": 79.55, "costs": -6.449999999999999, "simulationMode": [null, null, null, null, null], "rewards": [-1, 1, -1, 2, 85], "path": ["0", "0", "1", "2", "3", "4", "6"], "rt": [15615, 89, 299, 53, 92], "actions": ["up", "up", "up", "right", "right"], "actionTimes": [18754, 19629, 20675, 21570, 22447], "queries": {"click": {"state": {"target": ["31", "27", "6"], "time": [4617, 9127, 13987]}, "edge": {"target": [], "time": []}}, "mouseover": {"state": {"target": ["31", "23", "28", "27", "10", "6"], "time": [3911, 7930, 8440, 8847, 10631, 13360]}, "edge": {"target": [], "time": []}}, "mouseout": {"state": {"target": ["0", "31", "23", "28", "27", "10", "6"], "time": [995, 6107, 8050, 8664, 10560, 12957, 17374]}, "edge": {"target": [], "time": []}}}, "displayed_time": "23.16", "trialTime": 26718, "trial_type": "mouselab-mdp", "trial_index": 42, "time_elapsed": 2619605, "internal_node_id": "0.0-6.0-1.0-33.0"}}, {"uniqueid": "w80470571:a59036325", "current_trial": 43, "dateTime": 1693663201367, "trialdata": {"revealed_states": [], "clicked_states": ["31", "27", "6", "18", "20", "10", "11", "9", "32", "33", "29", "28"], "num_clicks_accrued": [0, 0, 0, 0, 0, 0, 0, 0, 0, 0, 0, 0, 0], "stateRewards": ["", 2, 4, -6, -13, -75, -81, 30, 7, 5, 59, -65, -1, -1, 7, 14, -38, 36, -41, 1, -54, -5, 64, 2, -1, 5, 6, -19, 79, 11, 16, -33, -50, 58], "withholdReward": false, "trial_id": "mdp_trial_35", "block": "test", "trialIndex": 36, "score": 65.2, "costs": -25.799999999999994, "simulationMode": [null, null, null, null, null], "rewards": [2, -1, 5, 6, 79], "path": ["0", "0", "23", "24", "25", "26", "28"], "rt": [56156, 84, 75, 189, 43], "actions": ["left", "left", "left", "up", "right"], "actionTimes": [60300, 61152, 61954, 62931, 63746], "queries": {"click": {"state": {"target": ["31", "27", "6", "18", "20", "10", "11", "9", "32", "33", "29", "28"], "time": [6026, 10311, 15029, 20183, 24607, 29870, 33980, 38129, 43207, 47534, 52144, 56034]}, "edge": {"target": [], "time": []}}, "mouseover": {"state": {"target": ["23", "31", "27", "10", "6", "18", "20", "10", "11", "8", "9", "8", "24", "32", "33", "29", "26", "28"], "time": [5289, 5443, 9870, 14144, 14317, 19400, 23931, 28833, 33164, 37445, 37752, 41793, 42142, 42656, 47062, 51540, 53743, 54718]}, "edge": {"target": [], "time": []}}, "mouseout": {"state": {"target": ["1", "23", "31", "27", "10", "6", "18", "20", "10", "11", "8", "9", "9", "8", "24", "32", "33", "29", "26", "28"], "time": [1159, 5436, 6250, 13328, 14306, 19146, 23679, 28302, 30064, 34245, 37682, 38319, 41397, 42048, 42388, 46848, 51128, 53627, 53986, 59150]}, "edge": {"target": [], "time": []}}}, "displayed_time": "64.53", "trialTime": 67283, "trial_type": "mouselab-mdp", "trial_index": 43, "time_elapsed": 2690201, "internal_node_id": "0.0-6.0-1.0-34.0"}}, {"uniqueid": "w80470571:a59036325", "current_trial": 44, "dateTime": 1693663281977, "trialdata": {"revealed_states": [], "clicked_states": ["32", "31", "33", "28", "29", "27", "11", "10", "9", "5", "6", "7", "18", "16"], "num_clicks_accrued": [0, 0, 0, 0, 0, 0, 0, 0, 0, 0, 0, 0, 0], "stateRewards": ["", -2, -4, -6, 12, -58, -70, -80, 2, 16, -88, -62, 1, 2, -5, 11, 77, -35, -44, -5, 18, -83, 87, 1, -3, -5, 13, -44, -21, -86, 10, -52, 8, 29], "withholdReward": false, "trial_id": "mdp_trial_36", "block": "test", "trialIndex": 37, "score": 55.900000000000006, "costs": -30.09999999999999, "simulationMode": [null, null, null, null, null], "rewards": [1, 2, -5, 11, 77], "path": ["0", "0", "12", "13", "14", "15", "16"], "rt": [61567, 79, 1782, 72, 93], "actions": ["right", "right", "right", "up", "up"], "actionTimes": [68120, 68918, 71500, 72236, 73117], "queries": {"click": {"state": {"target": ["32", "31", "33", "28", "29", "27", "11", "10", "9", "5", "6", "7", "18", "16"], "time": [8281, 12484, 16469, 20686, 25030, 29256, 33533, 37168, 41600, 45789, 50095, 54236, 59442, 63476]}, "edge": {"target": [], "time": []}}, "mouseover": {"state": {"target": ["31", "32", "31", "30", "33", "28", "29", "27", "11", "10", "8", "9", "5", "6", "7", "18", "18", "16", "17"], "time": [7369, 7711, 9661, 15185, 15427, 19639, 24508, 27858, 33206, 35966, 40442, 40754, 44981, 49511, 53811, 57908, 58837, 62541, 64864]}, "edge": {"target": [], "time": []}}, "mouseout": {"state": {"target": ["23", "0", "31", "32", "31", "30", "33", "28", "29", "27", "11", "10", "8", "9", "5", "6", "7", "18", "18", "16"], "time": [null, 671, 7602, 9489, 15123, 15377, 16670, 24045, 25230, 29355, 35771, 40314, 40572, 44789, 49268, 53369, 57573, 58154, 59633, 64818]}, "edge": {"target": [], "time": []}}}, "displayed_time": "73.85", "trialTime": 75324, "trial_type": "mouselab-mdp", "trial_index": 44, "time_elapsed": 2770812, "internal_node_id": "0.0-6.0-1.0-35.0"}}, {"uniqueid": "w80470571:a59036325", "current_trial": 45, "dateTime": 1693663309352, "trialdata": {"revealed_states": [], "clicked_states": ["31", "32"], "num_clicks_accrued": [0, 0, 0, 0, 0, 0, 0, 0, 0, 0, 0, 0, 0], "stateRewards": ["", -2, -2, -7, -13, -10, 49, -68, -1, 84, 70, 88, 1, 4, 4, 12, -57, 25, 30, 8, -1, -77, 57, 2, 3, 2, 3, -18, -80, 23, -15, -41, 70, 11], "withholdReward": false, "trial_id": "mdp_trial_37", "block": "test", "trialIndex": 38, "score": 57.7, "costs": -4.3, "simulationMode": [null, null, null, null, null], "rewards": [2, 3, 2, -15, 70], "path": ["0", "0", "23", "24", "25", "30", "32"], "rt": [9422, 214, 275, 267, 129], "actions": ["left", "left", "left", "down", "down"], "actionTimes": [13901, 14732, 15628, 16514, 17486], "queries": {"click": {"state": {"target": ["31", "32"], "time": [5311, 9423]}, "edge": {"target": [], "time": []}}, "mouseover": {"state": {"target": ["31", "32", "33"], "time": [4727, 8725, 12370]}, "edge": {"target": [], "time": []}}, "mouseout": {"state": {"target": ["17", "31", "32"], "time": [1324, 8385, 12073]}, "edge": {"target": [], "time": []}}}, "displayed_time": "23.14", "trialTime": 25034, "trial_type": "mouselab-mdp", "trial_index": 45, "time_elapsed": 2798186, "internal_node_id": "0.0-6.0-1.0-36.0"}}, {"uniqueid": "w80470571:a59036325", "current_trial": 46, "dateTime": 1693663341426, "trialdata": {"revealed_states": [], "clicked_states": ["31", "32", "33"], "num_clicks_accrued": [0, 0, 0, 0, 0, 0, 0, 0, 0, 0, 0, 0, 0], "stateRewards": ["", -2, -3, -6, -7, 9, 16, 65, 5, -41, 20, -25, -1, -4, 1, -11, -49, -4, 71, 1, 39, -62, 52, -2, -3, 7, -9, -28, -70, 84, 8, 24, -58, 82], "withholdReward": false, "trial_id": "mdp_trial_38", "block": "test", "trialIndex": 39, "score": 85.55, "costs": -6.449999999999999, "simulationMode": [null, null, null, null, null], "rewards": [-2, -3, 7, 8, 82], "path": ["0", "0", "23", "24", "25", "30", "33"], "rt": [15223, 180, 68, 102, 44], "actions": ["left", "left", "left", "down", "left"], "actionTimes": [19202, 20069, 20904, 21707, 22440], "queries": {"click": {"state": {"target": ["31", "32", "33"], "time": [7014, 10824, 14846]}, "edge": {"target": [], "time": []}}, "mouseover": {"state": {"target": ["23", "24", "31", "32", "33", "28"], "time": [5342, 5807, 6461, 9576, 12830, 17358]}, "edge": {"target": [], "time": []}}, "mouseout": {"state": {"target": ["33", "23", "24", "31", "32", "33"], "time": [1068, 5591, 6036, 9198, 12341, 17093]}, "edge": {"target": [], "time": []}}}, "displayed_time": "23.13", "trialTime": 29807, "trial_type": "mouselab-mdp", "trial_index": 46, "time_elapsed": 2830260, "internal_node_id": "0.0-6.0-1.0-37.0"}}, {"uniqueid": "w80470571:a59036325", "current_trial": 47, "dateTime": 1693663374438, "trialdata": {"revealed_states": [], "clicked_states": ["31", "32", "33", "28"], "num_clicks_accrued": [0, 0, 0, 0, 0, 0, 0, 0, 0, 0, 0, 0, 0], "stateRewards": ["", -1, -3, 3, 5, 56, 39, 50, -1, -80, 33, -46, 1, -2, -6, -8, 87, 48, 54, -11, -20, -64, -54, -2, 3, -7, -3, 12, 88, 35, -16, -46, -70, -3], "withholdReward": false, "trial_id": "mdp_trial_39", "block": "test", "trialIndex": 40, "score": 70.4, "costs": -8.6, "simulationMode": [null, null, null, null, null], "rewards": [-2, 3, -7, -3, 88], "path": ["0", "0", "23", "24", "25", "26", "28"], "rt": [18569, 267, 203, 211, 142], "actions": ["left", "left", "left", "up", "right"], "actionTimes": [23201, 24267, 25211, 26177, 27063], "queries": {"click": {"state": {"target": ["31", "32", "33", "28"], "time": [6300, 10096, 14222, 18416]}, "edge": {"target": [], "time": []}}, "mouseover": {"state": {"target": ["31", "32", "33", "28"], "time": [5890, 8649, 13325, 17799]}, "edge": {"target": [], "time": []}}, "mouseout": {"state": {"target": ["28", "0", "0", "31", "32", "33", "28"], "time": [833, 1188, 5631, 8434, 12982, 17384, 22614]}, "edge": {"target": [], "time": []}}}, "displayed_time": "27.76", "trialTime": 30604, "trial_type": "mouselab-mdp", "trial_index": 47, "time_elapsed": 2863273, "internal_node_id": "0.0-6.0-1.0-38.0"}}, {"uniqueid": "w80470571:a59036325", "current_trial": 48, "dateTime": 1693663422586, "trialdata": {"revealed_states": [], "clicked_states": ["31", "32", "33", "28", "29", "27", "11", "10"], "num_clicks_accrued": [0, 0, 0, 0, 0, 0, 0, 0, 0, 0, 0, 0, 0], "stateRewards": ["", -2, -3, -5, 8, 27, 11, 43, -6, -24, -87, 69, -2, 1, 1, 9, 19, 48, -37, 9, -14, 45, 62, 1, 2, 1, 16, -81, -41, 22, 4, -6, -63, 47], "withholdReward": false, "trial_id": "mdp_trial_40", "block": "test", "trialIndex": 41, "score": 35.8, "costs": -17.2, "simulationMode": [null, null, null, null, null], "rewards": [-2, -3, -5, -6, 69], "path": ["0", "0", "1", "2", "3", "8", "11"], "rt": [33731, 136, 191, 1958, 283], "actions": ["up", "up", "up", "left", "left"], "actionTimes": [37498, 38338, 39244, 42078, 43012], "queries": {"click": {"state": {"target": ["31", "32", "33", "28", "29", "27", "11", "10"], "time": [5002, 9350, 13932, 17803, 21799, 25943, 29730, 33663]}, "edge": {"target": [], "time": []}}, "mouseover": {"state": {"target": ["31", "32", "33", "28", "26", "29", "27", "11", "10"], "time": [4394, 8246, 13192, 17236, 21164, 21439, 24792, 28365, 33198]}, "edge": {"target": [], "time": []}}, "mouseout": {"state": {"target": ["0", "31", "32", "33", "28", "26", "29", "27", "11"], "time": [1174, 7895, 9776, 15886, 20971, 21376, 24544, 28042, 32933]}, "edge": {"target": [], "time": []}}}, "displayed_time": "43.67", "trialTime": 45790, "trial_type": "mouselab-mdp", "trial_index": 48, "time_elapsed": 2911421, "internal_node_id": "0.0-6.0-1.0-39.0"}}, {"uniqueid": "w80470571:a59036325", "current_trial": 49, "dateTime": 1693663516043, "trialdata": {"rt": 93386, "response": {"Q0": "$-2 to $2", "Q1": "$-16 to $16", "Q2": "$-88 to $88", "Q3": "The cost for clicking on nodes varied between nodes.", "Q4": "Slightly motivated"}, "question_order": [0, 1, 2, 3, 4], "trial_id": "final_quiz_control", "trial_type": "survey-multi-choice", "trial_index": 49, "time_elapsed": 3004878, "internal_node_id": "0.0-6.0-2.0"}}, {"uniqueid": "w80470571:a59036325", "current_trial": 50, "dateTime": 1693664258989, "trialdata": {"rt": 742668, "response": {"Q0": "I decided on a more systematic approach where I would inspect all the edge nodes that were at the bottom left, then the ones at the top and finally the ones at the bottom right. ", "Q1": "Yes. At first it was to find the path that would yield the most, but that approach was costly, especially considering that the only nodes that paid the most were the ones at the edges. I decided on using the node inspector on the nodes that were at the edges, I did it haphazardly at first and it felt too costly also, so I decided on a more systematic approach where I would inspect all the edge nodes that were at the bottom left, then the ones at the top and finally the ones at the bottom right. ", "Q2": "I found it quite difficult. The most difficult part was to reduce the cost of the node inspection, while at the same time increasing the amount I was accumulating. "}, "trial_id": "self_report_control", "trial_type": "survey-text", "trial_index": 50, "time_elapsed": 3747824, "internal_node_id": "0.0-6.0-3.0"}}, {"uniqueid": "w80470571:a59036325", "current_trial": 51, "dateTime": 1693664327072, "trialdata": {"rt": 68052, "response": {"Q0": "Disagree", "Q1": "Disagree", "Q2": "Strongly agree", "Q3": "Strongly agree", "Q4": "Strongly disagree", "Q5": "Strongly agree", "Q6": "Strongly disagree"}, "question_order": [0, 1, 2, 3, 4, 5, 6], "trial_id": "self_report_2", "trial_type": "survey-multi-choice", "trial_index": 51, "time_elapsed": 3815907, "internal_node_id": "0.0-6.0-4.0"}}, {"uniqueid": "w80470571:a59036325", "current_trial": 52, "dateTime": 1693664368485, "trialdata": {"rt": 41375, "response": {"gender": "male", "age": "21", "colorblind": "0", "effort": "0"}, "trial_type": "survey-html-form", "trial_index": 52, "time_elapsed": 3857320, "internal_node_id": "0.0-6.0-5.0"}}, {"uniqueid": "w80470571:a59036325", "current_trial": 53, "dateTime": 1693664485627, "trialdata": {"rt": 117084, "response": {"Q0": "No.", "Q1": "No, this was the first time I have participated in such a study.", "Q2": "It was quite interesting."}, "trial_type": "survey-text", "trial_index": 53, "time_elapsed": 3974462, "internal_node_id": "0.0-6.0-6.0"}}, {"uniqueid": "w80470571:a59036325", "current_trial": 54, "dateTime": 1693664563252, "trialdata": {"rt": 77608, "stimulus": "<h1>Completion Code Instructions (1/2)</h1>\n<br><br><br><br>\nYou have reached the end of the experiment! The completion code consists of two parts: (1) a code with 2 characters (2) a code with 6 characters. On this page, you will receive the second part of the code. The first part of the completion code will be on the next page.\n<br><br>\nThe second part of your completion code is: <b>EWEK22</b>\n<br><br>\nPlease note this down. Then, press 'Next' in order to find the first part of your completion code. Once the data has been saved, you will receive this code either in this window or in the original browser window where you started the experiment.\n <br><br>\n<h2 style='color: red;'>Note: this is <strong>NOT</strong> the full completion code. Copy this down and click 'Next' to get the full completion code on the next page.</h2>", "response": 0, "trial_type": "html-button-response", "trial_index": 54, "time_elapsed": 4052087, "internal_node_id": "0.0-6.0-7.0"}}, {"uniqueid": "w80470571:a59036325", "current_trial": 55, "dateTime": 1693664564269, "trialdata": {"success": true, "trial_type": "fullscreen", "trial_index": 55, "time_elapsed": 4053104, "internal_node_id": "0.0-7.0"}}], "questiondata": {"params": {"CODE": "C6DMOQA6", "MIN_TIME": 14, "inspectCost": 1, "startTime": "Sat Sep 02 2023 15:15:07 GMT+0200 (South Africa Standard Time)", "bonusRate": 0.002, "variance": "1_2_4_8_44", "branching": "31123"}, "final_score": 2343.9}, "eventdata": [{"eventtype": "initialized", "value": null, "timestamp": 1693660506378, "interval": 0}, {"eventtype": "window_resize", "value": [1366, 664], "timestamp": 1693660506379, "interval": 1}, {"eventtype": "focus", "value": "on", "timestamp": 1693660507046, "interval": 667}, {"eventtype": "window_resize", "value": [1366, 664], "timestamp": 1693660507191, "interval": 145}, {"eventtype": "window_resize", "value": [1366, 768], "timestamp": 1693660520207, "interval": 13016}, {"eventtype": "window_resize", "value": [1366, 664], "timestamp": 1693664563863, "interval": 4043656}], "useragent": "Mozilla/5.0 (Windows NT 10.0; Win64; x64; rv:109.0) Gecko/20100101 Firefox/117.0", "mode": "live", "id": "w80470571:a59036325", "status": "user data saved", "Beginhit": "2023-09-02 13:14:53.628016", "Beginexp": "2023-09-02 13:15:15.925587", "Endhit": "2023-09-02 14:22:54.074328", "psiturkStatus": 3, "browser": "<redacted>", "platform": "windows", "language": "en-US"}