{"condition": 1, "counterbalance": 0, "assignmentId": "a71284482", "workerId": "w37653102", "hitId": "h39860871", "currenttrial": 62, "bonus": 0, "data": [{"uniqueid": "w37653102:a71284482", "current_trial": 0, "dateTime": 1693660274398, "trialdata": {"success": true, "trial_type": "fullscreen", "trial_index": 0, "time_elapsed": 3561, "internal_node_id": "0.0-0.0"}}, {"uniqueid": "w37653102:a71284482", "current_trial": 1, "dateTime": 1693660308184, "trialdata": {"view_history": [{"page_index": 0, "viewing_time": 33778}], "rt": 33778, "trial_id": "exp_instructions_misaligned", "trial_type": "instructions", "trial_index": 1, "time_elapsed": 37348, "internal_node_id": "0.0-1.0"}}, {"uniqueid": "w37653102:a71284482", "current_trial": 2, "dateTime": 1693660513916, "trialdata": {"view_history": [{"page_index": 0, "viewing_time": 90554}, {"page_index": 1, "viewing_time": 70460}, {"page_index": 2, "viewing_time": 22587}, {"page_index": 3, "viewing_time": 22128}], "rt": 205728, "trial_id": "mouselab_instructions_1_misaligned", "trial_type": "instructions", "trial_index": 2, "time_elapsed": 243080, "internal_node_id": "0.0-2.0-1.0"}}, {"uniqueid": "w37653102:a71284482", "current_trial": 3, "dateTime": 1693660577309, "trialdata": {"revealed_states": [], "clicked_states": ["25", "3", "14", "30", "23", "24", "12", "13", "19", "21", "1", "2", "33"], "num_clicks_accrued": [0, 0, 0, 0, 0, 0, 0, 0, 0, 0, 0, 0, 0], "stateRewards": ["", -10, -10, 10, -10, -10, -10, -10, -10, -10, -10, -10, 10, -10, -10, 10, -10, -10, 10, 10, 10, -10, -10, 10, -10, 10, -10, 10, 10, -10, 10, 10, 10, -10], "withholdReward": false, "trial_id": "practice_1", "block": "test", "trialIndex": 0, "score": 27, "costs": -6.5, "simulationMode": [null, null, null, null, null], "rewards": [10, -10, 10, 10, 10], "path": ["0", "0", "23", "24", "25", "30", "32"], "rt": [53376, 348, 131, 858, 508], "actions": ["left", "left", "left", "down", "down"], "actionTimes": [55272, 56125, 56773, 58126, 59128], "queries": {"click": {"state": {"target": ["25", "3", "14", "30", "23", "24", "12", "13", "19", "21", "1", "2", "33"], "time": [4189, 5544, 8992, 11955, 16131, 17303, 23190, 24596, 26896, 28029, 29632, 30747, 37218]}, "edge": {"target": [], "time": []}}, "mouseover": {"state": {"target": ["23", "24", "25", "28", "3", "7", "13", "14", "31", "31", "32", "30", "31", "23", "24", "25", "30", "31", "0", "12", "13", "14", "19", "21", "18", "1", "2", "3", "25", "33", "31", "23", "0", "23", "0", "23"], "time": [2760, 3603, 3867, 4786, 5237, 6053, 7087, 8710, 9777, 10443, 10743, 11510, 12599, 15795, 16959, 18094, 20474, 22378, 22576, 22707, 23864, 25391, 26500, 27597, 28814, 29196, 30288, 31405, 36466, 36779, 37763, 50238, 50334, 50667, 51167, 51353]}, "edge": {"target": [], "time": []}}, "mouseout": {"state": {"target": ["0", "23", "24", "25", "28", "3", "7", "13", "14", "31", "31", "32", "30", "31", "23", "24", "25", "30", "31", "0", "12", "13", "14", "19", "21", "19", "18", "1", "2", "3", "2", "25", "33", "31", "23", "0", "23", "0", "23"], "time": [2592, 3572, 3648, 4730, 4820, 5986, 6103, 7707, 9595, 9827, 10493, 11240, 12583, 12616, 16776, 17923, 20245, 22012, 22425, 22592, 23798, 25176, 26450, 27481, 28239, 28664, 28835, 30221, 31339, 32688, 32986, 36499, 37730, 37797, 50301, 50351, 50987, 51287, 52681]}, "edge": {"target": [], "time": []}}}, "displayed_time": "59.62", "trialTime": 63031, "trial_type": "mouselab-mdp", "trial_index": 3, "time_elapsed": 306471, "internal_node_id": "0.0-2.0-2.0-0.0"}}, {"uniqueid": "w37653102:a71284482", "current_trial": 4, "dateTime": 1693660634495, "trialdata": {"revealed_states": [], "clicked_states": ["12", "13", "14", "23", "24", "25", "1", "2", "3", "4", "8", "11"], "num_clicks_accrued": [0, 0, 0, 0, 0, 0, 0, 0, 0, 0, 0, 0, 0], "stateRewards": ["", 10, 10, 10, -10, 10, 10, -10, 10, -10, 10, 10, -10, -10, 10, -10, -10, 10, 10, -10, -10, -10, -10, 10, -10, 10, -10, 10, -10, 10, 10, -10, 10, 10], "withholdReward": false, "trial_id": "practice_2", "block": "test", "trialIndex": 1, "score": 47.5, "costs": -6, "simulationMode": [null, null, null, null, null], "rewards": [10, 10, 10, 10, 10], "path": ["0", "0", "1", "2", "3", "8", "11"], "rt": [45910, 279, 246, 438, 332], "actions": ["up", "up", "up", "left", "left"], "actionTimes": [48811, 49595, 50357, 51306, 52133], "queries": {"click": {"state": {"target": ["12", "13", "14", "23", "24", "25", "1", "2", "3", "4", "8", "11"], "time": [5152, 6207, 9474, 10833, 13129, 14764, 16918, 19010, 21116, 31244, 33664, 36132]}, "edge": {"target": [], "time": []}}, "mouseover": {"state": {"target": ["12", "13", "14", "0", "14", "0", "23", "24", "24", "25", "1", "2", "7", "3", "7", "12", "12", "7", "4", "7", "7", "4", "8", "11"], "time": [4086, 5704, 6721, 8298, 8962, 10201, 10305, 11392, 12700, 14030, 16268, 18522, 19803, 20679, 23179, 24104, 28936, 29043, 29311, 29610, 30209, 30735, 33155, 35754]}, "edge": {"target": [], "time": []}}, "mouseout": {"state": {"target": ["0", "12", "13", "14", "13", "12", "0", "12", "13", "13", "14", "13", "0", "23", "24", "24", "25", "1", "2", "7", "3", "7", "12", "12", "7", "4", "7", "7", "4", "8", "11"], "time": [3920, 5621, 6687, 7778, 7829, 7845, 8315, 8381, 8616, 8895, 10134, 10168, 10235, 11357, 12417, 13815, 15786, 17938, 19736, 20612, 22995, 24086, 24120, 28951, 29227, 29593, 29644, 30700, 32386, 35708, 37641]}, "edge": {"target": [], "time": []}}}, "displayed_time": "52.64", "trialTime": 56967, "trial_type": "mouselab-mdp", "trial_index": 4, "time_elapsed": 363659, "internal_node_id": "0.0-2.0-2.0-1.0"}}, {"uniqueid": "w37653102:a71284482", "current_trial": 5, "dateTime": 1693660675615, "trialdata": {"view_history": [{"page_index": 0, "viewing_time": 33075}, {"page_index": 1, "viewing_time": 8042}], "rt": 41118, "trial_id": "mouselab_instructions_2_misaligned", "trial_type": "instructions", "trial_index": 5, "time_elapsed": 404779, "internal_node_id": "0.0-2.0-3.0"}}, {"uniqueid": "w37653102:a71284482", "current_trial": 6, "dateTime": 1693660721280, "trialdata": {"rt": 45656, "response": {"Q0": "The cost for clicking on nodes may vary between nodes.", "Q1": "The better I perform the higher my bonus will be.", "Q2": "No, the amount of cash at each node of the web may be different each time.", "Q3": "To get the highest total score.", "Q4": "Only before moving the spider.", "Q5": "10 seconds"}, "question_order": [0, 1, 2, 3, 4, 5], "correct": {"Q0": "The cost for clicking on nodes may vary between nodes.", "Q1": "The better I perform the higher my bonus will be.", "Q2": "No, the amount of cash at each node of the web may be different each time.", "Q3": "To get the highest total score.", "Q4": "Only before moving the spider.", "Q5": "3 seconds"}, "trial_id": "mouselab_quiz_misaligned", "trial_type": "survey-multi-choice", "trial_index": 6, "time_elapsed": 450443, "internal_node_id": "0.0-2.0-4.0"}}, {"uniqueid": "w37653102:a71284482", "current_trial": 7, "dateTime": 1693660729157, "trialdata": {"success": true, "trial_type": "fullscreen", "trial_index": 7, "time_elapsed": 458321, "internal_node_id": "0.0-2.1-0.1-0.1"}}, {"uniqueid": "w37653102:a71284482", "current_trial": 8, "dateTime": 1693660764017, "trialdata": {"view_history": [{"page_index": 0, "viewing_time": 8709}, {"page_index": 1, "viewing_time": 15342}, {"page_index": 2, "viewing_time": 6274}, {"page_index": 3, "viewing_time": 4531}], "rt": 34857, "trial_id": "mouselab_instructions_1_misaligned", "trial_type": "instructions", "trial_index": 8, "time_elapsed": 493181, "internal_node_id": "0.0-2.1-1.1"}}, {"uniqueid": "w37653102:a71284482", "current_trial": 9, "dateTime": 1693660811222, "trialdata": {"revealed_states": [], "clicked_states": ["12", "13", "14", "23", "24", "25", "1", "2", "3", "8", "11", "30", "32"], "num_clicks_accrued": [0, 0, 0, 0, 0, 0, 0, 0, 0, 0, 0, 0, 0], "stateRewards": ["", -10, -10, 10, -10, -10, -10, -10, -10, -10, -10, -10, 10, -10, -10, 10, -10, -10, 10, 10, 10, -10, -10, 10, -10, 10, -10, 10, 10, -10, 10, 10, 10, -10], "withholdReward": false, "trial_id": "practice_1", "block": "test", "trialIndex": 2, "score": 27, "costs": -6.5, "simulationMode": [null, null, null, null, null], "rewards": [10, -10, 10, 10, 10], "path": ["0", "0", "23", "24", "25", "30", "32"], "rt": [38682, 223, 175, 438, 279], "actions": ["left", "left", "left", "down", "down"], "actionTimes": [40618, 41348, 42013, 42948, 43737], "queries": {"click": {"state": {"target": ["12", "13", "14", "23", "24", "25", "1", "2", "3", "8", "11", "30", "32"], "time": [3625, 5373, 7309, 9639, 11505, 13641, 15581, 18055, 20201, 22999, 24812, 26744, 28711]}, "edge": {"target": [], "time": []}}, "mouseover": {"state": {"target": ["12", "13", "14", "12", "0", "23", "24", "25", "1", "2", "3", "7", "8", "11", "28", "24", "30", "31", "32"], "time": [3104, 4837, 6864, 8930, 8997, 9314, 10794, 13177, 15225, 17264, 19725, 22025, 22598, 24377, 25915, 25983, 26316, 27658, 28334]}, "edge": {"target": [], "time": []}}, "mouseout": {"state": {"target": ["0", "12", "13", "14", "13", "12", "0", "23", "24", "25", "1", "2", "3", "7", "8", "11", "28", "24", "30", "31", "32"], "time": [2987, 4417, 6830, 8879, 8913, 8949, 9264, 10766, 13044, 14407, 17118, 19652, 21463, 22280, 24227, 25848, 25949, 26033, 27637, 27689, 29321]}, "edge": {"target": [], "time": []}}}, "displayed_time": "44.25", "trialTime": 46956, "trial_type": "mouselab-mdp", "trial_index": 9, "time_elapsed": 540385, "internal_node_id": "0.0-2.1-2.1-0.1"}}, {"uniqueid": "w37653102:a71284482", "current_trial": 10, "dateTime": 1693660854849, "trialdata": {"revealed_states": [], "clicked_states": ["12", "13", "14", "23", "24", "1", "2", "3"], "num_clicks_accrued": [0, 0, 0, 0, 0, 0, 0, 0, 0, 0, 0, 0, 0], "stateRewards": ["", 10, 10, 10, -10, 10, 10, -10, 10, -10, 10, 10, -10, -10, 10, -10, -10, 10, 10, -10, -10, -10, -10, 10, -10, 10, -10, 10, -10, 10, 10, -10, 10, 10], "withholdReward": false, "trial_id": "practice_2", "block": "test", "trialIndex": 3, "score": 49.5, "costs": -4, "simulationMode": [null, null, null, null, null], "rewards": [10, 10, 10, 10, 10], "path": ["0", "0", "1", "2", "3", "8", "11"], "rt": [31607, 879, 314, 985, 1837], "actions": ["up", "up", "up", "left", "left"], "actionTimes": [33303, 34692, 35519, 37015, 39360], "queries": {"click": {"state": {"target": ["12", "13", "14", "23", "24", "1", "2", "3"], "time": [3389, 5507, 7796, 11041, 13373, 16647, 18735, 20649]}, "edge": {"target": [], "time": []}}, "mouseover": {"state": {"target": ["12", "13", "14", "23", "24", "25", "28", "1", "2", "3", "1", "0"], "time": [2835, 5066, 7386, 10578, 12672, 15044, 15996, 16332, 18321, 20263, 22516, 22799]}, "edge": {"target": [], "time": []}}, "mouseout": {"state": {"target": ["23", "0", "12", "13", "14", "23", "24", "25", "28", "1", "2", "3", "2", "1", "0"], "time": [1088, 2744, 3912, 7331, 8655, 12641, 14979, 15963, 16013, 17335, 18934, 22316, 22366, 22566, 22885]}, "edge": {"target": [], "time": []}}}, "displayed_time": "39.87", "trialTime": 43400, "trial_type": "mouselab-mdp", "trial_index": 10, "time_elapsed": 584013, "internal_node_id": "0.0-2.1-2.1-1.1"}}, {"uniqueid": "w37653102:a71284482", "current_trial": 11, "dateTime": 1693660889976, "trialdata": {"view_history": [{"page_index": 0, "viewing_time": 32552}, {"page_index": 1, "viewing_time": 2571}], "rt": 35124, "trial_id": "mouselab_instructions_2_misaligned", "trial_type": "instructions", "trial_index": 11, "time_elapsed": 619139, "internal_node_id": "0.0-2.1-3.1"}}, {"uniqueid": "w37653102:a71284482", "current_trial": 12, "dateTime": 1693660919667, "trialdata": {"rt": 29688, "response": {"Q0": "The cost for clicking on nodes may vary between nodes.", "Q1": "The better I perform the higher my bonus will be.", "Q2": "No, the amount of cash at each node of the web may be different each time.", "Q3": "To get the highest total score.", "Q4": "Only before moving the spider.", "Q5": "3 seconds"}, "question_order": [0, 1, 2, 3, 4, 5], "correct": {"Q0": "The cost for clicking on nodes may vary between nodes.", "Q1": "The better I perform the higher my bonus will be.", "Q2": "No, the amount of cash at each node of the web may be different each time.", "Q3": "To get the highest total score.", "Q4": "Only before moving the spider.", "Q5": "3 seconds"}, "trial_id": "mouselab_quiz_misaligned", "trial_type": "survey-multi-choice", "trial_index": 12, "time_elapsed": 648831, "internal_node_id": "0.0-2.1-4.1"}}, {"uniqueid": "w37653102:a71284482", "current_trial": 13, "dateTime": 1693660927088, "trialdata": {"rt": 7406, "response": {"Q0": "No"}, "question_order": [0], "trial_id": "repeat_check", "trial_type": "survey-multi-choice", "trial_index": 13, "time_elapsed": 656252, "internal_node_id": "0.0-4.0-0.0"}}, {"uniqueid": "w37653102:a71284482", "current_trial": 14, "dateTime": 1693660933011, "trialdata": {"rt": 5914, "stimulus": "\n<h1> Get ready to start the game! </h1>\n\nThank you for reading the instructions. Get ready start with the 40 rounds of this game.\n<br><br>\nIf you need to take a break, feel free to take one after the end of a round, before continuing to the next one.\n<br><br>\nRemember, the more money the spider gets, the bigger your bonus will be!\n<br><br>\n<div style='text-align: center;'>Press <code>space</code> to begin.</div>\n\n<br><br>\n(If, at any point, the <code>space</code> key does not take you to the next page, click once on the text and try again.)", "response": " ", "trial_id": "mdp_ready", "trial_type": "html-keyboard-response", "trial_index": 14, "time_elapsed": 662175, "internal_node_id": "0.0-6.0-0.0"}}, {"uniqueid": "w37653102:a71284482", "current_trial": 15, "dateTime": 1693660974900, "trialdata": {"revealed_states": [], "clicked_states": ["23", "24", "25", "12", "13", "14", "1", "2", "3", "8", "4", "6", "30", "32", "19", "21"], "num_clicks_accrued": [0, 0, 0, 0, 0, 0, 0, 0, 0, 0, 0, 0, 0], "stateRewards": ["", 2, 3, 6, -12, -29, 12, 87, 4, 35, -30, 67, 2, 3, -5, -9, 44, 69, -8, 1, 45, -8, 28, -2, -1, -8, 11, -12, -5, 81, 9, 87, 82, 88], "withholdReward": false, "trial_id": "mdp_trial_1", "block": "test", "trialIndex": 4, "score": 64.2, "costs": -15.8, "simulationMode": [null, null, null, null, null], "rewards": [-2, -1, -8, 9, 82], "path": ["0", "0", "23", "24", "25", "30", "32"], "rt": [32781, 302, 225, 276, 288], "actions": ["left", "left", "left", "down", "down"], "actionTimes": [34041, 34849, 35583, 36349, 37129], "queries": {"click": {"state": {"target": ["23", "24", "25", "12", "13", "14", "1", "2", "3", "8", "4", "6", "30", "32", "19", "21"], "time": [2181, 4011, 5428, 6763, 7861, 8861, 10057, 11367, 12442, 13567, 15222, 16578, 19406, 20675, 25821, 27680]}, "edge": {"target": [], "time": []}}, "mouseover": {"state": {"target": ["23", "24", "25", "12", "13", "14", "18", "1", "2", "3", "8", "11", "4", "6", "7", "1", "24", "30", "32", "13", "19", "20", "21"], "time": [1840, 3496, 5004, 6270, 7407, 8439, 9371, 9755, 10654, 12015, 13148, 14264, 14847, 16205, 17175, 17306, 17673, 17824, 20223, 25124, 25412, 27133, 27316]}, "edge": {"target": [], "time": []}}, "mouseout": {"state": {"target": ["0", "23", "24", "25", "12", "13", "14", "18", "1", "2", "3", "8", "11", "8", "3", "4", "6", "7", "1", "24", "30", "32", "13", "19", "20", "21"], "time": [1723, 2761, 4887, 5989, 7370, 8406, 9338, 9388, 10276, 11948, 13048, 14181, 14501, 14598, 14665, 16020, 17149, 17223, 17339, 17722, 20056, 21813, 25195, 26018, 27213, 27880]}, "edge": {"target": [], "time": []}}}, "displayed_time": "37.64", "trialTime": 41639, "trial_type": "mouselab-mdp", "trial_index": 15, "time_elapsed": 704063, "internal_node_id": "0.0-6.0-1.0-0.0"}}, {"uniqueid": "w37653102:a71284482", "current_trial": 16, "dateTime": 1693660995217, "trialdata": {"revealed_states": [], "clicked_states": ["1"], "num_clicks_accrued": [0, 0, 0, 0, 0, 0, 0, 0, 0, 0, 0, 0, 0], "stateRewards": ["", -1, -2, 4, 9, 10, -75, 39, 16, -43, 88, -19, -1, 1, 2, 4, -31, 10, 73, 12, 41, -64, -81, -2, 2, -6, 1, -81, -1, -26, 3, -59, -3, -20], "withholdReward": false, "trial_id": "mdp_trial_2", "block": "test", "trialIndex": 5, "score": 55.25, "costs": 0.25, "simulationMode": [null, null, null, null, null], "rewards": [-1, 1, 2, 12, 41], "path": ["0", "0", "12", "13", "14", "19", "20"], "rt": [8288, 250, 149, 259, 241], "actions": ["right", "right", "right", "down", "right"], "actionTimes": [10681, 11435, 12098, 12853, 13600], "queries": {"click": {"state": {"target": ["1"], "time": [3535]}, "edge": {"target": [], "time": []}}, "mouseover": {"state": {"target": ["1", "7", "2", "7", "2", "1"], "time": [3061, 5188, 5404, 6302, 6683, 9590]}, "edge": {"target": [], "time": []}}, "mouseout": {"state": {"target": ["0", "23", "0", "1", "7", "2", "7", "2", "1", "7"], "time": [870, 953, 2829, 4050, 5238, 6252, 6619, 8653, 15336, 15416]}, "edge": {"target": [], "time": []}}}, "displayed_time": "16.39", "trialTime": 20053, "trial_type": "mouselab-mdp", "trial_index": 16, "time_elapsed": 724380, "internal_node_id": "0.0-6.0-1.0-1.0"}}, {"uniqueid": "w37653102:a71284482", "current_trial": 17, "dateTime": 1693661044692, "trialdata": {"revealed_states": [], "clicked_states": ["1", "2", "3", "8", "11", "4", "6", "12", "13", "14", "19", "21", "24", "25", "30", "32", "15", "16"], "num_clicks_accrued": [0, 0, 0, 0, 0, 0, 0, 0, 0, 0, 0, 0, 0], "stateRewards": ["", 1, -2, -3, 14, -42, -87, -37, -11, -50, 33, -44, -2, 4, -7, 13, 48, -75, -66, 12, 23, -2, 82, 1, -4, 3, 12, 51, -15, -26, -11, -52, -29, 82], "withholdReward": false, "trial_id": "mdp_trial_3", "block": "test", "trialIndex": 6, "score": 34.10000000000001, "costs": -21.899999999999995, "simulationMode": [null, null, null, null, null], "rewards": [-2, 4, -7, 13, 48], "path": ["0", "0", "12", "13", "14", "15", "16"], "rt": [40299, 332, 221, 483, 203], "actions": ["right", "right", "right", "up", "up"], "actionTimes": [41753, 42591, 43320, 44310, 45022], "queries": {"click": {"state": {"target": ["1", "2", "3", "8", "11", "4", "6", "12", "13", "14", "19", "21", "24", "25", "30", "32", "15", "16"], "time": [2614, 4016, 6044, 7194, 8175, 11510, 12989, 15940, 17718, 19038, 20079, 21272, 24187, 25419, 26738, 28253, 33937, 35444]}, "edge": {"target": [], "time": []}}, "mouseover": {"state": {"target": ["1", "2", "10", "3", "8", "11", "4", "4", "6", "18", "13", "12", "13", "14", "19", "21", "23", "24", "25", "30", "32", "12", "15", "15", "16"], "time": [2176, 3188, 4849, 5488, 6784, 7734, 8884, 10468, 12357, 14888, 15238, 15472, 17065, 18582, 19685, 20871, 22352, 23869, 24761, 26285, 27719, 32755, 33055, 33474, 34694]}, "edge": {"target": [], "time": []}}, "mouseout": {"state": {"target": ["7", "1", "2", "10", "3", "8", "11", "8", "3", "4", "4", "6", "18", "13", "12", "13", "14", "19", "21", "23", "24", "25", "30", "32", "12", "15", "15", "16"], "time": [546, 3071, 4651, 5406, 6718, 7668, 8535, 8568, 8668, 9703, 11992, 13972, 15005, 15355, 16144, 18351, 19619, 20671, 21472, 23785, 24702, 26136, 27503, 28945, 32772, 33105, 34596, 36147]}, "edge": {"target": [], "time": []}}}, "displayed_time": "45.53", "trialTime": 49231, "trial_type": "mouselab-mdp", "trial_index": 17, "time_elapsed": 773855, "internal_node_id": "0.0-6.0-1.0-2.0"}}, {"uniqueid": "w37653102:a71284482", "current_trial": 18, "dateTime": 1693661090584, "trialdata": {"revealed_states": [], "clicked_states": ["1", "2", "3", "8", "10", "6", "7", "32", "33", "29"], "num_clicks_accrued": [0, 0, 0, 0, 0, 0, 0, 0, 0, 0, 0, 0, 0], "stateRewards": ["", 1, 2, -6, -13, -51, 22, -4, -12, -44, -12, 6, -2, -2, -2, -14, -46, -4, -77, -2, 36, -79, 41, 2, -4, 2, -6, -55, 59, 70, -5, 39, -19, 24], "withholdReward": false, "trial_id": "mdp_trial_4", "block": "test", "trialIndex": 7, "score": 48.5, "costs": -15.500000000000002, "simulationMode": [null, null, null, null, null], "rewards": [2, -4, 2, -6, 70], "path": ["0", "0", "23", "24", "25", "26", "29"], "rt": [36616, 255, 205, 718, 398], "actions": ["left", "left", "left", "up", "left"], "actionTimes": [37824, 38583, 39305, 40529, 41434], "queries": {"click": {"state": {"target": ["1", "2", "3", "8", "10", "6", "7", "32", "33", "29"], "time": [2279, 3548, 4760, 6186, 7299, 11494, 14752, 17677, 22406, 27779]}, "edge": {"target": [], "time": []}}, "mouseover": {"state": {"target": ["1", "2", "3", "8", "10", "3", "4", "6", "4", "7", "1", "24", "30", "32", "33", "30", "25", "29", "26", "27", "11", "26", "26", "28", "23", "23", "0"], "time": [1748, 3100, 4217, 5783, 6853, 7870, 8187, 11034, 12347, 14244, 16254, 16403, 16652, 17138, 18835, 23108, 23358, 24159, 29282, 29398, 29947, 32580, 33613, 33678, 33962, 34293, 34731]}, "edge": {"target": [], "time": []}}, "mouseout": {"state": {"target": ["18", "1", "2", "3", "8", "10", "3", "4", "6", "4", "7", "1", "24", "30", "32", "33", "30", "25", "29", "26", "27", "11", "26", "29", "26", "28", "23", "23", "0"], "time": [485, 2900, 4119, 5684, 6687, 7786, 7920, 10867, 12110, 14194, 16220, 16288, 16452, 16752, 18487, 23059, 23241, 23578, 28962, 29350, 29454, 32167, 32995, 33562, 33645, 33712, 34174, 34377, 34747]}, "edge": {"target": [], "time": []}}}, "displayed_time": "41.94", "trialTime": 45660, "trial_type": "mouselab-mdp", "trial_index": 18, "time_elapsed": 819747, "internal_node_id": "0.0-6.0-1.0-3.0"}}, {"uniqueid": "w37653102:a71284482", "current_trial": 19, "dateTime": 1693661155496, "trialdata": {"revealed_states": [], "clicked_states": ["17", "20", "21", "32", "33", "29", "31", "28", "27", "11", "9", "10"], "num_clicks_accrued": [0, 0, 0, 0, 0, 0, 0, 0, 0, 0, 0, 0, 0], "stateRewards": ["", 2, 3, -1, 16, -78, -11, 46, 2, -20, 79, -67, 2, 3, 2, 11, -83, -42, -58, -11, -67, -22, 55, 2, -1, -1, -16, -83, -82, 23, -11, -29, 13, 13], "withholdReward": false, "trial_id": "mdp_trial_5", "block": "test", "trialIndex": 8, "score": 59.2, "costs": -25.799999999999994, "simulationMode": [null, null, null, null, null], "rewards": [2, 3, -1, 2, 79], "path": ["0", "0", "1", "2", "3", "8", "10"], "rt": [52832, 173, 180, 521, 709], "actions": ["up", "up", "up", "left", "down"], "actionTimes": [55861, 56541, 57229, 58262, 59487], "queries": {"click": {"state": {"target": ["17", "20", "21", "32", "33", "29", "31", "28", "27", "11", "9", "10"], "time": [4430, 7942, 11476, 15294, 19199, 23652, 27527, 31554, 35028, 39020, 42815, 46096]}, "edge": {"target": [], "time": []}}, "mouseover": {"state": {"target": ["18", "15", "17", "20", "21", "32", "33", "29", "25", "31", "24", "28", "27", "11", "9", "8", "10", "8", "2"], "time": [3542, 3591, 3994, 5831, 10812, 14961, 17511, 22804, 26762, 27029, 30892, 31143, 34397, 38537, 42334, 44161, 44326, 50578, 54300]}, "edge": {"target": [], "time": []}}, "mouseout": {"state": {"target": ["13", "12", "0", "18", "15", "17", "20", "21", "32", "33", "29", "25", "31", "24", "28", "27", "11", "9", "8", "10", "8", "10", "2", "1"], "time": [2253, 2387, 3446, 3575, 3658, 4986, 8596, 12160, 16094, 22488, 24489, 26795, 30322, 31009, 34183, 38387, 42252, 44126, 44210, 49628, 50662, 54220, 54466, 62247]}, "edge": {"target": [], "time": []}}}, "displayed_time": "60.00", "trialTime": 64669, "trial_type": "mouselab-mdp", "trial_index": 19, "time_elapsed": 884659, "internal_node_id": "0.0-6.0-1.0-4.0"}}, {"uniqueid": "w37653102:a71284482", "current_trial": 20, "dateTime": 1693661230327, "trialdata": {"revealed_states": [], "clicked_states": ["1", "6", "7", "5", "9", "11", "27", "29", "28", "33", "32", "31", "22", "21", "20", "17"], "num_clicks_accrued": [0, 0, 0, 0, 0, 0, 0, 0, 0, 0, 0, 0, 0], "stateRewards": ["", -1, -4, -6, -15, 21, -67, -63, 9, 51, 69, -14, -1, 3, 8, -8, 39, 72, 63, 15, 19, 47, 15, 1, 4, 5, 16, -18, 34, 35, -14, -80, 40, 1], "withholdReward": false, "trial_id": "mdp_trial_6", "block": "test", "trialIndex": 9, "score": 42.000000000000014, "costs": -31.99999999999999, "simulationMode": [null, null, null, null, null], "rewards": [-1, 3, 8, -8, 72], "path": ["0", "0", "12", "13", "14", "15", "17"], "rt": [64863, 216, 186, 598, 399], "actions": ["right", "right", "right", "up", "right"], "actionTimes": [66728, 67451, 68147, 69251, 70156], "queries": {"click": {"state": {"target": ["1", "6", "7", "5", "9", "11", "27", "29", "28", "33", "32", "31", "22", "21", "20", "17"], "time": [3881, 6524, 9846, 13187, 17343, 21985, 25915, 29848, 33300, 37215, 40617, 44172, 47940, 51147, 54904, 58686]}, "edge": {"target": [], "time": []}}, "mouseover": {"state": {"target": ["1", "7", "6", "7", "4", "5", "9", "11", "9", "27", "29", "26", "28", "25", "33", "32", "31", "22", "21", "20", "17", "15", "18", "15"], "time": [2561, 5513, 5845, 8067, 10595, 10714, 16841, 21176, 23805, 25560, 29351, 30815, 31180, 35963, 36158, 39743, 43631, 47450, 50401, 53829, 58281, 61038, 61440, 62942]}, "edge": {"target": [], "time": []}}, "mouseout": {"state": {"target": ["0", "1", "7", "6", "7", "4", "5", "9", "11", "9", "11", "27", "29", "26", "28", "25", "33", "32", "31", "22", "21", "20", "17", "15", "18", "15", "17", "17"], "time": [940, 4694, 5562, 7915, 10578, 10645, 16641, 20560, 23718, 25197, 25280, 29201, 30780, 30864, 35930, 36025, 39378, 40829, 47067, 50217, 51362, 57943, 61002, 61236, 62893, 63042, 64718, 71854]}, "edge": {"target": [], "time": []}}}, "displayed_time": "70.67", "trialTime": 74580, "trial_type": "mouselab-mdp", "trial_index": 20, "time_elapsed": 959491, "internal_node_id": "0.0-6.0-1.0-5.0"}}, {"uniqueid": "w37653102:a71284482", "current_trial": 21, "dateTime": 1693661292582, "trialdata": {"revealed_states": [], "clicked_states": ["9", "5", "6", "16", "17", "20", "21", "22", "31", "32", "33"], "num_clicks_accrued": [0, 0, 0, 0, 0, 0, 0, 0, 0, 0, 0, 0, 0], "stateRewards": ["", -1, 4, -8, 12, 14, 69, -8, 5, -72, -14, 56, -1, -1, -1, 9, 67, 19, 11, -9, -88, -58, 3, 2, -4, -8, 4, 62, 77, -74, 5, -31, 65, 88], "withholdReward": false, "trial_id": "mdp_trial_7", "block": "test", "trialIndex": 10, "score": 59.35000000000001, "costs": -23.649999999999995, "simulationMode": [null, null, null, null, null], "rewards": [2, -4, -8, 5, 88], "path": ["0", "0", "23", "24", "25", "30", "33"], "rt": [47888, 125, 133, 940, 757], "actions": ["left", "left", "left", "down", "left"], "actionTimes": [54144, 54773, 55401, 56862, 58129], "queries": {"click": {"state": {"target": ["9", "5", "6", "16", "17", "20", "21", "22", "31", "32", "33"], "time": [7663, 11009, 14432, 18829, 22563, 27343, 30809, 34176, 38802, 42462, 46389]}, "edge": {"target": [], "time": []}}, "mouseover": {"state": {"target": ["10", "8", "9", "5", "6", "16", "17", "20", "21", "22", "31", "32", "33", "29", "29", "24"], "time": [6782, 6881, 7115, 8891, 11735, 15487, 20173, 26728, 28724, 31720, 38407, 42063, 45903, 49580, 51855, 53160]}, "edge": {"target": [], "time": []}}, "mouseout": {"state": {"target": ["16", "12", "0", "10", "8", "9", "5", "6", "16", "17", "20", "21", "22", "31", "32", "33", "29", "33", "29", "24"], "time": [2714, 5636, 6715, 6831, 7015, 8475, 11589, 15254, 19588, 26525, 28468, 31637, 37361, 41797, 45803, 48902, 49916, 51602, 53024, 53179]}, "edge": {"target": [], "time": []}}}, "displayed_time": "58.62", "trialTime": 62040, "trial_type": "mouselab-mdp", "trial_index": 21, "time_elapsed": 1021745, "internal_node_id": "0.0-6.0-1.0-6.0"}}, {"uniqueid": "w37653102:a71284482", "current_trial": 22, "dateTime": 1693661361207, "trialdata": {"revealed_states": [], "clicked_states": ["9", "5", "6", "16", "17", "20", "21"], "num_clicks_accrued": [0, 0, 0, 0, 0, 0, 0, 0, 0, 0, 0, 0, 0], "stateRewards": ["", -2, 4, -5, -12, 85, -24, -18, -15, -78, -22, 26, -1, -1, 2, 14, -45, 52, -23, 7, -33, 24, -6, -2, -4, 5, -7, -16, 36, -39, 5, 71, -87, -23], "withholdReward": false, "trial_id": "mdp_trial_8", "block": "test", "trialIndex": 11, "score": 54.95, "costs": -15.05, "simulationMode": [null, null, null, null, null], "rewards": [-2, 4, -5, -12, 85], "path": ["0", "0", "1", "2", "3", "4", "5"], "rt": [29175, 106, 77, 190, 818], "actions": ["up", "up", "up", "right", "up"], "actionTimes": [31311, 31922, 32510, 33207, 34535], "queries": {"click": {"state": {"target": ["9", "5", "6", "16", "17", "20", "21"], "time": [3686, 6913, 10164, 13923, 17706, 21209, 25074]}, "edge": {"target": [], "time": []}}, "mouseover": {"state": {"target": ["1", "8", "9", "5", "6", "16", "17", "20", "21"], "time": [2824, 3107, 3191, 4589, 7859, 13515, 17255, 20352, 24436]}, "edge": {"target": [], "time": []}}, "mouseout": {"state": {"target": ["0", "1", "8", "9", "5", "6", "16", "17", "20", "21", "0", "1", "2", "3", "8", "9", "9", "5", "6", "16", "17", "20", "19", "15", "16", "5", "5", "6", "6", "4", "3", "3", "9", "5", "6", "7", "1"], "time": [2765, 2843, 3142, 4312, 7509, 10843, 17051, 19704, 24185, 25957, 47476, 48057, 48136, 48591, 48657, 49254, 50509, 51041, 51535, 51884, 52441, 52872, 53426, 53460, 53476, 53929, 54934, 56396, 57500, 57514, 57613, 57981, 62762, 65215, 65481, 65927, 67088]}, "edge": {"target": [], "time": []}}}, "displayed_time": "35.05", "trialTime": 68375, "trial_type": "mouselab-mdp", "trial_index": 22, "time_elapsed": 1090370, "internal_node_id": "0.0-6.0-1.0-7.0"}}, {"uniqueid": "w37653102:a71284482", "current_trial": 23, "dateTime": 1693661407422, "trialdata": {"revealed_states": [], "clicked_states": ["9", "5", "6", "7", "16", "17", "18", "20"], "num_clicks_accrued": [0, 0, 0, 0, 0, 0, 0, 0, 0, 0, 0, 0, 0], "stateRewards": ["", 2, 3, -2, -8, -8, -41, 74, 15, -23, -80, 1, 1, 3, 3, -15, -63, -78, 67, 13, 75, -41, 86, 2, -2, 6, -3, -8, -49, 50, -6, 83, 74, 80], "withholdReward": false, "trial_id": "mdp_trial_9", "block": "test", "trialIndex": 12, "score": 77.8, "costs": -17.2, "simulationMode": [null, null, null, null, null], "rewards": [1, 3, 3, 13, 75], "path": ["0", "0", "12", "13", "14", "19", "20"], "rt": [34343, 574, 217, 693, 300], "actions": ["right", "right", "right", "down", "right"], "actionTimes": [36236, 37318, 38042, 39244, 40039], "queries": {"click": {"state": {"target": ["9", "5", "6", "7", "16", "17", "18", "20"], "time": [3128, 6374, 9817, 13296, 16691, 20143, 23928, 28699]}, "edge": {"target": [], "time": []}}, "mouseover": {"state": {"target": ["1", "8", "9", "5", "6", "7", "16", "17", "15", "18", "14", "20", "21"], "time": [2375, 2471, 2571, 4279, 8537, 11661, 14511, 17466, 23141, 23363, 27477, 28080, 31735]}, "edge": {"target": [], "time": []}}, "mouseout": {"state": {"target": ["23", "0", "1", "8", "9", "5", "6", "7", "16", "17", "15", "18", "14", "20", "21", "20"], "time": [968, 2346, 2389, 2488, 3963, 8343, 10743, 14112, 17333, 23091, 23271, 27261, 27782, 31534, 41996, 42025]}, "edge": {"target": [], "time": []}}}, "displayed_time": "40.55", "trialTime": 45966, "trial_type": "mouselab-mdp", "trial_index": 23, "time_elapsed": 1136585, "internal_node_id": "0.0-6.0-1.0-8.0"}}, {"uniqueid": "w37653102:a71284482", "current_trial": 24, "dateTime": 1693661482382, "trialdata": {"revealed_states": [], "clicked_states": ["9", "5", "6", "18", "16", "17", "20", "21", "22", "31", "32", "33", "29", "27", "28", "10", "11"], "num_clicks_accrued": [0, 0, 0, 0, 0, 0, 0, 0, 0, 0, 0, 0, 0], "stateRewards": ["", -1, -3, -5, -14, -13, -47, 79, 8, -60, -64, 41, -1, 2, 3, 13, -46, 61, -79, -11, -64, -65, 23, 1, -2, 6, -14, 46, 32, 21, 7, 75, -66, 15], "withholdReward": false, "trial_id": "mdp_trial_10", "block": "test", "trialIndex": 13, "score": 50.45000000000001, "costs": -36.54999999999999, "simulationMode": [null, null, null, null, null], "rewards": [1, -2, 6, 7, 75], "path": ["0", "0", "23", "24", "25", "30", "31"], "rt": [65155, 166, 224, 710, 380], "actions": ["left", "left", "left", "down", "right"], "actionTimes": [66942, 67620, 68346, 69567, 70456], "queries": {"click": {"state": {"target": ["9", "5", "6", "18", "16", "17", "20", "21", "22", "31", "32", "33", "29", "27", "28", "10", "11"], "time": [3027, 6226, 9490, 12711, 15857, 19128, 22664, 26333, 29794, 33414, 37893, 41320, 45318, 48853, 52690, 56225, 60153]}, "edge": {"target": [], "time": []}}, "mouseover": {"state": {"target": ["1", "2", "3", "9", "5", "6", "16", "18", "16", "17", "20", "21", "22", "31", "32", "33", "29", "27", "28", "10", "11", "10"], "time": [2246, 2276, 2308, 2510, 4181, 7051, 10534, 10734, 13620, 17096, 20740, 25893, 29365, 32905, 35833, 40545, 44730, 48252, 52254, 55701, 59575, 62092]}, "edge": {"target": [], "time": []}}, "mouseout": {"state": {"target": ["12", "0", "1", "2", "3", "9", "5", "6", "16", "18", "16", "17", "20", "21", "22", "31", "32", "33", "29", "27", "28", "10", "11", "10"], "time": [921, 2216, 2261, 2291, 2341, 3665, 6834, 10084, 10584, 12931, 16482, 19942, 25070, 29248, 30015, 35629, 40345, 44477, 48102, 52055, 55252, 59479, 62059, 62112]}, "edge": {"target": [], "time": []}}}, "displayed_time": "70.97", "trialTime": 74686, "trial_type": "mouselab-mdp", "trial_index": 24, "time_elapsed": 1211545, "internal_node_id": "0.0-6.0-1.0-9.0"}}, {"uniqueid": "w37653102:a71284482", "current_trial": 25, "dateTime": 1693661532293, "trialdata": {"revealed_states": [], "clicked_states": ["9", "5", "6", "7", "18", "16", "17"], "num_clicks_accrued": [0, 0, 0, 0, 0, 0, 0, 0, 0, 0, 0, 0, 0], "stateRewards": ["", 2, 4, 4, -8, -36, -33, 38, 16, -51, 57, 57, 1, 3, 4, -6, 45, 68, 87, 1, 63, 24, -55, -2, 2, -6, -13, -63, -50, 8, 2, 80, 6, 60], "withholdReward": false, "trial_id": "mdp_trial_11", "block": "test", "trialIndex": 14, "score": 73.95, "costs": -15.05, "simulationMode": [null, null, null, null, null], "rewards": [1, 3, 4, -6, 87], "path": ["0", "0", "12", "13", "14", "15", "18"], "rt": [31207, 157, 149, 456, 356], "actions": ["right", "right", "right", "up", "left"], "actionTimes": [34025, 34686, 35340, 36293, 37157], "queries": {"click": {"state": {"target": ["9", "5", "6", "7", "18", "16", "17"], "time": [4195, 7550, 11174, 14742, 18254, 22340, 26231]}, "edge": {"target": [], "time": []}}, "mouseover": {"state": {"target": ["1", "9", "5", "4", "6", "7", "18", "16", "17", "15", "18"], "time": [3360, 3807, 5165, 10493, 10742, 14030, 15887, 19102, 25672, 29670, 29836]}, "edge": {"target": [], "time": []}}, "mouseout": {"state": {"target": ["1", "1", "9", "5", "4", "6", "7", "18", "16", "17", "15", "18"], "time": [2145, 3394, 4717, 10376, 10509, 12680, 15338, 18872, 25524, 29568, 29753, 32862]}, "edge": {"target": [], "time": []}}}, "displayed_time": "37.66", "trialTime": 49647, "trial_type": "mouselab-mdp", "trial_index": 25, "time_elapsed": 1261456, "internal_node_id": "0.0-6.0-1.0-10.0"}}, {"uniqueid": "w37653102:a71284482", "current_trial": 26, "dateTime": 1693661558852, "trialdata": {"revealed_states": [], "clicked_states": ["9", "5", "6"], "num_clicks_accrued": [0, 0, 0, 0, 0, 0, 0, 0, 0, 0, 0, 0, 0], "stateRewards": ["", -1, -3, -7, -4, -85, -70, 79, 8, 84, -66, 42, 2, -2, -3, -16, -54, -66, 68, -3, 21, -14, 7, -2, -1, -3, -8, 75, 80, 86, -7, -84, 73, -16], "withholdReward": false, "trial_id": "mdp_trial_12", "block": "test", "trialIndex": 15, "score": 74.55, "costs": -6.449999999999999, "simulationMode": [null, null, null, null, null], "rewards": [-1, -3, -7, 8, 84], "path": ["0", "0", "1", "2", "3", "8", "9"], "rt": [16411, 172, 137, 354, 250], "actions": ["up", "up", "up", "left", "up"], "actionTimes": [18390, 19054, 19692, 20557, 21315], "queries": {"click": {"state": {"target": ["9", "5", "6"], "time": [4142, 8484, 12032]}, "edge": {"target": [], "time": []}}, "mouseover": {"state": {"target": ["1", "2", "3", "8", "11", "9", "9", "5", "6"], "time": [2443, 2477, 2525, 2710, 2993, 3207, 3703, 5820, 11588]}, "edge": {"target": [], "time": []}}, "mouseout": {"state": {"target": ["17", "15", "12", "0", "1", "2", "3", "8", "11", "9", "9", "5", "5", "6"], "time": [767, 832, 1288, 2394, 2460, 2508, 2611, 2860, 3162, 3224, 5653, 8701, 11198, 14624]}, "edge": {"target": [], "time": []}}}, "displayed_time": "21.83", "trialTime": 26291, "trial_type": "mouselab-mdp", "trial_index": 26, "time_elapsed": 1288015, "internal_node_id": "0.0-6.0-1.0-11.0"}}, {"uniqueid": "w37653102:a71284482", "current_trial": 27, "dateTime": 1693661636647, "trialdata": {"revealed_states": [], "clicked_states": ["9", "5", "6", "16", "18", "17", "20", "21", "22", "31", "32", "33", "29", "28", "27", "11", "10", "7"], "num_clicks_accrued": [0, 0, 0, 0, 0, 0, 0, 0, 0, 0, 0, 0, 0], "stateRewards": ["", -1, 3, -7, 16, -32, -74, -48, 2, 10, 15, -30, 1, 1, -2, 10, 12, -83, 67, 13, -66, 47, 65, -2, 4, 2, -14, -8, -57, 24, 9, 65, 12, 46], "withholdReward": false, "trial_id": "mdp_trial_13", "block": "test", "trialIndex": 16, "score": 38.30000000000001, "costs": -38.69999999999999, "simulationMode": [null, null, null, null, null], "rewards": [1, 1, -2, 10, 67], "path": ["0", "0", "12", "13", "14", "15", "18"], "rt": [69703, 196, 165, 468, 719], "actions": ["right", "right", "right", "up", "left"], "actionTimes": [71143, 71843, 72515, 73492, 74727], "queries": {"click": {"state": {"target": ["9", "5", "6", "16", "18", "17", "20", "21", "22", "31", "32", "33", "29", "28", "27", "11", "10", "7"], "time": [2533, 5967, 9225, 12621, 15906, 20197, 24629, 27827, 32166, 36238, 39429, 42779, 46590, 50098, 53902, 57306, 60615, 64675]}, "edge": {"target": [], "time": []}}, "mouseover": {"state": {"target": ["1", "8", "9", "5", "6", "16", "18", "15", "17", "20", "21", "22", "31", "32", "33", "29", "26", "28", "27", "11", "10", "2", "7"], "time": [1834, 1901, 2018, 5185, 6558, 10256, 14134, 19528, 19844, 22229, 26191, 31500, 35755, 38407, 40990, 46093, 48084, 48268, 53438, 56649, 58487, 61259, 61460]}, "edge": {"target": [], "time": []}}, "mouseout": {"state": {"target": ["12", "0", "1", "8", "9", "5", "6", "16", "18", "15", "17", "20", "21", "22", "31", "32", "33", "29", "26", "28", "27", "11", "10", "2"], "time": [652, 1801, 1851, 1934, 2738, 6492, 10156, 13950, 19399, 19645, 22045, 25592, 30960, 34977, 38243, 40889, 42983, 48067, 48150, 53291, 56499, 58370, 61243, 61329]}, "edge": {"target": [], "time": []}}}, "displayed_time": "75.22", "trialTime": 77521, "trial_type": "mouselab-mdp", "trial_index": 27, "time_elapsed": 1365809, "internal_node_id": "0.0-6.0-1.0-12.0"}}, {"uniqueid": "w37653102:a71284482", "current_trial": 28, "dateTime": 1693661719533, "trialdata": {"revealed_states": [], "clicked_states": ["9", "5", "6", "18", "16", "17", "20", "21", "22", "31", "32", "33", "29", "27", "28", "11", "10", "7"], "num_clicks_accrued": [0, 0, 0, 0, 0, 0, 0, 0, 0, 0, 0, 0, 0], "stateRewards": ["", -2, 2, 2, -6, 9, 37, 50, -13, -7, -18, -75, -2, -4, 4, 7, 23, -57, -66, -7, -81, -48, -76, 1, 1, -8, 1, 51, -2, 70, 14, 59, 71, -37], "withholdReward": false, "trial_id": "mdp_trial_14", "block": "test", "trialIndex": 17, "score": 40.30000000000001, "costs": -38.69999999999999, "simulationMode": [null, null, null, null, null], "rewards": [1, 1, -8, 14, 71], "path": ["0", "0", "23", "24", "25", "30", "32"], "rt": [68190, 108, 140, 1490, 382], "actions": ["left", "left", "left", "down", "down"], "actionTimes": [69656, 70269, 70903, 72899, 73787], "queries": {"click": {"state": {"target": ["9", "5", "6", "18", "16", "17", "20", "21", "22", "31", "32", "33", "29", "27", "28", "11", "10", "7"], "time": [3332, 6551, 9913, 14117, 17425, 20736, 24002, 27555, 30762, 34083, 37715, 42463, 45667, 49196, 52619, 56152, 59454, 63262]}, "edge": {"target": [], "time": []}}, "mouseover": {"state": {"target": ["1", "8", "11", "9", "5", "6", "16", "18", "16", "17", "20", "21", "22", "31", "32", "33", "33", "29", "27", "28", "11", "10", "2", "7"], "time": [1931, 2047, 2347, 2918, 4553, 7445, 12382, 13390, 16347, 18350, 22097, 26932, 29197, 33162, 35260, 40918, 41973, 44904, 46768, 50316, 55560, 57439, 62488, 62687]}, "edge": {"target": [], "time": []}}, "mouseout": {"state": {"target": ["7", "0", "1", "8", "11", "9", "5", "6", "16", "18", "16", "17", "20", "21", "22", "31", "32", "33", "33", "29", "27", "28", "11", "11", "10", "2", "7"], "time": [625, 1901, 1948, 2163, 2563, 4204, 7328, 11973, 13275, 16247, 18183, 21780, 26196, 29114, 32146, 34961, 40754, 41299, 44605, 46620, 50200, 55458, 56371, 57156, 62461, 62570, 65323]}, "edge": {"target": [], "time": []}}}, "displayed_time": "74.30", "trialTime": 82612, "trial_type": "mouselab-mdp", "trial_index": 28, "time_elapsed": 1448696, "internal_node_id": "0.0-6.0-1.0-13.0"}}, {"uniqueid": "w37653102:a71284482", "current_trial": 29, "dateTime": 1693661816269, "trialdata": {"revealed_states": [], "clicked_states": ["9", "5", "6", "18", "16", "17", "20", "21", "22", "31", "32", "33", "29", "27", "28", "11", "10", "7"], "num_clicks_accrued": [0, 0, 0, 0, 0, 0, 0, 0, 0, 0, 0, 0, 0], "stateRewards": ["", -2, -3, 4, 1, 33, -53, 15, 9, -12, 61, -6, -2, 4, 6, -11, 47, -43, -7, -11, 46, 23, -28, -1, -1, 3, -10, 11, 76, -76, 10, 18, -38, 87], "withholdReward": false, "trial_id": "mdp_trial_15", "block": "test", "trialIndex": 18, "score": 59.30000000000001, "costs": -38.69999999999999, "simulationMode": [null, null, null, null, null], "rewards": [-1, -1, 3, 10, 87], "path": ["0", "0", "23", "24", "25", "30", "33"], "rt": [70106, 127, 142, 646, 697], "actions": ["left", "left", "left", "down", "left"], "actionTimes": [71404, 72048, 72689, 73826, 75031], "queries": {"click": {"state": {"target": ["9", "5", "6", "18", "16", "17", "20", "21", "22", "31", "32", "33", "29", "27", "28", "11", "10", "7"], "time": [2931, 7079, 10955, 15034, 18334, 21424, 25174, 28292, 31832, 35562, 39516, 42829, 47612, 51194, 54445, 58212, 61733, 64936]}, "edge": {"target": [], "time": []}}, "mouseover": {"state": {"target": ["10", "9", "5", "6", "16", "18", "16", "17", "20", "21", "22", "31", "32", "33", "25", "29", "29", "27", "28", "11", "10", "2", "7"], "time": [1947, 2293, 3714, 7817, 13477, 14607, 16050, 18982, 24690, 26388, 30207, 34936, 38680, 41876, 44525, 44891, 47220, 50592, 53479, 57391, 60080, 62355, 62426]}, "edge": {"target": [], "time": []}}, "mouseout": {"state": {"target": ["0", "10", "9", "5", "6", "16", "18", "16", "17", "20", "21", "22", "31", "32", "33", "25", "29", "33", "29", "27", "28", "11", "10", "2", "7"], "time": [1814, 1977, 3462, 7701, 12731, 14369, 15714, 18916, 23689, 26056, 30091, 34417, 38612, 41794, 44224, 44625, 46340, 46872, 50240, 53379, 57158, 59982, 62348, 62378, 67840]}, "edge": {"target": [], "time": []}}}, "displayed_time": "75.54", "trialTime": 96442, "trial_type": "mouselab-mdp", "trial_index": 29, "time_elapsed": 1545432, "internal_node_id": "0.0-6.0-1.0-14.0"}}, {"uniqueid": "w37653102:a71284482", "current_trial": 30, "dateTime": 1693661892022, "trialdata": {"revealed_states": [], "clicked_states": ["10", "11", "9", "5", "6", "7", "16", "18", "17", "20", "21", "22", "31", "32", "33", "29", "27", "28"], "num_clicks_accrued": [0, 0, 0, 0, 0, 0, 0, 0, 0, 0, 0, 0, 0], "stateRewards": ["", -1, 3, 1, -11, -22, -36, 19, -5, -70, -52, 50, -2, -4, 4, -2, -41, -83, 29, -2, 22, 10, -6, -2, 3, -2, 14, 54, 44, 77, -9, -65, -37, -40], "withholdReward": false, "trial_id": "mdp_trial_16", "block": "test", "trialIndex": 19, "score": 51.30000000000001, "costs": -38.69999999999999, "simulationMode": [null, null, null, null, null], "rewards": [-2, 3, -2, 14, 77], "path": ["0", "0", "23", "24", "25", "26", "29"], "rt": [66700, 173, 174, 818, 651], "actions": ["left", "left", "left", "up", "left"], "actionTimes": [68300, 68977, 69649, 70975, 72117], "queries": {"click": {"state": {"target": ["10", "11", "9", "5", "6", "7", "16", "18", "17", "20", "21", "22", "31", "32", "33", "29", "27", "28"], "time": [4068, 7419, 11428, 15220, 18472, 21829, 25420, 28670, 32138, 35387, 38777, 42086, 45410, 48599, 51586, 54369, 57501, 61246]}, "edge": {"target": [], "time": []}}, "mouseover": {"state": {"target": ["1", "10", "8", "8", "10", "11", "9", "5", "6", "7", "16", "18", "15", "17", "20", "21", "22", "31", "32", "33", "29", "27", "28"], "time": [2144, 2208, 2542, 2912, 3259, 4756, 8044, 14288, 16341, 19202, 24785, 26159, 29288, 29500, 34473, 37253, 41264, 43969, 46205, 49910, 53648, 55410, 60824]}, "edge": {"target": [], "time": []}}, "mouseout": {"state": {"target": ["1", "0", "1", "10", "8", "8", "10", "11", "9", "5", "6", "7", "16", "18", "15", "17", "20", "21", "22", "31", "32", "33", "29", "27", "28"], "time": [732, 1378, 2162, 2325, 2611, 3062, 4711, 7945, 13906, 16169, 19037, 24201, 26059, 29254, 29368, 34251, 36953, 40706, 43036, 46054, 49597, 53161, 55265, 59285, 61476]}, "edge": {"target": [], "time": []}}}, "displayed_time": "72.63", "trialTime": 75470, "trial_type": "mouselab-mdp", "trial_index": 30, "time_elapsed": 1621185, "internal_node_id": "0.0-6.0-1.0-15.0"}}, {"uniqueid": "w37653102:a71284482", "current_trial": 31, "dateTime": 1693661969768, "trialdata": {"revealed_states": [], "clicked_states": ["10", "11", "9", "5", "6", "7", "18", "16", "17", "20", "21", "22", "31", "32", "33", "29", "27", "28"], "num_clicks_accrued": [0, 0, 0, 0, 0, 0, 0, 0, 0, 0, 0, 0, 0], "stateRewards": ["", 1, 2, 7, 13, 88, -71, 27, 3, 60, 5, -53, -2, 2, -6, -1, -30, 79, 47, -4, -14, 46, 68, 1, 1, 8, 10, -14, 86, 48, -11, -67, -44, 5], "withholdReward": false, "trial_id": "mdp_trial_17", "block": "test", "trialIndex": 20, "score": 72.30000000000001, "costs": -38.69999999999999, "simulationMode": [null, null, null, null, null], "rewards": [1, 2, 7, 13, 88], "path": ["0", "0", "1", "2", "3", "4", "5"], "rt": [66399, 143, 137, 245, 800], "actions": ["up", "up", "up", "right", "up"], "actionTimes": [67696, 68348, 68989, 69732, 71041], "queries": {"click": {"state": {"target": ["10", "11", "9", "5", "6", "7", "18", "16", "17", "20", "21", "22", "31", "32", "33", "29", "27", "28"], "time": [2831, 6106, 9369, 13453, 17511, 20825, 24124, 27320, 30694, 33899, 37243, 40616, 43814, 47610, 50857, 54342, 57515, 60683]}, "edge": {"target": [], "time": []}}, "mouseover": {"state": {"target": ["10", "8", "10", "11", "9", "5", "6", "7", "16", "18", "16", "17", "20", "21", "22", "31", "32", "33", "29", "27", "28"], "time": [1928, 2008, 2361, 3682, 6741, 10065, 15410, 19674, 21720, 22337, 25389, 28343, 31632, 34575, 37953, 42356, 44788, 48241, 52398, 55130, 58958]}, "edge": {"target": [], "time": []}}, "mouseout": {"state": {"target": ["10", "8", "10", "11", "9", "5", "6", "6", "7", "16", "18", "16", "17", "20", "21", "22", "31", "32", "33", "29", "27", "28"], "time": [1962, 2108, 3579, 6610, 9881, 15314, 17730, 18156, 21420, 22287, 24335, 28176, 31416, 34516, 37802, 41773, 44525, 48192, 52098, 54964, 58756, 64816]}, "edge": {"target": [], "time": []}}}, "displayed_time": "71.55", "trialTime": 77480, "trial_type": "mouselab-mdp", "trial_index": 31, "time_elapsed": 1698931, "internal_node_id": "0.0-6.0-1.0-16.0"}}, {"uniqueid": "w37653102:a71284482", "current_trial": 32, "dateTime": 1693662037990, "trialdata": {"revealed_states": [], "clicked_states": ["10", "11", "9", "5", "6", "7", "18", "16", "17", "20", "21", "22", "31"], "num_clicks_accrued": [0, 0, 0, 0, 0, 0, 0, 0, 0, 0, 0, 0, 0], "stateRewards": ["", 1, 1, -5, 8, -6, 45, 16, -6, -7, -22, -38, -1, -4, 8, -11, -16, 21, -45, -15, -59, -32, 42, -1, 3, 6, 11, -7, 34, -27, -8, 85, 43, -9], "withholdReward": false, "trial_id": "mdp_trial_18", "block": "test", "trialIndex": 21, "score": 57.05000000000001, "costs": -27.949999999999992, "simulationMode": [null, null, null, null, null], "rewards": [-1, 3, 6, -8, 85], "path": ["0", "0", "23", "24", "25", "30", "31"], "rt": [53074, 184, 141, 711, 671], "actions": ["left", "left", "left", "down", "right"], "actionTimes": [57795, 58486, 59136, 60357, 61535], "queries": {"click": {"state": {"target": ["10", "11", "9", "5", "6", "7", "18", "16", "17", "20", "21", "22", "31"], "time": [5988, 9302, 12594, 15880, 19191, 23540, 28233, 31540, 34996, 38510, 41818, 45402, 49850]}, "edge": {"target": [], "time": []}}, "mouseover": {"state": {"target": ["10", "11", "9", "5", "6", "7", "16", "18", "16", "17", "20", "21", "22", "31"], "time": [5618, 6899, 9958, 13521, 16601, 19914, 27455, 27875, 30391, 32336, 36224, 41034, 44989, 49439]}, "edge": {"target": [], "time": []}}, "mouseout": {"state": {"target": ["1", "7", "10", "11", "9", "5", "6", "7", "16", "18", "16", "17", "20", "21", "22", "31"], "time": [2153, 2205, 6783, 9858, 13187, 16453, 19731, 24252, 27691, 30159, 32220, 35656, 39067, 42489, 48740, 50468]}, "edge": {"target": [], "time": []}}}, "displayed_time": "62.04", "trialTime": 67937, "trial_type": "mouselab-mdp", "trial_index": 32, "time_elapsed": 1767153, "internal_node_id": "0.0-6.0-1.0-17.0"}}, {"uniqueid": "w37653102:a71284482", "current_trial": 33, "dateTime": 1693662059827, "trialdata": {"revealed_states": [], "clicked_states": ["10", "11"], "num_clicks_accrued": [0, 0, 0, 0, 0, 0, 0, 0, 0, 0, 0, 0, 0], "stateRewards": ["", -2, 2, -5, 1, 42, -63, -58, -6, 2, 16, 81, -2, 4, 7, -10, 33, 3, -33, -2, -52, -84, -27, 2, -3, -3, 15, -74, -14, -5, -5, -84, 79, -31], "withholdReward": false, "trial_id": "mdp_trial_19", "block": "test", "trialIndex": 22, "score": 65.7, "costs": -4.3, "simulationMode": [null, null, null, null, null], "rewards": [-2, 2, -5, -6, 81], "path": ["0", "0", "1", "2", "3", "8", "11"], "rt": [10964, 102, 138, 383, 243], "actions": ["up", "up", "up", "left", "left"], "actionTimes": [15247, 15853, 16490, 17387, 18138], "queries": {"click": {"state": {"target": ["10", "11"], "time": [5486, 8835]}, "edge": {"target": [], "time": []}}, "mouseover": {"state": {"target": ["10", "11", "9", "8"], "time": [4809, 6590, 9548, 12559]}, "edge": {"target": [], "time": []}}, "mouseout": {"state": {"target": ["1", "0", "10", "11", "9"], "time": [3448, 4733, 6310, 9401, 12408]}, "edge": {"target": [], "time": []}}}, "displayed_time": "18.63", "trialTime": 21526, "trial_type": "mouselab-mdp", "trial_index": 33, "time_elapsed": 1788990, "internal_node_id": "0.0-6.0-1.0-18.0"}}, {"uniqueid": "w37653102:a71284482", "current_trial": 34, "dateTime": 1693662085217, "trialdata": {"revealed_states": [], "clicked_states": ["10", "11", "9", "5"], "num_clicks_accrued": [0, 0, 0, 0, 0, 0, 0, 0, 0, 0, 0, 0, 0], "stateRewards": ["", -2, -3, 7, -13, 60, 9, 37, -6, 37, 20, 1, 2, -2, -8, 6, -80, -31, -10, -7, 70, -65, -44, -1, 1, 7, 6, -11, 73, -85, 16, -21, 47, 34], "withholdReward": false, "trial_id": "mdp_trial_20", "block": "test", "trialIndex": 23, "score": 40.4, "costs": -8.6, "simulationMode": [null, null, null, null, null], "rewards": [-2, -3, 7, -13, 60], "path": ["0", "0", "1", "2", "3", "4", "5"], "rt": [17336, 94, 70, 266, 165], "actions": ["up", "up", "up", "right", "up"], "actionTimes": [18985, 19589, 20177, 20955, 21629], "queries": {"click": {"state": {"target": ["10", "11", "9", "5"], "time": [2792, 5976, 9223, 12633]}, "edge": {"target": [], "time": []}}, "mouseover": {"state": {"target": ["10", "11", "11", "9", "5", "6"], "time": [2265, 4466, 4966, 6581, 9856, 13271]}, "edge": {"target": [], "time": []}}, "mouseout": {"state": {"target": ["8", "1", "10", "11", "11", "9", "5", "6"], "time": [576, 827, 3813, 4596, 6462, 9433, 13188, 16633]}, "edge": {"target": [], "time": []}}}, "displayed_time": "22.14", "trialTime": 25102, "trial_type": "mouselab-mdp", "trial_index": 34, "time_elapsed": 1814380, "internal_node_id": "0.0-6.0-1.0-19.0"}}, {"uniqueid": "w37653102:a71284482", "current_trial": 35, "dateTime": 1693662113766, "trialdata": {"revealed_states": [], "clicked_states": ["11", "9", "5", "32"], "num_clicks_accrued": [0, 0, 0, 0, 0, 0, 0, 0, 0, 0, 0, 0, 0], "stateRewards": ["", 1, 1, -2, 7, -31, -6, 76, 1, -36, -16, -53, 2, 1, 7, 13, -47, -10, 47, -7, 72, 46, -56, -2, -2, -2, 11, -80, 44, 38, 16, 67, 85, -78], "withholdReward": false, "trial_id": "mdp_trial_21", "block": "test", "trialIndex": 24, "score": 86.4, "costs": -8.6, "simulationMode": [null, null, null, null, null], "rewards": [-2, -2, -2, 16, 85], "path": ["0", "0", "23", "24", "25", "30", "32"], "rt": [20299, 47, 13, 750, 249], "actions": ["left", "left", "left", "down", "down"], "actionTimes": [21723, 22279, 22811, 24065, 24822], "queries": {"click": {"state": {"target": ["11", "9", "5", "32"], "time": [4273, 7502, 10861, 15339]}, "edge": {"target": [], "time": []}}, "mouseover": {"state": {"target": ["1", "8", "9", "11", "9", "5", "5", "4", "2", "24", "31", "30", "32"], "time": [2135, 2331, 2618, 3777, 4909, 8129, 9697, 14313, 14415, 14565, 14616, 14715, 14963]}, "edge": {"target": [], "time": []}}, "mouseout": {"state": {"target": ["5", "4", "7", "1", "1", "8", "9", "11", "9", "5", "5", "4", "2", "24", "31", "30", "32"], "time": [433, 495, 596, 760, 2166, 2449, 3727, 4859, 7996, 9216, 14212, 14368, 14448, 14582, 14648, 14732, 16380]}, "edge": {"target": [], "time": []}}}, "displayed_time": "25.33", "trialTime": 28257, "trial_type": "mouselab-mdp", "trial_index": 35, "time_elapsed": 1842929, "internal_node_id": "0.0-6.0-1.0-20.0"}}, {"uniqueid": "w37653102:a71284482", "current_trial": 36, "dateTime": 1693662161099, "trialdata": {"revealed_states": [], "clicked_states": ["29", "17", "20", "33", "9", "5", "21", "32", "31"], "num_clicks_accrued": [0, 0, 0, 0, 0, 0, 0, 0, 0, 0, 0, 0, 0], "stateRewards": ["", 1, -3, -6, -5, 47, 80, -29, 11, -71, 10, -29, -2, 3, -6, 12, 2, -78, -6, 8, 34, -16, -5, -1, 3, 3, -13, 84, -36, -62, -3, -27, 66, 15], "withholdReward": false, "trial_id": "mdp_trial_22", "block": "test", "trialIndex": 25, "score": 48.650000000000006, "costs": -19.349999999999998, "simulationMode": [null, null, null, null, null], "rewards": [-1, 3, 3, -3, 66], "path": ["0", "0", "23", "24", "25", "30", "32"], "rt": [39074, 510, 119, 594, 271], "actions": ["left", "left", "left", "down", "down"], "actionTimes": [41054, 42071, 42690, 43775, 44536], "queries": {"click": {"state": {"target": ["29", "17", "20", "33", "9", "5", "21", "32", "31"], "time": [3858, 7217, 10565, 14075, 17841, 21703, 27012, 30329, 34779]}, "edge": {"target": [], "time": []}}, "mouseover": {"state": {"target": ["28", "26", "29", "26", "28", "18", "15", "17", "20", "31", "30", "33", "26", "11", "9", "5", "13", "22", "21", "32", "31"], "time": [2602, 2703, 3003, 4670, 4721, 4886, 5185, 5353, 9544, 11288, 11338, 11672, 15292, 15357, 15707, 21311, 25136, 25218, 26657, 29125, 32482]}, "edge": {"target": [], "time": []}}, "mouseout": {"state": {"target": ["0", "28", "26", "29", "26", "28", "18", "15", "17", "20", "31", "30", "33", "26", "11", "9", "5", "13", "22", "21", "32", "31"], "time": [2488, 2637, 2834, 4668, 4703, 4739, 5153, 5221, 7861, 11188, 11305, 11622, 15242, 15310, 15474, 21003, 25054, 25169, 25234, 28641, 32248, 38565]}, "edge": {"target": [], "time": []}}}, "displayed_time": "45.04", "trialTime": 47057, "trial_type": "mouselab-mdp", "trial_index": 36, "time_elapsed": 1890262, "internal_node_id": "0.0-6.0-1.0-21.0"}}, {"uniqueid": "w37653102:a71284482", "current_trial": 37, "dateTime": 1693662213231, "trialdata": {"revealed_states": [], "clicked_states": ["29", "33", "17", "20", "9", "5", "7", "10", "32", "21"], "num_clicks_accrued": [0, 0, 0, 0, 0, 0, 0, 0, 0, 0, 0, 0, 0], "stateRewards": ["", -2, 3, 3, -14, 62, 36, 49, 16, 11, 17, -84, 2, -1, 6, 2, -82, -73, 49, -6, -87, 48, 50, -1, -2, -1, -16, -11, 37, -44, 4, 55, 73, -10], "withholdReward": false, "trial_id": "mdp_trial_23", "block": "test", "trialIndex": 26, "score": 51.5, "costs": -21.499999999999996, "simulationMode": [null, null, null, null, null], "rewards": [-1, -2, -1, 4, 73], "path": ["0", "0", "23", "24", "25", "30", "32"], "rt": [43201, 13, 68, 394, 242], "actions": ["left", "left", "left", "down", "down"], "actionTimes": [46088, 46607, 47211, 48105, 48837], "queries": {"click": {"state": {"target": ["29", "33", "17", "20", "9", "5", "7", "10", "32", "21"], "time": [4335, 7628, 10966, 14273, 18362, 21718, 26424, 30502, 34654, 39833]}, "edge": {"target": [], "time": []}}, "mouseover": {"state": {"target": ["28", "26", "29", "33", "23", "12", "17", "20", "19", "2", "3", "9", "5", "4", "4", "4", "7", "2", "10", "23", "31", "32", "21"], "time": [3539, 3669, 3905, 5522, 8214, 8237, 8498, 11870, 15245, 17647, 17694, 18012, 19077, 24814, 25260, 25678, 25909, 29930, 30110, 33790, 33921, 34271, 39273]}, "edge": {"target": [], "time": []}}, "mouseout": {"state": {"target": ["31", "0", "28", "26", "29", "33", "23", "12", "17", "20", "19", "2", "3", "9", "5", "4", "4", "5", "4", "7", "2", "10", "23", "31", "32", "21"], "time": [955, 2362, 3604, 3805, 5322, 7847, 8235, 8252, 11554, 15228, 15275, 17664, 17761, 18968, 24763, 25043, 25310, 25627, 25793, 29896, 29994, 33723, 33825, 33972, 37748, 43559]}, "edge": {"target": [], "time": []}}}, "displayed_time": "49.33", "trialTime": 51856, "trial_type": "mouselab-mdp", "trial_index": 37, "time_elapsed": 1942394, "internal_node_id": "0.0-6.0-1.0-22.0"}}, {"uniqueid": "w37653102:a71284482", "current_trial": 38, "dateTime": 1693662234723, "trialdata": {"revealed_states": [], "clicked_states": ["32"], "num_clicks_accrued": [0, 0, 0, 0, 0, 0, 0, 0, 0, 0, 0, 0, 0], "stateRewards": ["", -2, 2, -2, -7, -50, -62, -45, 7, 36, -24, -72, -1, -1, 8, -1, -67, 20, -52, 2, 35, -50, 80, -1, 1, 6, -6, -70, 6, 88, 8, -47, 74, -19], "withholdReward": false, "trial_id": "mdp_trial_24", "block": "test", "trialIndex": 27, "score": 85.85, "costs": -2.15, "simulationMode": [null, null, null, null, null], "rewards": [-1, 1, 6, 8, 74], "path": ["0", "0", "23", "24", "25", "30", "32"], "rt": [7710, 104, 87, 523, 366], "actions": ["left", "left", "left", "down", "down"], "actionTimes": [9635, 10244, 10833, 11846, 12720], "queries": {"click": {"state": {"target": ["32"], "time": [3423]}, "edge": {"target": [], "time": []}}, "mouseover": {"state": {"target": ["0", "31", "32"], "time": [2635, 2753, 3054]}, "edge": {"target": [], "time": []}}, "mouseout": {"state": {"target": ["12", "0", "31", "32"], "time": [542, 2671, 2787, 3894]}, "edge": {"target": [], "time": []}}}, "displayed_time": "15.93", "trialTime": 21220, "trial_type": "mouselab-mdp", "trial_index": 38, "time_elapsed": 1963886, "internal_node_id": "0.0-6.0-1.0-23.0"}}, {"uniqueid": "w37653102:a71284482", "current_trial": 39, "dateTime": 1693662255127, "trialdata": {"revealed_states": [], "clicked_states": ["29", "20"], "num_clicks_accrued": [0, 0, 0, 0, 0, 0, 0, 0, 0, 0, 0, 0, 0], "stateRewards": ["", 2, 4, 7, -6, -76, -81, 2, 5, -66, -3, 36, -2, -4, 6, -2, -69, 4, -49, -6, 67, 38, -67, 2, 1, 1, 6, -68, -21, 52, -16, -16, 6, -70], "withholdReward": false, "trial_id": "mdp_trial_25", "block": "test", "trialIndex": 28, "score": 56.7, "costs": -4.3, "simulationMode": [null, null, null, null, null], "rewards": [-2, -4, 6, -6, 67], "path": ["0", "0", "12", "13", "14", "19", "20"], "rt": [13341, 202, 171, 437, 289], "actions": ["right", "right", "right", "down", "right"], "actionTimes": [14775, 15480, 16161, 17099, 17897], "queries": {"click": {"state": {"target": ["29", "20"], "time": [2998, 6636]}, "edge": {"target": [], "time": []}}, "mouseover": {"state": {"target": ["23", "26", "29", "13", "20", "19", "22", "31", "22", "19", "20"], "time": [2110, 2427, 2555, 3653, 3802, 11100, 11119, 11262, 12169, 12374, 12554]}, "edge": {"target": [], "time": []}}, "mouseout": {"state": {"target": ["0", "23", "26", "29", "13", "20", "19", "22", "31", "22", "19"], "time": [2093, 2140, 2447, 3569, 3670, 11097, 11115, 11130, 11363, 12275, 12476]}, "edge": {"target": [], "time": []}}}, "displayed_time": "18.41", "trialTime": 20090, "trial_type": "mouselab-mdp", "trial_index": 39, "time_elapsed": 1984289, "internal_node_id": "0.0-6.0-1.0-24.0"}}, {"uniqueid": "w37653102:a71284482", "current_trial": 40, "dateTime": 1693662276743, "trialdata": {"revealed_states": [], "clicked_states": ["21", "32"], "num_clicks_accrued": [0, 0, 0, 0, 0, 0, 0, 0, 0, 0, 0, 0, 0], "stateRewards": ["", 1, 4, 7, -16, -84, -6, -46, -12, -7, -49, -26, -1, 2, -4, 2, 22, 37, -64, 1, 88, -13, -10, 1, -4, -2, 5, 2, -10, -34, 9, 66, 55, 38], "withholdReward": false, "trial_id": "mdp_trial_26", "block": "test", "trialIndex": 29, "score": 54.7, "costs": -4.3, "simulationMode": [null, null, null, null, null], "rewards": [1, -4, -2, 9, 55], "path": ["0", "0", "23", "24", "25", "30", "32"], "rt": [14199, 672, 183, 504, 240], "actions": ["left", "left", "left", "down", "down"], "actionTimes": [15627, 16806, 17497, 18507, 19254], "queries": {"click": {"state": {"target": ["21", "32"], "time": [3638, 7753]}, "edge": {"target": [], "time": []}}, "mouseover": {"state": {"target": ["12", "13", "19", "21", "32", "33", "29"], "time": [2353, 2404, 2771, 3177, 7111, 12560, 13024]}, "edge": {"target": [], "time": []}}, "mouseout": {"state": {"target": ["20", "19", "12", "0", "12", "13", "19", "21", "32", "33"], "time": [501, 517, 700, 2291, 2387, 2487, 2820, 4475, 12526, 12576]}, "edge": {"target": [], "time": []}}}, "displayed_time": "19.76", "trialTime": 21314, "trial_type": "mouselab-mdp", "trial_index": 40, "time_elapsed": 2005907, "internal_node_id": "0.0-6.0-1.0-25.0"}}, {"uniqueid": "w37653102:a71284482", "current_trial": 41, "dateTime": 1693662352263, "trialdata": {"revealed_states": [], "clicked_states": ["9", "5", "32", "21", "17", "20", "29", "28", "27", "33", "31", "22", "18", "16", "6", "7", "10"], "num_clicks_accrued": [0, 0, 0, 0, 0, 0, 0, 0, 0, 0, 0, 0, 0], "stateRewards": ["", -2, 4, 3, 5, -61, 4, 30, 1, -47, 83, 10, 1, 4, 7, -14, 19, -74, -83, 6, -2, -2, -65, -1, -2, 4, -11, 12, -1, -68, 11, -38, -28, 66], "withholdReward": false, "trial_id": "mdp_trial_27", "block": "test", "trialIndex": 30, "score": 52.45000000000001, "costs": -36.54999999999999, "simulationMode": [null, null, null, null, null], "rewards": [-2, 4, 3, 1, 83], "path": ["0", "0", "1", "2", "3", "8", "10"], "rt": [66753, 123, 71, 444, 275], "actions": ["up", "up", "up", "left", "down"], "actionTimes": [68500, 69131, 69712, 70668, 71434], "queries": {"click": {"state": {"target": ["9", "5", "32", "21", "17", "20", "29", "28", "27", "33", "31", "22", "18", "16", "6", "7", "10"], "time": [3180, 6574, 9895, 13224, 17435, 20744, 25271, 28668, 32282, 37305, 41214, 44537, 48187, 51583, 55331, 58754, 62164]}, "edge": {"target": [], "time": []}}, "mouseover": {"state": {"target": ["1", "9", "5", "31", "32", "21", "19", "17", "20", "19", "12", "23", "29", "26", "28", "27", "24", "31", "24", "25", "33", "30", "31", "22", "13", "18", "16", "6", "7", "2", "10"], "time": [2422, 2803, 3923, 7345, 7661, 10792, 16573, 17055, 19817, 24093, 24124, 24150, 24656, 26168, 26335, 31641, 32961, 33379, 36643, 36826, 37007, 38724, 39041, 43552, 47226, 47512, 49238, 54877, 56257, 59426, 59659]}, "edge": {"target": [], "time": []}}, "mouseout": {"state": {"target": ["29", "27", "28", "23", "0", "1", "9", "5", "31", "32", "21", "19", "17", "20", "19", "12", "23", "29", "26", "28", "27", "27", "24", "31", "24", "25", "33", "30", "31", "22", "13", "18", "16", "6", "7", "2"], "time": [386, 602, 719, 886, 1066, 2442, 3723, 7263, 7411, 10374, 16542, 16622, 19717, 24088, 24113, 24133, 24167, 26151, 26238, 31577, 32488, 32862, 33147, 36610, 36793, 36847, 38691, 38778, 43336, 47193, 47311, 48986, 54727, 55974, 59410, 59492]}, "edge": {"target": [], "time": []}}}, "displayed_time": "71.94", "trialTime": 75225, "trial_type": "mouselab-mdp", "trial_index": 41, "time_elapsed": 2081426, "internal_node_id": "0.0-6.0-1.0-26.0"}}, {"uniqueid": "w37653102:a71284482", "current_trial": 42, "dateTime": 1693662382840, "trialdata": {"revealed_states": [], "clicked_states": ["32", "21", "9", "5", "28"], "num_clicks_accrued": [0, 0, 0, 0, 0, 0, 0, 0, 0, 0, 0, 0, 0], "stateRewards": ["", -2, -1, 3, -3, 71, -58, -21, 7, -10, -75, -37, 2, 4, -1, -12, -79, -29, -48, 3, -41, -10, -30, -1, -2, 1, -15, 13, 66, 22, -1, -42, -86, -55], "withholdReward": false, "trial_id": "mdp_trial_28", "block": "test", "trialIndex": 31, "score": 57.25, "costs": -10.75, "simulationMode": [null, null, null, null, null], "rewards": [-2, -1, 3, -3, 71], "path": ["0", "0", "1", "2", "3", "4", "5"], "rt": [22886, 106, 57, 359, 891], "actions": ["up", "up", "up", "right", "up"], "actionTimes": [24783, 25397, 25950, 26816, 28200], "queries": {"click": {"state": {"target": ["32", "21", "9", "5", "28"], "time": [4691, 7867, 11371, 14644, 18530]}, "edge": {"target": [], "time": []}}, "mouseover": {"state": {"target": ["10", "8", "8", "8", "10", "32", "21", "24", "28", "9", "5", "26", "29", "26", "28"], "time": [2577, 2644, 2744, 3061, 3094, 4311, 6430, 9003, 9038, 9520, 12051, 15312, 15378, 15995, 16262]}, "edge": {"target": [], "time": []}}, "mouseout": {"state": {"target": ["10", "1", "0", "10", "8", "8", "8", "10", "32", "21", "24", "28", "9", "5", "26", "29", "26"], "time": [496, 611, 2453, 2594, 2678, 2794, 3077, 4114, 5361, 8554, 9036, 9070, 11884, 15212, 15328, 15961, 16045]}, "edge": {"target": [], "time": []}}}, "displayed_time": "28.71", "trialTime": 30296, "trial_type": "mouselab-mdp", "trial_index": 42, "time_elapsed": 2112003, "internal_node_id": "0.0-6.0-1.0-27.0"}}, {"uniqueid": "w37653102:a71284482", "current_trial": 43, "dateTime": 1693662398972, "trialdata": {"revealed_states": [], "clicked_states": ["9"], "num_clicks_accrued": [0, 0, 0, 0, 0, 0, 0, 0, 0, 0, 0, 0, 0], "stateRewards": ["", -2, 3, -1, -9, 44, 48, -37, -3, 71, -39, 87, -1, 3, -4, 4, -21, 59, -15, -8, -1, 28, -38, 2, 4, 4, 8, -85, -72, -63, 14, 58, 63, -46], "withholdReward": false, "trial_id": "mdp_trial_29", "block": "test", "trialIndex": 32, "score": 65.85, "costs": -2.15, "simulationMode": [null, null, null, null, null], "rewards": [-2, 3, -1, -3, 71], "path": ["0", "0", "1", "2", "3", "8", "9"], "rt": [7313, 159, 88, 383, 66], "actions": ["up", "up", "up", "left", "up"], "actionTimes": [9067, 9732, 10312, 11206, 11778], "queries": {"click": {"state": {"target": ["9"], "time": [3655]}, "edge": {"target": [], "time": []}}, "mouseover": {"state": {"target": ["1", "2", "3", "9", "8", "10"], "time": [2815, 2866, 2965, 3263, 4768, 4868]}, "edge": {"target": [], "time": []}}, "mouseout": {"state": {"target": ["28", "24", "31", "0", "1", "2", "3", "9", "8", "10", "4", "6"], "time": [539, 657, 789, 938, 2848, 2913, 2999, 4751, 4820, 14311, 14404, 14504]}, "edge": {"target": [], "time": []}}}, "displayed_time": "15.76", "trialTime": 15845, "trial_type": "mouselab-mdp", "trial_index": 43, "time_elapsed": 2128135, "internal_node_id": "0.0-6.0-1.0-28.0"}}, {"uniqueid": "w37653102:a71284482", "current_trial": 44, "dateTime": 1693662437671, "trialdata": {"revealed_states": [], "clicked_states": ["32", "33", "31", "27", "29", "28", "18"], "num_clicks_accrued": [0, 0, 0, 0, 0, 0, 0, 0, 0, 0, 0, 0, 0], "stateRewards": ["", 1, 2, 8, -2, 23, -69, -18, -16, 54, -21, 71, -1, -4, 7, 11, 43, -6, 88, 6, -55, 72, 43, 1, -3, -2, -1, 68, -31, -54, 4, -8, 25, -2], "withholdReward": false, "trial_id": "mdp_trial_30", "block": "test", "trialIndex": 33, "score": 85.95, "costs": -15.05, "simulationMode": [null, null, null, null, null], "rewards": [-1, -4, 7, 11, 88], "path": ["0", "0", "12", "13", "14", "15", "18"], "rt": [29251, 200, 238, 590, 360], "actions": ["right", "right", "right", "up", "left"], "actionTimes": [30619, 31310, 32056, 33160, 34030], "queries": {"click": {"state": {"target": ["32", "33", "31", "27", "29", "28", "18"], "time": [3245, 6701, 9882, 12754, 15891, 21099, 24392]}, "edge": {"target": [], "time": []}}, "mouseover": {"state": {"target": ["23", "31", "32", "33", "30", "31", "26", "27", "29", "26", "28", "1", "18", "16"], "time": [2474, 2572, 2839, 5356, 7264, 7348, 10955, 11154, 13591, 16537, 16888, 21728, 22978, 25298]}, "edge": {"target": [], "time": []}}, "mouseout": {"state": {"target": ["0", "23", "31", "32", "33", "30", "31", "26", "27", "29", "26", "28", "1", "18", "16", "18", "16"], "time": [2457, 2506, 2639, 5173, 7231, 7298, 10856, 11038, 13438, 16487, 16621, 21680, 21777, 25115, 28127, 37044, 37153]}, "edge": {"target": [], "time": []}}}, "displayed_time": "34.53", "trialTime": 38421, "trial_type": "mouselab-mdp", "trial_index": 44, "time_elapsed": 2166834, "internal_node_id": "0.0-6.0-1.0-29.0"}}, {"uniqueid": "w37653102:a71284482", "current_trial": 45, "dateTime": 1693662464838, "trialdata": {"revealed_states": [], "clicked_states": ["32", "21", "27", "16", "17"], "num_clicks_accrued": [0, 0, 0, 0, 0, 0, 0, 0, 0, 0, 0, 0, 0], "stateRewards": ["", -1, 2, 7, 8, 75, 67, -11, 6, 52, -17, 38, -1, 4, -8, 14, 74, -37, -17, -12, 52, 55, 71, -2, -1, -5, 2, 21, 6, -88, -14, 64, -61, -47], "withholdReward": false, "trial_id": "mdp_trial_31", "block": "test", "trialIndex": 34, "score": 72.25, "costs": -10.75, "simulationMode": [null, null, null, null, null], "rewards": [-1, 4, -8, 14, 74], "path": ["0", "0", "12", "13", "14", "15", "16"], "rt": [18864, 199, 120, 651, 67], "actions": ["right", "right", "right", "up", "up"], "actionTimes": [20644, 21351, 21979, 23126, 23700], "queries": {"click": {"state": {"target": ["32", "21", "27", "16", "17"], "time": [2953, 6272, 9717, 13119, 16421]}, "edge": {"target": [], "time": []}}, "mouseover": {"state": {"target": ["32", "21", "0", "28", "27", "10", "2", "7", "16", "17"], "time": [2413, 3810, 7049, 7118, 7496, 11567, 11600, 11633, 12266, 15943]}, "edge": {"target": [], "time": []}}, "mouseout": {"state": {"target": ["18", "0", "32", "21", "0", "28", "27", "10", "2", "7", "16"], "time": [847, 2263, 3429, 7018, 7064, 7447, 11517, 11583, 11617, 11666, 15843]}, "edge": {"target": [], "time": []}}}, "displayed_time": "24.22", "trialTime": 26897, "trial_type": "mouselab-mdp", "trial_index": 45, "time_elapsed": 2194001, "internal_node_id": "0.0-6.0-1.0-30.0"}}, {"uniqueid": "w37653102:a71284482", "current_trial": 46, "dateTime": 1693662488016, "trialdata": {"revealed_states": [], "clicked_states": ["29", "28"], "num_clicks_accrued": [0, 0, 0, 0, 0, 0, 0, 0, 0, 0, 0, 0, 0], "stateRewards": ["", 2, 4, -6, -13, -75, -81, 30, 7, 5, 59, -65, -1, -1, 7, 14, -38, 36, -41, 1, -54, -5, 64, 2, -1, 5, 6, -19, 79, 11, 16, -33, -50, 58], "withholdReward": false, "trial_id": "mdp_trial_32", "block": "test", "trialIndex": 35, "score": 86.7, "costs": -4.3, "simulationMode": [null, null, null, null, null], "rewards": [2, -1, 5, 6, 79], "path": ["0", "0", "23", "24", "25", "26", "28"], "rt": [11297, 197, 160, 554, 177], "actions": ["left", "left", "left", "up", "right"], "actionTimes": [12791, 13480, 14150, 15209, 15898], "queries": {"click": {"state": {"target": ["29", "28"], "time": [3041, 6349]}, "edge": {"target": [], "time": []}}, "mouseover": {"state": {"target": ["28", "26", "29", "26", "28", "1", "18", "1"], "time": [2072, 2104, 2406, 3567, 3838, 6871, 7290, 9974]}, "edge": {"target": [], "time": []}}, "mouseout": {"state": {"target": ["17", "13", "12", "0", "28", "26", "29", "26", "28", "1", "18", "1", "28"], "time": [469, 649, 799, 2021, 2088, 2187, 3550, 3617, 6821, 6905, 9941, 9992, 17851]}, "edge": {"target": [], "time": []}}}, "displayed_time": "16.39", "trialTime": 22870, "trial_type": "mouselab-mdp", "trial_index": 46, "time_elapsed": 2217179, "internal_node_id": "0.0-6.0-1.0-31.0"}}, {"uniqueid": "w37653102:a71284482", "current_trial": 47, "dateTime": 1693662528151, "trialdata": {"revealed_states": [], "clicked_states": ["33", "31", "32", "22", "21", "20", "5", "9"], "num_clicks_accrued": [0, 0, 0, 0, 0, 0, 0, 0, 0, 0, 0, 0, 0], "stateRewards": ["", -1, -2, -1, -10, -57, 73, -72, -16, 75, -14, -46, -2, -3, -7, -1, -61, -60, 76, -4, 50, 4, 14, 2, 2, -7, 12, -65, -32, 15, -8, -76, -25, -61], "withholdReward": false, "trial_id": "mdp_trial_33", "block": "test", "trialIndex": 36, "score": 37.8, "costs": -17.2, "simulationMode": [null, null, null, null, null], "rewards": [-1, -2, -1, -16, 75], "path": ["0", "0", "1", "2", "3", "8", "9"], "rt": [32244, 148, 39, 462, 674], "actions": ["up", "up", "up", "left", "up"], "actionTimes": [33791, 34445, 35005, 35975, 37142], "queries": {"click": {"state": {"target": ["33", "31", "32", "22", "21", "20", "5", "9"], "time": [3975, 7200, 10515, 13707, 17071, 20482, 24161, 27641]}, "edge": {"target": [], "time": []}}, "mouseover": {"state": {"target": ["1", "9", "25", "30", "33", "30", "31", "32", "22", "19", "21", "20", "16", "6", "5", "9", "11", "8"], "time": [2218, 2646, 3400, 3449, 3546, 4648, 4831, 7868, 11692, 14283, 14518, 17607, 21921, 21961, 22271, 27218, 30738, 31169]}, "edge": {"target": [], "time": []}}, "mouseout": {"state": {"target": ["1", "9", "25", "30", "33", "30", "31", "32", "22", "19", "21", "20", "16", "6", "5", "9", "11", "8", "9", "8"], "time": [2249, 3286, 3431, 3464, 4631, 4716, 7737, 11172, 14267, 14367, 17530, 21206, 21941, 22022, 26953, 30621, 31085, 31371, 39151, 39180]}, "edge": {"target": [], "time": []}}}, "displayed_time": "37.65", "trialTime": 39850, "trial_type": "mouselab-mdp", "trial_index": 47, "time_elapsed": 2257313, "internal_node_id": "0.0-6.0-1.0-32.0"}}, {"uniqueid": "w37653102:a71284482", "current_trial": 48, "dateTime": 1693662559639, "trialdata": {"revealed_states": [], "clicked_states": ["32", "5", "29", "17", "22", "20"], "num_clicks_accrued": [0, 0, 0, 0, 0, 0, 0, 0, 0, 0, 0, 0, 0], "stateRewards": ["", 1, -3, -1, 9, -34, -40, 22, -7, 45, 53, -11, 2, 4, 5, 15, 21, 37, -49, -3, 80, -28, -34, 1, -3, 1, 1, -40, -6, -5, -16, -85, -86, 59], "withholdReward": false, "trial_id": "mdp_trial_34", "block": "test", "trialIndex": 37, "score": 75.1, "costs": -12.9, "simulationMode": [null, null, null, null, null], "rewards": [2, 4, 5, -3, 80], "path": ["0", "0", "12", "13", "14", "19", "20"], "rt": [23833, 182, 86, 393, 288], "actions": ["right", "right", "right", "down", "right"], "actionTimes": [25656, 26343, 26947, 27838, 28617], "queries": {"click": {"state": {"target": ["32", "5", "29", "17", "22", "20"], "time": [3381, 6732, 10109, 13504, 16846, 20550]}, "edge": {"target": [], "time": []}}, "mouseover": {"state": {"target": ["23", "31", "32", "31", "23", "7", "6", "5", "26", "29", "17", "20", "19", "22", "19", "20"], "time": [2611, 2741, 2991, 4111, 4143, 4226, 4344, 4542, 8035, 8254, 11382, 14335, 14768, 14836, 17597, 17764]}, "edge": {"target": [], "time": []}}, "mouseout": {"state": {"target": ["1", "23", "31", "32", "31", "23", "7", "6", "5", "26", "29", "17", "20", "19", "22", "19", "20"], "time": [1065, 2660, 2791, 4098, 4126, 4159, 4258, 4459, 7936, 8086, 10699, 14087, 14718, 14819, 17581, 17647, 23525]}, "edge": {"target": [], "time": []}}}, "displayed_time": "29.13", "trialTime": 31189, "trial_type": "mouselab-mdp", "trial_index": 48, "time_elapsed": 2288802, "internal_node_id": "0.0-6.0-1.0-33.0"}}, {"uniqueid": "w37653102:a71284482", "current_trial": 49, "dateTime": 1693662598968, "trialdata": {"revealed_states": [], "clicked_states": ["9", "5", "17", "20", "21", "32", "33", "29"], "num_clicks_accrued": [0, 0, 0, 0, 0, 0, 0, 0, 0, 0, 0, 0, 0], "stateRewards": ["", 1, 2, 2, -15, -84, 28, -26, 13, 31, 86, 30, -2, 1, -1, -8, 66, -40, -1, -10, -32, 57, -17, 1, 2, -2, 9, -23, 77, 85, 12, -32, -62, -35], "withholdReward": false, "trial_id": "mdp_trial_35", "block": "test", "trialIndex": 38, "score": 77.8, "costs": -17.2, "simulationMode": [null, null, null, null, null], "rewards": [1, 2, -2, 9, 85], "path": ["0", "0", "23", "24", "25", "26", "29"], "rt": [30890, 133, 176, 769, 164], "actions": ["left", "left", "left", "up", "left"], "actionTimes": [32662, 33304, 33983, 35260, 35931], "queries": {"click": {"state": {"target": ["9", "5", "17", "20", "21", "32", "33", "29"], "time": [2959, 6406, 9779, 13101, 16439, 20842, 24330, 27580]}, "edge": {"target": [], "time": []}}, "mouseover": {"state": {"target": ["8", "9", "5", "16", "17", "20", "21", "32", "33", "29", "26", "28", "26"], "time": [2344, 2549, 3683, 8211, 8544, 11355, 13894, 17442, 22596, 25165, 28533, 28767, 31084]}, "edge": {"target": [], "time": []}}, "mouseout": {"state": {"target": ["20", "19", "22", "0", "0", "8", "9", "5", "16", "17", "20", "21", "32", "33", "29", "26", "28", "26", "29"], "time": [450, 481, 564, 997, 2222, 2415, 3581, 7977, 8313, 10497, 13724, 16942, 21764, 25014, 28434, 28668, 31066, 31116, 31871]}, "edge": {"target": [], "time": []}}}, "displayed_time": "36.43", "trialTime": 39026, "trial_type": "mouselab-mdp", "trial_index": 49, "time_elapsed": 2328131, "internal_node_id": "0.0-6.0-1.0-34.0"}}, {"uniqueid": "w37653102:a71284482", "current_trial": 50, "dateTime": 1693662656679, "trialdata": {"revealed_states": [], "clicked_states": ["9", "32", "21", "16", "29", "20", "18", "33", "31", "28", "27", "17"], "num_clicks_accrued": [0, 0, 0, 0, 0, 0, 0, 0, 0, 0, 0, 0, 0], "stateRewards": ["", -2, -4, 4, -11, -63, -60, -7, 2, -14, 81, -43, -1, -1, -5, 7, 10, 69, 40, 8, -83, 52, 60, 1, 2, 5, -5, 16, 64, 14, -3, 29, 7, -51], "withholdReward": false, "trial_id": "mdp_trial_36", "block": "test", "trialIndex": 39, "score": 43.2, "costs": -25.799999999999994, "simulationMode": [null, null, null, null, null], "rewards": [-1, -1, -5, 7, 69], "path": ["0", "0", "12", "13", "14", "15", "17"], "rt": [50406, 38, 137, 474, 86], "actions": ["right", "right", "right", "up", "right"], "actionTimes": [52375, 52905, 53554, 54541, 55134], "queries": {"click": {"state": {"target": ["9", "32", "21", "16", "29", "20", "18", "33", "31", "28", "27", "17"], "time": [3841, 7196, 10550, 14577, 18713, 22342, 25678, 30698, 34514, 38236, 42892, 47262]}, "edge": {"target": [], "time": []}}, "mouseover": {"state": {"target": ["1", "9", "30", "32", "21", "16", "10", "29", "26", "0", "20", "15", "18", "23", "24", "24", "30", "33", "30", "31", "24", "28", "27", "27", "10", "2", "18", "15", "17"], "time": [3008, 3426, 4720, 5037, 8115, 12342, 17926, 18345, 19505, 19587, 20571, 23724, 23840, 29457, 29650, 30001, 30134, 30302, 33927, 34010, 37311, 37428, 41639, 42408, 45710, 45743, 45910, 46632, 46735]}, "edge": {"target": [], "time": []}}, "mouseout": {"state": {"target": ["26", "23", "0", "1", "9", "30", "32", "21", "16", "10", "29", "26", "0", "20", "15", "18", "23", "24", "24", "30", "33", "30", "31", "24", "28", "27", "27", "10", "2", "18", "15"], "time": [563, 1063, 2977, 3024, 4621, 4787, 7714, 11242, 17886, 17942, 19488, 19537, 19604, 23445, 23791, 29188, 29605, 29751, 30035, 30206, 33894, 33961, 37278, 37361, 41488, 41872, 45680, 45727, 45776, 46277, 46682]}, "edge": {"target": [], "time": []}}}, "displayed_time": "55.63", "trialTime": 57418, "trial_type": "mouselab-mdp", "trial_index": 50, "time_elapsed": 2385842, "internal_node_id": "0.0-6.0-1.0-35.0"}}, {"uniqueid": "w37653102:a71284482", "current_trial": 51, "dateTime": 1693662694574, "trialdata": {"revealed_states": [], "clicked_states": ["11", "6", "29", "17", "33", "20", "22"], "num_clicks_accrued": [0, 0, 0, 0, 0, 0, 0, 0, 0, 0, 0, 0, 0], "stateRewards": ["", -1, 2, -2, 5, 80, -61, -27, 12, 44, -26, -75, -2, -4, 1, -16, 42, -49, -50, 4, -44, 2, 80, -2, -2, 5, -2, 59, 10, 24, 7, -48, -86, -44], "withholdReward": false, "trial_id": "mdp_trial_37", "block": "test", "trialIndex": 40, "score": 63.95, "costs": -15.05, "simulationMode": [null, null, null, null, null], "rewards": [-2, -4, 1, 4, 80], "path": ["0", "0", "12", "13", "14", "19", "22"], "rt": [29889, 139, 124, 628, 305], "actions": ["right", "right", "right", "down", "left"], "actionTimes": [31354, 31999, 32638, 33773, 34586], "queries": {"click": {"state": {"target": ["11", "6", "29", "17", "33", "20", "22"], "time": [3050, 6431, 9766, 13265, 17712, 22128, 26186]}, "edge": {"target": [], "time": []}}, "mouseover": {"state": {"target": ["1", "10", "11", "8", "3", "4", "6", "26", "29", "15", "17", "15", "23", "24", "30", "33", "31", "22", "19", "20", "19", "22"], "time": [2211, 2261, 2613, 4813, 4863, 4996, 5379, 7196, 7277, 10333, 10498, 16748, 16844, 16895, 17044, 17228, 20949, 20990, 21023, 21362, 25597, 25841]}, "edge": {"target": [], "time": []}}, "mouseout": {"state": {"target": ["17", "13", "12", "0", "1", "10", "11", "8", "3", "4", "6", "26", "29", "15", "17", "15", "23", "24", "30", "33", "31", "22", "19", "20", "19"], "time": [555, 634, 701, 2194, 2244, 2310, 4796, 4846, 4913, 5347, 7095, 7230, 10215, 10370, 16731, 16766, 16878, 16928, 17161, 20928, 20962, 21006, 21056, 25574, 25637]}, "edge": {"target": [], "time": []}}}, "displayed_time": "35.09", "trialTime": 37596, "trial_type": "mouselab-mdp", "trial_index": 51, "time_elapsed": 2423737, "internal_node_id": "0.0-6.0-1.0-36.0"}}, {"uniqueid": "w37653102:a71284482", "current_trial": 52, "dateTime": 1693662728607, "trialdata": {"revealed_states": [], "clicked_states": ["9", "11", "10", "27", "29", "17"], "num_clicks_accrued": [0, 0, 0, 0, 0, 0, 0, 0, 0, 0, 0, 0, 0], "stateRewards": ["", -1, -3, 4, -10, -5, 79, -87, -2, 53, 29, -20, -2, -1, -5, 10, 27, 86, 46, -16, -29, 40, 3, 2, 4, -1, -6, 37, 79, -29, 7, 86, -62, 29], "withholdReward": false, "trial_id": "mdp_trial_38", "block": "test", "trialIndex": 41, "score": 75.1, "costs": -12.9, "simulationMode": [null, null, null, null, null], "rewards": [-2, -1, -5, 10, 86], "path": ["0", "0", "12", "13", "14", "15", "17"], "rt": [25944, 171, 135, 350, 128], "actions": ["right", "right", "right", "up", "right"], "actionTimes": [27739, 28417, 29052, 29899, 30537], "queries": {"click": {"state": {"target": ["9", "11", "10", "27", "29", "17"], "time": [3441, 7413, 10710, 14734, 18397, 21783]}, "edge": {"target": [], "time": []}}, "mouseover": {"state": {"target": ["1", "9", "11", "10", "27", "29", "26", "18", "15", "17", "16"], "time": [2632, 2897, 6390, 9771, 14339, 16220, 19106, 19221, 19288, 19638, 23083]}, "edge": {"target": [], "time": []}}, "mouseout": {"state": {"target": ["22", "0", "1", "9", "11", "10", "27", "29", "26", "18", "15", "17", "16", "17"], "time": [674, 2614, 2648, 6006, 9604, 14072, 16020, 19088, 19122, 19254, 19604, 22716, 25299, 25494]}, "edge": {"target": [], "time": []}}}, "displayed_time": "31.04", "trialTime": 33730, "trial_type": "mouselab-mdp", "trial_index": 52, "time_elapsed": 2457771, "internal_node_id": "0.0-6.0-1.0-37.0"}}, {"uniqueid": "w37653102:a71284482", "current_trial": 53, "dateTime": 1693662765616, "trialdata": {"revealed_states": [], "clicked_states": ["9", "10", "7", "5", "32", "21", "17"], "num_clicks_accrued": [0, 0, 0, 0, 0, 0, 0, 0, 0, 0, 0, 0, 0], "stateRewards": ["", -1, 1, -1, 2, 19, 85, -18, 2, -3, -26, 36, 2, 4, 7, -9, -18, 70, 72, -5, 35, -20, -28, 1, -2, -4, -3, -59, -11, -63, -2, -72, 59, -69], "withholdReward": false, "trial_id": "mdp_trial_39", "block": "test", "trialIndex": 42, "score": 58.95, "costs": -15.05, "simulationMode": [null, null, null, null, null], "rewards": [2, 4, 7, -9, 70], "path": ["0", "0", "12", "13", "14", "15", "17"], "rt": [28727, 130, 109, 372, 81], "actions": ["right", "right", "right", "up", "right"], "actionTimes": [30644, 31282, 31911, 32774, 33362], "queries": {"click": {"state": {"target": ["9", "10", "7", "5", "32", "21", "17"], "time": [3615, 6981, 10285, 13666, 17676, 21228, 25176]}, "edge": {"target": [], "time": []}}, "mouseover": {"state": {"target": ["1", "2", "9", "8", "10", "2", "7", "4", "5", "16", "18", "0", "31", "32", "21", "19", "17", "15", "18", "1", "28", "26", "29", "28", "1", "15"], "time": [2782, 2830, 3194, 4348, 4430, 7500, 7616, 11020, 11121, 14941, 15391, 15442, 15495, 15842, 18890, 24337, 24804, 25837, 26087, 26487, 26872, 26920, 27188, 28744, 28778, 29354]}, "edge": {"target": [], "time": []}}, "mouseout": {"state": {"target": ["17", "18", "12", "0", "1", "2", "9", "8", "10", "2", "7", "4", "5", "16", "18", "0", "31", "32", "21", "19", "17", "15", "18", "1", "28", "26", "29", "28", "1", "15"], "time": [577, 690, 1057, 2745, 2813, 2861, 4312, 4399, 7188, 7549, 11003, 11054, 14225, 14991, 15408, 15458, 15534, 18445, 24304, 24405, 25820, 25908, 26455, 26520, 26904, 27004, 28711, 28761, 28794, 29537]}, "edge": {"target": [], "time": []}}}, "displayed_time": "33.86", "trialTime": 36683, "trial_type": "mouselab-mdp", "trial_index": 53, "time_elapsed": 2494779, "internal_node_id": "0.0-6.0-1.0-38.0"}}, {"uniqueid": "w37653102:a71284482", "current_trial": 54, "dateTime": 1693662842978, "trialdata": {"revealed_states": [], "clicked_states": ["31", "22", "33", "20", "21", "32", "18", "17", "16", "10", "7", "5", "9", "11", "27", "29", "28"], "num_clicks_accrued": [0, 0, 0, 0, 0, 0, 0, 0, 0, 0, 0, 0, 0], "stateRewards": ["", -2, 2, -5, -6, 10, -66, -58, -10, -11, -63, -70, -1, -4, -5, 7, 66, -64, -43, -3, 45, -37, 4, -2, -2, -6, -4, -30, 33, 43, 15, -32, -65, -59], "withholdReward": false, "trial_id": "mdp_trial_40", "block": "test", "trialIndex": 43, "score": 26.45000000000001, "costs": -36.54999999999999, "simulationMode": [null, null, null, null, null], "rewards": [-1, -4, -5, 7, 66], "path": ["0", "0", "12", "13", "14", "15", "16"], "rt": [69691, 79, 87, 419, 91], "actions": ["right", "right", "right", "up", "up"], "actionTimes": [71492, 72077, 72686, 73600, 74199], "queries": {"click": {"state": {"target": ["31", "22", "33", "20", "21", "32", "18", "17", "16", "10", "7", "5", "9", "11", "27", "29", "28"], "time": [3532, 7521, 11930, 15287, 18822, 22800, 27947, 31725, 35868, 39719, 43632, 47633, 51054, 55023, 59031, 62954, 66989]}, "edge": {"target": [], "time": []}}, "mouseover": {"state": {"target": ["31", "32", "31", "22", "30", "33", "30", "31", "22", "19", "20", "21", "32", "31", "23", "1", "18", "15", "17", "16", "16", "2", "10", "2", "7", "4", "5", "9", "11", "27", "27", "29", "26", "28"], "time": [2364, 2681, 2910, 7164, 11359, 11573, 13595, 13613, 14078, 14100, 14428, 16164, 22393, 26434, 26655, 26884, 27641, 31128, 31295, 34919, 35459, 36646, 36861, 43014, 43272, 46993, 47182, 49220, 54620, 58322, 58670, 62547, 66316, 66596]}, "edge": {"target": [], "time": []}}, "mouseout": {"state": {"target": ["15", "18", "0", "31", "32", "31", "22", "30", "33", "30", "31", "22", "19", "20", "21", "32", "31", "23", "1", "18", "15", "17", "16", "16", "2", "10", "2", "7", "4", "5", "9", "11", "27", "27", "29", "26"], "time": [610, 910, 2309, 2394, 2830, 5116, 11207, 11406, 13578, 13611, 13646, 14096, 14124, 15936, 21102, 26371, 26502, 26702, 27268, 31031, 31212, 34789, 35086, 36495, 36678, 42998, 43139, 46964, 47050, 49000, 54399, 57533, 58347, 62380, 66271, 66396]}, "edge": {"target": [], "time": []}}}, "displayed_time": "74.69", "trialTime": 77071, "trial_type": "mouselab-mdp", "trial_index": 54, "time_elapsed": 2572141, "internal_node_id": "0.0-6.0-1.0-39.0"}}, {"uniqueid": "w37653102:a71284482", "current_trial": 55, "dateTime": 1693662885079, "trialdata": {"rt": 42094, "response": {"Q0": "$-2 to $2", "Q1": "$-16 to $16", "Q2": "$-88 to $88", "Q3": "The cost for clicking on nodes varied between nodes.", "Q4": "Slightly motivated"}, "question_order": [0, 1, 2, 3, 4], "trial_id": "final_quiz_control", "trial_type": "survey-multi-choice", "trial_index": 55, "time_elapsed": 2614243, "internal_node_id": "0.0-6.0-2.0"}}, {"uniqueid": "w37653102:a71284482", "current_trial": 56, "dateTime": 1693662932151, "trialdata": {"rt": 47055, "response": {"Q0": "Just guesswork", "Q1": "Concentrated on the outer nodes", "Q2": "Just seemed random"}, "trial_id": "self_report_control", "trial_type": "survey-text", "trial_index": 56, "time_elapsed": 2661315, "internal_node_id": "0.0-6.0-3.0"}}, {"uniqueid": "w37653102:a71284482", "current_trial": 57, "dateTime": 1693662993405, "trialdata": {"rt": 61243, "response": {"Q0": "Strongly disagree", "Q1": "Strongly disagree", "Q2": "Neither disagree nor agree", "Q3": "Neither disagree nor agree", "Q4": "Neither disagree nor agree", "Q5": "Agree", "Q6": "Disagree"}, "question_order": [0, 1, 2, 3, 4, 5, 6], "trial_id": "self_report_2", "trial_type": "survey-multi-choice", "trial_index": 57, "time_elapsed": 2722569, "internal_node_id": "0.0-6.0-4.0"}}, {"uniqueid": "w37653102:a71284482", "current_trial": 58, "dateTime": 1693663010573, "trialdata": {"rt": 17153, "response": {"gender": "male", "age": "60", "colorblind": "0", "effort": "1"}, "trial_type": "survey-html-form", "trial_index": 58, "time_elapsed": 2739737, "internal_node_id": "0.0-6.0-5.0"}}, {"uniqueid": "w37653102:a71284482", "current_trial": 59, "dateTime": 1693663026850, "trialdata": {"rt": 16266, "response": {"Q0": "No", "Q1": "No", "Q2": "None"}, "trial_type": "survey-text", "trial_index": 59, "time_elapsed": 2756013, "internal_node_id": "0.0-6.0-6.0"}}, {"uniqueid": "w37653102:a71284482", "current_trial": 60, "dateTime": 1693663063408, "trialdata": {"rt": 36545, "stimulus": "<h1>Completion Code Instructions (1/2)</h1>\n<br><br><br><br>\nYou have reached the end of the experiment! The completion code consists of two parts: (1) a code with 2 characters (2) a code with 6 characters. On this page, you will receive the second part of the code. The first part of the completion code will be on the next page.\n<br><br>\nThe second part of your completion code is: <b>EWEK22</b>\n<br><br>\nPlease note this down. Then, press 'Next' in order to find the first part of your completion code. Once the data has been saved, you will receive this code either in this window or in the original browser window where you started the experiment.\n <br><br>\n<h2 style='color: red;'>Note: this is <strong>NOT</strong> the full completion code. Copy this down and click 'Next' to get the full completion code on the next page.</h2>", "response": 0, "trial_type": "html-button-response", "trial_index": 60, "time_elapsed": 2792572, "internal_node_id": "0.0-6.0-7.0"}}, {"uniqueid": "w37653102:a71284482", "current_trial": 61, "dateTime": 1693663064416, "trialdata": {"success": true, "trial_type": "fullscreen", "trial_index": 61, "time_elapsed": 2793580, "internal_node_id": "0.0-7.0"}}], "questiondata": {"params": {"CODE": "C6DMOQA6", "MIN_TIME": 14, "inspectCost": 1, "startTime": "Sat Sep 02 2023 14:11:10 GMT+0100 (British Summer Time)", "bonusRate": 0.002, "variance": "1_2_4_8_44", "branching": "31123"}, "final_score": 2381.55}, "eventdata": [{"eventtype": "initialized", "value": null, "timestamp": 1693660269731, "interval": 0}, {"eventtype": "window_resize", "value": [934, 694], "timestamp": 1693660269731, "interval": 0}, {"eventtype": "window_resize", "value": [934, 694], "timestamp": 1693660270071, "interval": 340}, {"eventtype": "window_resize", "value": [1396, 785], "timestamp": 1693660273616, "interval": 3545}, {"eventtype": "focus", "value": "off", "timestamp": 1693660725515, "interval": 451899}, {"eventtype": "focus", "value": "on", "timestamp": 1693660725516, "interval": 1}, {"eventtype": "window_resize", "value": [934, 694], "timestamp": 1693660725728, "interval": 212}, {"eventtype": "window_resize", "value": [1396, 785], "timestamp": 1693660728421, "interval": 2693}, {"eventtype": "window_resize", "value": [934, 694], "timestamp": 1693663063664, "interval": 2335243}], "useragent": "Mozilla/5.0 (Windows NT 10.0; Win64; x64) AppleWebKit/537.36 (KHTML, like Gecko) Chrome/116.0.0.0 Safari/537.36", "mode": "live", "id": "w37653102:a71284482", "status": "user data saved", "Beginhit": "2023-09-02 13:11:08.533063", "Beginexp": "2023-09-02 13:11:14.499154", "Endhit": "2023-09-02 13:57:45.204658", "psiturkStatus": 3, "browser": "<redacted>", "platform": "windows", "language": "en-GB-oxendict"}