{"condition": 0, "counterbalance": 0, "assignmentId": "a65974716", "workerId": "w45553621", "hitId": "h59335598", "currenttrial": 55, "bonus": 0, "data": [{"uniqueid": "w45553621:a65974716", "current_trial": 0, "dateTime": 1693660641787, "trialdata": {"success": true, "trial_type": "fullscreen", "trial_index": 0, "time_elapsed": 3190, "internal_node_id": "0.0-0.0"}}, {"uniqueid": "w45553621:a65974716", "current_trial": 1, "dateTime": 1693660668660, "trialdata": {"view_history": [{"page_index": 0, "viewing_time": 26866}], "rt": 26866, "trial_id": "exp_instructions_control", "trial_type": "instructions", "trial_index": 1, "time_elapsed": 30063, "internal_node_id": "0.0-1.0"}}, {"uniqueid": "w45553621:a65974716", "current_trial": 2, "dateTime": 1693660934808, "trialdata": {"view_history": [{"page_index": 0, "viewing_time": 68390}, {"page_index": 1, "viewing_time": 92396}, {"page_index": 2, "viewing_time": 44537}, {"page_index": 3, "viewing_time": 60818}], "rt": 266141, "trial_id": "mouselab_instructions_1_control", "trial_type": "instructions", "trial_index": 2, "time_elapsed": 296211, "internal_node_id": "0.0-2.0-1.0"}}, {"uniqueid": "w45553621:a65974716", "current_trial": 3, "dateTime": 1693660980132, "trialdata": {"revealed_states": [], "clicked_states": ["26", "29", "25", "24"], "num_clicks_accrued": [0, 0, 0, 0, 0, 0, 0, 0, 0, 0, 0, 0, 0], "stateRewards": ["", -10, 10, 10, 10, 10, -10, 10, -10, 10, -10, -10, -10, -10, 10, 10, -10, 10, 10, -10, -10, 10, -10, 10, 10, -10, -10, -10, 10, 10, -10, 10, -10, 10], "withholdReward": false, "trial_id": "practice_1", "block": "test", "trialIndex": 0, "score": 11.5, "costs": -2, "simulationMode": [null, null, null, null, null], "rewards": [10, 10, -10, -10, 10], "path": ["0", "0", "23", "24", "25", "26", "29"], "rt": [23388, 2208, 1085, 1291, 1593], "actions": ["left", "left", "left", "up", "left"], "actionTimes": [28834, 31530, 33106, 34896, 36982], "queries": {"click": {"state": {"target": ["26", "29", "25", "24"], "time": [11292, 15217, 23210, 25691]}, "edge": {"target": [], "time": []}}, "mouseover": {"state": {"target": ["23", "28", "26", "29", "29", "24", "30", "25", "30", "32", "30", "25", "24", "24", "23"], "time": [8151, 8301, 8435, 13584, 14618, 20602, 20903, 21586, 21618, 21752, 22519, 22854, 23752, 24620, 26169]}, "edge": {"target": [], "time": []}}, "mouseout": {"state": {"target": ["0", "23", "28", "26", "29", "29", "24", "30", "25", "30", "32", "30", "25", "24", "24", "23"], "time": [8134, 8202, 8318, 13551, 14223, 15751, 20620, 20968, 21603, 21702, 22386, 22819, 23703, 23903, 26120, 27552]}, "edge": {"target": [], "time": []}}}, "displayed_time": "37.47", "trialTime": 44888, "trial_type": "mouselab-mdp", "trial_index": 3, "time_elapsed": 341535, "internal_node_id": "0.0-2.0-2.0-0.0"}}, {"uniqueid": "w45553621:a65974716", "current_trial": 4, "dateTime": 1693661008017, "trialdata": {"revealed_states": [], "clicked_states": ["15", "18", "14"], "num_clicks_accrued": [0, 0, 0, 0, 0, 0, 0, 0, 0, 0, 0, 0, 0], "stateRewards": ["", -10, 10, -10, -10, -10, -10, 10, 10, 10, -10, -10, 10, 10, 10, 10, -10, -10, 10, -10, -10, -10, -10, -10, 10, 10, -10, -10, 10, 10, -10, 10, -10, -10], "withholdReward": false, "trial_id": "practice_2", "block": "test", "trialIndex": 1, "score": 52, "costs": -1.5, "simulationMode": [null, null, null, null, null], "rewards": [10, 10, 10, 10, 10], "path": ["0", "0", "12", "13", "14", "15", "18"], "rt": [10647, 698, 1535, 1390, 597], "actions": ["right", "right", "right", "up", "left"], "actionTimes": [12607, 13794, 15830, 17719, 18810], "queries": {"click": {"state": {"target": ["15", "18", "14"], "time": [3822, 7526, 10053]}, "edge": {"target": [], "time": []}}, "mouseover": {"state": {"target": ["18", "15", "15", "18", "15", "14", "13", "14"], "time": [2709, 2843, 3171, 6210, 8059, 9276, 9577, 9761]}, "edge": {"target": [], "time": []}}, "mouseout": {"state": {"target": ["0", "18", "15", "15", "18", "15", "14", "13", "14"], "time": [2593, 2826, 2910, 6126, 8027, 8377, 9544, 9710, 10643]}, "edge": {"target": [], "time": []}}}, "displayed_time": "19.31", "trialTime": 27728, "trial_type": "mouselab-mdp", "trial_index": 4, "time_elapsed": 369420, "internal_node_id": "0.0-2.0-2.0-1.0"}}, {"uniqueid": "w45553621:a65974716", "current_trial": 5, "dateTime": 1693661070340, "trialdata": {"view_history": [{"page_index": 0, "viewing_time": 32256}, {"page_index": 1, "viewing_time": 7904}, {"page_index": 0, "viewing_time": 20913}, {"page_index": 1, "viewing_time": 1248}], "rt": 62321, "trial_id": "mouselab_instructions_2_control", "trial_type": "instructions", "trial_index": 5, "time_elapsed": 431743, "internal_node_id": "0.0-2.0-3.0"}}, {"uniqueid": "w45553621:a65974716", "current_trial": 6, "dateTime": 1693661116518, "trialdata": {"rt": 46175, "response": {"Q0": "The cost for clicking on nodes may vary between nodes.", "Q1": "The better I perform the higher my bonus will be.", "Q2": "No, the amount of cash at each node of the web may be different each time.", "Q3": "To get the highest total score.", "Q4": "Only before moving the spider.", "Q5": "3 seconds"}, "question_order": [0, 1, 2, 3, 4, 5], "correct": {"Q0": "The cost for clicking on nodes may vary between nodes.", "Q1": "The better I perform the higher my bonus will be.", "Q2": "No, the amount of cash at each node of the web may be different each time.", "Q3": "To get the highest total score.", "Q4": "Only before moving the spider.", "Q5": "3 seconds"}, "trial_id": "mouselab_quiz_control", "trial_type": "survey-multi-choice", "trial_index": 6, "time_elapsed": 477921, "internal_node_id": "0.0-2.0-4.0"}}, {"uniqueid": "w45553621:a65974716", "current_trial": 7, "dateTime": 1693661132639, "trialdata": {"rt": 16116, "response": {"Q0": "No"}, "question_order": [0], "trial_id": "repeat_check", "trial_type": "survey-multi-choice", "trial_index": 7, "time_elapsed": 494042, "internal_node_id": "0.0-4.0-0.0"}}, {"uniqueid": "w45553621:a65974716", "current_trial": 8, "dateTime": 1693661181492, "trialdata": {"rt": 48850, "stimulus": "\n<h1> Get ready to start the game! </h1>\n\nThank you for reading the instructions. Get ready start with the 40 rounds of this game.\n<br><br>\nIf you need to take a break, feel free to take one after the end of a round, before continuing to the next one.\n<br><br>\nRemember, the more money the spider gets, the bigger your bonus will be!\n<br><br>\n<div style='text-align: center;'>Press <code>space</code> to begin.</div>\n\n<br><br>\n(If, at any point, the <code>space</code> key does not take you to the next page, click once on the text and try again.)", "response": " ", "trial_id": "mdp_ready", "trial_type": "html-keyboard-response", "trial_index": 8, "time_elapsed": 542895, "internal_node_id": "0.0-6.0-0.0"}}, {"uniqueid": "w45553621:a65974716", "current_trial": 9, "dateTime": 1693661204272, "trialdata": {"revealed_states": [], "clicked_states": ["27", "29"], "num_clicks_accrued": [0, 0, 0, 0, 0, 0, 0, 0, 0, 0, 0, 0, 0], "stateRewards": ["", 1, 2, -6, -13, -51, 22, -4, -12, -44, -12, 6, -2, -2, -2, -14, -46, -4, -77, -2, 36, -79, 41, 2, -4, 2, -6, -55, 59, 70, -5, 39, -19, 24], "withholdReward": false, "trial_id": "mdp_trial_1", "block": "test", "trialIndex": 2, "score": 61.2, "costs": -2.8, "simulationMode": [null, null, null, null, null], "rewards": [2, -4, 2, -6, 70], "path": ["0", "0", "23", "24", "25", "26", "29"], "rt": [8868, 566, 392, 500, 948], "actions": ["left", "left", "left", "up", "left"], "actionTimes": [10734, 11796, 12703, 13696, 15159], "queries": {"click": {"state": {"target": ["27", "29"], "time": [3157, 6533]}, "edge": {"target": [], "time": []}}, "mouseover": {"state": {"target": ["1", "26", "27", "26", "29", "26", "25"], "time": [2210, 2493, 2842, 5944, 6160, 7127, 9411]}, "edge": {"target": [], "time": []}}, "mouseout": {"state": {"target": ["1", "26", "27", "26", "29", "26"], "time": [2226, 2826, 5860, 6128, 6994, 7193]}, "edge": {"target": [], "time": []}}}, "displayed_time": "15.87", "trialTime": 22616, "trial_type": "mouselab-mdp", "trial_index": 9, "time_elapsed": 565675, "internal_node_id": "0.0-6.0-1.0-0.0"}}, {"uniqueid": "w45553621:a65974716", "current_trial": 10, "dateTime": 1693661232594, "trialdata": {"revealed_states": [], "clicked_states": ["18", "17", "16", "14", "21"], "num_clicks_accrued": [0, 0, 0, 0, 0, 0, 0, 0, 0, 0, 0, 0, 0], "stateRewards": ["", 2, -2, -3, 10, -4, -1, -11, -8, -9, -36, -78, 2, 1, 7, -7, 44, -1, -31, -1, 26, 47, 83, 2, -4, -4, -6, -52, -76, -81, -1, -59, 45, 67], "withholdReward": false, "trial_id": "mdp_trial_2", "block": "test", "trialIndex": 3, "score": 49, "costs": -7, "simulationMode": [null, null, null, null, null], "rewards": [2, 1, 7, -1, 47], "path": ["0", "0", "12", "13", "14", "19", "21"], "rt": [17110, 362, 276, 715, 356], "actions": ["right", "right", "right", "down", "down"], "actionTimes": [19136, 20007, 20771, 21976, 22834], "queries": {"click": {"state": {"target": ["18", "17", "16", "14", "21"], "time": [2738, 5834, 9394, 12611, 16066]}, "edge": {"target": [], "time": []}}, "mouseover": {"state": {"target": ["12", "13", "18", "15", "17", "17", "16", "15", "14", "21"], "time": [2292, 2325, 2509, 4992, 5041, 5342, 8693, 12076, 12392, 14792]}, "edge": {"target": [], "time": []}}, "mouseout": {"state": {"target": ["25", "24", "23", "0", "12", "13", "18", "15", "17", "17", "17", "16", "15", "14", "21"], "time": [1310, 1342, 1509, 2276, 2308, 2358, 4959, 5024, 5076, 6360, 8592, 12043, 12126, 12876, 18044]}, "edge": {"target": [], "time": []}}}, "displayed_time": "23.33", "trialTime": 28135, "trial_type": "mouselab-mdp", "trial_index": 10, "time_elapsed": 593996, "internal_node_id": "0.0-6.0-1.0-1.0"}}, {"uniqueid": "w45553621:a65974716", "current_trial": 11, "dateTime": 1693661260772, "trialdata": {"revealed_states": [], "clicked_states": ["32", "33", "31", "27", "16", "21"], "num_clicks_accrued": [0, 0, 0, 0, 0, 0, 0, 0, 0, 0, 0, 0, 0], "stateRewards": ["", 1, 4, -8, -5, -15, -7, 21, 13, -30, 40, -65, 1, 1, 5, -14, 35, 27, -38, -11, 36, -58, -47, -2, 4, -3, 13, -16, -49, 22, 15, -56, -44, -10], "withholdReward": false, "trial_id": "mdp_trial_3", "block": "test", "trialIndex": 4, "score": 19.6, "costs": -8.4, "simulationMode": [null, null, null, null, null], "rewards": [1, 1, 5, -14, 35], "path": ["0", "0", "12", "13", "14", "15", "16"], "rt": [18475, 246, 198, 477, 157], "actions": ["right", "right", "right", "up", "up"], "actionTimes": [20038, 20789, 21492, 22487, 23135], "queries": {"click": {"state": {"target": ["32", "33", "31", "27", "16", "21"], "time": [2459, 5612, 8483, 10980, 13404, 16308]}, "edge": {"target": [], "time": []}}, "mouseover": {"state": {"target": ["23", "31", "32", "33", "30", "31", "26", "27", "16", "20", "21", "20", "17"], "time": [1924, 1990, 2224, 5107, 7941, 8057, 10608, 10775, 13141, 15641, 15858, 18625, 18675]}, "edge": {"target": [], "time": []}}, "mouseout": {"state": {"target": ["20", "15", "18", "0", "23", "31", "32", "33", "30", "31", "26", "27", "16", "20", "21", "20", "17"], "time": [440, 557, 656, 1745, 1940, 2039, 2907, 7890, 7991, 10522, 10641, 13025, 15593, 15658, 16908, 18642, 18942]}, "edge": {"target": [], "time": []}}}, "displayed_time": "23.64", "trialTime": 28009, "trial_type": "mouselab-mdp", "trial_index": 11, "time_elapsed": 622175, "internal_node_id": "0.0-6.0-1.0-2.0"}}, {"uniqueid": "w45553621:a65974716", "current_trial": 12, "dateTime": 1693661282221, "trialdata": {"revealed_states": [], "clicked_states": ["9", "11"], "num_clicks_accrued": [0, 0, 0, 0, 0, 0, 0, 0, 0, 0, 0, 0, 0], "stateRewards": ["", -1, -4, -1, -11, 43, 69, 39, 4, 17, -20, -82, -2, -1, 4, 8, -79, 24, -79, 11, 36, 64, 41, 2, 4, -1, 11, -79, -47, 75, -3, 63, -36, -19], "withholdReward": false, "trial_id": "mdp_trial_4", "block": "test", "trialIndex": 5, "score": 12.2, "costs": -2.8, "simulationMode": [null, null, null, null, null], "rewards": [-1, -4, -1, 4, 17], "path": ["0", "0", "1", "2", "3", "8", "9"], "rt": [12106, 144, 413, 944, 705], "actions": ["up", "up", "up", "left", "up"], "actionTimes": [13953, 14590, 15492, 16940, 18134], "queries": {"click": {"state": {"target": ["9", "11"], "time": [2885, 6189]}, "edge": {"target": [], "time": []}}, "mouseover": {"state": {"target": ["2", "8", "9", "5", "11", "4", "4", "4", "3", "4", "5", "5"], "time": [2377, 2510, 2642, 5443, 5626, 8243, 8460, 8977, 9510, 10594, 10761, 11427]}, "edge": {"target": [], "time": []}}, "mouseout": {"state": {"target": ["15", "18", "0", "2", "8", "9", "5", "11", "4", "4", "4", "3", "4", "5", "5", "4"], "time": [542, 642, 1193, 2426, 2543, 5260, 5527, 6510, 8277, 8610, 9426, 10577, 10694, 11226, 18895, 20244]}, "edge": {"target": [], "time": []}}}, "displayed_time": "18.63", "trialTime": 21258, "trial_type": "mouselab-mdp", "trial_index": 12, "time_elapsed": 643624, "internal_node_id": "0.0-6.0-1.0-3.0"}}, {"uniqueid": "w45553621:a65974716", "current_trial": 13, "dateTime": 1693661307542, "trialdata": {"revealed_states": [], "clicked_states": ["21", "32", "16", "18", "5"], "num_clicks_accrued": [0, 0, 0, 0, 0, 0, 0, 0, 0, 0, 0, 0, 0], "stateRewards": ["", 1, 2, -3, 6, -88, 74, -45, 7, -46, 40, -77, 1, -4, 4, 3, 22, -25, -59, 8, -83, 19, -60, -1, -1, -1, -8, 26, -29, 64, -7, -88, -51, -55], "withholdReward": false, "trial_id": "mdp_trial_5", "block": "test", "trialIndex": 6, "score": 19, "costs": -7, "simulationMode": [null, null, null, null, null], "rewards": [1, -4, 4, 3, 22], "path": ["0", "0", "12", "13", "14", "15", "16"], "rt": [15871, 115, 119, 474, 161], "actions": ["right", "right", "right", "up", "up"], "actionTimes": [17350, 17974, 18595, 19583, 20237], "queries": {"click": {"state": {"target": ["21", "32", "16", "18", "5"], "time": [2413, 5204, 8084, 11556, 14061]}, "edge": {"target": [], "time": []}}, "mouseover": {"state": {"target": ["12", "13", "22", "21", "32", "12", "18", "15", "16", "18", "6", "5"], "time": [1823, 1956, 2073, 2224, 5024, 7324, 7390, 7490, 7641, 10657, 13707, 13874]}, "edge": {"target": [], "time": []}}, "mouseout": {"state": {"target": ["6", "4", "0", "12", "13", "22", "21", "32", "12", "18", "15", "16", "18", "6"], "time": [822, 905, 1789, 1923, 2023, 2106, 4573, 7207, 7340, 7424, 7557, 10591, 13542, 13741]}, "edge": {"target": [], "time": []}}}, "displayed_time": "20.74", "trialTime": 25074, "trial_type": "mouselab-mdp", "trial_index": 13, "time_elapsed": 668944, "internal_node_id": "0.0-6.0-1.0-4.0"}}, {"uniqueid": "w45553621:a65974716", "current_trial": 14, "dateTime": 1693661327844, "trialdata": {"revealed_states": [], "clicked_states": ["27", "32", "22"], "num_clicks_accrued": [0, 0, 0, 0, 0, 0, 0, 0, 0, 0, 0, 0, 0], "stateRewards": ["", -2, -3, -5, 8, 27, 11, 43, -6, -24, -87, 69, -2, 1, 1, 9, 19, 48, -37, 9, -14, 45, 62, 1, 2, 1, 16, -81, -41, 22, 4, -6, -63, 47], "withholdReward": false, "trial_id": "mdp_trial_6", "block": "test", "trialIndex": 7, "score": 66.8, "costs": -4.199999999999999, "simulationMode": [null, null, null, null, null], "rewards": [-2, 1, 1, 9, 62], "path": ["0", "0", "12", "13", "14", "19", "22"], "rt": [8770, 204, 175, 371, 402], "actions": ["right", "right", "right", "down", "left"], "actionTimes": [10682, 11378, 12065, 12927, 13825], "queries": {"click": {"state": {"target": ["27", "32", "22"], "time": [2646, 5333, 7870]}, "edge": {"target": [], "time": []}}, "mouseover": {"state": {"target": ["27", "24", "31", "32", "22"], "time": [2321, 4787, 4804, 5071, 7455]}, "edge": {"target": [], "time": []}}, "mouseout": {"state": {"target": ["5", "0", "27", "27", "24", "31", "32", "22", "22"], "time": [770, 1103, 2730, 3003, 4803, 4837, 5771, 7946, 8221]}, "edge": {"target": [], "time": []}}}, "displayed_time": "15.91", "trialTime": 20105, "trial_type": "mouselab-mdp", "trial_index": 14, "time_elapsed": 689247, "internal_node_id": "0.0-6.0-1.0-5.0"}}, {"uniqueid": "w45553621:a65974716", "current_trial": 15, "dateTime": 1693661349072, "trialdata": {"revealed_states": [], "clicked_states": ["27", "16", "21"], "num_clicks_accrued": [0, 0, 0, 0, 0, 0, 0, 0, 0, 0, 0, 0, 0], "stateRewards": ["", 1, 2, 7, 13, 88, -71, 27, 3, 60, 5, -53, -2, 2, -6, -1, -30, 79, 47, -4, -14, 46, 68, 1, 1, 8, 10, -14, 86, 48, -11, -67, -44, 5], "withholdReward": false, "trial_id": "mdp_trial_7", "block": "test", "trialIndex": 8, "score": 31.8, "costs": -4.199999999999999, "simulationMode": [null, null, null, null, null], "rewards": [-2, 2, -6, -4, 46], "path": ["0", "0", "12", "13", "14", "19", "21"], "rt": [9313, 454, 270, 571, 405], "actions": ["right", "right", "right", "down", "down"], "actionTimes": [11654, 12602, 13369, 14437, 15337], "queries": {"click": {"state": {"target": ["27", "16", "21"], "time": [3273, 6001, 8577]}, "edge": {"target": [], "time": []}}, "mouseover": {"state": {"target": ["1", "10", "27", "10", "2", "7", "16", "21"], "time": [2763, 2814, 3079, 5331, 5363, 5381, 5530, 8331]}, "edge": {"target": [], "time": []}}, "mouseout": {"state": {"target": ["22", "12", "0", "0", "1", "10", "27", "10", "2", "7", "16", "21"], "time": [513, 630, 1262, 2696, 2780, 2880, 4080, 5347, 5380, 5397, 6430, 8846]}, "edge": {"target": [], "time": []}}}, "displayed_time": "16.34", "trialTime": 21024, "trial_type": "mouselab-mdp", "trial_index": 15, "time_elapsed": 710474, "internal_node_id": "0.0-6.0-1.0-6.0"}}, {"uniqueid": "w45553621:a65974716", "current_trial": 16, "dateTime": 1693661376822, "trialdata": {"revealed_states": [], "clicked_states": ["18", "31", "27", "9", "21"], "num_clicks_accrued": [0, 0, 0, 0, 0, 0, 0, 0, 0, 0, 0, 0, 0], "stateRewards": ["", 1, 1, 1, 15, -76, 52, -32, 14, -57, 37, 49, 1, -4, -3, 6, 83, -76, 25, 9, 36, -1, -17, -1, 4, 4, -2, -22, -21, 58, -15, -57, 49, -24], "withholdReward": false, "trial_id": "mdp_trial_8", "block": "test", "trialIndex": 9, "score": 18, "costs": -7, "simulationMode": [null, null, null, null, null], "rewards": [1, -4, -3, 6, 25], "path": ["0", "0", "12", "13", "14", "15", "18"], "rt": [15660, 156, 196, 418, 342], "actions": ["right", "right", "right", "up", "left"], "actionTimes": [19014, 19665, 20356, 21295, 22135], "queries": {"click": {"state": {"target": ["18", "31", "27", "9", "21"], "time": [4584, 8096, 10992, 13697, 16233]}, "edge": {"target": [], "time": []}}, "mouseover": {"state": {"target": ["18", "13", "31", "25", "25", "24", "31", "30", "33", "29", "27", "11", "9", "5", "17", "20", "21", "20"], "time": [4273, 6989, 7339, 7473, 7624, 7773, 7857, 10340, 10407, 10540, 10674, 13006, 13107, 14357, 15641, 15741, 16075, 16640]}, "edge": {"target": [], "time": []}}, "mouseout": {"state": {"target": ["19", "14", "13", "12", "0", "0", "18", "13", "31", "25", "25", "24", "31", "30", "33", "29", "27", "11", "9", "5", "17", "20", "21", "20", "15", "18"], "time": [1005, 1405, 1438, 1672, 1738, 3972, 6973, 7022, 7356, 7550, 7674, 7822, 10273, 10390, 10457, 10589, 12958, 13023, 14224, 14407, 15658, 15806, 16557, 16657, 26991, 27025]}, "edge": {"target": [], "time": []}}}, "displayed_time": "22.64", "trialTime": 27548, "trial_type": "mouselab-mdp", "trial_index": 16, "time_elapsed": 738225, "internal_node_id": "0.0-6.0-1.0-7.0"}}, {"uniqueid": "w45553621:a65974716", "current_trial": 17, "dateTime": 1693661411051, "trialdata": {"revealed_states": [], "clicked_states": ["16", "21", "18", "29", "31", "33", "11", "9", "6"], "num_clicks_accrued": [0, 0, 0, 0, 0, 0, 0, 0, 0, 0, 0, 0, 0], "stateRewards": ["", 1, -2, -8, -13, 4, 34, -84, -4, -49, 88, -70, -1, 3, -4, 10, -77, 13, -34, 15, -21, -16, 27, 1, -2, 8, -8, -6, 38, -26, 6, -15, 66, -3], "withholdReward": false, "trial_id": "mdp_trial_9", "block": "test", "trialIndex": 10, "score": -0.6000000000000014, "costs": -12.600000000000001, "simulationMode": [null, null, null, null, null], "rewards": [1, -2, -8, -13, 34], "path": ["0", "0", "1", "2", "3", "4", "6"], "rt": [24508, 158, 123, 409, 298], "actions": ["up", "up", "up", "right", "right"], "actionTimes": [26322, 26994, 27609, 28513, 29301], "queries": {"click": {"state": {"target": ["16", "21", "18", "29", "31", "33", "11", "9", "6"], "time": [2834, 5850, 8618, 10906, 13250, 15690, 18290, 20699, 23187]}, "edge": {"target": [], "time": []}}, "mouseover": {"state": {"target": ["18", "16", "17", "20", "21", "19", "13", "18", "22", "26", "29", "25", "31", "30", "33", "30", "28", "8", "11", "9", "5", "6"], "time": [2499, 2683, 4899, 4999, 5182, 7883, 8199, 8283, 9566, 10583, 10615, 11450, 11599, 15166, 15366, 15999, 16100, 17800, 18117, 20416, 22667, 22833]}, "edge": {"target": [], "time": []}}, "mouseout": {"state": {"target": ["0", "18", "16", "17", "20", "21", "19", "13", "18", "18", "22", "26", "29", "25", "31", "30", "33", "30", "28", "8", "11", "11", "9", "5", "6", "6"], "time": [2415, 2516, 3432, 4916, 5015, 6249, 7917, 8266, 8695, 9265, 10483, 10599, 11266, 11533, 13584, 15183, 15984, 16016, 17734, 17918, 18371, 18984, 21351, 22784, 23467, 30584]}, "edge": {"target": [], "time": []}}}, "displayed_time": "29.80", "trialTime": 34034, "trial_type": "mouselab-mdp", "trial_index": 17, "time_elapsed": 772453, "internal_node_id": "0.0-6.0-1.0-8.0"}}, {"uniqueid": "w45553621:a65974716", "current_trial": 18, "dateTime": 1693661438438, "trialdata": {"revealed_states": [], "clicked_states": ["6", "9", "29", "32", "21"], "num_clicks_accrued": [0, 0, 0, 0, 0, 0, 0, 0, 0, 0, 0, 0, 0], "stateRewards": ["", -2, -1, 3, -3, 71, -58, -21, 7, -10, -75, -37, 2, 4, -1, -12, -79, -29, -48, 3, -41, -10, -30, -1, -2, 1, -15, 13, 66, 22, -1, -42, -86, -55], "withholdReward": false, "trial_id": "mdp_trial_10", "block": "test", "trialIndex": 11, "score": -2, "costs": -7, "simulationMode": [null, null, null, null, null], "rewards": [-1, -2, 1, -15, 22], "path": ["0", "0", "23", "24", "25", "26", "29"], "rt": [15608, 117, 141, 394, 441], "actions": ["left", "left", "left", "up", "left"], "actionTimes": [17522, 18155, 18813, 19716, 20662], "queries": {"click": {"state": {"target": ["6", "9", "29", "32", "21"], "time": [3048, 6055, 9047, 12111, 15135]}, "edge": {"target": [], "time": []}}, "mouseover": {"state": {"target": ["0", "12", "7", "6", "4", "9", "10", "28", "26", "29", "25", "30", "32", "21", "21"], "time": [2382, 2485, 2568, 2701, 5285, 5535, 8535, 8603, 8719, 8852, 11636, 11770, 11852, 14269, 14538]}, "edge": {"target": [], "time": []}}, "mouseout": {"state": {"target": ["6", "7", "0", "12", "7", "6", "6", "4", "9", "10", "28", "26", "29", "25", "30", "32", "21", "21"], "time": [784, 835, 2452, 2518, 2586, 3335, 5268, 5301, 6570, 8569, 8685, 8819, 11586, 11685, 11802, 12420, 14285, 15587]}, "edge": {"target": [], "time": []}}}, "displayed_time": "21.16", "trialTime": 27121, "trial_type": "mouselab-mdp", "trial_index": 18, "time_elapsed": 799841, "internal_node_id": "0.0-6.0-1.0-9.0"}}, {"uniqueid": "w45553621:a65974716", "current_trial": 19, "dateTime": 1693661459908, "trialdata": {"revealed_states": [], "clicked_states": ["18"], "num_clicks_accrued": [0, 0, 0, 0, 0, 0, 0, 0, 0, 0, 0, 0, 0], "stateRewards": ["", -2, -4, -2, 10, -8, -15, -47, 7, -84, 53, 5, -1, 2, -7, 3, 83, 31, 47, -1, 30, -8, 69, 2, -4, -1, 8, -7, 12, -8, -8, -13, 30, -84], "withholdReward": false, "trial_id": "mdp_trial_11", "block": "test", "trialIndex": 12, "score": 42.6, "costs": -1.4, "simulationMode": [null, null, null, null, null], "rewards": [-1, 2, -7, 3, 47], "path": ["0", "0", "12", "13", "14", "15", "18"], "rt": [4004, 99, 114, 370, 496], "actions": ["right", "right", "right", "up", "left"], "actionTimes": [5715, 6308, 6921, 7795, 8803], "queries": {"click": {"state": {"target": ["18"], "time": [2709]}, "edge": {"target": [], "time": []}}, "mouseover": {"state": {"target": ["12", "12", "18", "15", "17"], "time": [2056, 2240, 2423, 2939, 3023]}, "edge": {"target": [], "time": []}}, "mouseout": {"state": {"target": ["20", "14", "12", "0", "12", "12", "18", "15", "17", "17", "12"], "time": [738, 789, 1089, 1973, 2090, 2372, 2922, 2990, 3122, 16540, 16691]}, "edge": {"target": [], "time": []}}}, "displayed_time": "15.72", "trialTime": 21260, "trial_type": "mouselab-mdp", "trial_index": 19, "time_elapsed": 821311, "internal_node_id": "0.0-6.0-1.0-10.0"}}, {"uniqueid": "w45553621:a65974716", "current_trial": 20, "dateTime": 1693661483256, "trialdata": {"revealed_states": [], "clicked_states": ["29", "18", "20", "33"], "num_clicks_accrued": [0, 0, 0, 0, 0, 0, 0, 0, 0, 0, 0, 0, 0], "stateRewards": ["", -1, -1, 7, -15, -43, -21, -84, -9, -45, -66, 2, 1, -2, 2, 8, -27, 44, -52, -5, -84, 11, 53, 1, 4, -4, 16, 83, -82, -15, -16, 68, -43, 81], "withholdReward": false, "trial_id": "mdp_trial_12", "block": "test", "trialIndex": 13, "score": 60.4, "costs": -5.6, "simulationMode": [null, null, null, null, null], "rewards": [1, 4, -4, -16, 81], "path": ["0", "0", "23", "24", "25", "30", "33"], "rt": [11903, 345, 246, 573, 567], "actions": ["left", "left", "left", "down", "left"], "actionTimes": [14122, 14988, 15721, 16799, 17878], "queries": {"click": {"state": {"target": ["29", "18", "20", "33"], "time": [3377, 6105, 8640, 11129]}, "edge": {"target": [], "time": []}}, "mouseover": {"state": {"target": ["26", "29", "26", "28", "18", "15", "20", "19", "22", "30", "33", "30", "31"], "time": [2940, 3223, 4157, 5473, 5907, 6757, 8307, 9091, 9124, 10757, 10823, 11440, 11490]}, "edge": {"target": [], "time": []}}, "mouseout": {"state": {"target": ["12", "0", "0", "26", "29", "26", "28", "18", "15", "20", "19", "22", "30", "33", "30", "31"], "time": [1239, 1340, 2707, 2973, 4124, 4207, 5507, 6723, 6790, 9057, 9108, 9140, 10790, 11424, 11474, 11823]}, "edge": {"target": [], "time": []}}}, "displayed_time": "18.38", "trialTime": 23123, "trial_type": "mouselab-mdp", "trial_index": 20, "time_elapsed": 844659, "internal_node_id": "0.0-6.0-1.0-11.0"}}, {"uniqueid": "w45553621:a65974716", "current_trial": 21, "dateTime": 1693661503718, "trialdata": {"revealed_states": [], "clicked_states": ["11", "7", "17"], "num_clicks_accrued": [0, 0, 0, 0, 0, 0, 0, 0, 0, 0, 0, 0, 0], "stateRewards": ["", 1, 4, 5, 8, -55, -11, 8, 16, -37, 77, -22, -2, 3, -8, -10, 45, 87, -67, 4, 17, -33, -22, -1, -3, 7, 6, -39, -85, 75, -1, 7, -48, 45], "withholdReward": false, "trial_id": "mdp_trial_13", "block": "test", "trialIndex": 14, "score": 65.8, "costs": -4.199999999999999, "simulationMode": [null, null, null, null, null], "rewards": [-2, 3, -8, -10, 87], "path": ["0", "0", "12", "13", "14", "15", "17"], "rt": [9550, 117, 128, 393, 630], "actions": ["right", "right", "right", "up", "right"], "actionTimes": [10540, 11151, 11794, 12676, 13798], "queries": {"click": {"state": {"target": ["11", "7", "17"], "time": [1968, 4543, 7527]}, "edge": {"target": [], "time": []}}, "mouseover": {"state": {"target": ["1", "10", "11", "8", "6", "7", "15", "17"], "time": [1431, 1547, 1681, 2548, 4115, 4298, 6948, 7165]}, "edge": {"target": [], "time": []}}, "mouseout": {"state": {"target": ["0", "1", "10", "11", "8", "6", "7", "15", "17"], "time": [714, 1499, 1597, 2531, 2580, 4214, 4997, 7048, 7798]}, "edge": {"target": [], "time": []}}}, "displayed_time": "14.99", "trialTime": 20191, "trial_type": "mouselab-mdp", "trial_index": 21, "time_elapsed": 865120, "internal_node_id": "0.0-6.0-1.0-12.0"}}, {"uniqueid": "w45553621:a65974716", "current_trial": 22, "dateTime": 1693661523251, "trialdata": {"revealed_states": [], "clicked_states": ["11"], "num_clicks_accrued": [0, 0, 0, 0, 0, 0, 0, 0, 0, 0, 0, 0, 0], "stateRewards": ["", -2, 2, -5, 1, 42, -63, -58, -6, 2, 16, 81, -2, 4, 7, -10, 33, 3, -33, -2, -52, -84, -27, 2, -3, -3, 15, -74, -14, -5, -5, -84, 79, -31], "withholdReward": false, "trial_id": "mdp_trial_14", "block": "test", "trialIndex": 15, "score": 68.6, "costs": -1.4, "simulationMode": [null, null, null, null, null], "rewards": [-2, 2, -5, -6, 81], "path": ["0", "0", "1", "2", "3", "8", "11"], "rt": [4206, 169, 116, 416, 151], "actions": ["up", "up", "up", "left", "left"], "actionTimes": [5557, 6218, 6847, 7781, 8433], "queries": {"click": {"state": {"target": ["11"], "time": [2315]}, "edge": {"target": [], "time": []}}, "mouseover": {"state": {"target": ["1", "2", "10", "11"], "time": [1712, 1731, 1797, 2013]}, "edge": {"target": [], "time": []}}, "mouseout": {"state": {"target": ["14", "13", "12", "1", "2", "10", "11"], "time": [729, 745, 863, 1730, 1780, 1880, 2680]}, "edge": {"target": [], "time": []}}}, "displayed_time": "15.35", "trialTime": 19271, "trial_type": "mouselab-mdp", "trial_index": 22, "time_elapsed": 884654, "internal_node_id": "0.0-6.0-1.0-13.0"}}, {"uniqueid": "w45553621:a65974716", "current_trial": 23, "dateTime": 1693661548117, "trialdata": {"revealed_states": [], "clicked_states": ["32", "21", "29", "17", "9"], "num_clicks_accrued": [0, 0, 0, 0, 0, 0, 0, 0, 0, 0, 0, 0, 0], "stateRewards": ["", -1, -4, 8, 8, -68, 47, 24, -7, -61, 49, -69, -1, -1, 8, -7, 42, 1, -45, -11, 10, -63, -6, 1, 4, 6, -16, 79, -37, -58, -12, 81, 18, -53], "withholdReward": false, "trial_id": "mdp_trial_15", "block": "test", "trialIndex": 16, "score": 10, "costs": -7, "simulationMode": [null, null, null, null, null], "rewards": [1, 4, 6, -12, 18], "path": ["0", "0", "23", "24", "25", "30", "32"], "rt": [15022, 67, 77, 400, 169], "actions": ["left", "left", "left", "down", "down"], "actionTimes": [17017, 17580, 18173, 19063, 19748], "queries": {"click": {"state": {"target": ["32", "21", "29", "17", "9"], "time": [3905, 6841, 9457, 12018, 14642]}, "edge": {"target": [], "time": []}}, "mouseover": {"state": {"target": ["24", "25", "30", "32", "21", "20", "13", "28", "29", "25", "31", "1", "15", "17", "15", "18", "7", "3", "9", "3"], "time": [2927, 3320, 3459, 3676, 6460, 8828, 8860, 8960, 9210, 10193, 10311, 11394, 11678, 11726, 12526, 12577, 13027, 14143, 14244, 14944]}, "edge": {"target": [], "time": []}}, "mouseout": {"state": {"target": ["10", "2", "0", "24", "25", "30", "32", "21", "20", "13", "28", "29", "25", "31", "1", "15", "17", "15", "18", "7", "3", "9"], "time": [843, 958, 2776, 2959, 3426, 3576, 4226, 7060, 8843, 8877, 8993, 10160, 10228, 10395, 11410, 11694, 12510, 12560, 12627, 14094, 14160, 14894]}, "edge": {"target": [], "time": []}}}, "displayed_time": "20.25", "trialTime": 24615, "trial_type": "mouselab-mdp", "trial_index": 23, "time_elapsed": 909520, "internal_node_id": "0.0-6.0-1.0-14.0"}}, {"uniqueid": "w45553621:a65974716", "current_trial": 24, "dateTime": 1693661568740, "trialdata": {"revealed_states": [], "clicked_states": ["29"], "num_clicks_accrued": [0, 0, 0, 0, 0, 0, 0, 0, 0, 0, 0, 0, 0], "stateRewards": ["", 1, 4, -4, 14, 35, 51, 19, -13, 54, 78, -74, -2, -1, -3, 13, -11, -42, -73, -15, -24, -3, -69, 2, -1, 5, 16, -27, 73, 58, 9, -60, 5, -60], "withholdReward": false, "trial_id": "mdp_trial_16", "block": "test", "trialIndex": 17, "score": 78.6, "costs": -1.4, "simulationMode": [null, null, null, null, null], "rewards": [2, -1, 5, 16, 58], "path": ["0", "0", "23", "24", "25", "26", "29"], "rt": [4122, 182, 160, 748, 473], "actions": ["left", "left", "left", "up", "left"], "actionTimes": [5710, 6384, 7044, 8283, 9258], "queries": {"click": {"state": {"target": ["29"], "time": [2820]}, "edge": {"target": [], "time": []}}, "mouseover": {"state": {"target": ["29", "26", "24"], "time": [2600, 3150, 3250]}, "edge": {"target": [], "time": []}}, "mouseout": {"state": {"target": ["3", "0", "29", "26", "24"], "time": [732, 2082, 3100, 3167, 3617]}, "edge": {"target": [], "time": []}}}, "displayed_time": "15.59", "trialTime": 20392, "trial_type": "mouselab-mdp", "trial_index": 24, "time_elapsed": 930143, "internal_node_id": "0.0-6.0-1.0-15.0"}}, {"uniqueid": "w45553621:a65974716", "current_trial": 25, "dateTime": 1693661590331, "trialdata": {"revealed_states": [], "clicked_states": ["29"], "num_clicks_accrued": [0, 0, 0, 0, 0, 0, 0, 0, 0, 0, 0, 0, 0], "stateRewards": ["", 2, -1, 4, -9, -43, 7, 54, -13, 38, -40, -83, -1, 2, -8, -10, 34, -33, 11, -14, -79, 65, 26, 1, 2, 4, 10, 21, 1, 86, 4, -53, 28, -29], "withholdReward": false, "trial_id": "mdp_trial_17", "block": "test", "trialIndex": 18, "score": 101.6, "costs": -1.4, "simulationMode": [null, null, null, null, null], "rewards": [1, 2, 4, 10, 86], "path": ["0", "0", "23", "24", "25", "26", "29"], "rt": [5039, 164, 156, 667, 859], "actions": ["left", "left", "left", "up", "left"], "actionTimes": [7329, 8001, 8659, 9837, 11197], "queries": {"click": {"state": {"target": ["29"], "time": [3333]}, "edge": {"target": [], "time": []}}, "mouseover": {"state": {"target": ["1", "28", "26", "29", "26", "28"], "time": [2752, 2852, 2886, 3101, 3970, 4203]}, "edge": {"target": [], "time": []}}, "mouseout": {"state": {"target": ["23", "1", "0", "1", "28", "26", "29", "26", "28", "1", "12"], "time": [568, 768, 1685, 2802, 2868, 3052, 3937, 3986, 4236, 14254, 14320]}, "edge": {"target": [], "time": []}}}, "displayed_time": "16.29", "trialTime": 21351, "trial_type": "mouselab-mdp", "trial_index": 25, "time_elapsed": 951734, "internal_node_id": "0.0-6.0-1.0-16.0"}}, {"uniqueid": "w45553621:a65974716", "current_trial": 26, "dateTime": 1693661613422, "trialdata": {"revealed_states": [], "clicked_states": ["18", "33", "11", "6"], "num_clicks_accrued": [0, 0, 0, 0, 0, 0, 0, 0, 0, 0, 0, 0, 0], "stateRewards": ["", -1, -3, 4, -10, -5, 79, -87, -2, 53, 29, -20, -2, -1, -5, 10, 27, 86, 46, -16, -29, 40, 3, 2, 4, -1, -6, 37, 79, -29, 7, 86, -62, 29], "withholdReward": false, "trial_id": "mdp_trial_18", "block": "test", "trialIndex": 19, "score": 63.4, "costs": -5.6, "simulationMode": [null, null, null, null, null], "rewards": [-1, -3, 4, -10, 79], "path": ["0", "0", "1", "2", "3", "4", "6"], "rt": [13843, 109, 107, 481, 125], "actions": ["up", "up", "up", "right", "right"], "actionTimes": [17251, 17870, 18484, 19474, 20102], "queries": {"click": {"state": {"target": ["18", "33", "11", "6"], "time": [4554, 7962, 11538, 14378]}, "edge": {"target": [], "time": []}}, "mouseover": {"state": {"target": ["18", "15", "17", "14", "13", "31", "30", "33", "10", "11", "8", "3", "4", "6", "6"], "time": [4142, 4892, 4958, 7125, 7158, 7358, 7408, 7440, 10174, 10407, 11959, 11992, 12041, 12092, 13925]}, "edge": {"target": [], "time": []}}, "mouseout": {"state": {"target": ["0", "0", "18", "15", "17", "14", "13", "31", "30", "33", "10", "11", "8", "3", "4", "6", "6"], "time": [1206, 4041, 4876, 4941, 4991, 7142, 7174, 7391, 7424, 8341, 10291, 11942, 11991, 12025, 12075, 12143, 14675]}, "edge": {"target": [], "time": []}}}, "displayed_time": "20.61", "trialTime": 22846, "trial_type": "mouselab-mdp", "trial_index": 26, "time_elapsed": 974825, "internal_node_id": "0.0-6.0-1.0-17.0"}}, {"uniqueid": "w45553621:a65974716", "current_trial": 27, "dateTime": 1693661634621, "trialdata": {"revealed_states": [], "clicked_states": ["29", "17", "11", "6"], "num_clicks_accrued": [0, 0, 0, 0, 0, 0, 0, 0, 0, 0, 0, 0, 0], "stateRewards": ["", -1, 3, 1, -7, 56, 76, 57, 3, 11, -9, 14, 1, -2, 2, 8, -77, -3, 79, -5, 88, 24, -66, -2, -1, 7, -7, -30, 14, -76, 11, -36, 28, -6], "withholdReward": false, "trial_id": "mdp_trial_19", "block": "test", "trialIndex": 20, "score": 66.4, "costs": -5.6, "simulationMode": [null, null, null, null, null], "rewards": [-1, 3, 1, -7, 76], "path": ["0", "0", "1", "2", "3", "4", "6"], "rt": [12972, 113, 128, 423, 96], "actions": ["up", "up", "up", "right", "right"], "actionTimes": [15088, 15715, 16346, 17258, 17864], "queries": {"click": {"state": {"target": ["29", "17", "11", "6"], "time": [3525, 6581, 9158, 12110]}, "edge": {"target": [], "time": []}}, "mouseover": {"state": {"target": ["0", "12", "1", "28", "26", "29", "26", "28", "7", "16", "17", "8", "11", "8", "3", "4", "6", "6"], "time": [2565, 2762, 3016, 3066, 3115, 3315, 3966, 3984, 5541, 5650, 5882, 8801, 8950, 9466, 9499, 9550, 9766, 11333]}, "edge": {"target": [], "time": []}}, "mouseout": {"state": {"target": ["6", "7", "0", "12", "1", "28", "26", "29", "26", "28", "7", "16", "17", "17", "17", "8", "11", "8", "3", "4", "6", "6"], "time": [1382, 1449, 2583, 2849, 3033, 3082, 3283, 3949, 3983, 4000, 5599, 5733, 6687, 7017, 8600, 8816, 9450, 9484, 9534, 9599, 9850, 12401]}, "edge": {"target": [], "time": []}}}, "displayed_time": "18.37", "trialTime": 20968, "trial_type": "mouselab-mdp", "trial_index": 27, "time_elapsed": 996024, "internal_node_id": "0.0-6.0-1.0-18.0"}}, {"uniqueid": "w45553621:a65974716", "current_trial": 28, "dateTime": 1693661663291, "trialdata": {"revealed_states": [], "clicked_states": ["11", "5", "17", "21", "33", "29"], "num_clicks_accrued": [0, 0, 0, 0, 0, 0, 0, 0, 0, 0, 0, 0, 0], "stateRewards": ["", -2, 2, -5, -6, 10, -66, -58, -10, -11, -63, -70, -1, -4, -5, 7, 66, -64, -43, -3, 45, -37, 4, -2, -2, -6, -4, -30, 33, 43, 15, -32, -65, -59], "withholdReward": false, "trial_id": "mdp_trial_20", "block": "test", "trialIndex": 21, "score": 20.6, "costs": -8.4, "simulationMode": [null, null, null, null, null], "rewards": [-2, -2, -6, -4, 43], "path": ["0", "0", "23", "24", "25", "26", "29"], "rt": [17347, 60, 136, 372, 521], "actions": ["left", "left", "left", "up", "left"], "actionTimes": [21160, 21715, 22358, 23228, 24243], "queries": {"click": {"state": {"target": ["11", "5", "17", "21", "33", "29"], "time": [5181, 7981, 10764, 13190, 15813, 18453]}, "edge": {"target": [], "time": []}}, "mouseover": {"state": {"target": ["1", "10", "11", "3", "4", "6", "6", "5", "17", "20", "21", "22", "23", "24", "25", "33", "30", "31", "31", "25", "29"], "time": [4568, 4601, 4902, 5851, 5919, 5952, 7435, 7785, 10386, 12802, 12902, 15186, 15219, 15237, 15402, 15602, 16052, 16120, 17869, 18103, 18203]}, "edge": {"target": [], "time": []}}, "mouseout": {"state": {"target": ["1", "0", "1", "10", "11", "11", "3", "4", "6", "6", "5", "17", "20", "21", "22", "23", "24", "25", "33", "30", "31", "31", "25", "29"], "time": [1951, 4352, 4585, 4618, 5266, 5702, 5884, 5935, 6034, 7735, 8286, 11136, 12818, 13435, 15203, 15236, 15269, 15436, 16036, 16086, 16186, 18069, 18119, 25603]}, "edge": {"target": [], "time": []}}}, "displayed_time": "24.75", "trialTime": 28405, "trial_type": "mouselab-mdp", "trial_index": 28, "time_elapsed": 1024694, "internal_node_id": "0.0-6.0-1.0-19.0"}}, {"uniqueid": "w45553621:a65974716", "current_trial": 29, "dateTime": 1693661687413, "trialdata": {"revealed_states": [], "clicked_states": ["11", "5", "20", "33", "28"], "num_clicks_accrued": [0, 0, 0, 0, 0, 0, 0, 0, 0, 0, 0, 0, 0], "stateRewards": ["", -1, -4, -6, -15, 21, -67, -63, 9, 51, 69, -14, -1, 3, 8, -8, 39, 72, 63, 15, 19, 47, 15, 1, 4, 5, 16, -18, 34, 35, -14, -80, 40, 1], "withholdReward": false, "trial_id": "mdp_trial_21", "block": "test", "trialIndex": 22, "score": 53, "costs": -7, "simulationMode": [null, null, null, null, null], "rewards": [1, 4, 5, 16, 34], "path": ["0", "0", "23", "24", "25", "26", "28"], "rt": [14242, 103, 100, 268, 375], "actions": ["left", "left", "left", "up", "right"], "actionTimes": [15996, 16610, 17208, 17975, 18865], "queries": {"click": {"state": {"target": ["11", "5", "20", "33", "28"], "time": [2706, 5194, 7842, 10651, 13355]}, "edge": {"target": [], "time": []}}, "mouseover": {"state": {"target": ["11", "3", "4", "5", "20", "19", "22", "24", "25", "33", "26", "28", "28", "1"], "time": [2471, 4704, 4737, 5022, 7605, 9922, 9939, 10155, 10222, 10304, 12689, 12805, 13088, 14305]}, "edge": {"target": [], "time": []}}, "mouseout": {"state": {"target": ["26", "28", "1", "0", "11", "3", "4", "5", "20", "20", "19", "22", "24", "25", "33", "26", "28", "28", "1"], "time": [536, 603, 736, 2121, 2972, 4720, 4905, 5504, 8104, 9921, 9938, 9971, 10171, 10255, 12589, 12756, 12872, 13448, 14338]}, "edge": {"target": [], "time": []}}}, "displayed_time": "19.36", "trialTime": 23844, "trial_type": "mouselab-mdp", "trial_index": 29, "time_elapsed": 1048816, "internal_node_id": "0.0-6.0-1.0-20.0"}}, {"uniqueid": "w45553621:a65974716", "current_trial": 30, "dateTime": 1693661710467, "trialdata": {"revealed_states": [], "clicked_states": ["11", "20"], "num_clicks_accrued": [0, 0, 0, 0, 0, 0, 0, 0, 0, 0, 0, 0, 0], "stateRewards": ["", -2, -1, -6, -14, -55, 78, -13, 11, 14, -71, 59, 2, 2, 6, -6, 9, 38, 14, 7, 85, 11, 68, 1, -4, -1, -3, -63, -85, 9, -2, 63, -86, -10], "withholdReward": false, "trial_id": "mdp_trial_22", "block": "test", "trialIndex": 23, "score": 99.2, "costs": -2.8, "simulationMode": [null, null, null, null, null], "rewards": [2, 2, 6, 7, 85], "path": ["0", "0", "12", "13", "14", "19", "20"], "rt": [7140, 90, 107, 538, 528], "actions": ["right", "right", "right", "down", "right"], "actionTimes": [10792, 11385, 11985, 13017, 14040], "queries": {"click": {"state": {"target": ["11", "20"], "time": [4715, 8011]}, "edge": {"target": [], "time": []}}, "mouseover": {"state": {"target": ["1", "10", "11", "8", "3", "16", "20"], "time": [4076, 4192, 4425, 7460, 7477, 7543, 7859]}, "edge": {"target": [], "time": []}}, "mouseout": {"state": {"target": ["7", "7", "1", "0", "1", "10", "11", "8", "3", "16", "20", "14", "13", "12"], "time": [958, 1776, 1875, 4042, 4109, 4225, 7443, 7476, 7493, 7577, 8098, 18477, 18527, 18594]}, "edge": {"target": [], "time": []}}}, "displayed_time": "17.65", "trialTime": 22834, "trial_type": "mouselab-mdp", "trial_index": 30, "time_elapsed": 1071870, "internal_node_id": "0.0-6.0-1.0-21.0"}}, {"uniqueid": "w45553621:a65974716", "current_trial": 31, "dateTime": 1693661754560, "trialdata": {"revealed_states": [], "clicked_states": ["29", "20"], "num_clicks_accrued": [0, 0, 0, 0, 0, 0, 0, 0, 0, 0, 0, 0, 0], "stateRewards": ["", -1, -3, -7, -4, -85, -70, 79, 8, 84, -66, 42, 2, -2, -3, -16, -54, -66, 68, -3, 21, -14, 7, -2, -1, -3, -8, 75, 80, 86, -7, -84, 73, -16], "withholdReward": false, "trial_id": "mdp_trial_23", "block": "test", "trialIndex": 24, "score": 69.2, "costs": -2.8, "simulationMode": [null, null, null, null, null], "rewards": [-2, -1, -3, -8, 86], "path": ["0", "0", "23", "24", "25", "26", "29"], "rt": [7049, 61, 136, 484, 590], "actions": ["left", "left", "left", "up", "left"], "actionTimes": [34692, 35271, 35896, 36877, 37967], "queries": {"click": {"state": {"target": ["29", "20"], "time": [28612, 32347]}, "edge": {"target": [], "time": []}}, "mouseover": {"state": {"target": ["1", "28", "26", "29", "26", "28", "13", "14", "20"], "time": [28107, 28207, 28241, 28441, 28941, 28991, 31941, 31991, 32108]}, "edge": {"target": [], "time": []}}, "mouseout": {"state": {"target": ["0", "1", "28", "26", "29", "26", "28", "13", "14", "20", "14", "13"], "time": [28050, 28124, 28225, 28274, 28924, 28957, 29691, 31958, 32074, 32658, 39091, 39192]}, "edge": {"target": [], "time": []}}}, "displayed_time": "41.64", "trialTime": 43837, "trial_type": "mouselab-mdp", "trial_index": 31, "time_elapsed": 1115963, "internal_node_id": "0.0-6.0-1.0-22.0"}}, {"uniqueid": "w45553621:a65974716", "current_trial": 32, "dateTime": 1693661773189, "trialdata": {"revealed_states": [], "clicked_states": ["11", "20"], "num_clicks_accrued": [0, 0, 0, 0, 0, 0, 0, 0, 0, 0, 0, 0, 0], "stateRewards": ["", -2, 1, -3, -16, -39, -52, 30, -7, -41, -59, 11, 2, 1, 8, 2, -11, -26, -42, -13, 87, -59, -48, -1, -1, -1, 16, -79, 31, 50, -1, -84, 34, -82], "withholdReward": false, "trial_id": "mdp_trial_24", "block": "test", "trialIndex": 25, "score": 82.2, "costs": -2.8, "simulationMode": [null, null, null, null, null], "rewards": [2, 1, 8, -13, 87], "path": ["0", "0", "12", "13", "14", "19", "20"], "rt": [7110, 128, 79, 507, 555], "actions": ["right", "right", "right", "down", "right"], "actionTimes": [8712, 9357, 9926, 10953, 12001], "queries": {"click": {"state": {"target": ["11", "20"], "time": [2474, 5250]}, "edge": {"target": [], "time": []}}, "mouseover": {"state": {"target": ["1", "2", "11", "8", "3", "7", "15", "20"], "time": [1861, 1894, 2127, 2727, 2794, 3244, 4844, 4995]}, "edge": {"target": [], "time": []}}, "mouseout": {"state": {"target": ["0", "0", "1", "2", "11", "8", "3", "7", "15", "20"], "time": [594, 1767, 1878, 1943, 2711, 2761, 3144, 4479, 4861, 5327]}, "edge": {"target": [], "time": []}}}, "displayed_time": "15.60", "trialTime": 18352, "trial_type": "mouselab-mdp", "trial_index": 32, "time_elapsed": 1134592, "internal_node_id": "0.0-6.0-1.0-23.0"}}, {"uniqueid": "w45553621:a65974716", "current_trial": 33, "dateTime": 1693661791732, "trialdata": {"revealed_states": [], "clicked_states": ["33", "16"], "num_clicks_accrued": [0, 0, 0, 0, 0, 0, 0, 0, 0, 0, 0, 0, 0], "stateRewards": ["", 2, 3, -2, -8, -8, -41, 74, 15, -23, -80, 1, 1, 3, 3, -15, -63, -78, 67, 13, 75, -41, 86, 2, -2, 6, -3, -8, -49, 50, -6, 83, 74, 80], "withholdReward": false, "trial_id": "mdp_trial_25", "block": "test", "trialIndex": 26, "score": 77.2, "costs": -2.8, "simulationMode": [null, null, null, null, null], "rewards": [2, -2, 6, -6, 80], "path": ["0", "0", "23", "24", "25", "30", "33"], "rt": [7222, 31, 88, 305, 1214], "actions": ["left", "left", "left", "down", "left"], "actionTimes": [8698, 9247, 9854, 10655, 12363], "queries": {"click": {"state": {"target": ["33", "16"], "time": [2331, 5643]}, "edge": {"target": [], "time": []}}, "mouseover": {"state": {"target": ["0", "23", "31", "30", "33", "22", "19", "20", "17", "16"], "time": [1664, 1747, 1848, 1913, 2014, 4815, 4880, 5047, 5130, 5415]}, "edge": {"target": [], "time": []}}, "mouseout": {"state": {"target": ["15", "18", "12", "0", "0", "0", "23", "31", "30", "33", "22", "19", "20", "17", "16"], "time": [648, 696, 831, 946, 1180, 1730, 1780, 1880, 1964, 2548, 4831, 4982, 5080, 5148, 5931]}, "edge": {"target": [], "time": []}}}, "displayed_time": "15.48", "trialTime": 18279, "trial_type": "mouselab-mdp", "trial_index": 33, "time_elapsed": 1153134, "internal_node_id": "0.0-6.0-1.0-24.0"}}, {"uniqueid": "w45553621:a65974716", "current_trial": 34, "dateTime": 1693661815608, "trialdata": {"revealed_states": [], "clicked_states": ["27", "5", "20", "33", "32"], "num_clicks_accrued": [0, 0, 0, 0, 0, 0, 0, 0, 0, 0, 0, 0, 0], "stateRewards": ["", -1, -3, -6, 14, 41, 18, 63, -14, 80, 21, 17, -2, -4, -2, -5, 13, 70, 8, -4, -64, -10, -20, 2, -1, 4, -1, -17, -55, 42, -7, 47, 54, 15], "withholdReward": false, "trial_id": "mdp_trial_26", "block": "test", "trialIndex": 27, "score": 45, "costs": -7, "simulationMode": [null, null, null, null, null], "rewards": [2, -1, 4, -7, 54], "path": ["0", "0", "23", "24", "25", "30", "32"], "rt": [16712, 42, 64, 403, 204], "actions": ["left", "left", "left", "down", "down"], "actionTimes": [18361, 18920, 19508, 20415, 21132], "queries": {"click": {"state": {"target": ["27", "5", "20", "33", "32"], "time": [2744, 5526, 8598, 11687, 15111]}, "edge": {"target": [], "time": []}}, "mouseover": {"state": {"target": ["12", "1", "27", "3", "4", "5", "20", "19", "22", "32", "33", "32", "32", "31", "24", "32"], "time": [2059, 2192, 2541, 3109, 3175, 5042, 8292, 10759, 10792, 11009, 11259, 11993, 13742, 14226, 14360, 14742]}, "edge": {"target": [], "time": []}}, "mouseout": {"state": {"target": ["16", "12", "0", "12", "1", "27", "3", "4", "5", "20", "20", "19", "22", "32", "33", "32", "32", "31", "24", "32"], "time": [1008, 1191, 1324, 2158, 2209, 2992, 3159, 3226, 5775, 8859, 10743, 10776, 10826, 11192, 11943, 12208, 14193, 14243, 14409, 15444]}, "edge": {"target": [], "time": []}}}, "displayed_time": "21.63", "trialTime": 23598, "trial_type": "mouselab-mdp", "trial_index": 34, "time_elapsed": 1177011, "internal_node_id": "0.0-6.0-1.0-25.0"}}, {"uniqueid": "w45553621:a65974716", "current_trial": 35, "dateTime": 1693661838841, "trialdata": {"revealed_states": [], "clicked_states": ["29", "11", "18", "20", "32"], "num_clicks_accrued": [0, 0, 0, 0, 0, 0, 0, 0, 0, 0, 0, 0, 0], "stateRewards": ["", 1, 2, -8, 9, 18, -83, -11, 6, -64, -48, 17, -2, -2, -5, -3, -24, -3, -86, -2, 48, -41, -22, -2, 4, 7, 8, 81, 13, -48, 10, 61, 19, 57], "withholdReward": false, "trial_id": "mdp_trial_27", "block": "test", "trialIndex": 28, "score": 30, "costs": -7, "simulationMode": [null, null, null, null, null], "rewards": [-2, -2, -5, -2, 48], "path": ["0", "0", "12", "13", "14", "19", "20"], "rt": [15513, 61, 72, 338, 308], "actions": ["right", "right", "right", "down", "right"], "actionTimes": [17522, 18105, 18678, 19511, 20315], "queries": {"click": {"state": {"target": ["29", "11", "18", "20", "32"], "time": [2999, 5686, 8590, 11623, 14847]}, "edge": {"target": [], "time": []}}, "mouseover": {"state": {"target": ["23", "28", "26", "29", "26", "28", "10", "11", "10", "3", "4", "15", "18", "15", "17", "20", "21", "32"], "time": [2589, 2621, 2653, 2820, 3254, 3306, 4953, 5203, 7587, 7670, 7870, 8020, 8320, 8904, 8987, 11054, 14371, 14688]}, "edge": {"target": [], "time": []}}, "mouseout": {"state": {"target": ["0", "23", "28", "26", "29", "26", "28", "10", "11", "10", "3", "4", "15", "18", "15", "17", "20", "21", "32"], "time": [2587, 2603, 2636, 2753, 3236, 3287, 3322, 5070, 6004, 7620, 7687, 7887, 8288, 8887, 8971, 9020, 12054, 14388, 15172]}, "edge": {"target": [], "time": []}}}, "displayed_time": "20.81", "trialTime": 22975, "trial_type": "mouselab-mdp", "trial_index": 35, "time_elapsed": 1200243, "internal_node_id": "0.0-6.0-1.0-26.0"}}, {"uniqueid": "w45553621:a65974716", "current_trial": 36, "dateTime": 1693661856176, "trialdata": {"revealed_states": [], "clicked_states": ["27", "16", "32"], "num_clicks_accrued": [0, 0, 0, 0, 0, 0, 0, 0, 0, 0, 0, 0, 0], "stateRewards": ["", 1, 1, -6, -2, 7, 77, 3, 16, -16, 66, 31, -1, 3, -8, -6, 33, -50, -48, 7, -60, -66, 36, 2, -3, 3, -7, -12, -61, -79, -4, 8, 74, -70], "withholdReward": false, "trial_id": "mdp_trial_28", "block": "test", "trialIndex": 29, "score": 67.8, "costs": -4.199999999999999, "simulationMode": [null, null, null, null, null], "rewards": [2, -3, 3, -4, 74], "path": ["0", "0", "23", "24", "25", "30", "32"], "rt": [9936, 79, 150, 586, 267], "actions": ["left", "left", "left", "down", "down"], "actionTimes": [11526, 12121, 12774, 13876, 14659], "queries": {"click": {"state": {"target": ["27", "16", "32"], "time": [2710, 5398, 8175]}, "edge": {"target": [], "time": []}}, "mouseover": {"state": {"target": ["0", "27", "10", "7", "16", "20", "21", "32"], "time": [1739, 2525, 4706, 4755, 5164, 7389, 7623, 7923]}, "edge": {"target": [], "time": []}}, "mouseout": {"state": {"target": ["31", "0", "27", "10", "7", "16", "20", "21", "32"], "time": [554, 1856, 3104, 4723, 4772, 5606, 7423, 7673, 8389]}, "edge": {"target": [], "time": []}}}, "displayed_time": "15.59", "trialTime": 17076, "trial_type": "mouselab-mdp", "trial_index": 36, "time_elapsed": 1217578, "internal_node_id": "0.0-6.0-1.0-27.0"}}, {"uniqueid": "w45553621:a65974716", "current_trial": 37, "dateTime": 1693661880682, "trialdata": {"revealed_states": [], "clicked_states": ["11", "18", "33", "22", "5"], "num_clicks_accrued": [0, 0, 0, 0, 0, 0, 0, 0, 0, 0, 0, 0, 0], "stateRewards": ["", -1, 4, -6, -5, -22, -38, -38, -2, -56, 88, 14, -1, -1, -7, -6, 61, -60, 21, 11, 57, 31, -30, -2, -2, 6, -9, -44, -70, -44, -15, 34, 16, -78], "withholdReward": false, "trial_id": "mdp_trial_29", "block": "test", "trialIndex": 30, "score": -1, "costs": -7, "simulationMode": [null, null, null, null, null], "rewards": [-1, -1, -7, -6, 21], "path": ["0", "0", "12", "13", "14", "15", "18"], "rt": [15883, 53, 117, 231, 504], "actions": ["right", "right", "right", "up", "left"], "actionTimes": [17569, 18141, 18755, 19506, 20509], "queries": {"click": {"state": {"target": ["11", "18", "33", "22", "5"], "time": [2836, 6052, 9396, 12084, 14764]}, "edge": {"target": [], "time": []}}, "mouseover": {"state": {"target": ["10", "11", "8", "3", "4", "18", "18", "15", "22", "31", "30", "33", "33", "31", "22", "0", "1", "2", "3", "5"], "time": [2418, 2668, 3152, 3218, 3553, 5652, 5902, 6485, 8353, 8802, 8836, 9058, 9218, 9919, 11736, 14070, 14087, 14120, 14152, 14537]}, "edge": {"target": [], "time": []}}, "mouseout": {"state": {"target": ["0", "10", "11", "8", "3", "4", "18", "18", "15", "22", "31", "30", "33", "33", "31", "22", "22", "0", "1", "2", "3", "5", "16", "15", "13"], "time": [2235, 2451, 3136, 3185, 3535, 3601, 5769, 6452, 6503, 8685, 8818, 8936, 9119, 9785, 9953, 12161, 12287, 14085, 14103, 14136, 14202, 15020, 23437, 23586, 23670]}, "edge": {"target": [], "time": []}}}, "displayed_time": "21.02", "trialTime": 24244, "trial_type": "mouselab-mdp", "trial_index": 37, "time_elapsed": 1242085, "internal_node_id": "0.0-6.0-1.0-28.0"}}, {"uniqueid": "w45553621:a65974716", "current_trial": 38, "dateTime": 1693661900791, "trialdata": {"revealed_states": [], "clicked_states": ["29", "9", "16"], "num_clicks_accrued": [0, 0, 0, 0, 0, 0, 0, 0, 0, 0, 0, 0, 0], "stateRewards": ["", -1, -1, 4, -16, -75, 81, -51, -7, -84, 73, -30, -2, 1, -3, -16, -77, 33, 14, 1, 45, 87, -66, 2, 2, -5, -7, -19, -17, 79, -3, 8, 49, 47], "withholdReward": false, "trial_id": "mdp_trial_30", "block": "test", "trialIndex": 31, "score": 66.8, "costs": -4.199999999999999, "simulationMode": [null, null, null, null, null], "rewards": [2, 2, -5, -7, 79], "path": ["0", "0", "23", "24", "25", "26", "29"], "rt": [11344, 59, 61, 334, 652], "actions": ["left", "left", "left", "up", "left"], "actionTimes": [13093, 13646, 14214, 15037, 16189], "queries": {"click": {"state": {"target": ["29", "9", "16"], "time": [2638, 6575, 10373]}, "edge": {"target": [], "time": []}}, "mouseover": {"state": {"target": ["23", "24", "29", "26", "28", "10", "3", "9", "6", "16", "15", "13"], "time": [2084, 2217, 2317, 2918, 3001, 5118, 5335, 5568, 8802, 8968, 11536, 11702]}, "edge": {"target": [], "time": []}}, "mouseout": {"state": {"target": ["12", "23", "24", "29", "26", "28", "10", "3", "9", "6", "16", "15", "13"], "time": [934, 2167, 2250, 2883, 2968, 3035, 5151, 5401, 6918, 8867, 10701, 11586, 11719]}, "edge": {"target": [], "time": []}}}, "displayed_time": "16.69", "trialTime": 19850, "trial_type": "mouselab-mdp", "trial_index": 38, "time_elapsed": 1262194, "internal_node_id": "0.0-6.0-1.0-29.0"}}, {"uniqueid": "w45553621:a65974716", "current_trial": 39, "dateTime": 1693661919437, "trialdata": {"revealed_states": [], "clicked_states": ["5", "18"], "num_clicks_accrued": [0, 0, 0, 0, 0, 0, 0, 0, 0, 0, 0, 0, 0], "stateRewards": ["", 2, 4, 4, -8, -36, -33, 38, 16, -51, 57, 57, 1, 3, 4, -6, 45, 68, 87, 1, 63, 24, -55, -2, 2, -6, -13, -63, -50, 8, 2, 80, 6, 60], "withholdReward": false, "trial_id": "mdp_trial_31", "block": "test", "trialIndex": 32, "score": 86.2, "costs": -2.8, "simulationMode": [null, null, null, null, null], "rewards": [1, 3, 4, -6, 87], "path": ["0", "0", "12", "13", "14", "15", "18"], "rt": [7582, 257, 209, 841, 655], "actions": ["right", "right", "right", "up", "left"], "actionTimes": [9580, 10334, 11053, 12401, 13549], "queries": {"click": {"state": {"target": ["5", "18"], "time": [3399, 6151]}, "edge": {"target": [], "time": []}}, "mouseover": {"state": {"target": ["12", "18", "4", "5", "18", "15", "17"], "time": [2442, 2508, 2924, 3107, 5725, 6541, 6608]}, "edge": {"target": [], "time": []}}, "mouseout": {"state": {"target": ["13", "12", "12", "18", "4", "5", "18", "15", "17", "17"], "time": [1357, 1441, 2458, 2574, 3058, 3641, 6525, 6574, 8708, 16626]}, "edge": {"target": [], "time": []}}}, "displayed_time": "16.00", "trialTime": 18367, "trial_type": "mouselab-mdp", "trial_index": 39, "time_elapsed": 1280839, "internal_node_id": "0.0-6.0-1.0-30.0"}}, {"uniqueid": "w45553621:a65974716", "current_trial": 40, "dateTime": 1693661939589, "trialdata": {"revealed_states": [], "clicked_states": ["27", "22"], "num_clicks_accrued": [0, 0, 0, 0, 0, 0, 0, 0, 0, 0, 0, 0, 0], "stateRewards": ["", -2, 1, -5, 2, -68, 80, 33, 10, 67, -59, 20, -1, -3, 3, 14, 74, -2, 24, -16, 63, 80, 46, -1, 4, 6, 12, 83, -38, -43, -4, 43, 14, -79], "withholdReward": false, "trial_id": "mdp_trial_32", "block": "test", "trialIndex": 33, "score": 101.2, "costs": -2.8, "simulationMode": [null, null, null, null, null], "rewards": [-1, 4, 6, 12, 83], "path": ["0", "0", "23", "24", "25", "26", "27"], "rt": [8029, 171, 102, 521, 334], "actions": ["left", "left", "left", "up", "up"], "actionTimes": [10830, 11522, 12120, 13156, 14002], "queries": {"click": {"state": {"target": ["27", "22"], "time": [3653, 7619]}, "edge": {"target": [], "time": []}}, "mouseover": {"state": {"target": ["28", "27", "10", "18", "13", "22", "23"], "time": [3149, 3399, 6784, 6865, 6915, 7066, 9649]}, "edge": {"target": [], "time": []}}, "mouseout": {"state": {"target": ["13", "12", "0", "28", "27", "10", "18", "13", "22", "23", "18"], "time": [1481, 1715, 3091, 3166, 3949, 6800, 6882, 6999, 7933, 9816, 15450]}, "edge": {"target": [], "time": []}}}, "displayed_time": "16.80", "trialTime": 19893, "trial_type": "mouselab-mdp", "trial_index": 40, "time_elapsed": 1300992, "internal_node_id": "0.0-6.0-1.0-31.0"}}, {"uniqueid": "w45553621:a65974716", "current_trial": 41, "dateTime": 1693661958799, "trialdata": {"revealed_states": [], "clicked_states": ["29", "18", "9"], "num_clicks_accrued": [0, 0, 0, 0, 0, 0, 0, 0, 0, 0, 0, 0, 0], "stateRewards": ["", 1, 3, -2, 15, 51, 15, -19, 11, 67, -45, -73, 2, 4, -2, -13, 36, 9, -28, 10, -30, 31, 16, 1, 2, -1, -16, 14, -22, 36, -1, 88, -5, 45], "withholdReward": false, "trial_id": "mdp_trial_33", "block": "test", "trialIndex": 34, "score": 75.8, "costs": -4.199999999999999, "simulationMode": [null, null, null, null, null], "rewards": [1, 3, -2, 11, 67], "path": ["0", "0", "1", "2", "3", "8", "9"], "rt": [12085, 77, 109, 684, 183], "actions": ["up", "up", "up", "left", "up"], "actionTimes": [13609, 14195, 14794, 15969, 16651], "queries": {"click": {"state": {"target": ["29", "18", "9"], "time": [2536, 5434, 8306]}, "edge": {"target": [], "time": []}}, "mouseover": {"state": {"target": ["0", "23", "24", "26", "29", "28", "10", "2", "7", "18", "5", "9", "3", "16", "14", "32"], "time": [1798, 1999, 2031, 2198, 2298, 2949, 4798, 4816, 4849, 5081, 7782, 8083, 8733, 8998, 12282, 12399]}, "edge": {"target": [], "time": []}}, "mouseout": {"state": {"target": ["7", "12", "0", "23", "24", "26", "29", "28", "10", "2", "7", "18", "5", "9", "3", "16", "14", "32"], "time": [915, 1032, 1965, 2015, 2064, 2248, 2815, 2965, 4815, 4831, 4882, 5798, 7799, 8666, 8749, 9015, 12300, 13082]}, "edge": {"target": [], "time": []}}}, "displayed_time": "17.17", "trialTime": 18883, "trial_type": "mouselab-mdp", "trial_index": 41, "time_elapsed": 1320201, "internal_node_id": "0.0-6.0-1.0-32.0"}}, {"uniqueid": "w45553621:a65974716", "current_trial": 42, "dateTime": 1693661982633, "trialdata": {"revealed_states": [], "clicked_states": ["32", "16", "9", "29", "21"], "num_clicks_accrued": [0, 0, 0, 0, 0, 0, 0, 0, 0, 0, 0, 0, 0], "stateRewards": ["", 2, -1, -3, 16, -3, -16, -62, -1, 13, -26, 43, -1, 4, 3, -9, -54, -37, -3, -12, -71, -68, -57, 1, -3, 2, -9, 2, -2, -9, -11, 84, -52, 55], "withholdReward": false, "trial_id": "mdp_trial_34", "block": "test", "trialIndex": 35, "score": 3, "costs": -7, "simulationMode": [null, null, null, null, null], "rewards": [2, -1, -3, -1, 13], "path": ["0", "0", "1", "2", "3", "8", "9"], "rt": [14839, 92, 118, 356, 203], "actions": ["up", "up", "up", "left", "up"], "actionTimes": [16981, 17585, 18195, 19066, 19780], "queries": {"click": {"state": {"target": ["32", "16", "9", "29", "21"], "time": [3059, 5909, 8493, 11460, 14436]}, "edge": {"target": [], "time": []}}, "mouseover": {"state": {"target": ["0", "32", "12", "15", "16", "4", "3", "8", "8", "9", "11", "27", "29", "4", "16", "20", "21"], "time": [2707, 2807, 5107, 5158, 5697, 7908, 7958, 8074, 8192, 8274, 10692, 10792, 11009, 13474, 13759, 13842, 14175]}, "edge": {"target": [], "time": []}}, "mouseout": {"state": {"target": ["0", "0", "32", "12", "15", "16", "4", "3", "8", "8", "9", "11", "27", "29", "4", "16", "20", "21"], "time": [2658, 2724, 3273, 5124, 5226, 5996, 7941, 7995, 8107, 8208, 10641, 10707, 10825, 11925, 13491, 13775, 13875, 14709]}, "edge": {"target": [], "time": []}}}, "displayed_time": "20.28", "trialTime": 23592, "trial_type": "mouselab-mdp", "trial_index": 42, "time_elapsed": 1344036, "internal_node_id": "0.0-6.0-1.0-33.0"}}, {"uniqueid": "w45553621:a65974716", "current_trial": 43, "dateTime": 1693662004260, "trialdata": {"revealed_states": [], "clicked_states": ["11", "17", "33", "27"], "num_clicks_accrued": [0, 0, 0, 0, 0, 0, 0, 0, 0, 0, 0, 0, 0], "stateRewards": ["", -1, 1, -6, -1, 80, 23, 2, -11, 73, -81, 59, 1, 3, 5, -1, -26, 28, -3, 16, -59, -13, -50, -2, -2, 2, 15, -50, 86, 17, -4, 37, 35, 44], "withholdReward": false, "trial_id": "mdp_trial_35", "block": "test", "trialIndex": 36, "score": 36.4, "costs": -5.6, "simulationMode": [null, null, null, null, null], "rewards": [-1, 1, -6, -11, 59], "path": ["0", "0", "1", "2", "3", "8", "11"], "rt": [13601, 95, 128, 647, 223], "actions": ["up", "up", "up", "left", "left"], "actionTimes": [15713, 16311, 16959, 18094, 18837], "queries": {"click": {"state": {"target": ["11", "17", "33", "27"], "time": [3180, 6501, 9564, 12741]}, "edge": {"target": [], "time": []}}, "mouseover": {"state": {"target": ["8", "11", "8", "3", "17", "1", "24", "30", "33", "31", "27", "28", "23"], "time": [2828, 2962, 3530, 3579, 5862, 8579, 8696, 8896, 9178, 11846, 12279, 13063, 13212]}, "edge": {"target": [], "time": []}}, "mouseout": {"state": {"target": ["0", "8", "11", "8", "3", "17", "1", "24", "30", "33", "31", "27", "28", "23"], "time": [1811, 2861, 3529, 3562, 3611, 6778, 8611, 8746, 8995, 9896, 11862, 13029, 13129, 13396]}, "edge": {"target": [], "time": []}}}, "displayed_time": "19.33", "trialTime": 21370, "trial_type": "mouselab-mdp", "trial_index": 43, "time_elapsed": 1365662, "internal_node_id": "0.0-6.0-1.0-34.0"}}, {"uniqueid": "w45553621:a65974716", "current_trial": 44, "dateTime": 1693662033591, "trialdata": {"revealed_states": [], "clicked_states": ["29", "9", "21", "32", "16", "5", "18"], "num_clicks_accrued": [0, 0, 0, 0, 0, 0, 0, 0, 0, 0, 0, 0, 0], "stateRewards": ["", -1, -2, 4, 9, 10, -75, 39, 16, -43, 88, -19, -1, 1, 2, 4, -31, 10, 73, 12, 41, -64, -81, -2, 2, -6, 1, -81, -1, -26, 3, -59, -3, -20], "withholdReward": false, "trial_id": "mdp_trial_36", "block": "test", "trialIndex": 37, "score": 69.2, "costs": -9.8, "simulationMode": [null, null, null, null, null], "rewards": [-1, 1, 2, 4, 73], "path": ["0", "0", "12", "13", "14", "15", "18"], "rt": [21211, 78, 101, 394, 513], "actions": ["right", "right", "right", "up", "left"], "actionTimes": [22942, 23528, 24135, 25027, 26030], "queries": {"click": {"state": {"target": ["29", "9", "21", "32", "16", "5", "18"], "time": [2875, 5692, 8171, 10603, 13492, 16755, 20012]}, "edge": {"target": [], "time": []}}, "mouseover": {"state": {"target": ["0", "0", "23", "28", "26", "29", "26", "10", "2", "3", "9", "4", "18", "19", "21", "20", "19", "22", "31", "32", "18", "16", "1", "24", "25", "24", "2", "4", "5", "18", "15"], "time": [1913, 2330, 2363, 2397, 2480, 2697, 3115, 3198, 3231, 5014, 5182, 7130, 7648, 7730, 7881, 9998, 10047, 10081, 10215, 10364, 12997, 13064, 15681, 15914, 15965, 16214, 16265, 16298, 16531, 19764, 20314]}, "edge": {"target": [], "time": []}}, "mouseout": {"state": {"target": ["0", "0", "0", "23", "28", "26", "29", "26", "10", "2", "3", "9", "4", "18", "19", "21", "20", "19", "22", "31", "32", "18", "16", "1", "24", "25", "24", "2", "4", "5", "18", "15"], "time": [1365, 2247, 2346, 2379, 2430, 2597, 3114, 3147, 3214, 3264, 5047, 6364, 7564, 7666, 7781, 8256, 10031, 10065, 10097, 10313, 10881, 13014, 13577, 15714, 15930, 16048, 16231, 16281, 16497, 16981, 20286, 20349]}, "edge": {"target": [], "time": []}}}, "displayed_time": "26.55", "trialTime": 29052, "trial_type": "mouselab-mdp", "trial_index": 44, "time_elapsed": 1394994, "internal_node_id": "0.0-6.0-1.0-35.0"}}, {"uniqueid": "w45553621:a65974716", "current_trial": 45, "dateTime": 1693662054771, "trialdata": {"revealed_states": [], "clicked_states": ["11", "18", "20"], "num_clicks_accrued": [0, 0, 0, 0, 0, 0, 0, 0, 0, 0, 0, 0, 0], "stateRewards": ["", -1, -4, -1, -5, -28, -23, -15, -15, -38, 59, -87, 2, 2, -5, 9, -55, -39, -71, -6, 85, -85, -11, -1, -2, 5, -10, 1, 25, 41, -4, 69, -35, 86], "withholdReward": false, "trial_id": "mdp_trial_37", "block": "test", "trialIndex": 38, "score": 73.8, "costs": -4.199999999999999, "simulationMode": [null, null, null, null, null], "rewards": [2, 2, -5, -6, 85], "path": ["0", "0", "12", "13", "14", "19", "20"], "rt": [10605, 268, 120, 498, 820], "actions": ["right", "right", "right", "down", "right"], "actionTimes": [12421, 13190, 13808, 14802, 16124], "queries": {"click": {"state": {"target": ["11", "18", "20"], "time": [2906, 6539, 9331]}, "edge": {"target": [], "time": []}}, "mouseover": {"state": {"target": ["10", "11", "8", "3", "4", "6", "16", "18", "15", "20"], "time": [2519, 2752, 3152, 3202, 3270, 3437, 5086, 5268, 6853, 8785]}, "edge": {"target": [], "time": []}}, "mouseout": {"state": {"target": ["16", "16", "18", "12", "0", "10", "11", "8", "3", "4", "6", "16", "18", "15", "20"], "time": [651, 735, 801, 985, 2151, 2551, 3136, 3186, 3235, 3402, 3468, 5118, 6819, 6902, 9602]}, "edge": {"target": [], "time": []}}}, "displayed_time": "16.62", "trialTime": 20918, "trial_type": "mouselab-mdp", "trial_index": 45, "time_elapsed": 1416174, "internal_node_id": "0.0-6.0-1.0-36.0"}}, {"uniqueid": "w45553621:a65974716", "current_trial": 46, "dateTime": 1693662072921, "trialdata": {"revealed_states": [], "clicked_states": ["29", "16", "32"], "num_clicks_accrued": [0, 0, 0, 0, 0, 0, 0, 0, 0, 0, 0, 0, 0], "stateRewards": ["", -2, -4, 6, 14, -34, 49, 36, -8, -3, 32, -4, 1, -2, 1, -8, -20, -71, -57, -7, -86, -62, -16, -2, -3, -5, 11, 23, -21, 53, 5, -5, 85, 73], "withholdReward": false, "trial_id": "mdp_trial_38", "block": "test", "trialIndex": 39, "score": 75.8, "costs": -4.199999999999999, "simulationMode": [null, null, null, null, null], "rewards": [-2, -3, -5, 5, 85], "path": ["0", "0", "23", "24", "25", "30", "32"], "rt": [10578, 143, 94, 531, 210], "actions": ["left", "left", "left", "down", "down"], "actionTimes": [12405, 13053, 13653, 14674, 15386], "queries": {"click": {"state": {"target": ["29", "16", "32"], "time": [2959, 6526, 9494]}, "edge": {"target": [], "time": []}}, "mouseover": {"state": {"target": ["1", "26", "29", "26", "28", "10", "4", "6", "16", "16", "32"], "time": [2407, 2540, 2790, 3491, 3525, 5258, 5340, 5373, 5524, 5790, 9124]}, "edge": {"target": [], "time": []}}, "mouseout": {"state": {"target": ["19", "22", "0", "1", "26", "29", "26", "28", "10", "4", "6", "16", "16", "16", "32"], "time": [1039, 1156, 2316, 2440, 2573, 3223, 3524, 3558, 5290, 5356, 5389, 5657, 6858, 8557, 9757]}, "edge": {"target": [], "time": []}}}, "displayed_time": "15.88", "trialTime": 17871, "trial_type": "mouselab-mdp", "trial_index": 46, "time_elapsed": 1434323, "internal_node_id": "0.0-6.0-1.0-37.0"}}, {"uniqueid": "w45553621:a65974716", "current_trial": 47, "dateTime": 1693662100096, "trialdata": {"revealed_states": [], "clicked_states": ["27", "18", "20", "33", "5", "9", "29"], "num_clicks_accrued": [0, 0, 0, 0, 0, 0, 0, 0, 0, 0, 0, 0, 0], "stateRewards": ["", -1, -3, -7, -7, -76, 30, -49, 11, -70, 56, 2, 1, 4, -3, -14, -59, -83, -25, -9, -21, -67, -73, -2, 4, 4, -9, -11, -32, 60, 9, -87, 22, -64], "withholdReward": false, "trial_id": "mdp_trial_39", "block": "test", "trialIndex": 40, "score": 47.2, "costs": -9.8, "simulationMode": [null, null, null, null, null], "rewards": [-2, 4, 4, -9, 60], "path": ["0", "0", "23", "24", "25", "26", "29"], "rt": [19251, 157, 142, 371, 593], "actions": ["left", "left", "left", "up", "left"], "actionTimes": [21203, 21853, 22487, 23365, 24454], "queries": {"click": {"state": {"target": ["27", "18", "20", "33", "5", "9", "29"], "time": [2969, 5609, 8313, 10872, 13289, 15962, 18377]}, "edge": {"target": [], "time": []}}, "mouseover": {"state": {"target": ["2", "10", "27", "10", "7", "18", "15", "20", "30", "33", "4", "5", "9", "8", "27", "29", "25", "24"], "time": [2492, 2541, 2809, 4975, 5024, 5309, 5909, 8009, 10526, 10659, 12826, 13028, 15559, 17910, 17993, 18126, 18709, 18777]}, "edge": {"target": [], "time": []}}, "mouseout": {"state": {"target": ["0", "7", "0", "2", "10", "27", "10", "7", "18", "15", "20", "30", "33", "4", "5", "5", "9", "8", "27", "29", "25", "24"], "time": [791, 1291, 2058, 2525, 2558, 3158, 4991, 5042, 5875, 5925, 8592, 10592, 11110, 12876, 14776, 15227, 17509, 17942, 18009, 18592, 18742, 18809]}, "edge": {"target": [], "time": []}}}, "displayed_time": "24.94", "trialTime": 26896, "trial_type": "mouselab-mdp", "trial_index": 47, "time_elapsed": 1461499, "internal_node_id": "0.0-6.0-1.0-38.0"}}, {"uniqueid": "w45553621:a65974716", "current_trial": 48, "dateTime": 1693662132836, "trialdata": {"revealed_states": [], "clicked_states": ["29", "18", "20", "33", "32", "9", "7", "5", "6"], "num_clicks_accrued": [0, 0, 0, 0, 0, 0, 0, 0, 0, 0, 0, 0, 0], "stateRewards": ["", 1, -1, 8, -3, 38, 85, -20, -4, 8, 23, 73, 2, -4, 6, -13, 44, 7, -28, -11, -77, 45, -69, 1, -1, -7, -11, 75, -51, -87, 7, 36, -53, -26], "withholdReward": false, "trial_id": "mdp_trial_40", "block": "test", "trialIndex": 41, "score": 77.4, "costs": -12.600000000000001, "simulationMode": [null, null, null, null, null], "rewards": [1, -1, 8, -3, 85], "path": ["0", "0", "1", "2", "3", "4", "6"], "rt": [24482, 110, 72, 527, 98], "actions": ["up", "up", "up", "right", "right"], "actionTimes": [26736, 27338, 27899, 28938, 29542], "queries": {"click": {"state": {"target": ["29", "18", "20", "33", "32", "9", "7", "5", "6"], "time": [3287, 5960, 8511, 10959, 13215, 15647, 18271, 20672, 23696]}, "edge": {"target": [], "time": []}}, "mouseover": {"state": {"target": ["1", "10", "26", "29", "28", "18", "15", "17", "20", "19", "22", "31", "30", "33", "30", "31", "32", "0", "1", "2", "3", "9", "4", "7", "4", "5", "5", "4", "6"], "time": [2623, 2707, 2890, 3040, 3940, 5773, 6373, 6424, 8091, 10357, 10375, 10441, 10474, 10741, 11257, 11324, 12958, 15108, 15125, 15142, 15158, 15474, 17891, 18042, 20143, 20174, 20442, 21009, 23375]}, "edge": {"target": [], "time": []}}, "mouseout": {"state": {"target": ["0", "1", "10", "26", "29", "28", "18", "15", "17", "20", "19", "22", "31", "30", "33", "30", "31", "32", "0", "1", "2", "3", "9", "4", "7", "7", "4", "5", "5", "5", "4", "6"], "time": [1806, 2657, 2757, 3006, 3540, 3991, 6342, 6407, 6440, 10341, 10374, 10391, 10457, 10541, 11241, 11291, 11658, 13390, 15124, 15140, 15157, 15174, 15958, 17974, 18575, 20142, 20157, 20191, 20732, 20958, 21292, 24126]}, "edge": {"target": [], "time": []}}}, "displayed_time": "30.04", "trialTime": 32466, "trial_type": "mouselab-mdp", "trial_index": 48, "time_elapsed": 1494239, "internal_node_id": "0.0-6.0-1.0-39.0"}}, {"uniqueid": "w45553621:a65974716", "current_trial": 49, "dateTime": 1693662233843, "trialdata": {"rt": 101002, "response": {"Q0": "$-16 to 16", "Q1": "$-32 to $32", "Q2": "$-88 to $88", "Q3": "The cost for clicking on nodes varied between nodes.", "Q4": "Very motivated"}, "question_order": [0, 1, 2, 3, 4], "trial_id": "final_quiz_control", "trial_type": "survey-multi-choice", "trial_index": 49, "time_elapsed": 1595245, "internal_node_id": "0.0-6.0-2.0"}}, {"uniqueid": "w45553621:a65974716", "current_trial": 50, "dateTime": 1693662661503, "trialdata": {"rt": 427647, "response": {"Q0": "as the outside circle ended the round, I only used the inspector to see the value of these as I would definitely have to move the spider to one of these to end the round. If I found an ending circle at 40 points or higher than I went straight to that so that I could guarantee at least one circle with a high value. ", "Q1": "At first, i wanted to minimize the clicks/cost of the inspector so give a maximum of 6 per round, once I realized that the points went to around 90, I would give myself a few extra clicks to find a higher value if I found a circle with around 40 point early on.", "Q2": "I personally didn't find it difficult using the strategy of identifying a high scoring end circle, seemed to work for the majority of the rounds "}, "trial_id": "self_report_control", "trial_type": "survey-text", "trial_index": 50, "time_elapsed": 2022906, "internal_node_id": "0.0-6.0-3.0"}}, {"uniqueid": "w45553621:a65974716", "current_trial": 51, "dateTime": 1693662733496, "trialdata": {"rt": 71990, "response": {"gender": "male", "age": "39", "colorblind": "0", "effort": "0"}, "trial_type": "survey-html-form", "trial_index": 51, "time_elapsed": 2094899, "internal_node_id": "0.0-6.0-4.0"}}, {"uniqueid": "w45553621:a65974716", "current_trial": 52, "dateTime": 1693662828891, "trialdata": {"rt": 95390, "response": {"Q0": "no, instructions were clear", "Q1": "I don't remember completing it before but have completed a few similar on prolific", "Q2": "n/a"}, "trial_type": "survey-text", "trial_index": 52, "time_elapsed": 2190294, "internal_node_id": "0.0-6.0-5.0"}}, {"uniqueid": "w45553621:a65974716", "current_trial": 53, "dateTime": 1693662868668, "trialdata": {"rt": 39774, "stimulus": "<h1>Completion Code Instructions (1/2)</h1>\n<br><br><br><br>\nYou have reached the end of the experiment! The completion code consists of two parts: (1) a code with 2 characters (2) a code with 6 characters. On this page, you will receive the second part of the code. The first part of the completion code will be on the next page.\n<br><br>\nThe second part of your completion code is: <b>EWEK22</b>\n<br><br>\nPlease note this down. Then, press 'Next' in order to find the first part of your completion code. Once the data has been saved, you will receive this code either in this window or in the original browser window where you started the experiment.\n <br><br>\n<h2 style='color: red;'>Note: this is <strong>NOT</strong> the full completion code. Copy this down and click 'Next' to get the full completion code on the next page.</h2>", "response": 0, "trial_type": "html-button-response", "trial_index": 53, "time_elapsed": 2230071, "internal_node_id": "0.0-6.0-6.0"}}, {"uniqueid": "w45553621:a65974716", "current_trial": 54, "dateTime": 1693662869673, "trialdata": {"success": true, "trial_type": "fullscreen", "trial_index": 54, "time_elapsed": 2231076, "internal_node_id": "0.0-7.0"}}], "questiondata": {"params": {"CODE": "C6DMOQA6", "MIN_TIME": 14, "inspectCost": 1, "startTime": "Sat Sep 02 2023 14:17:17 GMT+0100 (British Summer Time)", "bonusRate": 0.002, "variance": "1_2_4_8_44", "branching": "31123"}, "final_score": 2088.4}, "eventdata": [{"eventtype": "initialized", "value": null, "timestamp": 1693660637467, "interval": 0}, {"eventtype": "window_resize", "value": [1536, 758], "timestamp": 1693660637467, "interval": 0}, {"eventtype": "window_resize", "value": [1536, 758], "timestamp": 1693660637790, "interval": 323}, {"eventtype": "window_resize", "value": [1536, 864], "timestamp": 1693660641026, "interval": 3236}, {"eventtype": "window_resize", "value": [1536, 758], "timestamp": 1693662868927, "interval": 2227901}], "useragent": "Mozilla/5.0 (Windows NT 10.0; Win64; x64) AppleWebKit/537.36 (KHTML, like Gecko) Chrome/116.0.0.0 Safari/537.36", "mode": "live", "id": "w45553621:a65974716", "status": "user data saved", "Beginhit": "2023-09-02 13:17:15.83934", "Beginexp": "2023-09-02 13:17:21.647688", "Endhit": "2023-09-02 13:54:30.255135", "psiturkStatus": 3, "browser": "<redacted>", "platform": "windows", "language": "en-US"}