{"condition": 1, "counterbalance": 0, "assignmentId": "a95726648", "workerId": "w40013214", "hitId": "h23283297", "currenttrial": 56, "bonus": 0, "data": [{"uniqueid": "w40013214:a95726648", "current_trial": 0, "dateTime": 1693564742457, "trialdata": {"success": true, "trial_type": "fullscreen", "trial_index": 0, "time_elapsed": 6621, "internal_node_id": "0.0-0.0"}}, {"uniqueid": "w40013214:a95726648", "current_trial": 1, "dateTime": 1693564759948, "trialdata": {"view_history": [{"page_index": 0, "viewing_time": 17486}], "rt": 17486, "trial_id": "exp_instructions_misaligned", "trial_type": "instructions", "trial_index": 1, "time_elapsed": 24112, "internal_node_id": "0.0-1.0"}}, {"uniqueid": "w40013214:a95726648", "current_trial": 2, "dateTime": 1693565044921, "trialdata": {"view_history": [{"page_index": 0, "viewing_time": 78289}, {"page_index": 1, "viewing_time": 113504}, {"page_index": 2, "viewing_time": 37585}, {"page_index": 3, "viewing_time": 55594}], "rt": 284972, "trial_id": "mouselab_instructions_1_misaligned", "trial_type": "instructions", "trial_index": 2, "time_elapsed": 309085, "internal_node_id": "0.0-2.0-1.0"}}, {"uniqueid": "w40013214:a95726648", "current_trial": 3, "dateTime": 1693565076601, "trialdata": {"revealed_states": [], "clicked_states": ["1", "3", "12", "14", "24", "29", "33", "6", "21", "23"], "num_clicks_accrued": [0, 0, 0, 0, 0, 0, 0, 0, 0, 0, 0, 0, 0], "stateRewards": ["", -10, -10, -10, 10, -10, 10, 10, -10, -10, 10, 10, -10, 10, -10, -10, -10, 10, -10, -10, -10, -10, 10, 10, -10, 10, 10, 10, 10, -10, -10, -10, -10, 10], "withholdReward": false, "trial_id": "practice_1", "block": "test", "trialIndex": 0, "score": 8.5, "costs": -5, "simulationMode": [null, null, null, null, null], "rewards": [10, -10, 10, -10, 10], "path": ["0", "0", "23", "24", "25", "30", "33"], "rt": [20158, 1078, 650, 1023, 186], "actions": ["left", "left", "left", "down", "left"], "actionTimes": [23727, 25317, 26487, 28023, 28721], "queries": {"click": {"state": {"target": ["1", "3", "12", "14", "24", "29", "33", "6", "21", "23"], "time": [5164, 6411, 8037, 9562, 12767, 14484, 15854, 16946, 18601, 20075]}, "edge": {"target": [], "time": []}}, "mouseover": {"state": {"target": ["1", "2", "3", "2", "0", "0", "12", "13", "14", "31", "24", "28", "28", "26", "29", "33", "30", "7", "6", "6", "4", "7", "14", "19", "21", "21", "1", "23"], "time": [4766, 5503, 6135, 6701, 6752, 7100, 7730, 8482, 9146, 9998, 10263, 13296, 14025, 14081, 14224, 14929, 16230, 16291, 16325, 16841, 17374, 17757, 17841, 17890, 18005, 18378, 19473, 19838]}, "edge": {"target": [], "time": []}}, "mouseout": {"state": {"target": ["0", "1", "2", "3", "3", "2", "1", "0", "0", "12", "13", "14", "31", "24", "28", "28", "26", "29", "33", "30", "24", "7", "6", "6", "4", "7", "14", "19", "21", "21", "1", "23"], "time": [4683, 5419, 6070, 6494, 6699, 6717, 6750, 6766, 7166, 8350, 9112, 9830, 10130, 13263, 13512, 14042, 14141, 14843, 16227, 16241, 16260, 16308, 16341, 17344, 17442, 17774, 17857, 17961, 18123, 19358, 19491, 21420]}, "edge": {"target": [], "time": []}}}, "displayed_time": "29.23", "trialTime": 31274, "trial_type": "mouselab-mdp", "trial_index": 3, "time_elapsed": 340764, "internal_node_id": "0.0-2.0-2.0-0.0"}}, {"uniqueid": "w40013214:a95726648", "current_trial": 4, "dateTime": 1693565093147, "trialdata": {"revealed_states": [], "clicked_states": ["3", "19", "30", "26"], "num_clicks_accrued": [0, 0, 0, 0, 0, 0, 0, 0, 0, 0, 0, 0, 0], "stateRewards": ["", -10, -10, -10, 10, 10, 10, -10, -10, 10, -10, 10, 10, -10, -10, 10, -10, -10, 10, -10, 10, -10, 10, -10, 10, 10, 10, -10, 10, 10, 10, 10, -10, 10], "withholdReward": false, "trial_id": "practice_2", "block": "test", "trialIndex": 1, "score": 31.5, "costs": -2, "simulationMode": [null, null, null, null, null], "rewards": [-10, 10, 10, 10, 10], "path": ["0", "0", "23", "24", "25", "30", "31"], "rt": [7723, 69, 185, 117, 336], "actions": ["left", "left", "left", "down", "right"], "actionTimes": [11260, 11839, 12536, 13168, 14019], "queries": {"click": {"state": {"target": ["3", "19", "30", "26"], "time": [5190, 6437, 7558, 8921]}, "edge": {"target": [], "time": []}}, "mouseover": {"state": {"target": ["1", "2", "3", "2", "1", "12", "13", "19", "22", "31", "30", "25", "26", "28", "1", "12"], "time": [4305, 4339, 4490, 5507, 5557, 5671, 5754, 5938, 6906, 7156, 7289, 8104, 8337, 9402, 9486, 10068]}, "edge": {"target": [], "time": []}}, "mouseout": {"state": {"target": ["0", "0", "1", "2", "3", "3", "2", "1", "12", "13", "19", "22", "31", "30", "25", "26", "28", "1", "12"], "time": [741, 4253, 4322, 4422, 5254, 5488, 5522, 5605, 5705, 5788, 6872, 6925, 7222, 7626, 8238, 9386, 9436, 9519, 10084]}, "edge": {"target": [], "time": []}}}, "displayed_time": "14.53", "trialTime": 16401, "trial_type": "mouselab-mdp", "trial_index": 4, "time_elapsed": 357310, "internal_node_id": "0.0-2.0-2.0-1.0"}}, {"uniqueid": "w40013214:a95726648", "current_trial": 5, "dateTime": 1693565120411, "trialdata": {"view_history": [{"page_index": 0, "viewing_time": 24119}, {"page_index": 1, "viewing_time": 3145}], "rt": 27264, "trial_id": "mouselab_instructions_2_misaligned", "trial_type": "instructions", "trial_index": 5, "time_elapsed": 384574, "internal_node_id": "0.0-2.0-3.0"}}, {"uniqueid": "w40013214:a95726648", "current_trial": 6, "dateTime": 1693565159907, "trialdata": {"rt": 39488, "response": {"Q0": "The cost for clicking on nodes may vary between nodes.", "Q1": "The better I perform the higher my bonus will be.", "Q2": "No, the amount of cash at each node of the web may be different each time.", "Q3": "To get the highest total score.", "Q4": "Only before moving the spider.", "Q5": "3 seconds"}, "question_order": [0, 1, 2, 3, 4, 5], "correct": {"Q0": "The cost for clicking on nodes may vary between nodes.", "Q1": "The better I perform the higher my bonus will be.", "Q2": "No, the amount of cash at each node of the web may be different each time.", "Q3": "To get the highest total score.", "Q4": "Only before moving the spider.", "Q5": "3 seconds"}, "trial_id": "mouselab_quiz_misaligned", "trial_type": "survey-multi-choice", "trial_index": 6, "time_elapsed": 424071, "internal_node_id": "0.0-2.0-4.0"}}, {"uniqueid": "w40013214:a95726648", "current_trial": 7, "dateTime": 1693565166592, "trialdata": {"rt": 6674, "response": {"Q0": "No"}, "question_order": [0], "trial_id": "repeat_check", "trial_type": "survey-multi-choice", "trial_index": 7, "time_elapsed": 430755, "internal_node_id": "0.0-4.0-0.0"}}, {"uniqueid": "w40013214:a95726648", "current_trial": 8, "dateTime": 1693565171136, "trialdata": {"rt": 4531, "stimulus": "\n<h1> Get ready to start the game! </h1>\n\nThank you for reading the instructions. Get ready start with the 40 rounds of this game.\n<br><br>\nIf you need to take a break, feel free to take one after the end of a round, before continuing to the next one.\n<br><br>\nRemember, the more money the spider gets, the bigger your bonus will be!\n<br><br>\n<div style='text-align: center;'>Press <code>space</code> to begin.</div>\n\n<br><br>\n(If, at any point, the <code>space</code> key does not take you to the next page, click once on the text and try again.)", "response": " ", "trial_id": "mdp_ready", "trial_type": "html-keyboard-response", "trial_index": 8, "time_elapsed": 435300, "internal_node_id": "0.0-6.0-0.0"}}, {"uniqueid": "w40013214:a95726648", "current_trial": 9, "dateTime": 1693565192828, "trialdata": {"revealed_states": [], "clicked_states": ["3", "14", "25"], "num_clicks_accrued": [0, 0, 0, 0, 0, 0, 0, 0, 0, 0, 0, 0, 0], "stateRewards": ["", -1, 3, 8, 10, -86, 61, -36, 10, 17, -60, 24, -1, -3, 3, 11, 50, 60, 33, -3, -20, 58, -6, 1, -4, -4, 13, -70, -71, 43, 14, 52, 82, -11], "withholdReward": false, "trial_id": "mdp_trial_1", "block": "test", "trialIndex": 2, "score": -26.85, "costs": -2.8499999999999996, "simulationMode": [null, null, null, null, null], "rewards": [-1, -3, 3, -3, -20], "path": ["0", "0", "12", "13", "14", "19", "20"], "rt": [5319, 65, 61, 244, 74], "actions": ["right", "right", "right", "down", "right"], "actionTimes": [7324, 7903, 8481, 9249, 9845], "queries": {"click": {"state": {"target": ["3", "14", "25"], "time": [3063, 4193, 5336]}, "edge": {"target": [], "time": []}}, "mouseover": {"state": {"target": ["1", "2", "3", "7", "18", "14", "13", "12", "25", "24"], "time": [2472, 2506, 2788, 3325, 3390, 3707, 4653, 4672, 5004, 6153]}, "edge": {"target": [], "time": []}}, "mouseout": {"state": {"target": ["0", "1", "2", "3", "7", "18", "14", "13", "12", "25", "24"], "time": [2427, 2488, 2740, 3293, 3343, 3526, 4638, 4670, 4688, 6120, 6220]}, "edge": {"target": [], "time": []}}}, "displayed_time": "16.02", "trialTime": 21514, "trial_type": "mouselab-mdp", "trial_index": 9, "time_elapsed": 456991, "internal_node_id": "0.0-6.0-1.0-0.0"}}, {"uniqueid": "w40013214:a95726648", "current_trial": 10, "dateTime": 1693565215643, "trialdata": {"revealed_states": [], "clicked_states": ["25", "26", "27", "14", "16", "15"], "num_clicks_accrued": [0, 0, 0, 0, 0, 0, 0, 0, 0, 0, 0, 0, 0], "stateRewards": ["", 2, -2, -8, 9, -20, 55, -58, 14, 42, 2, 36, 1, -3, -5, 5, -58, 57, 60, 16, 57, 30, -70, -2, 1, 3, 10, 59, 23, 77, -13, -26, 88, -72], "withholdReward": false, "trial_id": "mdp_trial_2", "block": "test", "trialIndex": 3, "score": 45.7, "costs": -9.3, "simulationMode": [null, null, null, null, null], "rewards": [1, -3, -5, 5, 57], "path": ["0", "0", "12", "13", "14", "15", "17"], "rt": [11815, 554, 386, 241, 136], "actions": ["right", "right", "right", "up", "right"], "actionTimes": [14266, 15347, 16246, 17000, 17659], "queries": {"click": {"state": {"target": ["25", "26", "27", "14", "16", "15"], "time": [3372, 3898, 4440, 7538, 8454, 11642]}, "edge": {"target": [], "time": []}}, "mouseover": {"state": {"target": ["23", "24", "25", "26", "27", "28", "19", "19", "21", "19", "14", "15", "16", "16", "15", "14", "19", "21"], "time": [2733, 2783, 3066, 3585, 4133, 4569, 4732, 5033, 5649, 6464, 7147, 7982, 8082, 8447, 8932, 12809, 13024, 13409]}, "edge": {"target": [], "time": []}}, "mouseout": {"state": {"target": ["23", "0", "23", "24", "25", "26", "27", "27", "28", "19", "19", "21", "19", "14", "15", "16", "16", "16", "15", "14", "19"], "time": [736, 2702, 2767, 2833, 3501, 3972, 4504, 4566, 4585, 4933, 5515, 6281, 7098, 7620, 8048, 8232, 8489, 8864, 12694, 12941, 13241]}, "edge": {"target": [], "time": []}}}, "displayed_time": "18.18", "trialTime": 22643, "trial_type": "mouselab-mdp", "trial_index": 10, "time_elapsed": 479806, "internal_node_id": "0.0-6.0-1.0-1.0"}}, {"uniqueid": "w40013214:a95726648", "current_trial": 11, "dateTime": 1693565354720, "trialdata": {"revealed_states": [], "clicked_states": ["2", "3", "9", "30", "33"], "num_clicks_accrued": [0, 0, 0, 0, 0, 0, 0, 0, 0, 0, 0, 0, 0], "stateRewards": ["", 2, 3, 6, -12, -29, 12, 87, 4, 35, -30, 67, 2, 3, -5, -9, 44, 69, -8, 1, 45, -8, 28, -2, -1, -8, 11, -12, -5, 81, 9, 87, 82, 88], "withholdReward": false, "trial_id": "mdp_trial_3", "block": "test", "trialIndex": 4, "score": 78.85, "costs": -7.15, "simulationMode": [null, null, null, null, null], "rewards": [-2, -1, -8, 9, 88], "path": ["0", "0", "23", "24", "25", "30", "33"], "rt": [9562, 291, 836, 201, 107], "actions": ["left", "left", "left", "down", "left"], "actionTimes": [18756, 19567, 20925, 21641, 22261], "queries": {"click": {"state": {"target": ["2", "3", "9", "30", "33"], "time": [10354, 10973, 11791, 14585, 15465]}, "edge": {"target": [], "time": []}}, "mouseover": {"state": {"target": ["1", "2", "2", "3", "8", "9", "9", "26", "25", "30", "33", "30", "33", "32", "32"], "time": [9697, 9745, 10048, 10582, 11265, 11348, 11481, 12313, 12430, 12513, 12746, 14162, 15093, 15923, 16258]}, "edge": {"target": [], "time": []}}, "mouseout": {"state": {"target": ["21", "0", "1", "2", "2", "3", "8", "9", "9", "26", "25", "30", "33", "30", "33", "32", "32"], "time": [5351, 9674, 9729, 9846, 10532, 11248, 11298, 11365, 12147, 12347, 12463, 12629, 14129, 14993, 15874, 16023, 17574]}, "edge": {"target": [], "time": []}}}, "displayed_time": "23.20", "trialTime": 138926, "trial_type": "mouselab-mdp", "trial_index": 11, "time_elapsed": 618884, "internal_node_id": "0.0-6.0-1.0-2.0"}}, {"uniqueid": "w40013214:a95726648", "current_trial": 12, "dateTime": 1693565377287, "trialdata": {"revealed_states": [], "clicked_states": ["33", "9", "17", "20"], "num_clicks_accrued": [0, 0, 0, 0, 0, 0, 0, 0, 0, 0, 0, 0, 0], "stateRewards": ["", -1, -3, -7, -7, -76, 30, -49, 11, -70, 56, 2, 1, 4, -3, -14, -59, -83, -25, -9, -21, -67, -73, -2, 4, 4, -9, -11, -32, 60, 9, -87, 22, -64], "withholdReward": false, "trial_id": "mdp_trial_4", "block": "test", "trialIndex": 5, "score": 3.3999999999999986, "costs": -8.6, "simulationMode": [null, null, null, null, null], "rewards": [-1, -3, -7, -7, 30], "path": ["0", "0", "1", "2", "3", "4", "6"], "rt": [12908, 47, 107, 235, 203], "actions": ["up", "up", "up", "right", "right"], "actionTimes": [14191, 14749, 15387, 16136, 16852], "queries": {"click": {"state": {"target": ["33", "9", "17", "20"], "time": [2102, 4926, 7759, 11280]}, "edge": {"target": [], "time": []}}, "mouseover": {"state": {"target": ["23", "24", "25", "33", "29", "29", "26", "28", "10", "8", "9", "3", "17", "20", "20", "20"], "time": [1581, 1608, 1715, 1807, 2424, 2724, 3292, 3390, 4257, 4539, 4656, 5746, 6121, 8322, 8455, 8570]}, "edge": {"target": [], "time": []}}, "mouseout": {"state": {"target": ["0", "23", "24", "25", "33", "29", "29", "26", "28", "10", "8", "9", "3", "17", "20", "20", "20"], "time": [711, 1591, 1657, 1758, 2342, 2458, 3275, 3325, 4243, 4291, 4556, 5744, 5772, 7860, 8339, 8470, 13251]}, "edge": {"target": [], "time": []}}}, "displayed_time": "17.36", "trialTime": 22401, "trial_type": "mouselab-mdp", "trial_index": 12, "time_elapsed": 641450, "internal_node_id": "0.0-6.0-1.0-3.0"}}, {"uniqueid": "w40013214:a95726648", "current_trial": 13, "dateTime": 1693565412633, "trialdata": {"revealed_states": [], "clicked_states": ["33", "28", "11", "7", "17", "20", "18"], "num_clicks_accrued": [0, 0, 0, 0, 0, 0, 0, 0, 0, 0, 0, 0, 0], "stateRewards": ["", 1, 1, -3, 2, 22, -25, -11, -5, 50, 49, 3, 1, -1, 8, 14, -85, -30, 57, -6, -39, -16, 59, -2, -1, 5, 5, 59, -16, 8, 4, 67, 56, -9], "withholdReward": false, "trial_id": "mdp_trial_5", "block": "test", "trialIndex": 6, "score": 63.95, "costs": -15.05, "simulationMode": [null, null, null, null, null], "rewards": [1, -1, 8, 14, 57], "path": ["0", "0", "12", "13", "14", "15", "18"], "rt": [24015, 707, 552, 609, 1139], "actions": ["right", "right", "right", "up", "left"], "actionTimes": [25580, 26805, 27866, 28986, 30632], "queries": {"click": {"state": {"target": ["33", "28", "11", "7", "17", "20", "18"], "time": [3012, 6105, 9215, 12387, 15517, 18762, 21934]}, "edge": {"target": [], "time": []}}, "mouseover": {"state": {"target": ["23", "24", "25", "30", "33", "25", "28", "11", "8", "3", "4", "6", "7", "15", "17", "20", "20", "14", "18"], "time": [2040, 2100, 2147, 2432, 2582, 3546, 3713, 7612, 10362, 10409, 10526, 10726, 11376, 14404, 14453, 16222, 16537, 21000, 21317]}, "edge": {"target": [], "time": []}}, "mouseout": {"state": {"target": ["0", "23", "24", "25", "30", "33", "25", "28", "11", "8", "3", "4", "6", "7", "15", "17", "20", "20", "14", "18"], "time": [2037, 2064, 2131, 2415, 2464, 3137, 3597, 7362, 10359, 10393, 10443, 10625, 11276, 14321, 14421, 16138, 16289, 20835, 21101, 32144]}, "edge": {"target": [], "time": []}}}, "displayed_time": "31.14", "trialTime": 35174, "trial_type": "mouselab-mdp", "trial_index": 13, "time_elapsed": 676796, "internal_node_id": "0.0-6.0-1.0-4.0"}}, {"uniqueid": "w40013214:a95726648", "current_trial": 14, "dateTime": 1693565431040, "trialdata": {"revealed_states": [], "clicked_states": ["29"], "num_clicks_accrued": [0, 0, 0, 0, 0, 0, 0, 0, 0, 0, 0, 0, 0], "stateRewards": ["", -2, 2, -5, -6, 10, -66, -58, -10, -11, -63, -70, -1, -4, -5, 7, 66, -64, -43, -3, 45, -37, 4, -2, -2, -6, -4, -30, 33, 43, 15, -32, -65, -59], "withholdReward": false, "trial_id": "mdp_trial_6", "block": "test", "trialIndex": 7, "score": 26.85, "costs": -2.15, "simulationMode": [null, null, null, null, null], "rewards": [-2, -2, -6, -4, 43], "path": ["0", "0", "23", "24", "25", "26", "29"], "rt": [5006, 185, 204, 188, 277], "actions": ["left", "left", "left", "up", "left"], "actionTimes": [7004, 7706, 8422, 9122, 9914], "queries": {"click": {"state": {"target": ["29"], "time": [2991]}, "edge": {"target": [], "time": []}}, "mouseover": {"state": {"target": ["23", "24", "25", "26", "29", "27"], "time": [2289, 2336, 2387, 2454, 2605, 3704]}, "edge": {"target": [], "time": []}}, "mouseout": {"state": {"target": ["0", "23", "24", "25", "26", "29", "27"], "time": [2271, 2305, 2354, 2421, 2505, 3536, 11765]}, "edge": {"target": [], "time": []}}}, "displayed_time": "16.00", "trialTime": 18242, "trial_type": "mouselab-mdp", "trial_index": 14, "time_elapsed": 695203, "internal_node_id": "0.0-6.0-1.0-5.0"}}, {"uniqueid": "w40013214:a95726648", "current_trial": 15, "dateTime": 1693565451336, "trialdata": {"revealed_states": [], "clicked_states": ["31", "32", "33"], "num_clicks_accrued": [0, 0, 0, 0, 0, 0, 0, 0, 0, 0, 0, 0, 0], "stateRewards": ["", 1, -1, 4, -2, -75, -75, 84, -9, -60, -79, 59, 2, -4, 8, 9, -17, -82, 80, 14, -4, 49, 49, -1, 3, 6, -11, -33, 34, 55, 9, -57, 5, 59], "withholdReward": false, "trial_id": "mdp_trial_7", "block": "test", "trialIndex": 8, "score": 69.55, "costs": -6.449999999999999, "simulationMode": [null, null, null, null, null], "rewards": [-1, 3, 6, 9, 59], "path": ["0", "0", "23", "24", "25", "30", "33"], "rt": [11927, 95, 195, 104, 125], "actions": ["left", "left", "left", "down", "left"], "actionTimes": [13522, 14126, 14843, 15468, 16106], "queries": {"click": {"state": {"target": ["31", "32", "33"], "time": [2864, 6225, 9427]}, "edge": {"target": [], "time": []}}, "mouseover": {"state": {"target": ["31", "31", "31", "32", "33", "29"], "time": [1939, 2089, 2584, 3339, 6851, 11766]}, "edge": {"target": [], "time": []}}, "mouseout": {"state": {"target": ["30", "31", "23", "0", "31", "31", "31", "32", "33"], "time": [573, 639, 843, 1857, 2006, 2289, 3257, 6719, 11598]}, "edge": {"target": [], "time": []}}}, "displayed_time": "16.63", "trialTime": 20123, "trial_type": "mouselab-mdp", "trial_index": 15, "time_elapsed": 715500, "internal_node_id": "0.0-6.0-1.0-6.0"}}, {"uniqueid": "w40013214:a95726648", "current_trial": 16, "dateTime": 1693565468626, "trialdata": {"revealed_states": [], "clicked_states": ["10", "11"], "num_clicks_accrued": [0, 0, 0, 0, 0, 0, 0, 0, 0, 0, 0, 0, 0], "stateRewards": ["", -1, -3, -3, 1, -38, 2, -53, -2, -1, -81, 70, -1, 1, -5, -9, 46, 15, 35, -1, -22, 38, 59, -2, 4, -8, 13, 1, -83, -43, 4, 76, 13, 48], "withholdReward": false, "trial_id": "mdp_trial_8", "block": "test", "trialIndex": 9, "score": 56.7, "costs": -4.3, "simulationMode": [null, null, null, null, null], "rewards": [-1, -3, -3, -2, 70], "path": ["0", "0", "1", "2", "3", "8", "11"], "rt": [8936, 90, 81, 56, 102], "actions": ["up", "up", "up", "left", "left"], "actionTimes": [10576, 11185, 11776, 12348, 12964], "queries": {"click": {"state": {"target": ["10", "11"], "time": [3322, 6651]}, "edge": {"target": [], "time": []}}, "mouseover": {"state": {"target": ["3", "9", "8", "10", "11", "9"], "time": [1998, 2181, 2397, 2464, 4001, 7348]}, "edge": {"target": [], "time": []}}, "mouseout": {"state": {"target": ["29", "23", "0", "3", "9", "8", "10", "11"], "time": [931, 1065, 1828, 2031, 2364, 2431, 3850, 7262]}, "edge": {"target": [], "time": []}}}, "displayed_time": "15.64", "trialTime": 17108, "trial_type": "mouselab-mdp", "trial_index": 16, "time_elapsed": 732790, "internal_node_id": "0.0-6.0-1.0-7.0"}}, {"uniqueid": "w40013214:a95726648", "current_trial": 17, "dateTime": 1693565497022, "trialdata": {"revealed_states": [], "clicked_states": ["5", "6", "7", "18", "16", "17"], "num_clicks_accrued": [0, 0, 0, 0, 0, 0, 0, 0, 0, 0, 0, 0, 0], "stateRewards": ["", 2, -2, 7, -11, -76, -65, -23, 16, -58, 30, 81, 1, 2, 7, 14, 9, 55, -2, 6, 11, -15, 31, -1, -1, -3, 2, 15, 2, 46, 15, 18, 45, -34], "withholdReward": false, "trial_id": "mdp_trial_9", "block": "test", "trialIndex": 10, "score": 66.1, "costs": -12.9, "simulationMode": [null, null, null, null, null], "rewards": [1, 2, 7, 14, 55], "path": ["0", "0", "12", "13", "14", "15", "17"], "rt": [21190, 127, 124, 161, 129], "actions": ["right", "right", "right", "up", "right"], "actionTimes": [22779, 23428, 24072, 24744, 25393], "queries": {"click": {"state": {"target": ["5", "6", "7", "18", "16", "17"], "time": [2519, 5862, 9102, 12357, 15563, 19032]}, "edge": {"target": [], "time": []}}, "mouseover": {"state": {"target": ["1", "4", "5", "6", "7", "18", "16", "17", "20"], "time": [1840, 1907, 1974, 2943, 6394, 9913, 13224, 16203, 20249]}, "edge": {"target": [], "time": []}}, "mouseout": {"state": {"target": ["9", "10", "1", "1", "4", "5", "6", "7", "18", "16", "16", "17"], "time": [508, 691, 874, 1856, 1942, 2898, 6312, 9828, 13074, 15666, 16173, 20133]}, "edge": {"target": [], "time": []}}}, "displayed_time": "25.92", "trialTime": 28244, "trial_type": "mouselab-mdp", "trial_index": 17, "time_elapsed": 761186, "internal_node_id": "0.0-6.0-1.0-8.0"}}, {"uniqueid": "w40013214:a95726648", "current_trial": 18, "dateTime": 1693565514115, "trialdata": {"revealed_states": [], "clicked_states": ["20"], "num_clicks_accrued": [0, 0, 0, 0, 0, 0, 0, 0, 0, 0, 0, 0, 0], "stateRewards": ["", 2, -1, 3, -12, -83, 6, -33, 9, 28, 24, -50, -2, -1, -2, -5, -87, 37, 82, 12, 80, -5, 10, -2, -3, -6, 9, 22, -1, 16, 9, 77, -62, 58], "withholdReward": false, "trial_id": "mdp_trial_10", "block": "test", "trialIndex": 11, "score": 84.85, "costs": -2.15, "simulationMode": [null, null, null, null, null], "rewards": [-2, -1, -2, 12, 80], "path": ["0", "0", "12", "13", "14", "19", "20"], "rt": [5015, 209, 225, 210, 165], "actions": ["right", "right", "right", "down", "right"], "actionTimes": [6790, 7514, 8244, 8964, 9649], "queries": {"click": {"state": {"target": ["20"], "time": [2931]}, "edge": {"target": [], "time": []}}, "mouseover": {"state": {"target": ["0", "12", "22", "19", "20", "21"], "time": [2124, 2143, 2188, 2240, 2390, 3557]}, "edge": {"target": [], "time": []}}, "mouseout": {"state": {"target": ["20", "19", "12", "0", "12", "22", "19", "20", "20"], "time": [724, 756, 890, 2142, 2158, 2221, 2257, 3050, 3491]}, "edge": {"target": [], "time": []}}}, "displayed_time": "15.78", "trialTime": 16917, "trial_type": "mouselab-mdp", "trial_index": 18, "time_elapsed": 778278, "internal_node_id": "0.0-6.0-1.0-9.0"}}, {"uniqueid": "w40013214:a95726648", "current_trial": 19, "dateTime": 1693565530671, "trialdata": {"revealed_states": [], "clicked_states": ["20"], "num_clicks_accrued": [0, 0, 0, 0, 0, 0, 0, 0, 0, 0, 0, 0, 0], "stateRewards": ["", 2, -3, -5, 5, 11, -9, -33, 6, 67, 6, -30, -1, -2, -6, 13, 55, 13, 72, -14, 75, 21, -66, -2, -4, 6, 15, -1, -35, 60, 2, 51, -73, 12], "withholdReward": false, "trial_id": "mdp_trial_11", "block": "test", "trialIndex": 12, "score": 49.85, "costs": -2.15, "simulationMode": [null, null, null, null, null], "rewards": [-1, -2, -6, -14, 75], "path": ["0", "0", "12", "13", "14", "19", "20"], "rt": [4974, 168, 159, 81, 128], "actions": ["right", "right", "right", "down", "right"], "actionTimes": [6407, 7094, 7771, 8371, 9035], "queries": {"click": {"state": {"target": ["20"], "time": [2557]}, "edge": {"target": [], "time": []}}, "mouseover": {"state": {"target": ["0", "19", "20", "21"], "time": [1892, 2044, 2260, 3094]}, "edge": {"target": [], "time": []}}, "mouseout": {"state": {"target": ["21", "0", "0", "19", "20"], "time": [711, 1011, 1909, 2143, 2963]}, "edge": {"target": [], "time": []}}}, "displayed_time": "15.44", "trialTime": 16377, "trial_type": "mouselab-mdp", "trial_index": 19, "time_elapsed": 794834, "internal_node_id": "0.0-6.0-1.0-10.0"}}, {"uniqueid": "w40013214:a95726648", "current_trial": 20, "dateTime": 1693565547739, "trialdata": {"revealed_states": [], "clicked_states": ["20"], "num_clicks_accrued": [0, 0, 0, 0, 0, 0, 0, 0, 0, 0, 0, 0, 0], "stateRewards": ["", -2, 2, -2, -7, -50, -62, -45, 7, 36, -24, -72, -1, -1, 8, -1, -67, 20, -52, 2, 35, -50, 80, -1, 1, 6, -6, -70, 6, 88, 8, -47, 74, -19], "withholdReward": false, "trial_id": "mdp_trial_12", "block": "test", "trialIndex": 13, "score": 40.85, "costs": -2.15, "simulationMode": [null, null, null, null, null], "rewards": [-1, -1, 8, 2, 35], "path": ["0", "0", "12", "13", "14", "19", "20"], "rt": [4911, 124, 153, 97, 87], "actions": ["right", "right", "right", "down", "right"], "actionTimes": [6461, 7099, 7774, 8388, 9023], "queries": {"click": {"state": {"target": ["20"], "time": [2512]}, "edge": {"target": [], "time": []}}, "mouseover": {"state": {"target": ["19", "20", "20", "21"], "time": [1872, 1907, 2190, 3256]}, "edge": {"target": [], "time": []}}, "mouseout": {"state": {"target": ["21", "19", "20", "20"], "time": [774, 1905, 1955, 3223]}, "edge": {"target": [], "time": []}}}, "displayed_time": "15.56", "trialTime": 16887, "trial_type": "mouselab-mdp", "trial_index": 20, "time_elapsed": 811902, "internal_node_id": "0.0-6.0-1.0-11.0"}}, {"uniqueid": "w40013214:a95726648", "current_trial": 21, "dateTime": 1693565564426, "trialdata": {"revealed_states": [], "clicked_states": ["20"], "num_clicks_accrued": [0, 0, 0, 0, 0, 0, 0, 0, 0, 0, 0, 0, 0], "stateRewards": ["", 1, -2, 4, 7, -43, -83, -60, -5, -86, -80, 83, -1, -2, 6, 11, -15, 21, 13, 9, 29, -49, 11, -1, 4, -6, -11, 87, 40, 63, -8, -39, -11, 62], "withholdReward": false, "trial_id": "mdp_trial_13", "block": "test", "trialIndex": 14, "score": 38.85, "costs": -2.15, "simulationMode": [null, null, null, null, null], "rewards": [-1, -2, 6, 9, 29], "path": ["0", "0", "12", "13", "14", "19", "20"], "rt": [4616, 99, 188, 160, 88], "actions": ["right", "right", "right", "down", "right"], "actionTimes": [6160, 6774, 7482, 8165, 8759], "queries": {"click": {"state": {"target": ["20"], "time": [2443]}, "edge": {"target": [], "time": []}}, "mouseover": {"state": {"target": ["19", "20", "20"], "time": [1790, 1841, 2172]}, "edge": {"target": [], "time": []}}, "mouseout": {"state": {"target": ["21", "23", "0", "19", "20", "20"], "time": [874, 1174, 1702, 1839, 1925, 3656]}, "edge": {"target": [], "time": []}}}, "displayed_time": "15.56", "trialTime": 16508, "trial_type": "mouselab-mdp", "trial_index": 21, "time_elapsed": 828589, "internal_node_id": "0.0-6.0-1.0-12.0"}}, {"uniqueid": "w40013214:a95726648", "current_trial": 22, "dateTime": 1693565662017, "trialdata": {"revealed_states": [], "clicked_states": ["31", "32"], "num_clicks_accrued": [0, 0, 0, 0, 0, 0, 0, 0, 0, 0, 0, 0, 0], "stateRewards": ["", 2, -4, -8, -15, 71, -43, -41, 7, -17, 20, 67, -1, -1, -4, 6, 37, -24, -47, 9, 34, 57, 45, 1, 2, -4, -5, -23, 88, -5, 13, -40, 43, 44], "withholdReward": false, "trial_id": "mdp_trial_14", "block": "test", "trialIndex": 15, "score": 50.7, "costs": -4.3, "simulationMode": [null, null, null, null, null], "rewards": [1, 2, -4, 13, 43], "path": ["0", "0", "23", "24", "25", "30", "32"], "rt": [8191, 50, 92, 101, 145], "actions": ["left", "left", "left", "down", "down"], "actionTimes": [9490, 10056, 10727, 11339, 12013], "queries": {"click": {"state": {"target": ["31", "32"], "time": [2276, 5556]}, "edge": {"target": [], "time": []}}, "mouseover": {"state": {"target": ["31", "32", "33"], "time": [1792, 2621, 6453]}, "edge": {"target": [], "time": []}}, "mouseout": {"state": {"target": ["0", "31", "32"], "time": [1475, 2573, 6303]}, "edge": {"target": [], "time": []}}}, "displayed_time": "15.31", "trialTime": 97379, "trial_type": "mouselab-mdp", "trial_index": 22, "time_elapsed": 926181, "internal_node_id": "0.0-6.0-1.0-13.0"}}, {"uniqueid": "w40013214:a95726648", "current_trial": 23, "dateTime": 1693565679451, "trialdata": {"revealed_states": [], "clicked_states": ["31", "32"], "num_clicks_accrued": [0, 0, 0, 0, 0, 0, 0, 0, 0, 0, 0, 0, 0], "stateRewards": ["", 2, 1, -3, 7, 46, 11, -36, 16, 71, 5, 1, 2, -2, -8, -3, -4, 6, 55, 7, 68, -54, 2, 1, 1, 6, -6, 42, -4, -84, -11, -65, 63, 25], "withholdReward": false, "trial_id": "mdp_trial_15", "block": "test", "trialIndex": 16, "score": 55.7, "costs": -4.3, "simulationMode": [null, null, null, null, null], "rewards": [1, 1, 6, -11, 63], "path": ["0", "0", "23", "24", "25", "30", "32"], "rt": [8640, 116, 111, 550, 366], "actions": ["left", "left", "left", "down", "down"], "actionTimes": [10707, 11338, 11965, 13037, 13918], "queries": {"click": {"state": {"target": ["31", "32"], "time": [3544, 6850]}, "edge": {"target": [], "time": []}}, "mouseover": {"state": {"target": ["23", "24", "25", "30", "31", "32", "33"], "time": [2677, 2743, 2797, 2859, 3076, 3929, 7808]}, "edge": {"target": [], "time": []}}, "mouseout": {"state": {"target": ["33", "30", "31", "0", "23", "24", "25", "30", "31", "32"], "time": [460, 494, 529, 795, 2693, 2776, 2811, 3009, 3863, 7576]}, "edge": {"target": [], "time": []}}}, "displayed_time": "16.07", "trialTime": 17186, "trial_type": "mouselab-mdp", "trial_index": 23, "time_elapsed": 943614, "internal_node_id": "0.0-6.0-1.0-14.0"}}, {"uniqueid": "w40013214:a95726648", "current_trial": 24, "dateTime": 1693565702354, "trialdata": {"revealed_states": [], "clicked_states": ["20", "21", "22", "32"], "num_clicks_accrued": [0, 0, 0, 0, 0, 0, 0, 0, 0, 0, 0, 0, 0], "stateRewards": ["", -2, 2, -1, -6, 22, 6, 6, -5, 70, -42, 65, 1, 3, 5, -6, -67, -9, 3, 14, 7, -62, -13, -2, 4, 1, 16, 42, -21, -52, -8, 32, 53, 81], "withholdReward": false, "trial_id": "mdp_trial_16", "block": "test", "trialIndex": 17, "score": 39.4, "costs": -8.6, "simulationMode": [null, null, null, null, null], "rewards": [-2, 4, 1, -8, 53], "path": ["0", "0", "23", "24", "25", "30", "32"], "rt": [15549, 47, 77, 496, 142], "actions": ["left", "left", "left", "down", "down"], "actionTimes": [17277, 17839, 18449, 19453, 20113], "queries": {"click": {"state": {"target": ["20", "21", "22", "32"], "time": [2708, 6177, 9493, 13563]}, "edge": {"target": [], "time": []}}, "mouseover": {"state": {"target": ["12", "13", "19", "20", "21", "22", "32"], "time": [2070, 2104, 2301, 2434, 3437, 7035, 13293]}, "edge": {"target": [], "time": []}}, "mouseout": {"state": {"target": ["33", "30", "23", "12", "13", "19", "20", "20", "21", "22"], "time": [810, 836, 869, 2085, 2135, 2400, 2810, 3387, 6701, 12897]}, "edge": {"target": [], "time": []}}}, "displayed_time": "20.62", "trialTime": 22679, "trial_type": "mouselab-mdp", "trial_index": 24, "time_elapsed": 966517, "internal_node_id": "0.0-6.0-1.0-15.0"}}, {"uniqueid": "w40013214:a95726648", "current_trial": 25, "dateTime": 1693565725903, "trialdata": {"revealed_states": [], "clicked_states": ["10", "11", "9", "5"], "num_clicks_accrued": [0, 0, 0, 0, 0, 0, 0, 0, 0, 0, 0, 0, 0], "stateRewards": ["", 1, 1, 4, 11, 83, -66, 18, -16, -23, 5, 25, 1, -3, 1, -12, 18, 24, -86, -11, -64, 36, 40, 2, 1, -6, 13, 55, 29, 72, -2, 81, -72, -41], "withholdReward": false, "trial_id": "mdp_trial_17", "block": "test", "trialIndex": 18, "score": 91.4, "costs": -8.6, "simulationMode": [null, null, null, null, null], "rewards": [1, 1, 4, 11, 83], "path": ["0", "0", "1", "2", "3", "4", "5"], "rt": [15821, 218, 242, 348, 312], "actions": ["up", "up", "up", "right", "up"], "actionTimes": [17541, 18273, 19028, 19900, 20728], "queries": {"click": {"state": {"target": ["10", "11", "9", "5"], "time": [2804, 6147, 10019, 13295]}, "edge": {"target": [], "time": []}}, "mouseover": {"state": {"target": ["10", "11", "9", "5", "6"], "time": [2496, 3448, 6597, 10892, 16418]}, "edge": {"target": [], "time": []}}, "mouseout": {"state": {"target": ["32", "31", "23", "0", "10", "11", "9", "5", "6"], "time": [1063, 1115, 1180, 2275, 2925, 6513, 10710, 16118, 22609]}, "edge": {"target": [], "time": []}}}, "displayed_time": "21.25", "trialTime": 23310, "trial_type": "mouselab-mdp", "trial_index": 25, "time_elapsed": 990066, "internal_node_id": "0.0-6.0-1.0-16.0"}}, {"uniqueid": "w40013214:a95726648", "current_trial": 26, "dateTime": 1693565748535, "trialdata": {"revealed_states": [], "clicked_states": ["7", "6", "5", "10"], "num_clicks_accrued": [0, 0, 0, 0, 0, 0, 0, 0, 0, 0, 0, 0, 0], "stateRewards": ["", -2, 4, 3, 5, -61, 4, 30, 1, -47, 83, 10, 1, 4, 7, -14, 19, -74, -83, 6, -2, -2, -65, -1, -2, 4, -11, 12, -1, -68, 11, -38, -28, 66], "withholdReward": false, "trial_id": "mdp_trial_18", "block": "test", "trialIndex": 19, "score": 80.4, "costs": -8.6, "simulationMode": [null, null, null, null, null], "rewards": [-2, 4, 3, 1, 83], "path": ["0", "0", "1", "2", "3", "8", "10"], "rt": [15741, 232, 258, 445, 328], "actions": ["up", "up", "up", "left", "down"], "actionTimes": [17098, 17844, 18618, 19574, 20419], "queries": {"click": {"state": {"target": ["7", "6", "5", "10"], "time": [2880, 6257, 9517, 13266]}, "edge": {"target": [], "time": []}}, "mouseover": {"state": {"target": ["1", "7", "4", "7", "6", "5", "8", "10", "11"], "time": [2287, 2406, 2504, 2625, 3441, 6901, 12745, 12979, 14996]}, "edge": {"target": [], "time": []}}, "mouseout": {"state": {"target": ["0", "1", "7", "4", "7", "6", "5", "8", "10", "11", "33"], "time": [2262, 2321, 2423, 2554, 2972, 6853, 12287, 12911, 13329, 21938, 22054]}, "edge": {"target": [], "time": []}}}, "displayed_time": "20.94", "trialTime": 22420, "trial_type": "mouselab-mdp", "trial_index": 26, "time_elapsed": 1012698, "internal_node_id": "0.0-6.0-1.0-17.0"}}, {"uniqueid": "w40013214:a95726648", "current_trial": 27, "dateTime": 1693565766385, "trialdata": {"revealed_states": [], "clicked_states": ["10", "11"], "num_clicks_accrued": [0, 0, 0, 0, 0, 0, 0, 0, 0, 0, 0, 0, 0], "stateRewards": ["", 1, 1, 5, 6, -29, -7, 3, -16, 9, -46, 65, -1, 4, -1, -16, -63, -77, -87, 8, 80, -50, 43, -1, -1, -5, 5, -38, -71, -62, 9, 81, -50, -52], "withholdReward": false, "trial_id": "mdp_trial_19", "block": "test", "trialIndex": 20, "score": 51.7, "costs": -4.3, "simulationMode": [null, null, null, null, null], "rewards": [1, 1, 5, -16, 65], "path": ["0", "0", "1", "2", "3", "8", "11"], "rt": [8878, 109, 176, 296, 110], "actions": ["up", "up", "up", "left", "left"], "actionTimes": [10570, 11199, 11884, 12705, 13331], "queries": {"click": {"state": {"target": ["10", "11"], "time": [3092, 6696]}, "edge": {"target": [], "time": []}}, "mouseover": {"state": {"target": ["1", "2", "10", "11", "9"], "time": [2480, 2595, 2764, 3547, 7193]}, "edge": {"target": [], "time": []}}, "mouseout": {"state": {"target": ["32", "0", "1", "2", "10", "11"], "time": [562, 945, 2527, 2745, 3163, 6765]}, "edge": {"target": [], "time": []}}}, "displayed_time": "15.69", "trialTime": 17631, "trial_type": "mouselab-mdp", "trial_index": 27, "time_elapsed": 1030549, "internal_node_id": "0.0-6.0-1.0-18.0"}}, {"uniqueid": "w40013214:a95726648", "current_trial": 28, "dateTime": 1693565805561, "trialdata": {"revealed_states": [], "clicked_states": ["17", "16", "18", "20", "21", "22", "31", "32", "33"], "num_clicks_accrued": [0, 0, 0, 0, 0, 0, 0, 0, 0, 0, 0, 0, 0], "stateRewards": ["", -1, 1, 8, -3, -24, 11, -65, -6, -77, 48, 44, -2, 1, -2, -7, -55, -35, 33, 8, -28, 19, -53, -1, -1, -5, -5, -70, 10, 44, 8, -58, -70, 51], "withholdReward": false, "trial_id": "mdp_trial_20", "block": "test", "trialIndex": 21, "score": 32.650000000000006, "costs": -19.349999999999998, "simulationMode": [null, null, null, null, null], "rewards": [-1, -1, -5, 8, 51], "path": ["0", "0", "23", "24", "25", "30", "33"], "rt": [33134, 98, 130, 81, 213], "actions": ["left", "left", "left", "down", "left"], "actionTimes": [34738, 35357, 36006, 36606, 37337], "queries": {"click": {"state": {"target": ["17", "16", "18", "20", "21", "22", "31", "32", "33"], "time": [2585, 5767, 9065, 13359, 16659, 20056, 24132, 27393, 30648]}, "edge": {"target": [], "time": []}}, "mouseover": {"state": {"target": ["12", "13", "14", "17", "16", "18", "13", "18", "14", "20", "21", "22", "31", "32", "33"], "time": [1773, 1793, 1840, 2170, 3487, 6345, 6402, 6685, 12848, 13141, 13980, 17409, 23883, 25951, 28017]}, "edge": {"target": [], "time": []}}, "mouseout": {"state": {"target": ["9", "8", "1", "0", "12", "13", "14", "17", "16", "18", "13", "18", "14", "20", "21", "22", "31", "32", "33"], "time": [654, 688, 904, 1755, 1790, 1820, 1904, 3322, 6285, 6359, 6636, 12810, 12977, 13897, 17260, 23502, 25852, 27918, 32479]}, "edge": {"target": [], "time": []}}}, "displayed_time": "37.86", "trialTime": 38946, "trial_type": "mouselab-mdp", "trial_index": 28, "time_elapsed": 1069724, "internal_node_id": "0.0-6.0-1.0-19.0"}}, {"uniqueid": "w40013214:a95726648", "current_trial": 29, "dateTime": 1693565823215, "trialdata": {"revealed_states": [], "clicked_states": ["29", "27", "28"], "num_clicks_accrued": [0, 0, 0, 0, 0, 0, 0, 0, 0, 0, 0, 0, 0], "stateRewards": ["", -1, 1, -6, -1, 80, 23, 2, -11, 73, -81, 59, 1, 3, 5, -1, -26, 28, -3, 16, -59, -13, -50, -2, -2, 2, 15, -50, 86, 17, -4, 37, 35, 44], "withholdReward": false, "trial_id": "mdp_trial_21", "block": "test", "trialIndex": 22, "score": 92.55, "costs": -6.449999999999999, "simulationMode": [null, null, null, null, null], "rewards": [-2, -2, 2, 15, 86], "path": ["0", "0", "23", "24", "25", "26", "28"], "rt": [11644, 104, 97, 236, 181], "actions": ["left", "left", "left", "up", "right"], "actionTimes": [13216, 13835, 14475, 15231, 15927], "queries": {"click": {"state": {"target": ["29", "27", "28"], "time": [2539, 5988, 9182]}, "edge": {"target": [], "time": []}}, "mouseover": {"state": {"target": ["23", "29", "27", "28", "28"], "time": [2089, 2287, 3073, 6353, 6685]}, "edge": {"target": [], "time": []}}, "mouseout": {"state": {"target": ["24", "23", "0", "23", "29", "27", "28"], "time": [837, 1054, 2054, 2105, 2972, 6302, 6435]}, "edge": {"target": [], "time": []}}}, "displayed_time": "16.44", "trialTime": 17435, "trial_type": "mouselab-mdp", "trial_index": 29, "time_elapsed": 1087378, "internal_node_id": "0.0-6.0-1.0-20.0"}}, {"uniqueid": "w40013214:a95726648", "current_trial": 30, "dateTime": 1693565839697, "trialdata": {"revealed_states": [], "clicked_states": ["28"], "num_clicks_accrued": [0, 0, 0, 0, 0, 0, 0, 0, 0, 0, 0, 0, 0], "stateRewards": ["", -2, -4, -2, -13, -15, 87, -19, -6, -80, 30, 12, 1, 1, -8, 2, 55, 56, 15, 11, -68, -7, 55, -2, 3, -3, -3, 48, 62, 4, 1, -3, 69, -33], "withholdReward": false, "trial_id": "mdp_trial_22", "block": "test", "trialIndex": 23, "score": 54.85, "costs": -2.15, "simulationMode": [null, null, null, null, null], "rewards": [-2, 3, -3, -3, 62], "path": ["0", "0", "23", "24", "25", "26", "28"], "rt": [4620, 63, 86, 349, 25], "actions": ["left", "left", "left", "up", "right"], "actionTimes": [6164, 6744, 7350, 8211, 8754], "queries": {"click": {"state": {"target": ["28"], "time": [2256]}, "edge": {"target": [], "time": []}}, "mouseover": {"state": {"target": ["23", "28", "29", "27"], "time": [1820, 1916, 4351, 4734]}, "edge": {"target": [], "time": []}}, "mouseout": {"state": {"target": ["28", "0", "23", "28", "29", "27", "29"], "time": [823, 1800, 1884, 2868, 4369, 10993, 11042]}, "edge": {"target": [], "time": []}}}, "displayed_time": "15.55", "trialTime": 16246, "trial_type": "mouselab-mdp", "trial_index": 30, "time_elapsed": 1103860, "internal_node_id": "0.0-6.0-1.0-21.0"}}, {"uniqueid": "w40013214:a95726648", "current_trial": 31, "dateTime": 1693565885133, "trialdata": {"revealed_states": [], "clicked_states": ["28", "20", "21", "17", "16", "18", "6", "5", "7", "10"], "num_clicks_accrued": [0, 0, 0, 0, 0, 0, 0, 0, 0, 0, 0, 0, 0], "stateRewards": ["", 2, -3, -4, -1, 25, -16, 16, 10, -71, -20, -55, 1, 3, -4, -9, 1, 32, 11, -6, 32, -50, -41, -1, 4, 4, -8, 7, -81, 70, 2, -52, 45, -10], "withholdReward": false, "trial_id": "mdp_trial_23", "block": "test", "trialIndex": 24, "score": 4.5000000000000036, "costs": -21.499999999999996, "simulationMode": [null, null, null, null, null], "rewards": [1, 3, -4, -6, 32], "path": ["0", "0", "12", "13", "14", "19", "20"], "rt": [39371, 24, 18, 5, 12], "actions": ["right", "right", "right", "down", "right"], "actionTimes": [41070, 41615, 42152, 42672, 43210], "queries": {"click": {"state": {"target": ["28", "20", "21", "17", "16", "18", "6", "5", "7", "10"], "time": [2408, 6414, 10676, 15046, 18913, 22584, 26338, 30126, 33725, 37384]}, "edge": {"target": [], "time": []}}, "mouseover": {"state": {"target": ["28", "19", "20", "21", "21", "22", "14", "17", "16", "18", "6", "5", "4", "7", "2", "10"], "time": [2147, 5961, 6112, 10275, 10454, 14038, 14187, 14637, 18683, 22329, 25893, 29872, 33371, 33436, 37037, 37134]}, "edge": {"target": [], "time": []}}, "mouseout": {"state": {"target": ["25", "24", "23", "0", "28", "19", "20", "21", "21", "22", "14", "17", "16", "18", "6", "5", "4", "7", "2", "10"], "time": [715, 816, 1066, 1882, 2851, 5993, 6878, 10341, 12475, 14154, 14304, 18500, 22247, 25794, 29623, 33338, 33391, 37018, 37083, 44197]}, "edge": {"target": [], "time": []}}}, "displayed_time": "43.75", "trialTime": 45144, "trial_type": "mouselab-mdp", "trial_index": 31, "time_elapsed": 1149296, "internal_node_id": "0.0-6.0-1.0-22.0"}}, {"uniqueid": "w40013214:a95726648", "current_trial": 32, "dateTime": 1693565909326, "trialdata": {"revealed_states": [], "clicked_states": ["20", "17", "28", "31"], "num_clicks_accrued": [0, 0, 0, 0, 0, 0, 0, 0, 0, 0, 0, 0, 0], "stateRewards": ["", -1, 3, -7, 16, -32, -74, -48, 2, 10, 15, -30, 1, 1, -2, 10, 12, -83, 67, 13, -66, 47, 65, -2, 4, 2, -14, -8, -57, 24, 9, 65, 12, 46], "withholdReward": false, "trial_id": "mdp_trial_24", "block": "test", "trialIndex": 25, "score": 69.4, "costs": -8.6, "simulationMode": [null, null, null, null, null], "rewards": [-2, 4, 2, 9, 65], "path": ["0", "0", "23", "24", "25", "30", "31"], "rt": [16828, 120, 98, 111, 118], "actions": ["left", "left", "left", "down", "right"], "actionTimes": [19508, 20151, 20761, 21392, 22032], "queries": {"click": {"state": {"target": ["20", "17", "28", "31"], "time": [3363, 7293, 11677, 15451]}, "edge": {"target": [], "time": []}}, "mouseover": {"state": {"target": ["0", "12", "22", "19", "20", "17", "16", "1", "28", "24", "31", "24", "28"], "time": [2779, 2811, 2925, 2976, 3126, 6990, 11069, 11151, 11435, 15016, 15181, 18280, 18413]}, "edge": {"target": [], "time": []}}, "mouseout": {"state": {"target": ["0", "0", "12", "22", "19", "20", "17", "16", "1", "28", "24", "31", "24", "28"], "time": [2327, 2792, 2843, 2944, 3060, 3860, 10770, 11087, 11186, 14983, 15050, 18230, 18363, 18530]}, "edge": {"target": [], "time": []}}}, "displayed_time": "22.55", "trialTime": 23939, "trial_type": "mouselab-mdp", "trial_index": 32, "time_elapsed": 1173489, "internal_node_id": "0.0-6.0-1.0-23.0"}}, {"uniqueid": "w40013214:a95726648", "current_trial": 33, "dateTime": 1693565937828, "trialdata": {"revealed_states": [], "clicked_states": ["31", "32", "33", "29", "27", "28"], "num_clicks_accrued": [0, 0, 0, 0, 0, 0, 0, 0, 0, 0, 0, 0, 0], "stateRewards": ["", 1, 2, -3, -5, 66, -50, -47, -5, 1, 28, -27, 1, 1, -1, -6, 37, -25, 56, 1, -82, -66, -40, -1, -4, -7, 15, -61, -23, 26, 10, 14, -56, 29], "withholdReward": false, "trial_id": "mdp_trial_25", "block": "test", "trialIndex": 26, "score": 14.100000000000001, "costs": -12.9, "simulationMode": [null, null, null, null, null], "rewards": [-1, -4, -7, 10, 29], "path": ["0", "0", "23", "24", "25", "30", "33"], "rt": [22187, 122, 56, 27, 176], "actions": ["left", "left", "left", "down", "left"], "actionTimes": [23803, 24440, 25006, 25557, 26271], "queries": {"click": {"state": {"target": ["31", "32", "33", "29", "27", "28"], "time": [2490, 5830, 9020, 13099, 16905, 20139]}, "edge": {"target": [], "time": []}}, "mouseover": {"state": {"target": ["31", "32", "33", "29", "27", "28"], "time": [2215, 2901, 6396, 12638, 16601, 18070]}, "edge": {"target": [], "time": []}}, "mouseout": {"state": {"target": ["0", "31", "32", "33", "29", "27"], "time": [1949, 2783, 6247, 12044, 16452, 17971]}, "edge": {"target": [], "time": []}}}, "displayed_time": "26.78", "trialTime": 28250, "trial_type": "mouselab-mdp", "trial_index": 33, "time_elapsed": 1201991, "internal_node_id": "0.0-6.0-1.0-24.0"}}, {"uniqueid": "w40013214:a95726648", "current_trial": 34, "dateTime": 1693565958697, "trialdata": {"revealed_states": [], "clicked_states": ["10", "11", "9", "5"], "num_clicks_accrued": [0, 0, 0, 0, 0, 0, 0, 0, 0, 0, 0, 0, 0], "stateRewards": ["", -2, -3, 1, -14, 48, -49, 67, -1, -35, -48, 3, -2, 1, -4, -5, 86, -84, 39, 1, 48, 41, -42, -1, -4, 2, -7, 18, -86, 17, 7, -9, 57, -69], "withholdReward": false, "trial_id": "mdp_trial_26", "block": "test", "trialIndex": 27, "score": 21.4, "costs": -8.6, "simulationMode": [null, null, null, null, null], "rewards": [-2, -3, 1, -14, 48], "path": ["0", "0", "1", "2", "3", "4", "5"], "rt": [14791, 102, 115, 42, 481], "actions": ["up", "up", "up", "right", "up"], "actionTimes": [16096, 16717, 17348, 17906, 18910], "queries": {"click": {"state": {"target": ["10", "11", "9", "5"], "time": [2029, 5563, 8880, 12121]}, "edge": {"target": [], "time": []}}, "mouseover": {"state": {"target": ["10", "11", "9", "9", "5", "6"], "time": [1775, 5322, 7506, 7773, 9988, 15046]}, "edge": {"target": [], "time": []}}, "mouseout": {"state": {"target": ["28", "23", "10", "11", "9", "9", "5", "6", "7"], "time": [675, 758, 2613, 7439, 7558, 9621, 14849, 19827, 19844]}, "edge": {"target": [], "time": []}}}, "displayed_time": "19.43", "trialTime": 20638, "trial_type": "mouselab-mdp", "trial_index": 34, "time_elapsed": 1222861, "internal_node_id": "0.0-6.0-1.0-25.0"}}, {"uniqueid": "w40013214:a95726648", "current_trial": 35, "dateTime": 1693565986822, "trialdata": {"revealed_states": [], "clicked_states": ["18", "16", "17", "15", "14", "19", "20"], "num_clicks_accrued": [0, 0, 0, 0, 0, 0, 0, 0, 0, 0, 0, 0, 0], "stateRewards": ["", -2, 1, -3, -16, -39, -52, 30, -7, -41, -59, 11, 2, 1, 8, 2, -11, -26, -42, -13, 87, -59, -48, -1, -1, -1, 16, -79, 31, 50, -1, -84, 34, -82], "withholdReward": false, "trial_id": "mdp_trial_27", "block": "test", "trialIndex": 28, "score": 72.35, "costs": -12.65, "simulationMode": [null, null, null, null, null], "rewards": [2, 1, 8, -13, 87], "path": ["0", "0", "12", "13", "14", "19", "20"], "rt": [21951, 153, 128, 17, 81], "actions": ["right", "right", "right", "down", "right"], "actionTimes": [23334, 24004, 24646, 25183, 25780], "queries": {"click": {"state": {"target": ["18", "16", "17", "15", "14", "19", "20"], "time": [2506, 5985, 9353, 12779, 15605, 17643, 19448]}, "edge": {"target": [], "time": []}}, "mouseover": {"state": {"target": ["18", "16", "16", "17", "15", "14", "19", "20"], "time": [2266, 2952, 3268, 6632, 12143, 14073, 16239, 18520]}, "edge": {"target": [], "time": []}}, "mouseout": {"state": {"target": ["0", "18", "16", "16", "17", "15", "14", "19"], "time": [2029, 2868, 3102, 6584, 12063, 13973, 16189, 18451]}, "edge": {"target": [], "time": []}}}, "displayed_time": "26.30", "trialTime": 27839, "trial_type": "mouselab-mdp", "trial_index": 35, "time_elapsed": 1250985, "internal_node_id": "0.0-6.0-1.0-26.0"}}, {"uniqueid": "w40013214:a95726648", "current_trial": 36, "dateTime": 1693566005663, "trialdata": {"revealed_states": [], "clicked_states": ["20", "19"], "num_clicks_accrued": [0, 0, 0, 0, 0, 0, 0, 0, 0, 0, 0, 0, 0], "stateRewards": ["", -1, -4, -3, 1, -45, -67, -24, 14, 32, 22, 22, -1, 1, -5, -7, 72, 84, -79, -5, 19, -40, -2, -1, -2, 8, -3, 84, -25, -28, 11, 64, -66, 77], "withholdReward": false, "trial_id": "mdp_trial_28", "block": "test", "trialIndex": 29, "score": 5.300000000000001, "costs": -3.7, "simulationMode": [null, null, null, null, null], "rewards": [-1, 1, -5, -5, 19], "path": ["0", "0", "12", "13", "14", "19", "20"], "rt": [12387, 83, 114, 71, 153], "actions": ["right", "right", "right", "down", "right"], "actionTimes": [13993, 14638, 15261, 15851, 16516], "queries": {"click": {"state": {"target": ["20", "19"], "time": [2478, 6956]}, "edge": {"target": [], "time": []}}, "mouseover": {"state": {"target": ["20", "21", "19", "22", "13", "14", "22"], "time": [2087, 3140, 6702, 11480, 11586, 11746, 12380]}, "edge": {"target": [], "time": []}}, "mouseout": {"state": {"target": ["20", "19", "0", "20", "21", "19", "22", "13", "14", "22"], "time": [590, 608, 805, 3040, 6617, 7569, 11529, 11679, 12363, 12398]}, "edge": {"target": [], "time": []}}}, "displayed_time": "17.03", "trialTime": 18610, "trial_type": "mouselab-mdp", "trial_index": 36, "time_elapsed": 1269827, "internal_node_id": "0.0-6.0-1.0-27.0"}}, {"uniqueid": "w40013214:a95726648", "current_trial": 37, "dateTime": 1693566023039, "trialdata": {"revealed_states": [], "clicked_states": ["20", "21", "22"], "num_clicks_accrued": [0, 0, 0, 0, 0, 0, 0, 0, 0, 0, 0, 0, 0], "stateRewards": ["", 1, 1, -6, -2, 7, 77, 3, 16, -16, 66, 31, -1, 3, -8, -6, 33, -50, -48, 7, -60, -66, 36, 2, -3, 3, -7, -12, -61, -79, -4, 8, 74, -70], "withholdReward": false, "trial_id": "mdp_trial_29", "block": "test", "trialIndex": 30, "score": 30.55, "costs": -6.449999999999999, "simulationMode": [null, null, null, null, null], "rewards": [-1, 3, -8, 7, 36], "path": ["0", "0", "12", "13", "14", "19", "22"], "rt": [11134, 100, 67, 22, 359], "actions": ["right", "right", "right", "down", "left"], "actionTimes": [12616, 13238, 13821, 14363, 15246], "queries": {"click": {"state": {"target": ["20", "21", "22"], "time": [2235, 5465, 8788]}, "edge": {"target": [], "time": []}}, "mouseover": {"state": {"target": ["22", "19", "20", "21", "22"], "time": [1692, 1828, 2011, 2562, 8174]}, "edge": {"target": [], "time": []}}, "mouseout": {"state": {"target": ["0", "22", "19", "20", "21", "22"], "time": [1611, 1760, 1910, 2320, 7892, 16466]}, "edge": {"target": [], "time": []}}}, "displayed_time": "15.77", "trialTime": 17124, "trial_type": "mouselab-mdp", "trial_index": 37, "time_elapsed": 1287202, "internal_node_id": "0.0-6.0-1.0-28.0"}}, {"uniqueid": "w40013214:a95726648", "current_trial": 38, "dateTime": 1693566048333, "trialdata": {"revealed_states": [], "clicked_states": ["31", "32", "33", "29", "27"], "num_clicks_accrued": [0, 0, 0, 0, 0, 0, 0, 0, 0, 0, 0, 0, 0], "stateRewards": ["", -1, -3, -6, -2, -7, 80, -45, -3, -38, -72, 76, 2, 1, 7, 4, -62, 14, -74, 14, -87, -21, -88, -2, 1, -7, -10, 66, 56, -76, 10, -29, -72, -70], "withholdReward": false, "trial_id": "mdp_trial_30", "block": "test", "trialIndex": 31, "score": 37.25, "costs": -10.75, "simulationMode": [null, null, null, null, null], "rewards": [-2, 1, -7, -10, 66], "path": ["0", "0", "23", "24", "25", "26", "27"], "rt": [19512, 86, 60, 52, 143], "actions": ["left", "left", "left", "up", "up"], "actionTimes": [20684, 21291, 21865, 22439, 23114], "queries": {"click": {"state": {"target": ["31", "32", "33", "29", "27"], "time": [2074, 5328, 8812, 13025, 16657]}, "edge": {"target": [], "time": []}}, "mouseover": {"state": {"target": ["31", "32", "33", "29", "27", "28", "28"], "time": [1819, 4253, 8514, 12727, 16340, 17893, 18223]}, "edge": {"target": [], "time": []}}, "mouseout": {"state": {"target": ["0", "31", "32", "33", "29", "27", "27", "28"], "time": [721, 4038, 6052, 12146, 16291, 16762, 17742, 18008]}, "edge": {"target": [], "time": []}}}, "displayed_time": "23.62", "trialTime": 25060, "trial_type": "mouselab-mdp", "trial_index": 38, "time_elapsed": 1312496, "internal_node_id": "0.0-6.0-1.0-29.0"}}, {"uniqueid": "w40013214:a95726648", "current_trial": 39, "dateTime": 1693566070047, "trialdata": {"revealed_states": [], "clicked_states": ["10", "11", "9", "5"], "num_clicks_accrued": [0, 0, 0, 0, 0, 0, 0, 0, 0, 0, 0, 0, 0], "stateRewards": ["", -1, -3, 3, 5, 56, 39, 50, -1, -80, 33, -46, 1, -2, -6, -8, 87, 48, 54, -11, -20, -64, -54, -2, 3, -7, -3, 12, 88, 35, -16, -46, -70, -3], "withholdReward": false, "trial_id": "mdp_trial_31", "block": "test", "trialIndex": 32, "score": 51.4, "costs": -8.6, "simulationMode": [null, null, null, null, null], "rewards": [-1, -3, 3, 5, 56], "path": ["0", "0", "1", "2", "3", "4", "5"], "rt": [15127, 136, 135, 96, 95], "actions": ["up", "up", "up", "right", "up"], "actionTimes": [16991, 17647, 18296, 18906, 19520], "queries": {"click": {"state": {"target": ["10", "11", "9", "5"], "time": [2667, 6259, 9599, 12796]}, "edge": {"target": [], "time": []}}, "mouseover": {"state": {"target": ["10", "11", "9", "5", "6"], "time": [2305, 3541, 6755, 10533, 13649]}, "edge": {"target": [], "time": []}}, "mouseout": {"state": {"target": ["28", "10", "11", "9", "5"], "time": [657, 2731, 6604, 10150, 13548]}, "edge": {"target": [], "time": []}}}, "displayed_time": "20.04", "trialTime": 21515, "trial_type": "mouselab-mdp", "trial_index": 39, "time_elapsed": 1334210, "internal_node_id": "0.0-6.0-1.0-30.0"}}, {"uniqueid": "w40013214:a95726648", "current_trial": 40, "dateTime": 1693566086466, "trialdata": {"revealed_states": [], "clicked_states": ["18"], "num_clicks_accrued": [0, 0, 0, 0, 0, 0, 0, 0, 0, 0, 0, 0, 0], "stateRewards": ["", 1, -1, 8, 4, 76, -33, -17, -3, -1, -54, -74, -2, 2, -5, 13, -51, 63, 83, 1, 84, 29, -36, 2, -1, 7, -12, -10, -44, -43, -14, 8, -69, 19], "withholdReward": false, "trial_id": "mdp_trial_32", "block": "test", "trialIndex": 33, "score": 88.85, "costs": -2.15, "simulationMode": [null, null, null, null, null], "rewards": [-2, 2, -5, 13, 83], "path": ["0", "0", "12", "13", "14", "15", "18"], "rt": [5262, 65, 122, 721, 121], "actions": ["right", "right", "right", "up", "left"], "actionTimes": [6492, 7072, 7711, 8943, 9577], "queries": {"click": {"state": {"target": ["18"], "time": [2573]}, "edge": {"target": [], "time": []}}, "mouseover": {"state": {"target": ["12", "15", "17", "18", "16"], "time": [1561, 1691, 1875, 2242, 2910]}, "edge": {"target": [], "time": []}}, "mouseout": {"state": {"target": ["6", "7", "1", "0", "12", "15", "17", "18", "16", "13", "22"], "time": [526, 558, 642, 1559, 1591, 1741, 1908, 2811, 10317, 10384, 10434]}, "edge": {"target": [], "time": []}}}, "displayed_time": "15.23", "trialTime": 16222, "trial_type": "mouselab-mdp", "trial_index": 40, "time_elapsed": 1350629, "internal_node_id": "0.0-6.0-1.0-31.0"}}, {"uniqueid": "w40013214:a95726648", "current_trial": 41, "dateTime": 1693566102669, "trialdata": {"revealed_states": [], "clicked_states": ["18"], "num_clicks_accrued": [0, 0, 0, 0, 0, 0, 0, 0, 0, 0, 0, 0, 0], "stateRewards": ["", -2, -1, -3, -1, -78, -6, 2, -1, 22, -88, 32, 2, 2, -7, -8, -51, -17, 54, 2, -44, 54, 75, 2, -2, -8, -15, -29, 12, -67, 15, -1, -47, -47], "withholdReward": false, "trial_id": "mdp_trial_33", "block": "test", "trialIndex": 34, "score": 40.85, "costs": -2.15, "simulationMode": [null, null, null, null, null], "rewards": [2, 2, -7, -8, 54], "path": ["0", "0", "12", "13", "14", "15", "18"], "rt": [5152, 57, 152, 65, 454], "actions": ["right", "right", "right", "up", "left"], "actionTimes": [6603, 7179, 7844, 8425, 9392], "queries": {"click": {"state": {"target": ["18"], "time": [2727]}, "edge": {"target": [], "time": []}}, "mouseover": {"state": {"target": ["12", "13", "18"], "time": [2161, 2241, 2408]}, "edge": {"target": [], "time": []}}, "mouseout": {"state": {"target": ["1", "2", "1", "0", "12", "13", "18", "18"], "time": [576, 676, 859, 2143, 2192, 2291, 5955, 10719]}, "edge": {"target": [], "time": []}}}, "displayed_time": "15.45", "trialTime": 15973, "trial_type": "mouselab-mdp", "trial_index": 41, "time_elapsed": 1366832, "internal_node_id": "0.0-6.0-1.0-32.0"}}, {"uniqueid": "w40013214:a95726648", "current_trial": 42, "dateTime": 1693566119560, "trialdata": {"revealed_states": [], "clicked_states": ["18", "16", "17"], "num_clicks_accrued": [0, 0, 0, 0, 0, 0, 0, 0, 0, 0, 0, 0, 0], "stateRewards": ["", -1, -1, 7, -15, -43, -21, -84, -9, -45, -66, 2, 1, -2, 2, 8, -27, 44, -52, -5, -84, 11, 53, 1, 4, -4, 16, 83, -82, -15, -16, 68, -43, 81], "withholdReward": false, "trial_id": "mdp_trial_34", "block": "test", "trialIndex": 35, "score": 46.55, "costs": -6.449999999999999, "simulationMode": [null, null, null, null, null], "rewards": [1, -2, 2, 8, 44], "path": ["0", "0", "12", "13", "14", "15", "17"], "rt": [11197, 109, 127, 149, 49], "actions": ["right", "right", "right", "up", "right"], "actionTimes": [12438, 13060, 13705, 14360, 14931], "queries": {"click": {"state": {"target": ["18", "16", "17"], "time": [1829, 5314, 8512]}, "edge": {"target": [], "time": []}}, "mouseover": {"state": {"target": ["12", "18", "16", "17", "20"], "time": [1404, 1520, 5017, 6171, 9999]}, "edge": {"target": [], "time": []}}, "mouseout": {"state": {"target": ["12", "18", "16", "17", "17", "20"], "time": [1424, 4937, 6035, 8623, 9899, 16159]}, "edge": {"target": [], "time": []}}}, "displayed_time": "15.46", "trialTime": 16657, "trial_type": "mouselab-mdp", "trial_index": 42, "time_elapsed": 1383723, "internal_node_id": "0.0-6.0-1.0-33.0"}}, {"uniqueid": "w40013214:a95726648", "current_trial": 43, "dateTime": 1693566135671, "trialdata": {"revealed_states": [], "clicked_states": ["18", "16"], "num_clicks_accrued": [0, 0, 0, 0, 0, 0, 0, 0, 0, 0, 0, 0, 0], "stateRewards": ["", -1, 2, 6, 11, 21, -21, -21, -6, 48, -71, 88, -1, -3, 3, 7, 64, 2, 9, -4, 37, -67, 72, 2, 2, -8, -8, -10, 71, -40, -3, 73, 80, 47], "withholdReward": false, "trial_id": "mdp_trial_35", "block": "test", "trialIndex": 36, "score": 65.7, "costs": -4.3, "simulationMode": [null, null, null, null, null], "rewards": [-1, -3, 3, 7, 64], "path": ["0", "0", "12", "13", "14", "15", "16"], "rt": [8087, 74, 94, 96, 75], "actions": ["right", "right", "right", "up", "up"], "actionTimes": [9285, 9870, 10471, 11091, 11683], "queries": {"click": {"state": {"target": ["18", "16"], "time": [2334, 5672]}, "edge": {"target": [], "time": []}}, "mouseover": {"state": {"target": ["12", "18", "16", "17"], "time": [1916, 1982, 2767, 6181]}, "edge": {"target": [], "time": []}}, "mouseout": {"state": {"target": ["0", "12", "18", "16", "17"], "time": [1849, 1933, 2598, 6032, 13239]}, "edge": {"target": [], "time": []}}}, "displayed_time": "15.20", "trialTime": 15895, "trial_type": "mouselab-mdp", "trial_index": 43, "time_elapsed": 1399835, "internal_node_id": "0.0-6.0-1.0-34.0"}}, {"uniqueid": "w40013214:a95726648", "current_trial": 44, "dateTime": 1693566173371, "trialdata": {"revealed_states": [], "clicked_states": ["18", "16", "17", "20", "21", "22", "31", "32", "33"], "num_clicks_accrued": [0, 0, 0, 0, 0, 0, 0, 0, 0, 0, 0, 0, 0], "stateRewards": ["", -1, 1, -5, -6, -78, 47, -13, 12, 48, -88, 20, 2, -3, -2, 13, -20, 37, -57, 14, -38, 30, 31, -2, -2, 8, 2, -23, 78, 28, 12, -74, -88, 8], "withholdReward": false, "trial_id": "mdp_trial_36", "block": "test", "trialIndex": 37, "score": 27.650000000000002, "costs": -19.349999999999998, "simulationMode": [null, null, null, null, null], "rewards": [2, -3, -2, 13, 37], "path": ["0", "0", "12", "13", "14", "15", "17"], "rt": [32074, 32, 69, 142, 135], "actions": ["right", "right", "right", "up", "right"], "actionTimes": [33188, 33740, 34343, 34999, 35644], "queries": {"click": {"state": {"target": ["18", "16", "17", "20", "21", "22", "31", "32", "33"], "time": [2112, 5364, 8603, 12373, 15597, 19023, 22836, 26483, 29672]}, "edge": {"target": [], "time": []}}, "mouseover": {"state": {"target": ["18", "16", "17", "20", "21", "22", "31", "32", "33"], "time": [1683, 2503, 6033, 9364, 13243, 16257, 22565, 26229, 27664]}, "edge": {"target": [], "time": []}}, "mouseout": {"state": {"target": ["0", "18", "16", "17", "20", "21", "22", "31", "31", "32"], "time": [799, 2367, 5815, 9313, 13194, 16092, 22282, 22915, 26096, 27365]}, "edge": {"target": [], "time": []}}}, "displayed_time": "36.16", "trialTime": 37477, "trial_type": "mouselab-mdp", "trial_index": 44, "time_elapsed": 1437535, "internal_node_id": "0.0-6.0-1.0-35.0"}}, {"uniqueid": "w40013214:a95726648", "current_trial": 45, "dateTime": 1693566190199, "trialdata": {"revealed_states": [], "clicked_states": ["10"], "num_clicks_accrued": [0, 0, 0, 0, 0, 0, 0, 0, 0, 0, 0, 0, 0], "stateRewards": ["", -2, -1, -5, 10, -36, -70, 68, -9, 86, 71, -10, 2, -4, 7, -7, 66, 44, -66, -13, -69, 43, 15, -2, 2, 6, -13, 62, 57, 50, -10, -69, 42, -72], "withholdReward": false, "trial_id": "mdp_trial_37", "block": "test", "trialIndex": 38, "score": 51.85, "costs": -2.15, "simulationMode": [null, null, null, null, null], "rewards": [-2, -1, -5, -9, 71], "path": ["0", "0", "1", "2", "3", "8", "10"], "rt": [4712, 115, 140, 228, 380], "actions": ["up", "up", "up", "left", "down"], "actionTimes": [6483, 7110, 7767, 8505, 9404], "queries": {"click": {"state": {"target": ["10"], "time": [2543]}, "edge": {"target": [], "time": []}}, "mouseover": {"state": {"target": ["10", "11"], "time": [2228, 3363]}, "edge": {"target": [], "time": []}}, "mouseout": {"state": {"target": ["33", "25", "23", "10", "11"], "time": [947, 995, 1279, 3198, 11487]}, "edge": {"target": [], "time": []}}}, "displayed_time": "15.77", "trialTime": 16615, "trial_type": "mouselab-mdp", "trial_index": 45, "time_elapsed": 1454362, "internal_node_id": "0.0-6.0-1.0-36.0"}}, {"uniqueid": "w40013214:a95726648", "current_trial": 46, "dateTime": 1693566220380, "trialdata": {"revealed_states": [], "clicked_states": ["10", "11", "9", "5", "6", "7", "4"], "num_clicks_accrued": [0, 0, 0, 0, 0, 0, 0, 0, 0, 0, 0, 0, 0], "stateRewards": ["", 1, 2, -8, 9, 18, -83, -11, 6, -64, -48, 17, -2, -2, -5, -3, -24, -3, -86, -2, 48, -41, -22, -2, 4, 7, 8, 81, 13, -48, 10, 61, 19, 57], "withholdReward": false, "trial_id": "mdp_trial_38", "block": "test", "trialIndex": 39, "score": 7.549999999999997, "costs": -14.450000000000001, "simulationMode": [null, null, null, null, null], "rewards": [1, 2, -8, 9, 18], "path": ["0", "0", "1", "2", "3", "4", "5"], "rt": [24287, 76, 140, 43, 107], "actions": ["up", "up", "up", "right", "up"], "actionTimes": [25552, 26141, 26802, 27357, 28004], "queries": {"click": {"state": {"target": ["10", "11", "9", "5", "6", "7", "4"], "time": [2688, 5922, 9354, 12585, 15966, 19248, 23590]}, "edge": {"target": [], "time": []}}, "mouseover": {"state": {"target": ["1", "2", "10", "11", "9", "5", "6", "6", "7", "4", "4"], "time": [2066, 2165, 2465, 3267, 6449, 9795, 13123, 13225, 16606, 22997, 23297]}, "edge": {"target": [], "time": []}}, "mouseout": {"state": {"target": ["1", "2", "10", "11", "9", "9", "5", "6", "6", "7", "4", "4", "7"], "time": [2132, 2184, 3119, 6380, 9451, 9647, 13058, 13160, 16489, 22946, 23113, 24097, 24132]}, "edge": {"target": [], "time": []}}}, "displayed_time": "28.51", "trialTime": 29948, "trial_type": "mouselab-mdp", "trial_index": 46, "time_elapsed": 1484543, "internal_node_id": "0.0-6.0-1.0-37.0"}}, {"uniqueid": "w40013214:a95726648", "current_trial": 47, "dateTime": 1693566252929, "trialdata": {"revealed_states": [], "clicked_states": ["18", "16", "17", "20", "21", "22", "15", "19"], "num_clicks_accrued": [0, 0, 0, 0, 0, 0, 0, 0, 0, 0, 0, 0, 0], "stateRewards": ["", -2, -3, 1, -7, 39, -67, 16, 5, -20, 73, 66, -1, 4, 5, -3, 23, -68, -87, -8, 3, -3, 17, 1, -4, -2, -13, -32, 34, 61, -5, -11, -18, 12], "withholdReward": false, "trial_id": "mdp_trial_39", "block": "test", "trialIndex": 40, "score": 12, "costs": -16, "simulationMode": [null, null, null, null, null], "rewards": [-1, 4, 5, -3, 23], "path": ["0", "0", "12", "13", "14", "15", "16"], "rt": [26549, 63, 28, 468, 82], "actions": ["right", "right", "right", "up", "up"], "actionTimes": [27887, 28468, 29012, 30036, 30631], "queries": {"click": {"state": {"target": ["18", "16", "17", "20", "21", "22", "15", "19"], "time": [2068, 5501, 9230, 12756, 16210, 19825, 24924, 26487]}, "edge": {"target": [], "time": []}}, "mouseover": {"state": {"target": ["12", "18", "16", "17", "20", "21", "22", "15", "13", "19", "22"], "time": [1543, 1790, 2657, 6082, 12481, 15877, 19523, 24655, 25901, 26268, 26953]}, "edge": {"target": [], "time": []}}, "mouseout": {"state": {"target": ["0", "12", "18", "16", "17", "20", "21", "22", "15", "13", "19", "22"], "time": [1524, 1639, 2509, 6024, 12381, 15812, 19341, 23321, 25805, 25919, 26938, 26967]}, "edge": {"target": [], "time": []}}}, "displayed_time": "31.15", "trialTime": 32297, "trial_type": "mouselab-mdp", "trial_index": 47, "time_elapsed": 1517092, "internal_node_id": "0.0-6.0-1.0-38.0"}}, {"uniqueid": "w40013214:a95726648", "current_trial": 48, "dateTime": 1693566270102, "trialdata": {"revealed_states": [], "clicked_states": ["31", "32"], "num_clicks_accrued": [0, 0, 0, 0, 0, 0, 0, 0, 0, 0, 0, 0, 0], "stateRewards": ["", -1, 4, -5, 9, 29, -75, -42, -16, 24, -28, -41, 2, -3, 1, 10, 60, 47, 55, -1, -53, 22, -40, 2, -3, -6, 4, -26, 44, 54, 15, -76, 42, 14], "withholdReward": false, "trial_id": "mdp_trial_40", "block": "test", "trialIndex": 41, "score": 45.7, "costs": -4.3, "simulationMode": [null, null, null, null, null], "rewards": [2, -3, -6, 15, 42], "path": ["0", "0", "23", "24", "25", "30", "32"], "rt": [11378, 121, 193, 123, 114], "actions": ["left", "left", "left", "down", "down"], "actionTimes": [12814, 13454, 14165, 14807, 15432], "queries": {"click": {"state": {"target": ["31", "32"], "time": [2192, 5600]}, "edge": {"target": [], "time": []}}, "mouseover": {"state": {"target": ["31", "32", "33", "30", "30", "30"], "time": [1840, 2757, 7006, 9134, 11151, 12098]}, "edge": {"target": [], "time": []}}, "mouseout": {"state": {"target": ["0", "31", "32", "33", "30", "32", "30", "30"], "time": [1774, 2657, 6808, 9052, 9785, 10967, 11633, 12232]}, "edge": {"target": [], "time": []}}}, "displayed_time": "15.95", "trialTime": 16951, "trial_type": "mouselab-mdp", "trial_index": 48, "time_elapsed": 1534265, "internal_node_id": "0.0-6.0-1.0-39.0"}}, {"uniqueid": "w40013214:a95726648", "current_trial": 49, "dateTime": 1693566337499, "trialdata": {"rt": 67392, "response": {"Q0": "$-2 to $2", "Q1": "$-16 to $16", "Q2": "$-88 to $88", "Q3": "The cost for clicking on nodes varied between nodes.", "Q4": "Slightly motivated"}, "question_order": [0, 1, 2, 3, 4], "trial_id": "final_quiz_control", "trial_type": "survey-multi-choice", "trial_index": 49, "time_elapsed": 1601662, "internal_node_id": "0.0-6.0-2.0"}}, {"uniqueid": "w40013214:a95726648", "current_trial": 50, "dateTime": 1693566483595, "trialdata": {"rt": 146079, "response": {"Q0": "Spend more money on inspecting the outer nodes to find a high value", "Q1": "First few rounds I had to strategy. Last few I sometimes checked the 4th node if after inspecting multiple 5th nodes I hadn't found one really high but average, so wanted to check the node before wasn't really low value", "Q2": "Not too difficult once I got the hang of it"}, "trial_id": "self_report_control", "trial_type": "survey-text", "trial_index": 50, "time_elapsed": 1747759, "internal_node_id": "0.0-6.0-3.0"}}, {"uniqueid": "w40013214:a95726648", "current_trial": 51, "dateTime": 1693566539843, "trialdata": {"rt": 56241, "response": {"Q0": "Strongly disagree", "Q1": "Neither disagree nor agree", "Q2": "Neither disagree nor agree", "Q3": "Neither disagree nor agree", "Q4": "Neither disagree nor agree", "Q5": "Neither disagree nor agree", "Q6": "Neither disagree nor agree"}, "question_order": [0, 1, 2, 3, 4, 5, 6], "trial_id": "self_report_2", "trial_type": "survey-multi-choice", "trial_index": 51, "time_elapsed": 1804007, "internal_node_id": "0.0-6.0-4.0"}}, {"uniqueid": "w40013214:a95726648", "current_trial": 52, "dateTime": 1693566581257, "trialdata": {"rt": 41407, "response": {"gender": "female", "age": "25", "colorblind": "0", "effort": "0"}, "trial_type": "survey-html-form", "trial_index": 52, "time_elapsed": 1845421, "internal_node_id": "0.0-6.0-5.0"}}, {"uniqueid": "w40013214:a95726648", "current_trial": 53, "dateTime": 1693566662886, "trialdata": {"rt": 81621, "response": {"Q0": "The timing around waiting and then viewing using the inspector was complicated at first", "Q1": "No", "Q2": ""}, "trial_type": "survey-text", "trial_index": 53, "time_elapsed": 1927050, "internal_node_id": "0.0-6.0-6.0"}}, {"uniqueid": "w40013214:a95726648", "current_trial": 54, "dateTime": 1693566684930, "trialdata": {"rt": 22033, "stimulus": "<h1>Completion Code Instructions (1/2)</h1>\n<br><br><br><br>\nYou have reached the end of the experiment! The completion code consists of two parts: (1) a code with 2 characters (2) a code with 6 characters. On this page, you will receive the second part of the code. The first part of the completion code will be on the next page.\n<br><br>\nThe second part of your completion code is: <b>EWEK22</b>\n<br><br>\nPlease note this down. Then, press 'Finish HIT' in order to find the first part of your completion code. Once the data has been saved, you will receive this code either in this window or in the original browser window where you started the experiment.\n", "response": 0, "trial_type": "html-button-response", "trial_index": 54, "time_elapsed": 1949093, "internal_node_id": "0.0-6.0-7.0"}}, {"uniqueid": "w40013214:a95726648", "current_trial": 55, "dateTime": 1693566685936, "trialdata": {"success": true, "trial_type": "fullscreen", "trial_index": 55, "time_elapsed": 1950100, "internal_node_id": "0.0-7.0"}}], "questiondata": {"params": {"CODE": "C6DMOQA6", "MIN_TIME": 14, "inspectCost": 1, "startTime": "Fri Sep 01 2023 11:38:54 GMT+0100 (British Summer Time)", "bonusRate": 0.002, "variance": "1_2_4_8_44", "branching": "31123"}, "final_score": 1840.95}, "eventdata": [{"eventtype": "initialized", "value": null, "timestamp": 1693564734388, "interval": 0}, {"eventtype": "window_resize", "value": [1028, 763], "timestamp": 1693564734388, "interval": 0}, {"eventtype": "window_resize", "value": [1028, 763], "timestamp": 1693564734699, "interval": 311}, {"eventtype": "window_resize", "value": [1536, 864], "timestamp": 1693564741685, "interval": 6986}, {"eventtype": "window_resize", "value": [1028, 763], "timestamp": 1693566685187, "interval": 1943502}], "useragent": "Mozilla/5.0 (Windows NT 10.0; Win64; x64) AppleWebKit/537.36 (KHTML, like Gecko) Chrome/116.0.0.0 Safari/537.36", "mode": "live", "id": "w40013214:a95726648", "status": "user data saved", "Beginhit": "2023-09-01 10:38:55.328451", "Beginexp": "2023-09-01 10:39:04.905368", "Endhit": "2023-09-01 11:11:28.737233", "psiturkStatus": 3, "browser": "<redacted>", "platform": "windows", "language": "en-US"}