{"condition": 1, "counterbalance": 0, "assignmentId": "a64655895", "workerId": "w45019992", "hitId": "h22756662", "currenttrial": 14, "bonus": 0, "data": [{"uniqueid": "w45019992:a64655895", "current_trial": 0, "dateTime": 1693579943653, "trialdata": {"success": true, "trial_type": "fullscreen", "trial_index": 0, "time_elapsed": 15284, "internal_node_id": "0.0-0.0"}}, {"uniqueid": "w45019992:a64655895", "current_trial": 1, "dateTime": 1693579966763, "trialdata": {"view_history": [{"page_index": 0, "viewing_time": 23095}], "rt": 23095, "trial_id": "exp_instructions_misaligned", "trial_type": "instructions", "trial_index": 1, "time_elapsed": 38396, "internal_node_id": "0.0-1.0"}}, {"uniqueid": "w45019992:a64655895", "current_trial": 2, "dateTime": 1693580197804, "trialdata": {"view_history": [{"page_index": 0, "viewing_time": 61728}, {"page_index": 1, "viewing_time": 91937}, {"page_index": 2, "viewing_time": 42437}, {"page_index": 3, "viewing_time": 34936}], "rt": 231038, "trial_id": "mouselab_instructions_1_misaligned", "trial_type": "instructions", "trial_index": 2, "time_elapsed": 269437, "internal_node_id": "0.0-2.0-1.0"}}, {"uniqueid": "w45019992:a64655895", "current_trial": 3, "dateTime": 1693580367959, "trialdata": {"revealed_states": [], "clicked_states": ["23", "28", "1", "2", "3", "8", "9", "5", "6", "7", "10", "26", "27", "25", "29", "30", "31", "24", "33", "12", "13", "14", "15", "16", "18", "17"], "num_clicks_accrued": [0, 0, 0, 0, 0, 0, 0, 0, 0, 0, 0, 0, 0], "stateRewards": ["", 10, -10, 10, -10, -10, -10, -10, 10, -10, 10, 10, 10, -10, 10, 10, -10, 10, 10, 10, 10, 10, -10, 10, 10, -10, 10, 10, 10, 10, 10, -10, -10, 10], "withholdReward": false, "trial_id": "practice_1", "block": "test", "trialIndex": 0, "score": 0.5, "costs": -13, "simulationMode": [null, null, null, null, null], "rewards": [10, -10, 10, 10, -10], "path": ["0", "0", "1", "2", "3", "8", "9"], "rt": [123530, 9642, 4923, 2413, 914], "actions": ["up", "up", "up", "left", "up"], "actionTimes": [133325, 143487, 148943, 151873, 153311], "queries": {"click": {"state": {"target": ["23", "28", "1", "2", "3", "8", "9", "5", "6", "7", "10", "26", "27", "25", "29", "30", "31", "24", "33", "12", "13", "14", "15", "16", "18", "17"], "time": [14925, 18417, 25202, 27647, 30414, 32954, 35966, 41326, 45865, 49531, 52826, 58727, 62576, 67337, 70490, 79560, 83336, 86405, 90151, 94156, 96590, 98365, 100889, 103709, 107142, 109741]}, "edge": {"target": [], "time": []}}, "mouseover": {"state": {"target": ["0", "0", "23", "24", "28", "25", "26", "27", "1", "2", "3", "8", "9", "5", "6", "4", "4", "7", "10", "28", "26", "27", "26", "24", "24", "25", "29", "26", "24", "25", "30", "31", "24", "33", "23", "12", "13", "14", "15", "16", "18", "15", "17", "14", "20"], "time": [12980, 13588, 13917, 17091, 17795, 21872, 22268, 22959, 24616, 26933, 29514, 32120, 34947, 39095, 45158, 47922, 48221, 48755, 52164, 55041, 57968, 61895, 65072, 65549, 66092, 66494, 70040, 73349, 73816, 74406, 78078, 82718, 85580, 89267, 93186, 93791, 96071, 97429, 99944, 102787, 106547, 108804, 109039, 112903, 121968]}, "edge": {"target": [], "time": []}}, "mouseout": {"state": {"target": ["13", "14", "13", "12", "0", "0", "0", "23", "24", "28", "25", "26", "27", "1", "2", "3", "8", "9", "5", "6", "4", "4", "7", "10", "28", "26", "27", "26", "24", "24", "25", "29", "26", "24", "25", "30", "31", "24", "33", "23", "12", "13", "14", "15", "16", "18", "15", "17", "14", "20"], "time": [1570, 1613, 8101, 8172, 11970, 13546, 13615, 16481, 17374, 21386, 22175, 22363, 23778, 26641, 29028, 32004, 34778, 38438, 43353, 47785, 47992, 48279, 51279, 54271, 57549, 60656, 64884, 65216, 65613, 66333, 69571, 73291, 73465, 74317, 77909, 82593, 85284, 89028, 93020, 93220, 96017, 97244, 99675, 102385, 106095, 107384, 108906, 112517, 121911, 121999]}, "edge": {"target": [], "time": []}}}, "displayed_time": "153.82", "trialTime": 168660, "trial_type": "mouselab-mdp", "trial_index": 3, "time_elapsed": 439590, "internal_node_id": "0.0-2.0-2.0-0.0"}}, {"uniqueid": "w45019992:a64655895", "current_trial": 4, "dateTime": 1693580438488, "trialdata": {"revealed_states": [], "clicked_states": [], "num_clicks_accrued": [0, 0, 0, 0, 0, 0, 0, 0, 0, 0, 0, 0, 0], "stateRewards": ["", 10, 10, 10, 10, -10, -10, -10, 10, 10, -10, -10, 10, -10, -10, 10, 10, -10, 10, 10, -10, -10, -10, 10, 10, -10, 10, -10, 10, 10, 10, -10, -10, 10], "withholdReward": false, "trial_id": "practice_2", "block": "test", "trialIndex": 1, "score": 33.5, "costs": 0, "simulationMode": [null, null, null, null, null], "rewards": [10, 10, 10, 10, -10], "path": ["0", "0", "1", "2", "3", "4", "6"], "rt": [5490, 4879, 26878, 1932, 1119], "actions": ["up", "up", "up", "right", "right"], "actionTimes": [17915, 23315, 50733, 53197, 54857], "queries": {"click": {"state": {"target": [], "time": []}, "edge": {"target": [], "time": []}}, "mouseover": {"state": {"target": [], "time": []}, "edge": {"target": [], "time": []}}, "mouseout": {"state": {"target": ["14", "13", "0", "17", "3", "7"], "time": [10898, 11149, 31907, 34043, 34465, 38748]}, "edge": {"target": [], "time": []}}}, "displayed_time": "55.38", "trialTime": 69799, "trial_type": "mouselab-mdp", "trial_index": 4, "time_elapsed": 510119, "internal_node_id": "0.0-2.0-2.0-1.0"}}, {"uniqueid": "w45019992:a64655895", "current_trial": 5, "dateTime": 1693580495958, "trialdata": {"view_history": [{"page_index": 0, "viewing_time": 41509}, {"page_index": 1, "viewing_time": 15950}], "rt": 57459, "trial_id": "mouselab_instructions_2_misaligned", "trial_type": "instructions", "trial_index": 5, "time_elapsed": 567591, "internal_node_id": "0.0-2.0-3.0"}}, {"uniqueid": "w45019992:a64655895", "current_trial": 6, "dateTime": 1693580541349, "trialdata": {"rt": 45385, "response": {"Q0": "The cost for clicking on nodes may vary between nodes.", "Q1": "The better I perform the higher my bonus will be.", "Q2": "No, the amount of cash at each node of the web may be different each time.", "Q3": "To get the highest total score.", "Q4": "Only before moving the spider.", "Q5": "10 seconds"}, "question_order": [0, 1, 2, 3, 4, 5], "correct": {"Q0": "The cost for clicking on nodes may vary between nodes.", "Q1": "The better I perform the higher my bonus will be.", "Q2": "No, the amount of cash at each node of the web may be different each time.", "Q3": "To get the highest total score.", "Q4": "Only before moving the spider.", "Q5": "3 seconds"}, "trial_id": "mouselab_quiz_misaligned", "trial_type": "survey-multi-choice", "trial_index": 6, "time_elapsed": 612982, "internal_node_id": "0.0-2.0-4.0"}}, {"uniqueid": "w45019992:a64655895", "current_trial": 7, "dateTime": 1693580566951, "trialdata": {"success": true, "trial_type": "fullscreen", "trial_index": 7, "time_elapsed": 638584, "internal_node_id": "0.0-2.1-0.1-0.1"}}, {"uniqueid": "w45019992:a64655895", "current_trial": 8, "dateTime": 1693580676930, "trialdata": {"view_history": [{"page_index": 0, "viewing_time": 53750}, {"page_index": 1, "viewing_time": 41615}, {"page_index": 2, "viewing_time": 8300}, {"page_index": 3, "viewing_time": 6306}], "rt": 109971, "trial_id": "mouselab_instructions_1_misaligned", "trial_type": "instructions", "trial_index": 8, "time_elapsed": 748562, "internal_node_id": "0.0-2.1-1.1"}}, {"uniqueid": "w45019992:a64655895", "current_trial": 9, "dateTime": 1693580738264, "trialdata": {"revealed_states": [], "clicked_states": [], "num_clicks_accrued": [0, 0, 0, 0, 0, 0, 0, 0, 0, 0, 0, 0, 0], "stateRewards": ["", 10, -10, 10, -10, -10, -10, -10, 10, -10, 10, 10, 10, -10, 10, 10, -10, 10, 10, 10, 10, 10, -10, 10, 10, -10, 10, 10, 10, 10, 10, -10, -10, 10], "withholdReward": false, "trial_id": "practice_1", "block": "test", "trialIndex": 2, "score": -6.5, "costs": 0, "simulationMode": [null, null, null, null, null], "rewards": [10, -10, 10, -10, -10], "path": ["0", "0", "1", "2", "3", "4", "6"], "rt": [13873, 3552, 22279, 959, 520], "actions": ["up", "up", "up", "right", "right"], "actionTimes": [18084, 22157, 44959, 46465, 47518], "queries": {"click": {"state": {"target": [], "time": []}, "edge": {"target": [], "time": []}}, "mouseover": {"state": {"target": ["13", "15"], "time": [11328, 11415]}, "edge": {"target": [], "time": []}}, "mouseout": {"state": {"target": ["0", "13", "15", "15", "7", "20", "20"], "time": [11274, 11359, 11464, 29700, 32434, 39230, 52495]}, "edge": {"target": [], "time": []}}}, "displayed_time": "48.02", "trialTime": 60602, "trial_type": "mouselab-mdp", "trial_index": 9, "time_elapsed": 809895, "internal_node_id": "0.0-2.1-2.1-0.1"}}, {"uniqueid": "w45019992:a64655895", "current_trial": 10, "dateTime": 1693580759861, "trialdata": {"revealed_states": [], "clicked_states": [], "num_clicks_accrued": [0, 0, 0, 0, 0, 0, 0, 0, 0, 0, 0, 0, 0], "stateRewards": ["", 10, 10, 10, 10, -10, -10, -10, 10, 10, -10, -10, 10, -10, -10, 10, 10, -10, 10, 10, -10, -10, -10, 10, 10, -10, 10, -10, 10, 10, 10, -10, -10, 10], "withholdReward": false, "trial_id": "practice_2", "block": "test", "trialIndex": 3, "score": 13.5, "costs": 0, "simulationMode": [null, null, null, null, null], "rewards": [10, 10, -10, 10, -10], "path": ["0", "0", "23", "24", "25", "26", "27"], "rt": [3938, 715, 582, 1472, 409], "actions": ["left", "left", "left", "up", "up"], "actionTimes": [8477, 9720, 10831, 12817, 13749], "queries": {"click": {"state": {"target": [], "time": []}, "edge": {"target": [], "time": []}}, "mouseover": {"state": {"target": [], "time": []}, "edge": {"target": [], "time": []}}, "mouseout": {"state": {"target": ["0", "22"], "time": [15346, 15454]}, "edge": {"target": [], "time": []}}}, "displayed_time": "14.26", "trialTime": 20803, "trial_type": "mouselab-mdp", "trial_index": 10, "time_elapsed": 831492, "internal_node_id": "0.0-2.1-2.1-1.1"}}, {"uniqueid": "w45019992:a64655895", "current_trial": 11, "dateTime": 1693580786242, "trialdata": {"view_history": [{"page_index": 0, "viewing_time": 23667}, {"page_index": 1, "viewing_time": 2702}], "rt": 26369, "trial_id": "mouselab_instructions_2_misaligned", "trial_type": "instructions", "trial_index": 11, "time_elapsed": 857875, "internal_node_id": "0.0-2.1-3.1"}}, {"uniqueid": "w45019992:a64655895", "current_trial": 12, "dateTime": 1693580842892, "trialdata": {"rt": 56646, "response": {"Q0": "The cost is always $2.", "Q1": "The better I perform the higher my bonus will be.", "Q2": "No, the structure of the web will be different each time.", "Q3": "To get the highest total score.", "Q4": "Only before moving the spider.", "Q5": "3 seconds"}, "question_order": [0, 1, 2, 3, 4, 5], "correct": {"Q0": "The cost for clicking on nodes may vary between nodes.", "Q1": "The better I perform the higher my bonus will be.", "Q2": "No, the amount of cash at each node of the web may be different each time.", "Q3": "To get the highest total score.", "Q4": "Only before moving the spider.", "Q5": "3 seconds"}, "trial_id": "mouselab_quiz_misaligned", "trial_type": "survey-multi-choice", "trial_index": 12, "time_elapsed": 914525, "internal_node_id": "0.0-2.1-4.1"}}, {"uniqueid": "w45019992:a64655895", "current_trial": 13, "dateTime": 1693580875130, "trialdata": {"success": true, "trial_type": "fullscreen", "trial_index": 13, "time_elapsed": 946763, "internal_node_id": "0.0-2.2-0.2-0.2"}}], "questiondata": {"params": {"CODE": "C6DMOQA6", "MIN_TIME": 14, "inspectCost": 1, "startTime": "Fri Sep 01 2023 16:52:04 GMT+0200 (South Africa Standard Time)", "bonusRate": 0.002, "variance": "1_2_4_8_44", "branching": "31123"}}, "eventdata": [{"eventtype": "initialized", "value": null, "timestamp": 1693579923807, "interval": 0}, {"eventtype": "window_resize", "value": [1028, 503], "timestamp": 1693579923807, "interval": 0}, {"eventtype": "window_resize", "value": [1028, 503], "timestamp": 1693579924693, "interval": 886}, {"eventtype": "window_resize", "value": [1094, 615], "timestamp": 1693579935804, "interval": 11111}, {"eventtype": "focus", "value": "off", "timestamp": 1693580411029, "interval": 475225}, {"eventtype": "focus", "value": "on", "timestamp": 1693580415871, "interval": 4842}, {"eventtype": "focus", "value": "off", "timestamp": 1693580554441, "interval": 138570}, {"eventtype": "focus", "value": "on", "timestamp": 1693580554441, "interval": 0}, {"eventtype": "focus", "value": "off", "timestamp": 1693580852757, "interval": 298316}, {"eventtype": "focus", "value": "on", "timestamp": 1693580852757, "interval": 0}, {"eventtype": "focus", "value": "off", "timestamp": 1693580881572, "interval": 28815}, {"eventtype": "focus", "value": "on", "timestamp": 1693580883378, "interval": 1806}, {"eventtype": "window_resize", "value": [1028, 503], "timestamp": 1693580888734, "interval": 5356}], "useragent": "Mozilla/5.0 (Windows NT 10.0; Win64; x64) AppleWebKit/537.36 (KHTML, like Gecko) Chrome/116.0.0.0 Safari/537.36", "mode": "live", "id": "w45019992:a64655895", "status": "user data saved", "Beginhit": "2023-09-01 14:51:59.376313", "Beginexp": "2023-09-01 14:52:25.147368", "Endhit": null, "psiturkStatus": 6, "browser": "<redacted>", "platform": "windows", "language": "en-US", "excludeReason": "quizfail"}