{"condition": 1, "counterbalance": 0, "assignmentId": "a81521360", "workerId": "w53907704", "hitId": "h55952636", "currenttrial": 56, "bonus": 0, "data": [{"uniqueid": "w53907704:a81521360", "current_trial": 0, "dateTime": 1691148634782, "trialdata": {"success": true, "trial_type": "fullscreen", "trial_index": 0, "time_elapsed": 3871, "internal_node_id": "0.0-0.0"}}, {"uniqueid": "w53907704:a81521360", "current_trial": 1, "dateTime": 1691148822768, "trialdata": {"view_history": [{"page_index": 0, "viewing_time": 187984}], "rt": 187984, "trial_id": "exp_instructions_misaligned", "trial_type": "instructions", "trial_index": 1, "time_elapsed": 191857, "internal_node_id": "0.0-1.0"}}, {"uniqueid": "w53907704:a81521360", "current_trial": 2, "dateTime": 1691148826060, "trialdata": {"success": true, "trial_type": "fullscreen", "trial_index": 2, "time_elapsed": 195149, "internal_node_id": "0.0-2.0-0.0"}}, {"uniqueid": "w53907704:a81521360", "current_trial": 3, "dateTime": 1691149028081, "trialdata": {"view_history": [{"page_index": 0, "viewing_time": 61760}, {"page_index": 1, "viewing_time": 81342}, {"page_index": 2, "viewing_time": 18990}, {"page_index": 3, "viewing_time": 39929}], "rt": 202021, "trial_id": "mouselab_instructions_1_misaligned", "trial_type": "instructions", "trial_index": 3, "time_elapsed": 397170, "internal_node_id": "0.0-2.0-1.0"}}, {"uniqueid": "w53907704:a81521360", "current_trial": 4, "dateTime": 1691149059454, "trialdata": {"revealed_states": [], "clicked_states": ["23", "1", "12"], "num_clicks_accrued": [0, 0, 0, 0, 0, 0, 0, 0, 0, 0, 0, 0, 0], "stateRewards": ["", -10, -10, -10, -10, 10, 10, -10, -10, -10, 10, 10, -10, -10, -10, 10, -10, 10, 10, 10, 10, -10, 10, -10, -10, -10, 10, 10, 10, -10, -10, 10, -10, 10], "withholdReward": false, "trial_id": "practice_1", "block": "test", "trialIndex": 0, "score": -28, "costs": -1.5, "simulationMode": [null, null, null, null, null], "rewards": [-10, -10, -10, -10, 10], "path": ["0", "0", "1", "2", "3", "4", "5"], "rt": [8800, 2593, 428, 287, 359], "actions": ["up", "up", "up", "right", "up"], "actionTimes": [22144, 25232, 26167, 26959, 27815], "queries": {"click": {"state": {"target": ["23", "1", "12"], "time": [15469, 17609, 18842]}, "edge": {"target": [], "time": []}}, "mouseover": {"state": {"target": ["0", "23", "1", "12"], "time": [14552, 14834, 17350, 18019]}, "edge": {"target": [], "time": []}}, "mouseout": {"state": {"target": ["21", "0", "0", "21", "18", "12", "0", "0", "23", "1", "12", "2"], "time": [892, 1173, 1375, 1476, 12485, 12501, 13650, 14666, 17085, 17936, 23553, 24420]}, "edge": {"target": [], "time": []}}}, "displayed_time": "28.31", "trialTime": 30855, "trial_type": "mouselab-mdp", "trial_index": 4, "time_elapsed": 428543, "internal_node_id": "0.0-2.0-2.0-0.0"}}, {"uniqueid": "w53907704:a81521360", "current_trial": 5, "dateTime": 1691149068134, "trialdata": {"revealed_states": [], "clicked_states": [], "num_clicks_accrued": [0, 0, 0, 0, 0, 0, 0, 0, 0, 0, 0, 0, 0], "stateRewards": ["", 10, 10, 10, 10, 10, 10, -10, -10, 10, 10, -10, 10, 10, 10, 10, 10, 10, 10, 10, 10, -10, 10, 10, -10, -10, -10, -10, -10, -10, 10, -10, -10, 10], "withholdReward": false, "trial_id": "practice_2", "block": "test", "trialIndex": 1, "score": 53.5, "costs": 0, "simulationMode": [null, null, null, null, null], "rewards": [10, 10, 10, 10, 10], "path": ["0", "0", "12", "13", "14", "15", "17"], "rt": [894, 316, 243, 590, 131], "actions": ["right", "right", "right", "up", "right"], "actionTimes": [3128, 3934, 4678, 5758, 6382], "queries": {"click": {"state": {"target": [], "time": []}, "edge": {"target": [], "time": []}}, "mouseover": {"state": {"target": [], "time": []}, "edge": {"target": [], "time": []}}, "mouseout": {"state": {"target": ["0"], "time": [2349]}, "edge": {"target": [], "time": []}}}, "displayed_time": "6.88", "trialTime": 8477, "trial_type": "mouselab-mdp", "trial_index": 5, "time_elapsed": 437222, "internal_node_id": "0.0-2.0-2.0-1.0"}}, {"uniqueid": "w53907704:a81521360", "current_trial": 6, "dateTime": 1691149117192, "trialdata": {"view_history": [{"page_index": 0, "viewing_time": 23516}, {"page_index": 1, "viewing_time": 25541}], "rt": 49057, "trial_id": "mouselab_instructions_2_misaligned", "trial_type": "instructions", "trial_index": 6, "time_elapsed": 486281, "internal_node_id": "0.0-2.0-3.0"}}, {"uniqueid": "w53907704:a81521360", "current_trial": 7, "dateTime": 1691149160073, "trialdata": {"rt": 42877, "response": {"Q0": "The cost for clicking on nodes may vary between nodes.", "Q1": "The better I perform the higher my bonus will be.", "Q2": "No, the amount of cash at each node of the web may be different each time.", "Q3": "To get the highest total score.", "Q4": "Only before moving the spider.", "Q5": "3 seconds"}, "question_order": [0, 1, 2, 3, 4, 5], "correct": {"Q0": "The cost for clicking on nodes may vary between nodes.", "Q1": "The better I perform the higher my bonus will be.", "Q2": "No, the amount of cash at each node of the web may be different each time.", "Q3": "To get the highest total score.", "Q4": "Only before moving the spider.", "Q5": "3 seconds"}, "trial_id": "mouselab_quiz_misaligned", "trial_type": "survey-multi-choice", "trial_index": 7, "time_elapsed": 529162, "internal_node_id": "0.0-2.0-4.0"}}, {"uniqueid": "w53907704:a81521360", "current_trial": 8, "dateTime": 1691149169757, "trialdata": {"rt": 9679, "stimulus": "\n<h1> Get ready to start the game! </h1>\n\nThank you for reading the instructions. Get ready start with the 40 rounds of this game.\n<br><br>\nIf you need to take a break, feel free to take one after the end of a round, before continuing to the next one.\n<br><br>\nRemember, the more money the spider gets, the bigger your bonus will be!\n<br><br>\n<div style='text-align: center;'>Press <code>space</code> to begin.</div>\n\n<br><br>\n(If, at any point, the <code>space</code> key does not take you to the next page, click once on the text and try again.)", "response": " ", "trial_id": "mdp_ready", "trial_type": "html-keyboard-response", "trial_index": 8, "time_elapsed": 538846, "internal_node_id": "0.0-4.0-0.0"}}, {"uniqueid": "w53907704:a81521360", "current_trial": 9, "dateTime": 1691149188088, "trialdata": {"revealed_states": [], "clicked_states": ["23", "1", "12"], "num_clicks_accrued": [0, 0, 0, 0, 0, 0, 0, 0, 0, 0, 0, 0, 0], "stateRewards": ["", -1, -4, -3, 1, -45, -67, -24, 14, 32, 22, 22, -1, 1, -5, -7, 72, 84, -79, -5, 19, -40, -2, -1, -2, 8, -3, 84, -25, -28, 11, 64, -66, 77], "withholdReward": false, "trial_id": "mdp_trial_1", "block": "test", "trialIndex": 2, "score": 72.75, "costs": 0.75, "simulationMode": [null, null, null, null, null], "rewards": [-1, 1, -5, -7, 84], "path": ["0", "0", "12", "13", "14", "15", "17"], "rt": [3251, 363, 48, 40, 36], "actions": ["right", "right", "right", "up", "right"], "actionTimes": [5618, 6482, 7033, 7578, 8122], "queries": {"click": {"state": {"target": ["23", "1", "12"], "time": [2975, 3627, 4229]}, "edge": {"target": [], "time": []}}, "mouseover": {"state": {"target": ["23", "1", "12", "0", "0"], "time": [2753, 3287, 3885, 5102, 5321]}, "edge": {"target": [], "time": []}}, "mouseout": {"state": {"target": ["0", "23", "1", "12", "0", "0"], "time": [2670, 3152, 3836, 4987, 5284, 5985]}, "edge": {"target": [], "time": []}}}, "displayed_time": "16.37", "trialTime": 18100, "trial_type": "mouselab-mdp", "trial_index": 9, "time_elapsed": 557177, "internal_node_id": "0.0-4.0-1.0-0.0"}}, {"uniqueid": "w53907704:a81521360", "current_trial": 10, "dateTime": 1691149205912, "trialdata": {"revealed_states": [], "clicked_states": ["24", "2", "13"], "num_clicks_accrued": [0, 0, 0, 0, 0, 0, 0, 0, 0, 0, 0, 0, 0], "stateRewards": ["", 2, 3, -3, 12, -43, 81, -82, -15, 58, -7, -75, -1, -1, 3, -5, 50, -25, -8, 4, 66, 65, -66, 2, -4, 2, -1, -10, 10, 37, 11, 88, -37, 8], "withholdReward": false, "trial_id": "mdp_trial_2", "block": "test", "trialIndex": 3, "score": 34.95, "costs": -1.0499999999999998, "simulationMode": [null, null, null, null, null], "rewards": [2, -4, 2, -1, 37], "path": ["0", "0", "23", "24", "25", "26", "29"], "rt": [5584, 70, 167, 52, 46], "actions": ["left", "left", "left", "up", "left"], "actionTimes": [7035, 7602, 8283, 8834, 9378], "queries": {"click": {"state": {"target": ["24", "2", "13"], "time": [2287, 3521, 4587]}, "edge": {"target": [], "time": []}}, "mouseover": {"state": {"target": ["23", "24", "2", "13"], "time": [1764, 2031, 3097, 4048]}, "edge": {"target": [], "time": []}}, "mouseout": {"state": {"target": ["0", "23", "24", "2", "2", "13"], "time": [1728, 1798, 2813, 3527, 3929, 5347]}, "edge": {"target": [], "time": []}}}, "displayed_time": "15.46", "trialTime": 17613, "trial_type": "mouselab-mdp", "trial_index": 10, "time_elapsed": 575001, "internal_node_id": "0.0-4.0-1.0-1.0"}}, {"uniqueid": "w53907704:a81521360", "current_trial": 11, "dateTime": 1691149240157, "trialdata": {"revealed_states": [], "clicked_states": ["29", "17", "5", "9", "33", "20"], "num_clicks_accrued": [0, 0, 0, 0, 0, 0, 0, 0, 0, 0, 0, 0, 0], "stateRewards": ["", -1, 3, 8, 10, -86, 61, -36, 10, 17, -60, 24, -1, -3, 3, 11, 50, 60, 33, -3, -20, 58, -6, 1, -4, -4, 13, -70, -71, 43, 14, 52, 82, -11], "withholdReward": false, "trial_id": "mdp_trial_3", "block": "test", "trialIndex": 4, "score": 57.1, "costs": -12.9, "simulationMode": [null, null, null, null, null, null, null], "rewards": [-1, -3, 3, 11, 60], "path": ["0", "0", "12", "13", "14", "15", "17"], "rt": [17302, 7413, 1559, 129, 176, 52, 70], "actions": ["right", "right", "right", "right", "right", "up", "right"], "actionTimes": [18460, 25875, 27436, 28082, 28746, 29290, 29874], "queries": {"click": {"state": {"target": ["29", "17", "5", "9", "33", "20"], "time": [3468, 9241, 13770, 17289, 21909, 25025]}, "edge": {"target": [], "time": []}}, "mouseover": {"state": {"target": ["23", "24", "25", "29", "11", "9", "5", "9", "5", "5", "6", "16", "15", "18", "17", "16", "5", "9", "9", "8", "10", "10", "0", "31", "30", "33", "30", "19", "20", "13", "12", "0"], "time": [1692, 1727, 1761, 2162, 3711, 3761, 4527, 4849, 5564, 5846, 6629, 6681, 7445, 7698, 9065, 10030, 11963, 14365, 14631, 18266, 18333, 18499, 19416, 21349, 21383, 21550, 22334, 22432, 22735, 26202, 26268, 26502]}, "edge": {"target": [], "time": []}}, "mouseout": {"state": {"target": ["0", "23", "24", "25", "29", "11", "9", "5", "9", "5", "5", "6", "16", "15", "18", "17", "16", "5", "9", "9", "8", "10", "10", "0", "31", "30", "33", "30", "19", "20", "13", "12", "0", "0"], "time": [1663, 1712, 1744, 1843, 3628, 3728, 4444, 4779, 5495, 5629, 6597, 6645, 6716, 7581, 7815, 9864, 10064, 14282, 14465, 18232, 18298, 18366, 18933, 21300, 21367, 21415, 22332, 22349, 22466, 25768, 26235, 26304, 26535, 31237]}, "edge": {"target": [], "time": []}}}, "displayed_time": "30.37", "trialTime": 34017, "trial_type": "mouselab-mdp", "trial_index": 11, "time_elapsed": 609246, "internal_node_id": "0.0-4.0-1.0-2.0"}}, {"uniqueid": "w53907704:a81521360", "current_trial": 12, "dateTime": 1691149264302, "trialdata": {"revealed_states": [], "clicked_states": ["33", "29", "9", "5", "17"], "num_clicks_accrued": [0, 0, 0, 0, 0, 0, 0, 0, 0, 0, 0, 0, 0], "stateRewards": ["", 1, 2, -8, 9, 18, -83, -11, 6, -64, -48, 17, -2, -2, -5, -3, -24, -3, -86, -2, 48, -41, -22, -2, 4, 7, 8, 81, 13, -48, 10, 61, 19, 57], "withholdReward": false, "trial_id": "mdp_trial_4", "block": "test", "trialIndex": 5, "score": -41.75, "costs": -10.75, "simulationMode": [null, null, null, null, null, null], "rewards": [-2, 4, 7, 8, -48], "path": ["0", "0", "23", "24", "25", "26", "29"], "rt": [15465, 1623, 147, 65, 3, 5], "actions": ["left", "left", "left", "left", "up", "left"], "actionTimes": [17158, 18783, 19421, 19989, 20493, 21013], "queries": {"click": {"state": {"target": ["33", "29", "9", "5", "17"], "time": [2841, 5742, 8976, 12294, 15229]}, "edge": {"target": [], "time": []}}, "mouseover": {"state": {"target": ["23", "33", "29", "27", "11", "9", "5", "5", "6", "16", "17", "17", "16", "17", "13", "12", "0"], "time": [2135, 2566, 3401, 6452, 6502, 6786, 9486, 9769, 13070, 13120, 13220, 14387, 14638, 14938, 15871, 15905, 16472]}, "edge": {"target": [], "time": []}}, "mouseout": {"state": {"target": ["0", "23", "33", "29", "27", "11", "9", "5", "5", "6", "16", "17", "17", "16", "17", "17", "13", "12"], "time": [967, 2167, 3237, 6370, 6468, 6569, 9419, 9538, 13054, 13104, 13139, 13354, 14588, 14838, 15327, 15805, 15888, 16121]}, "edge": {"target": [], "time": []}}}, "displayed_time": "21.52", "trialTime": 23941, "trial_type": "mouselab-mdp", "trial_index": 12, "time_elapsed": 633391, "internal_node_id": "0.0-4.0-1.0-3.0"}}, {"uniqueid": "w53907704:a81521360", "current_trial": 13, "dateTime": 1691149295070, "trialdata": {"revealed_states": [], "clicked_states": ["12", "13", "14", "15", "17", "23", "24", "25", "1", "2", "7", "10"], "num_clicks_accrued": [0, 0, 0, 0, 0, 0, 0, 0, 0, 0, 0, 0, 0], "stateRewards": ["", 2, 3, -1, 6, 44, -4, -59, -14, -3, 64, 16, 1, -3, 3, 6, 3, 49, 19, 3, -49, -14, -86, 1, 2, -3, -8, -33, 14, 32, -13, -77, -47, -67], "withholdReward": false, "trial_id": "mdp_trial_5", "block": "test", "trialIndex": 6, "score": -4.199999999999999, "costs": -10.2, "simulationMode": [null, null, null, null, null], "rewards": [2, 3, -1, -14, 16], "path": ["0", "0", "1", "2", "3", "8", "11"], "rt": [17960, 515, 2417, 379, 239], "actions": ["up", "up", "up", "left", "left"], "actionTimes": [23049, 24065, 26984, 27865, 28608], "queries": {"click": {"state": {"target": ["12", "13", "14", "15", "17", "23", "24", "25", "1", "2", "7", "10"], "time": [6202, 7119, 7836, 8736, 9420, 12221, 12987, 13553, 15239, 15905, 16873, 20221]}, "edge": {"target": [], "time": []}}, "mouseover": {"state": {"target": ["12", "13", "14", "15", "17", "12", "0", "23", "23", "24", "23", "24", "25", "28", "1", "2", "7", "10", "10", "10"], "time": [5544, 6561, 7595, 8530, 9131, 10365, 10381, 10462, 11030, 11646, 11881, 12747, 13380, 14729, 14962, 15634, 16447, 17331, 18381, 19964]}, "edge": {"target": [], "time": []}}, "mouseout": {"state": {"target": ["0", "0", "12", "13", "14", "15", "17", "12", "0", "23", "23", "24", "23", "24", "25", "28", "1", "2", "7", "7", "2", "10", "10", "10", "23", "28"], "time": [386, 5459, 6448, 7478, 8263, 9098, 10279, 10380, 10414, 10713, 11446, 11781, 12630, 13296, 14682, 14747, 15531, 16412, 16882, 17132, 17264, 18198, 19781, 21650, 26166, 26398]}, "edge": {"target": [], "time": []}}}, "displayed_time": "29.10", "trialTime": 30560, "trial_type": "mouselab-mdp", "trial_index": 13, "time_elapsed": 664158, "internal_node_id": "0.0-4.0-1.0-4.0"}}, {"uniqueid": "w53907704:a81521360", "current_trial": 14, "dateTime": 1691149323549, "trialdata": {"revealed_states": [], "clicked_states": ["22", "21", "20", "17", "16", "15", "14", "25", "2", "3"], "num_clicks_accrued": [0, 0, 0, 0, 0, 0, 0, 0, 0, 0, 0, 0, 0], "stateRewards": ["", 2, -1, -2, -5, -47, -57, -33, -11, 31, -18, -72, -2, 1, -4, -8, -46, -53, -50, 15, -85, -9, 39, -2, -2, 1, 14, -1, -8, 53, -12, -41, -74, 62], "withholdReward": false, "trial_id": "mdp_trial_6", "block": "test", "trialIndex": 7, "score": -78.5, "costs": -15.499999999999998, "simulationMode": [null, null, null, null, null], "rewards": [2, -1, -2, -5, -57], "path": ["0", "0", "1", "2", "3", "4", "6"], "rt": [21636, 71, 64, 8, 46], "actions": ["up", "up", "up", "right", "right"], "actionTimes": [24553, 25120, 25681, 26192, 26747], "queries": {"click": {"state": {"target": ["22", "21", "20", "17", "16", "15", "14", "25", "2", "3"], "time": [4084, 7101, 10170, 13452, 16473, 19822, 20423, 21356, 22806, 23523]}, "edge": {"target": [], "time": []}}, "mouseover": {"state": {"target": ["12", "22", "21", "20", "20", "17", "15", "16", "16", "15", "14", "13", "24", "25", "26", "10", "2", "3", "1", "0"], "time": [3328, 3809, 4427, 7561, 9895, 10795, 14012, 14079, 16012, 17030, 20231, 20765, 20932, 21182, 22282, 22414, 22614, 23266, 23948, 23998]}, "edge": {"target": [], "time": []}}, "mouseout": {"state": {"target": ["28", "0", "12", "22", "21", "20", "20", "17", "15", "16", "16", "15", "14", "13", "24", "25", "26", "10", "2", "3", "1", "0"], "time": [409, 3241, 3592, 4311, 7511, 9678, 10301, 13979, 14029, 15745, 16931, 20150, 20750, 20781, 21099, 22098, 22333, 22498, 23215, 23883, 23966, 24016]}, "edge": {"target": [], "time": []}}}, "displayed_time": "27.25", "trialTime": 28280, "trial_type": "mouselab-mdp", "trial_index": 14, "time_elapsed": 692638, "internal_node_id": "0.0-4.0-1.0-5.0"}}, {"uniqueid": "w53907704:a81521360", "current_trial": 15, "dateTime": 1691149343832, "trialdata": {"revealed_states": [], "clicked_states": ["23", "24", "25", "30", "26", "29", "28"], "num_clicks_accrued": [0, 0, 0, 0, 0, 0, 0, 0, 0, 0, 0, 0, 0], "stateRewards": ["", 2, -4, 1, -12, -59, -53, -74, 16, -88, -66, 66, 1, -2, 8, -9, -14, 22, 25, -1, -39, 47, -14, -1, -1, -2, 1, -4, 52, -26, 15, -7, 46, 43], "withholdReward": false, "trial_id": "mdp_trial_7", "block": "test", "trialIndex": 8, "score": 11.55, "costs": -8.45, "simulationMode": [null, null, null, null, null, null], "rewards": [1, -2, 8, -9, 22], "path": ["0", "0", "12", "13", "14", "15", "17"], "rt": [12564, 717, 377, 19, 16, 450], "actions": ["up", "right", "right", "right", "up", "right"], "actionTimes": [15372, 16092, 16964, 17475, 18005, 18956], "queries": {"click": {"state": {"target": ["23", "24", "25", "30", "26", "29", "28"], "time": [5058, 6090, 7458, 8143, 8995, 9811, 12643]}, "edge": {"target": [], "time": []}}, "mouseover": {"state": {"target": ["0", "23", "24", "31", "30", "25", "30", "26", "29", "27", "28", "27", "28", "10", "2", "1"], "time": [4032, 4750, 5884, 6933, 7134, 7282, 7884, 8785, 9622, 10252, 10772, 11069, 11569, 13170, 13469, 15822]}, "edge": {"target": [], "time": []}}, "mouseout": {"state": {"target": ["0", "0", "23", "24", "31", "30", "25", "30", "25", "26", "29", "27", "28", "27", "28", "10", "2", "1", "12"], "time": [3032, 4702, 5768, 6817, 7067, 7167, 7701, 8535, 8602, 9572, 10122, 10669, 10986, 11436, 13105, 13304, 15237, 16286, 16537]}, "edge": {"target": [], "time": []}}}, "displayed_time": "19.46", "trialTime": 20078, "trial_type": "mouselab-mdp", "trial_index": 15, "time_elapsed": 712921, "internal_node_id": "0.0-4.0-1.0-6.0"}}, {"uniqueid": "w53907704:a81521360", "current_trial": 16, "dateTime": 1691149361064, "trialdata": {"revealed_states": [], "clicked_states": [], "num_clicks_accrued": [0, 0, 0, 0, 0, 0, 0, 0, 0, 0, 0, 0, 0], "stateRewards": ["", -2, 1, -8, 12, -65, -79, 16, 7, -80, -17, -45, -2, 2, -5, -2, -85, 23, -4, -7, 48, 27, -76, 2, 3, 5, 2, 43, 71, -13, 7, -49, 59, -31], "withholdReward": false, "trial_id": "mdp_trial_8", "block": "test", "trialIndex": 9, "score": 16, "costs": 0, "simulationMode": [null, null, null, null, null], "rewards": [-2, 2, -5, -2, 23], "path": ["0", "0", "12", "13", "14", "15", "17"], "rt": [309, 424, 4, 53, 376], "actions": ["right", "right", "right", "up", "right"], "actionTimes": [2326, 3246, 3742, 4310, 5198], "queries": {"click": {"state": {"target": [], "time": []}, "edge": {"target": [], "time": []}}, "mouseover": {"state": {"target": [], "time": []}, "edge": {"target": [], "time": []}}, "mouseout": {"state": {"target": [], "time": []}, "edge": {"target": [], "time": []}}}, "displayed_time": "16.02", "trialTime": 17024, "trial_type": "mouselab-mdp", "trial_index": 16, "time_elapsed": 730153, "internal_node_id": "0.0-4.0-1.0-7.0"}}, {"uniqueid": "w53907704:a81521360", "current_trial": 17, "dateTime": 1691149380680, "trialdata": {"revealed_states": [], "clicked_states": [], "num_clicks_accrued": [0, 0, 0, 0, 0, 0, 0, 0, 0, 0, 0, 0, 0], "stateRewards": ["", -1, 4, -3, 3, 57, -61, 5, -11, 23, -1, 34, -2, -4, -1, -13, 27, 38, -36, 4, -45, 21, 88, 1, -2, -1, 1, -69, -5, -78, -12, -9, 38, -54], "withholdReward": false, "trial_id": "mdp_trial_9", "block": "test", "trialIndex": 10, "score": 18, "costs": 0, "simulationMode": [null, null, null, null, null], "rewards": [-2, -4, -1, 4, 21], "path": ["0", "0", "12", "13", "14", "19", "21"], "rt": [636, 343, 27, 48, 114], "actions": ["right", "right", "right", "down", "down"], "actionTimes": [3565, 4405, 4924, 5476, 6093], "queries": {"click": {"state": {"target": [], "time": []}, "edge": {"target": [], "time": []}}, "mouseover": {"state": {"target": [], "time": []}, "edge": {"target": [], "time": []}}, "mouseout": {"state": {"target": ["0"], "time": [2781]}, "edge": {"target": [], "time": []}}}, "displayed_time": "16.93", "trialTime": 19391, "trial_type": "mouselab-mdp", "trial_index": 17, "time_elapsed": 749769, "internal_node_id": "0.0-4.0-1.0-8.0"}}, {"uniqueid": "w53907704:a81521360", "current_trial": 18, "dateTime": 1691149397848, "trialdata": {"revealed_states": [], "clicked_states": [], "num_clicks_accrued": [0, 0, 0, 0, 0, 0, 0, 0, 0, 0, 0, 0, 0], "stateRewards": ["", -1, 4, 3, 12, -27, 34, -33, 3, -63, 1, 6, 2, 2, -6, -11, -77, -85, 68, -6, 51, 81, -60, -2, -2, 1, 15, 20, 15, 68, -10, -14, 6, -4], "withholdReward": false, "trial_id": "mdp_trial_10", "block": "test", "trialIndex": 11, "score": -15, "costs": 0, "simulationMode": [null, null, null, null, null], "rewards": [-1, 4, 3, 12, -33], "path": ["0", "0", "1", "2", "3", "4", "7"], "rt": [443, 44, 30, 560, 469], "actions": ["up", "up", "up", "right", "down"], "actionTimes": [2692, 3235, 3772, 4835, 5795], "queries": {"click": {"state": {"target": [], "time": []}, "edge": {"target": [], "time": []}}, "mouseover": {"state": {"target": [], "time": []}, "edge": {"target": [], "time": []}}, "mouseout": {"state": {"target": ["0"], "time": [2095]}, "edge": {"target": [], "time": []}}}, "displayed_time": "16.25", "trialTime": 16933, "trial_type": "mouselab-mdp", "trial_index": 18, "time_elapsed": 766936, "internal_node_id": "0.0-4.0-1.0-9.0"}}, {"uniqueid": "w53907704:a81521360", "current_trial": 19, "dateTime": 1691149416384, "trialdata": {"revealed_states": [], "clicked_states": [], "num_clicks_accrued": [0, 0, 0, 0, 0, 0, 0, 0, 0, 0, 0, 0, 0], "stateRewards": ["", -1, -4, -1, -11, 43, 69, 39, 4, 17, -20, -82, -2, -1, 4, 8, -79, 24, -79, 11, 36, 64, 41, 2, 4, -1, 11, -79, -47, 75, -3, 63, -36, -19], "withholdReward": false, "trial_id": "mdp_trial_11", "block": "test", "trialIndex": 12, "score": -17, "costs": 0, "simulationMode": [null, null, null, null, null], "rewards": [2, 4, -1, -3, -19], "path": ["0", "0", "23", "24", "25", "30", "33"], "rt": [383, 46, 33, 19, 102], "actions": ["left", "left", "left", "down", "left"], "actionTimes": [2947, 3482, 4018, 4538, 5138], "queries": {"click": {"state": {"target": [], "time": []}, "edge": {"target": [], "time": []}}, "mouseover": {"state": {"target": [], "time": []}, "edge": {"target": [], "time": []}}, "mouseout": {"state": {"target": ["0"], "time": [2407]}, "edge": {"target": [], "time": []}}}, "displayed_time": "16.57", "trialTime": 18309, "trial_type": "mouselab-mdp", "trial_index": 19, "time_elapsed": 785472, "internal_node_id": "0.0-4.0-1.0-10.0"}}, {"uniqueid": "w53907704:a81521360", "current_trial": 20, "dateTime": 1691149432912, "trialdata": {"revealed_states": [], "clicked_states": [], "num_clicks_accrued": [0, 0, 0, 0, 0, 0, 0, 0, 0, 0, 0, 0, 0], "stateRewards": ["", -1, 3, 2, 9, 41, 4, -46, -12, -54, -87, -25, 2, 3, -1, 11, -77, 12, -33, -9, -32, 35, 72, 1, 3, -7, 4, 37, 65, -73, 6, 77, -43, 8], "withholdReward": false, "trial_id": "mdp_trial_12", "block": "test", "trialIndex": 13, "score": -18, "costs": 0, "simulationMode": [null, null, null, null, null], "rewards": [2, 3, -1, 11, -33], "path": ["0", "0", "12", "13", "14", "15", "18"], "rt": [1320, 487, 143, 44, 125], "actions": ["right", "right", "right", "up", "left"], "actionTimes": [2645, 3629, 4268, 4804, 5421], "queries": {"click": {"state": {"target": [], "time": []}, "edge": {"target": [], "time": []}}, "mouseover": {"state": {"target": [], "time": []}, "edge": {"target": [], "time": []}}, "mouseout": {"state": {"target": ["0"], "time": [1178]}, "edge": {"target": [], "time": []}}}, "displayed_time": "15.33", "trialTime": 16287, "trial_type": "mouselab-mdp", "trial_index": 20, "time_elapsed": 802000, "internal_node_id": "0.0-4.0-1.0-11.0"}}, {"uniqueid": "w53907704:a81521360", "current_trial": 21, "dateTime": 1691149450015, "trialdata": {"revealed_states": [], "clicked_states": [], "num_clicks_accrued": [0, 0, 0, 0, 0, 0, 0, 0, 0, 0, 0, 0, 0], "stateRewards": ["", -2, 4, -5, -12, 85, -24, -18, -15, -78, -22, 26, -1, -1, 2, 14, -45, 52, -23, 7, -33, 24, -6, -2, -4, 5, -7, -16, 36, -39, 5, 71, -87, -23], "withholdReward": false, "trial_id": "mdp_trial_13", "block": "test", "trialIndex": 14, "score": 66, "costs": 0, "simulationMode": [null, null, null, null, null], "rewards": [-1, -1, 2, 14, 52], "path": ["0", "0", "12", "13", "14", "15", "17"], "rt": [811, 443, 140, 56, 99], "actions": ["right", "right", "right", "up", "right"], "actionTimes": [2107, 3051, 3682, 4235, 4842], "queries": {"click": {"state": {"target": [], "time": []}, "edge": {"target": [], "time": []}}, "mouseover": {"state": {"target": [], "time": []}, "edge": {"target": [], "time": []}}, "mouseout": {"state": {"target": ["0"], "time": [1161]}, "edge": {"target": [], "time": []}}}, "displayed_time": "15.30", "trialTime": 16868, "trial_type": "mouselab-mdp", "trial_index": 21, "time_elapsed": 819104, "internal_node_id": "0.0-4.0-1.0-12.0"}}, {"uniqueid": "w53907704:a81521360", "current_trial": 22, "dateTime": 1691149466103, "trialdata": {"revealed_states": [], "clicked_states": [], "num_clicks_accrued": [0, 0, 0, 0, 0, 0, 0, 0, 0, 0, 0, 0, 0], "stateRewards": ["", -2, 3, -5, -7, 66, 43, -60, -4, -70, -75, 4, -1, 2, 2, -13, 54, 11, -40, -1, 77, 32, 15, -2, 3, -8, -9, -35, 83, -27, 6, -74, -34, 44], "withholdReward": false, "trial_id": "mdp_trial_14", "block": "test", "trialIndex": 15, "score": 1, "costs": 0, "simulationMode": [null, null, null, null, null], "rewards": [-1, 2, 2, -13, 11], "path": ["0", "0", "12", "13", "14", "15", "17"], "rt": [503, 74, 27, 22, 51], "actions": ["right", "right", "right", "up", "right"], "actionTimes": [1270, 1845, 2365, 2893, 3437], "queries": {"click": {"state": {"target": [], "time": []}, "edge": {"target": [], "time": []}}, "mouseover": {"state": {"target": [], "time": []}, "edge": {"target": [], "time": []}}, "mouseout": {"state": {"target": ["0"], "time": [624]}, "edge": {"target": [], "time": []}}}, "displayed_time": "14.77", "trialTime": 15847, "trial_type": "mouselab-mdp", "trial_index": 22, "time_elapsed": 835192, "internal_node_id": "0.0-4.0-1.0-13.0"}}, {"uniqueid": "w53907704:a81521360", "current_trial": 23, "dateTime": 1691149483336, "trialdata": {"revealed_states": [], "clicked_states": [], "num_clicks_accrued": [0, 0, 0, 0, 0, 0, 0, 0, 0, 0, 0, 0, 0], "stateRewards": ["", 2, -4, 7, 3, 23, -42, 4, 7, -81, -33, 7, -2, -4, 5, -1, 50, -57, -14, -13, -14, 44, 55, -2, -2, 5, -2, 33, 1, 57, -13, -7, 58, 87], "withholdReward": false, "trial_id": "mdp_trial_15", "block": "test", "trialIndex": 16, "score": -28, "costs": 0, "simulationMode": [null, null, null, null, null], "rewards": [-2, -4, 5, -13, -14], "path": ["0", "0", "12", "13", "14", "19", "20"], "rt": [972, 68, 29, 79, 137], "actions": ["right", "right", "right", "down", "right"], "actionTimes": [2804, 3364, 3892, 4460, 5100], "queries": {"click": {"state": {"target": [], "time": []}, "edge": {"target": [], "time": []}}, "mouseover": {"state": {"target": [], "time": []}, "edge": {"target": [], "time": []}}, "mouseout": {"state": {"target": ["0"], "time": [1682]}, "edge": {"target": [], "time": []}}}, "displayed_time": "15.84", "trialTime": 16982, "trial_type": "mouselab-mdp", "trial_index": 23, "time_elapsed": 852424, "internal_node_id": "0.0-4.0-1.0-14.0"}}, {"uniqueid": "w53907704:a81521360", "current_trial": 24, "dateTime": 1691149499616, "trialdata": {"revealed_states": [], "clicked_states": [], "num_clicks_accrued": [0, 0, 0, 0, 0, 0, 0, 0, 0, 0, 0, 0, 0], "stateRewards": ["", -2, 2, -5, 1, 42, -63, -58, -6, 2, 16, 81, -2, 4, 7, -10, 33, 3, -33, -2, -52, -84, -27, 2, -3, -3, 15, -74, -14, -5, -5, -84, 79, -31], "withholdReward": false, "trial_id": "mdp_trial_16", "block": "test", "trialIndex": 17, "score": 2, "costs": 0, "simulationMode": [null, null, null, null, null], "rewards": [-2, 4, 7, -10, 3], "path": ["0", "0", "12", "13", "14", "15", "17"], "rt": [840, 106, 74, 521, 113], "actions": ["right", "right", "right", "up", "right"], "actionTimes": [1538, 2146, 2714, 3746, 4370], "queries": {"click": {"state": {"target": [], "time": []}, "edge": {"target": [], "time": []}}, "mouseover": {"state": {"target": [], "time": []}, "edge": {"target": [], "time": []}}, "mouseout": {"state": {"target": ["0"], "time": [544]}, "edge": {"target": [], "time": []}}}, "displayed_time": "14.71", "trialTime": 16037, "trial_type": "mouselab-mdp", "trial_index": 24, "time_elapsed": 868705, "internal_node_id": "0.0-4.0-1.0-15.0"}}, {"uniqueid": "w53907704:a81521360", "current_trial": 25, "dateTime": 1691149516496, "trialdata": {"revealed_states": [], "clicked_states": [], "num_clicks_accrued": [0, 0, 0, 0, 0, 0, 0, 0, 0, 0, 0, 0, 0], "stateRewards": ["", 1, 1, -2, 7, -31, -6, 76, 1, -36, -16, -53, 2, 1, 7, 13, -47, -10, 47, -7, 72, 46, -56, -2, -2, -2, 11, -80, 44, 38, 16, 67, 85, -78], "withholdReward": false, "trial_id": "mdp_trial_17", "block": "test", "trialIndex": 18, "score": 13, "costs": 0, "simulationMode": [null, null, null, null, null], "rewards": [2, 1, 7, 13, -10], "path": ["0", "0", "12", "13", "14", "15", "17"], "rt": [676, 15, 58, 19, 518], "actions": ["right", "right", "right", "up", "right"], "actionTimes": [1393, 1906, 2465, 2977, 4009], "queries": {"click": {"state": {"target": [], "time": []}, "edge": {"target": [], "time": []}}, "mouseover": {"state": {"target": [], "time": []}, "edge": {"target": [], "time": []}}, "mouseout": {"state": {"target": ["0"], "time": [561]}, "edge": {"target": [], "time": []}}}, "displayed_time": "14.72", "trialTime": 16628, "trial_type": "mouselab-mdp", "trial_index": 25, "time_elapsed": 885585, "internal_node_id": "0.0-4.0-1.0-16.0"}}, {"uniqueid": "w53907704:a81521360", "current_trial": 26, "dateTime": 1691149535311, "trialdata": {"revealed_states": [], "clicked_states": [], "num_clicks_accrued": [0, 0, 0, 0, 0, 0, 0, 0, 0, 0, 0, 0, 0], "stateRewards": ["", -1, -1, 7, -15, -43, -21, -84, -9, -45, -66, 2, 1, -2, 2, 8, -27, 44, -52, -5, -84, 11, 53, 1, 4, -4, 16, 83, -82, -15, -16, 68, -43, 81], "withholdReward": false, "trial_id": "mdp_trial_18", "block": "test", "trialIndex": 19, "score": 53, "costs": 0, "simulationMode": [null, null, null, null, null], "rewards": [1, -2, 2, 8, 44], "path": ["0", "0", "12", "13", "14", "15", "17"], "rt": [761, 414, 584, 166, 252], "actions": ["right", "right", "right", "up", "right"], "actionTimes": [4361, 5273, 6361, 7025, 7777], "queries": {"click": {"state": {"target": [], "time": []}, "edge": {"target": [], "time": []}}, "mouseover": {"state": {"target": [], "time": []}, "edge": {"target": [], "time": []}}, "mouseout": {"state": {"target": ["0"], "time": [1327]}, "edge": {"target": [], "time": []}}}, "displayed_time": "17.61", "trialTime": 18571, "trial_type": "mouselab-mdp", "trial_index": 26, "time_elapsed": 904400, "internal_node_id": "0.0-4.0-1.0-17.0"}}, {"uniqueid": "w53907704:a81521360", "current_trial": 27, "dateTime": 1691149559333, "trialdata": {"revealed_states": [], "clicked_states": [], "num_clicks_accrued": [0, 0, 0, 0, 0, 0, 0, 0, 0, 0, 0, 0, 0], "stateRewards": ["", 1, -3, -6, -5, 47, 80, -29, 11, -71, 10, -29, -2, 3, -6, 12, 2, -78, -6, 8, 34, -16, -5, -1, 3, 3, -13, 84, -36, -62, -3, -27, 66, 15], "withholdReward": false, "trial_id": "mdp_trial_19", "block": "test", "trialIndex": 20, "score": -71, "costs": 0, "simulationMode": [null, null, null, null, null], "rewards": [-2, 3, -6, 12, -78], "path": ["0", "0", "12", "13", "14", "15", "17"], "rt": [596, 359, 81, 29, 56], "actions": ["right", "right", "right", "up", "right"], "actionTimes": [8755, 9611, 10181, 10715, 11275], "queries": {"click": {"state": {"target": [], "time": []}, "edge": {"target": [], "time": []}}, "mouseover": {"state": {"target": [], "time": []}, "edge": {"target": [], "time": []}}, "mouseout": {"state": {"target": ["0"], "time": [7988]}, "edge": {"target": [], "time": []}}}, "displayed_time": "22.16", "trialTime": 23763, "trial_type": "mouselab-mdp", "trial_index": 27, "time_elapsed": 928422, "internal_node_id": "0.0-4.0-1.0-18.0"}}, {"uniqueid": "w53907704:a81521360", "current_trial": 28, "dateTime": 1691149608832, "trialdata": {"revealed_states": [], "clicked_states": [], "num_clicks_accrued": [0, 0, 0, 0, 0, 0, 0, 0, 0, 0, 0, 0, 0], "stateRewards": ["", 1, 2, -5, 14, 54, -14, -25, 16, -5, -87, 78, -1, 1, 3, -3, 52, 53, 53, -10, 73, -69, -48, 2, 3, 1, 8, -62, -7, 85, 7, 82, 52, -28], "withholdReward": false, "trial_id": "mdp_trial_20", "block": "test", "trialIndex": 21, "score": 53, "costs": 0, "simulationMode": [null, null, null, null, null], "rewards": [-1, 1, 3, -3, 53], "path": ["0", "0", "12", "13", "14", "15", "17"], "rt": [1069, 39, 97, 40, 67], "actions": ["right", "right", "right", "up", "right"], "actionTimes": [15707, 16251, 16859, 17403, 17979], "queries": {"click": {"state": {"target": [], "time": []}, "edge": {"target": [], "time": []}}, "mouseover": {"state": {"target": [], "time": []}, "edge": {"target": [], "time": []}}, "mouseout": {"state": {"target": ["0"], "time": [14483]}, "edge": {"target": [], "time": []}}}, "displayed_time": "28.64", "trialTime": 49262, "trial_type": "mouselab-mdp", "trial_index": 28, "time_elapsed": 977921, "internal_node_id": "0.0-4.0-1.0-19.0"}}, {"uniqueid": "w53907704:a81521360", "current_trial": 29, "dateTime": 1691149637767, "trialdata": {"revealed_states": [], "clicked_states": [], "num_clicks_accrued": [0, 0, 0, 0, 0, 0, 0, 0, 0, 0, 0, 0, 0], "stateRewards": ["", -2, -1, -2, -15, 87, 57, 29, -10, 77, -80, -7, 1, -3, 6, 14, -11, 87, -59, 4, -71, 16, -11, 2, 2, -7, 2, -47, 61, 50, 14, -20, 17, 81], "withholdReward": false, "trial_id": "mdp_trial_21", "block": "test", "trialIndex": 22, "score": 105, "costs": 0, "simulationMode": [null, null, null, null, null], "rewards": [1, -3, 6, 14, 87], "path": ["0", "0", "12", "13", "14", "15", "17"], "rt": [1102, 10, 46, 455, 185], "actions": ["right", "right", "right", "up", "right"], "actionTimes": [2267, 2779, 3331, 4291, 4971], "queries": {"click": {"state": {"target": [], "time": []}, "edge": {"target": [], "time": []}}, "mouseover": {"state": {"target": [], "time": []}, "edge": {"target": [], "time": []}}, "mouseout": {"state": {"target": ["0"], "time": [723]}, "edge": {"target": [], "time": []}}}, "displayed_time": "15.17", "trialTime": 28693, "trial_type": "mouselab-mdp", "trial_index": 29, "time_elapsed": 1006856, "internal_node_id": "0.0-4.0-1.0-20.0"}}, {"uniqueid": "w53907704:a81521360", "current_trial": 30, "dateTime": 1691149659295, "trialdata": {"revealed_states": [], "clicked_states": ["12", "13", "14", "15", "17", "18", "16"], "num_clicks_accrued": [0, 0, 0, 0, 0, 0, 0, 0, 0, 0, 0, 0, 0], "stateRewards": ["", -2, 2, -2, -7, -50, -62, -45, 7, 36, -24, -72, -1, -1, 8, -1, -67, 20, -52, 2, 35, -50, 80, -1, 1, 6, -6, -70, 6, 88, 8, -47, 74, -19], "withholdReward": false, "trial_id": "mdp_trial_22", "block": "test", "trialIndex": 23, "score": 15.95, "costs": -9.05, "simulationMode": [null, null, null, null, null], "rewards": [-1, -1, 8, -1, 20], "path": ["0", "0", "12", "13", "14", "15", "17"], "rt": [13396, 150, 131, 65, 59], "actions": ["right", "right", "right", "up", "right"], "actionTimes": [15714, 16379, 17010, 17578, 18138], "queries": {"click": {"state": {"target": ["12", "13", "14", "15", "17", "18", "16"], "time": [2898, 3799, 4566, 5432, 6182, 9749, 12700]}, "edge": {"target": [], "time": []}}, "mouseover": {"state": {"target": ["0", "12", "13", "14", "15", "17", "15", "18", "16", "13", "14"], "time": [2525, 2656, 3522, 4322, 5206, 5910, 9273, 9407, 10376, 14912, 15028]}, "edge": {"target": [], "time": []}}, "mouseout": {"state": {"target": ["0", "0", "12", "13", "14", "15", "17", "15", "18", "16", "18", "13", "14"], "time": [2179, 2589, 3190, 4173, 4957, 5872, 9258, 9323, 10142, 14711, 14777, 14977, 15342]}, "edge": {"target": [], "time": []}}}, "displayed_time": "18.63", "trialTime": 21268, "trial_type": "mouselab-mdp", "trial_index": 30, "time_elapsed": 1028384, "internal_node_id": "0.0-4.0-1.0-21.0"}}, {"uniqueid": "w53907704:a81521360", "current_trial": 31, "dateTime": 1691149688885, "trialdata": {"revealed_states": [], "clicked_states": ["18", "16", "17", "20", "21", "22"], "num_clicks_accrued": [0, 0, 0, 0, 0, 0, 0, 0, 0, 0, 0, 0, 0], "stateRewards": ["", 1, 1, -6, -2, 7, 77, 3, 16, -16, 66, 31, -1, 3, -8, -6, 33, -50, -48, 7, -60, -66, 36, 2, -3, 3, -7, -12, -61, -79, -4, 8, 74, -70], "withholdReward": false, "trial_id": "mdp_trial_23", "block": "test", "trialIndex": 24, "score": 24.1, "costs": -12.9, "simulationMode": [null, null, null, null, null], "rewards": [-1, 3, -8, 7, 36], "path": ["0", "0", "12", "13", "14", "19", "22"], "rt": [21378, 99, 107, 60, 126], "actions": ["right", "right", "right", "down", "left"], "actionTimes": [25058, 25650, 26258, 26810, 27442], "queries": {"click": {"state": {"target": ["18", "16", "17", "20", "21", "22"], "time": [4517, 8134, 11388, 15103, 18304, 21458]}, "edge": {"target": [], "time": []}}, "mouseover": {"state": {"target": ["13", "18", "15", "16", "17", "20", "21", "22"], "time": [3975, 4262, 5144, 7894, 8478, 14630, 15979, 18733]}, "edge": {"target": [], "time": []}}, "mouseout": {"state": {"target": ["12", "0", "13", "18", "15", "16", "17", "20", "21", "22"], "time": [3041, 3911, 4192, 4677, 5160, 8410, 11696, 15446, 18631, 21765]}, "edge": {"target": [], "time": []}}}, "displayed_time": "27.93", "trialTime": 29354, "trial_type": "mouselab-mdp", "trial_index": 31, "time_elapsed": 1057974, "internal_node_id": "0.0-4.0-1.0-22.0"}}, {"uniqueid": "w53907704:a81521360", "current_trial": 32, "dateTime": 1691149709085, "trialdata": {"revealed_states": [], "clicked_states": ["29", "27", "28"], "num_clicks_accrued": [0, 0, 0, 0, 0, 0, 0, 0, 0, 0, 0, 0, 0], "stateRewards": ["", 1, 1, -5, 10, -31, 73, 14, -8, -23, 63, -70, -1, 2, 8, 7, 25, -59, 27, -10, -40, -71, -15, -2, 3, -8, -5, -19, 77, -34, 7, 67, 63, 19], "withholdReward": false, "trial_id": "mdp_trial_24", "block": "test", "trialIndex": 25, "score": 58.55, "costs": -6.449999999999999, "simulationMode": [null, null, null, null, null], "rewards": [-2, 3, -8, -5, 77], "path": ["0", "0", "23", "24", "25", "26", "28"], "rt": [13122, 160, 158, 59, 86], "actions": ["left", "left", "left", "up", "right"], "actionTimes": [14792, 15453, 16101, 16653, 17245], "queries": {"click": {"state": {"target": ["29", "27", "28"], "time": [2747, 5978, 9196]}, "edge": {"target": [], "time": []}}, "mouseover": {"state": {"target": ["23", "29", "27", "26", "28", "24", "30", "33"], "time": [1971, 2320, 3254, 6439, 6621, 9607, 10023, 10190]}, "edge": {"target": [], "time": []}}, "mouseout": {"state": {"target": ["0", "23", "29", "27", "26", "28", "24", "30"], "time": [1955, 2005, 2844, 6221, 6454, 9522, 9690, 10040]}, "edge": {"target": [], "time": []}}}, "displayed_time": "17.74", "trialTime": 19973, "trial_type": "mouselab-mdp", "trial_index": 32, "time_elapsed": 1078174, "internal_node_id": "0.0-4.0-1.0-23.0"}}, {"uniqueid": "w53907704:a81521360", "current_trial": 33, "dateTime": 1691149744477, "trialdata": {"revealed_states": [], "clicked_states": ["10", "11", "9", "5", "6", "7"], "num_clicks_accrued": [0, 0, 0, 0, 0, 0, 0, 0, 0, 0, 0, 0, 0], "stateRewards": ["", -1, 1, -6, -1, 80, 23, 2, -11, 73, -81, 59, 1, 3, 5, -1, -26, 28, -3, 16, -59, -13, -50, -2, -2, 2, 15, -50, 86, 17, -4, 37, 35, 44], "withholdReward": false, "trial_id": "mdp_trial_25", "block": "test", "trialIndex": 26, "score": 60.1, "costs": -12.9, "simulationMode": [null, null, null, null, null], "rewards": [-1, 1, -6, -1, 80], "path": ["0", "0", "1", "2", "3", "4", "5"], "rt": [24107, 79, 289, 41, 100], "actions": ["up", "up", "up", "right", "up"], "actionTimes": [27528, 28102, 28894, 29430, 30038], "queries": {"click": {"state": {"target": ["10", "11", "9", "5", "6", "7"], "time": [4889, 8104, 11338, 15909, 20958, 24242]}, "edge": {"target": [], "time": []}}, "mouseover": {"state": {"target": ["10", "11", "9", "5", "5", "6", "7", "4", "5", "5"], "time": [3929, 5396, 8497, 11716, 12350, 19916, 21505, 24702, 24736, 25352]}, "edge": {"target": [], "time": []}}, "mouseout": {"state": {"target": ["33", "30", "31", "0", "10", "11", "9", "5", "5", "5", "6", "7", "4", "5", "5"], "time": [1312, 1663, 1779, 3844, 5329, 8314, 11652, 11868, 15990, 17100, 21335, 24685, 24721, 24885, 32077]}, "edge": {"target": [], "time": []}}}, "displayed_time": "30.55", "trialTime": 35150, "trial_type": "mouselab-mdp", "trial_index": 33, "time_elapsed": 1113565, "internal_node_id": "0.0-4.0-1.0-24.0"}}, {"uniqueid": "w53907704:a81521360", "current_trial": 34, "dateTime": 1691149786276, "trialdata": {"revealed_states": [], "clicked_states": ["31", "32", "33", "29", "27", "28", "11", "9", "5", "6"], "num_clicks_accrued": [0, 0, 0, 0, 0, 0, 0, 0, 0, 0, 0, 0, 0], "stateRewards": ["", 1, 1, -3, 2, 22, -25, -11, -5, 50, 49, 3, 1, -1, 8, 14, -85, -30, 57, -6, -39, -16, 59, -2, -1, 5, 5, 59, -16, 8, 4, 67, 56, -9], "withholdReward": false, "trial_id": "mdp_trial_26", "block": "test", "trialIndex": 27, "score": 22.500000000000004, "costs": -21.499999999999996, "simulationMode": [null, null, null, null, null], "rewards": [1, 1, -3, -5, 50], "path": ["0", "0", "1", "2", "3", "8", "9"], "rt": [34996, 65, 122, 514, 145], "actions": ["up", "up", "up", "left", "up"], "actionTimes": [37349, 37933, 38557, 39565, 40213], "queries": {"click": {"state": {"target": ["31", "32", "33", "29", "27", "28", "11", "9", "5", "6"], "time": [3513, 6697, 10013, 13251, 16650, 19884, 24021, 27253, 30721, 34124]}, "edge": {"target": [], "time": []}}, "mouseover": {"state": {"target": ["0", "31", "31", "32", "33", "29", "27", "28", "11", "9", "5", "6", "17"], "time": [2555, 2688, 2904, 3822, 7096, 10575, 13592, 17111, 20811, 24445, 27564, 32165, 35298]}, "edge": {"target": [], "time": []}}, "mouseout": {"state": {"target": ["6", "7", "28", "0", "31", "31", "32", "33", "29", "27", "28", "11", "9", "5", "6", "17"], "time": [570, 620, 1753, 2572, 2721, 3756, 6977, 10326, 13526, 17079, 20461, 24312, 27318, 31165, 34464, 37168]}, "edge": {"target": [], "time": []}}}, "displayed_time": "40.70", "trialTime": 41548, "trial_type": "mouselab-mdp", "trial_index": 34, "time_elapsed": 1155365, "internal_node_id": "0.0-4.0-1.0-25.0"}}, {"uniqueid": "w53907704:a81521360", "current_trial": 35, "dateTime": 1691149814659, "trialdata": {"revealed_states": [], "clicked_states": ["12", "1", "23", "17", "16", "18", "20"], "num_clicks_accrued": [0, 0, 0, 0, 0, 0, 0, 0, 0, 0, 0, 0, 0], "stateRewards": ["", 1, -4, 6, -3, 40, 76, -51, 5, -24, -63, 44, -2, -2, 8, 1, 76, -85, -58, 10, 59, 20, 11, -2, 3, -3, 3, -82, -10, 54, -7, -57, -6, -32], "withholdReward": false, "trial_id": "mdp_trial_27", "block": "test", "trialIndex": 28, "score": 73.15, "costs": -7.85, "simulationMode": [null, null, null, null, null], "rewards": [-2, -2, 8, 1, 76], "path": ["0", "0", "12", "13", "14", "15", "16"], "rt": [17612, 71, 74, 82, 138], "actions": ["right", "right", "right", "up", "up"], "actionTimes": [23030, 23598, 24166, 24742, 25382], "queries": {"click": {"state": {"target": ["12", "1", "23", "17", "16", "18", "20"], "time": [6076, 7116, 8011, 9761, 13078, 16332, 19581]}, "edge": {"target": [], "time": []}}, "mouseover": {"state": {"target": ["12", "0", "1", "23", "13", "14", "17", "16", "16", "18", "15", "20"], "time": [5805, 6423, 6854, 7570, 9290, 9338, 9472, 10374, 10638, 13589, 17893, 18540]}, "edge": {"target": [], "time": []}}, "mouseout": {"state": {"target": ["22", "0", "12", "0", "1", "23", "13", "14", "17", "16", "16", "18", "16", "15", "20"], "time": [2516, 5604, 6408, 6520, 7503, 8421, 9320, 9354, 10338, 10388, 13338, 16941, 17840, 17944, 20343]}, "edge": {"target": [], "time": []}}}, "displayed_time": "25.89", "trialTime": 28148, "trial_type": "mouselab-mdp", "trial_index": 35, "time_elapsed": 1183748, "internal_node_id": "0.0-4.0-1.0-26.0"}}, {"uniqueid": "w53907704:a81521360", "current_trial": 36, "dateTime": 1691149838152, "trialdata": {"revealed_states": [], "clicked_states": ["18", "16", "17", "20", "21"], "num_clicks_accrued": [0, 0, 0, 0, 0, 0, 0, 0, 0, 0, 0, 0, 0], "stateRewards": ["", -2, -1, -6, -14, -55, 78, -13, 11, 14, -71, 59, 2, 2, 6, -6, 9, 38, 14, 7, 85, 11, 68, 1, -4, -1, -3, -63, -85, 9, -2, 63, -86, -10], "withholdReward": false, "trial_id": "mdp_trial_28", "block": "test", "trialIndex": 29, "score": 91.25, "costs": -10.75, "simulationMode": [null, null, null, null, null], "rewards": [2, 2, 6, 7, 85], "path": ["0", "0", "12", "13", "14", "19", "20"], "rt": [17517, 159, 197, 8, 133], "actions": ["right", "right", "right", "down", "right"], "actionTimes": [19174, 19830, 20518, 21031, 21670], "queries": {"click": {"state": {"target": ["18", "16", "17", "20", "21"], "time": [3221, 6355, 9473, 12642, 15908]}, "edge": {"target": [], "time": []}}, "mouseover": {"state": {"target": ["12", "13", "18", "16", "17", "20", "21", "22"], "time": [2297, 2347, 2962, 3949, 7066, 9833, 13266, 16468]}, "edge": {"target": [], "time": []}}, "mouseout": {"state": {"target": ["0", "12", "13", "18", "16", "17", "20", "21", "22"], "time": [2280, 2330, 2398, 3487, 6702, 9716, 13001, 16152, 18937]}, "edge": {"target": [], "time": []}}}, "displayed_time": "22.17", "trialTime": 23161, "trial_type": "mouselab-mdp", "trial_index": 36, "time_elapsed": 1207241, "internal_node_id": "0.0-4.0-1.0-27.0"}}, {"uniqueid": "w53907704:a81521360", "current_trial": 37, "dateTime": 1691149855436, "trialdata": {"revealed_states": [], "clicked_states": ["18", "16", "17"], "num_clicks_accrued": [0, 0, 0, 0, 0, 0, 0, 0, 0, 0, 0, 0, 0], "stateRewards": ["", -2, -4, -6, 12, -58, -70, -80, 2, 16, -88, -62, 1, 2, -5, 11, 77, -35, -44, -5, 18, -83, 87, 1, -3, -5, 13, -44, -21, -86, 10, -52, 8, 29], "withholdReward": false, "trial_id": "mdp_trial_29", "block": "test", "trialIndex": 30, "score": 79.55, "costs": -6.449999999999999, "simulationMode": [null, null, null, null, null], "rewards": [1, 2, -5, 11, 77], "path": ["0", "0", "12", "13", "14", "15", "16"], "rt": [10373, 85, 55, 40, 83], "actions": ["right", "right", "right", "up", "up"], "actionTimes": [11865, 12447, 12999, 13534, 14111], "queries": {"click": {"state": {"target": ["18", "16", "17"], "time": [2313, 5446, 8581]}, "edge": {"target": [], "time": []}}, "mouseover": {"state": {"target": ["12", "13", "18", "16", "17"], "time": [1722, 1771, 2038, 2724, 5874]}, "edge": {"target": [], "time": []}}, "mouseout": {"state": {"target": ["14", "13", "12", "0", "12", "13", "18", "16", "17", "22"], "time": [815, 838, 1005, 1688, 1756, 1970, 2607, 5740, 9125, 16260]}, "edge": {"target": [], "time": []}}}, "displayed_time": "15.50", "trialTime": 17030, "trial_type": "mouselab-mdp", "trial_index": 37, "time_elapsed": 1224525, "internal_node_id": "0.0-4.0-1.0-28.0"}}, {"uniqueid": "w53907704:a81521360", "current_trial": 38, "dateTime": 1691149881982, "trialdata": {"revealed_states": [], "clicked_states": ["18", "16", "17", "20", "21", "22"], "num_clicks_accrued": [0, 0, 0, 0, 0, 0, 0, 0, 0, 0, 0, 0, 0], "stateRewards": ["", -2, 4, -3, -13, 63, -36, 62, 11, 78, 34, -51, 2, -2, 8, -6, -40, -18, 31, 9, 64, 39, 79, 1, 4, -4, 15, -12, 76, 73, -10, -77, 86, -4], "withholdReward": false, "trial_id": "mdp_trial_30", "block": "test", "trialIndex": 31, "score": 83.1, "costs": -12.9, "simulationMode": [null, null, null, null, null], "rewards": [2, -2, 8, 9, 79], "path": ["0", "0", "12", "13", "14", "19", "22"], "rt": [21000, 30, 209, 18, 104], "actions": ["right", "right", "right", "down", "left"], "actionTimes": [22171, 22698, 23427, 23938, 24555], "queries": {"click": {"state": {"target": ["18", "16", "17", "20", "21", "22"], "time": [1800, 5137, 8551, 11837, 15573, 18855]}, "edge": {"target": [], "time": []}}, "mouseover": {"state": {"target": ["12", "18", "16", "17", "20", "21", "22", "19", "20"], "time": [1311, 1543, 2460, 5813, 9030, 12229, 16014, 19383, 19550]}, "edge": {"target": [], "time": []}}, "mouseout": {"state": {"target": ["0", "12", "18", "16", "17", "20", "21", "22", "19", "20", "21"], "time": [1259, 1346, 2277, 5428, 8947, 12096, 15864, 19366, 19435, 25868, 25966]}, "edge": {"target": [], "time": []}}}, "displayed_time": "25.05", "trialTime": 26309, "trial_type": "mouselab-mdp", "trial_index": 38, "time_elapsed": 1251071, "internal_node_id": "0.0-4.0-1.0-29.0"}}, {"uniqueid": "w53907704:a81521360", "current_trial": 39, "dateTime": 1691149903085, "trialdata": {"revealed_states": [], "clicked_states": ["18", "16"], "num_clicks_accrued": [0, 0, 0, 0, 0, 0, 0, 0, 0, 0, 0, 0, 0], "stateRewards": ["", -2, 2, 8, -6, -25, 3, 87, 2, -62, -2, 74, -2, -1, 2, -1, 79, 49, -37, -14, 5, 67, -9, -1, 2, -2, 5, 15, 38, 32, -14, -38, -38, 30], "withholdReward": false, "trial_id": "mdp_trial_31", "block": "test", "trialIndex": 32, "score": 72.7, "costs": -4.3, "simulationMode": [null, null, null, null, null], "rewards": [-2, -1, 2, -1, 79], "path": ["0", "0", "12", "13", "14", "15", "16"], "rt": [8135, 53, 63, 441, 139], "actions": ["right", "right", "right", "up", "up"], "actionTimes": [12537, 13086, 13647, 14590, 15223], "queries": {"click": {"state": {"target": ["18", "16"], "time": [5319, 8504]}, "edge": {"target": [], "time": []}}, "mouseover": {"state": {"target": ["12", "13", "14", "15", "18", "16", "17"], "time": [4462, 4516, 4630, 4980, 5112, 5631, 8814]}, "edge": {"target": [], "time": []}}, "mouseout": {"state": {"target": ["22", "13", "13", "12", "0", "12", "13", "14", "15", "18", "16"], "time": [2531, 2611, 2928, 3947, 4433, 4514, 4578, 4745, 4995, 5530, 8781]}, "edge": {"target": [], "time": []}}}, "displayed_time": "18.41", "trialTime": 20870, "trial_type": "mouselab-mdp", "trial_index": 39, "time_elapsed": 1272173, "internal_node_id": "0.0-4.0-1.0-30.0"}}, {"uniqueid": "w53907704:a81521360", "current_trial": 40, "dateTime": 1691149919415, "trialdata": {"revealed_states": [], "clicked_states": ["18", "16"], "num_clicks_accrued": [0, 0, 0, 0, 0, 0, 0, 0, 0, 0, 0, 0, 0], "stateRewards": ["", 2, 2, 3, -15, 23, -14, 73, -7, -32, -20, -6, 1, 1, -5, -12, 73, 6, -84, 11, -81, -57, 13, -2, -1, -4, -8, -52, -58, 49, 13, 5, -41, -41], "withholdReward": false, "trial_id": "mdp_trial_32", "block": "test", "trialIndex": 33, "score": 53.7, "costs": -4.3, "simulationMode": [null, null, null, null, null], "rewards": [1, 1, -5, -12, 73], "path": ["0", "0", "12", "13", "14", "15", "16"], "rt": [7545, 31, 23, 10, 30], "actions": ["right", "right", "right", "up", "up"], "actionTimes": [8885, 9412, 9956, 10460, 10996], "queries": {"click": {"state": {"target": ["18", "16"], "time": [1989, 5170]}, "edge": {"target": [], "time": []}}, "mouseover": {"state": {"target": ["12", "13", "18", "16", "17"], "time": [1530, 1595, 1729, 2347, 5580]}, "edge": {"target": [], "time": []}}, "mouseout": {"state": {"target": ["17", "13", "12", "0", "12", "13", "18", "16"], "time": [596, 813, 862, 1498, 1578, 1645, 2247, 5415]}, "edge": {"target": [], "time": []}}}, "displayed_time": "15.35", "trialTime": 16079, "trial_type": "mouselab-mdp", "trial_index": 40, "time_elapsed": 1288504, "internal_node_id": "0.0-4.0-1.0-31.0"}}, {"uniqueid": "w53907704:a81521360", "current_trial": 41, "dateTime": 1691149949820, "trialdata": {"revealed_states": [], "clicked_states": ["18", "16", "17", "20", "21", "22", "31"], "num_clicks_accrued": [0, 0, 0, 0, 0, 0, 0, 0, 0, 0, 0, 0, 0], "stateRewards": ["", 1, -1, 1, 13, 31, -56, 72, 2, 41, 5, 63, -2, -3, -2, 3, -71, -26, 52, 13, -31, 24, -67, 2, -2, 5, 4, 66, 43, 72, 9, 86, -26, 44], "withholdReward": false, "trial_id": "mdp_trial_33", "block": "test", "trialIndex": 34, "score": 84.95, "costs": -15.05, "simulationMode": [null, null, null, null, null], "rewards": [2, -2, 5, 9, 86], "path": ["0", "0", "23", "24", "25", "30", "31"], "rt": [24826, 44, 71, 25, 124], "actions": ["left", "left", "left", "down", "right"], "actionTimes": [26101, 26636, 27196, 27716, 28333], "queries": {"click": {"state": {"target": ["18", "16", "17", "20", "21", "22", "31"], "time": [3056, 6290, 9491, 12761, 15927, 19244, 22479]}, "edge": {"target": [], "time": []}}, "mouseover": {"state": {"target": ["12", "18", "16", "17", "20", "21", "22", "31", "31", "32"], "time": [2182, 2847, 3434, 6885, 10201, 13136, 16336, 19737, 20021, 22956]}, "edge": {"target": [], "time": []}}, "mouseout": {"state": {"target": ["17", "14", "13", "12", "0", "12", "18", "16", "17", "20", "21", "22", "31", "31"], "time": [385, 681, 714, 746, 2130, 2746, 3138, 6650, 9852, 13052, 16169, 19639, 19805, 22855]}, "edge": {"target": [], "time": []}}}, "displayed_time": "28.82", "trialTime": 30132, "trial_type": "mouselab-mdp", "trial_index": 41, "time_elapsed": 1318909, "internal_node_id": "0.0-4.0-1.0-32.0"}}, {"uniqueid": "w53907704:a81521360", "current_trial": 42, "dateTime": 1691149968308, "trialdata": {"revealed_states": [], "clicked_states": ["18", "16"], "num_clicks_accrued": [0, 0, 0, 0, 0, 0, 0, 0, 0, 0, 0, 0, 0], "stateRewards": ["", -1, -3, 3, 5, 56, 39, 50, -1, -80, 33, -46, 1, -2, -6, -8, 87, 48, 54, -11, -20, -64, -54, -2, 3, -7, -3, 12, 88, 35, -16, -46, -70, -3], "withholdReward": false, "trial_id": "mdp_trial_34", "block": "test", "trialIndex": 35, "score": 67.7, "costs": -4.3, "simulationMode": [null, null, null, null, null], "rewards": [1, -2, -6, -8, 87], "path": ["0", "0", "12", "13", "14", "15", "16"], "rt": [7724, 95, 101, 23, 72], "actions": ["right", "right", "right", "up", "up"], "actionTimes": [10416, 11001, 11592, 12113, 12680], "queries": {"click": {"state": {"target": ["18", "16"], "time": [3513, 6995]}, "edge": {"target": [], "time": []}}, "mouseover": {"state": {"target": ["12", "15", "18", "16", "17"], "time": [2819, 2903, 3307, 4455, 7673]}, "edge": {"target": [], "time": []}}, "mouseout": {"state": {"target": ["32", "31", "23", "0", "12", "15", "18", "16", "17", "17"], "time": [1069, 1802, 1886, 2802, 2853, 3151, 4171, 7371, 16641, 16659]}, "edge": {"target": [], "time": []}}}, "displayed_time": "16.70", "trialTime": 18232, "trial_type": "mouselab-mdp", "trial_index": 42, "time_elapsed": 1337397, "internal_node_id": "0.0-4.0-1.0-33.0"}}, {"uniqueid": "w53907704:a81521360", "current_trial": 43, "dateTime": 1691150014708, "trialdata": {"revealed_states": [], "clicked_states": ["18", "16", "17", "20", "21", "22", "31", "32", "33", "29", "27", "28"], "num_clicks_accrued": [0, 0, 0, 0, 0, 0, 0, 0, 0, 0, 0, 0, 0], "stateRewards": ["", -2, 1, -7, -8, -37, -76, -87, 11, 30, -63, 80, -1, 4, 2, -1, 42, 17, 52, -3, -75, -80, -68, 2, -3, -5, -15, -48, 82, 24, -7, 5, -22, -71], "withholdReward": false, "trial_id": "mdp_trial_35", "block": "test", "trialIndex": 36, "score": 35.2, "costs": -25.799999999999994, "simulationMode": [null, null, null, null, null], "rewards": [2, -3, -5, -15, 82], "path": ["0", "0", "23", "24", "25", "26", "28"], "rt": [41070, 150, 91, 18, 7], "actions": ["left", "left", "left", "up", "right"], "actionTimes": [42153, 42798, 43390, 43902, 44423], "queries": {"click": {"state": {"target": ["18", "16", "17", "20", "21", "22", "31", "32", "33", "29", "27", "28"], "time": [1909, 5276, 8544, 11862, 15229, 18532, 21882, 25132, 28383, 31735, 35085, 38303]}, "edge": {"target": [], "time": []}}, "mouseover": {"state": {"target": ["12", "18", "16", "17", "20", "21", "22", "31", "32", "33", "29", "27", "27", "28", "11", "10"], "time": [1253, 1435, 2503, 5937, 9238, 12189, 15609, 19224, 22310, 25742, 28960, 32063, 32395, 35448, 38680, 39347]}, "edge": {"target": [], "time": []}}, "mouseout": {"state": {"target": ["17", "15", "12", "0", "12", "18", "16", "17", "20", "21", "22", "31", "32", "33", "29", "27", "27", "28", "11", "10", "31"], "time": [334, 385, 617, 1217, 1303, 2269, 5670, 8889, 12089, 15361, 18874, 22226, 25445, 28793, 31995, 32077, 35380, 38614, 39314, 45298, 45699]}, "edge": {"target": [], "time": []}}}, "displayed_time": "44.93", "trialTime": 46158, "trial_type": "mouselab-mdp", "trial_index": 43, "time_elapsed": 1383797, "internal_node_id": "0.0-4.0-1.0-34.0"}}, {"uniqueid": "w53907704:a81521360", "current_trial": 44, "dateTime": 1691150044911, "trialdata": {"revealed_states": [], "clicked_states": ["18", "16", "17", "20", "21", "22"], "num_clicks_accrued": [0, 0, 0, 0, 0, 0, 0, 0, 0, 0, 0, 0, 0], "stateRewards": ["", -1, 2, -7, -12, -62, 12, -13, 5, 77, -71, 83, 1, -4, 7, 15, -42, -87, -4, 5, -25, 44, 88, -1, 4, -5, -8, 14, 51, 8, -5, 83, -24, -19], "withholdReward": false, "trial_id": "mdp_trial_36", "block": "test", "trialIndex": 37, "score": 84.1, "costs": -12.9, "simulationMode": [null, null, null, null, null], "rewards": [1, -4, 7, 5, 88], "path": ["0", "0", "12", "13", "14", "19", "22"], "rt": [20507, 56, 163, 23, 130], "actions": ["right", "right", "right", "down", "left"], "actionTimes": [24250, 24801, 25473, 26001, 26625], "queries": {"click": {"state": {"target": ["18", "16", "17", "20", "21", "22"], "time": [4494, 7828, 11046, 14230, 17383, 20650]}, "edge": {"target": [], "time": []}}, "mouseover": {"state": {"target": ["12", "18", "16", "17", "20", "21", "22", "7", "4", "7"], "time": [3939, 4271, 5254, 8153, 11523, 14640, 17960, 21060, 21117, 21426]}, "edge": {"target": [], "time": []}}, "mouseout": {"state": {"target": ["0", "12", "18", "16", "17", "20", "21", "22", "7", "4", "7"], "time": [3905, 3969, 5071, 8103, 11357, 14489, 17725, 21010, 21115, 21377, 29697]}, "edge": {"target": [], "time": []}}}, "displayed_time": "27.13", "trialTime": 29948, "trial_type": "mouselab-mdp", "trial_index": 44, "time_elapsed": 1413999, "internal_node_id": "0.0-4.0-1.0-35.0"}}, {"uniqueid": "w53907704:a81521360", "current_trial": 45, "dateTime": 1691150072308, "trialdata": {"revealed_states": [], "clicked_states": ["18", "16", "17", "20", "21", "22"], "num_clicks_accrued": [0, 0, 0, 0, 0, 0, 0, 0, 0, 0, 0, 0, 0], "stateRewards": ["", 2, 1, -3, 7, 46, 11, -36, 16, 71, 5, 1, 2, -2, -8, -3, -4, 6, 55, 7, 68, -54, 2, 1, 1, 6, -6, 42, -4, -84, -11, -65, 63, 25], "withholdReward": false, "trial_id": "mdp_trial_37", "block": "test", "trialIndex": 38, "score": 54.1, "costs": -12.9, "simulationMode": [null, null, null, null, null], "rewards": [2, -2, -8, 7, 68], "path": ["0", "0", "12", "13", "14", "19", "20"], "rt": [21552, 525, 77, 12, 111], "actions": ["right", "right", "right", "down", "right"], "actionTimes": [22528, 23541, 24109, 24613, 25229], "queries": {"click": {"state": {"target": ["18", "16", "17", "20", "21", "22"], "time": [1650, 5201, 8418, 11738, 15354, 18587]}, "edge": {"target": [], "time": []}}, "mouseover": {"state": {"target": ["12", "13", "18", "16", "17", "20", "21", "22"], "time": [1174, 1242, 1408, 2076, 5925, 8861, 12046, 15713]}, "edge": {"target": [], "time": []}}, "mouseout": {"state": {"target": ["12", "13", "18", "16", "17", "20", "21", "22"], "time": [1208, 1345, 1943, 5610, 8761, 11981, 15646, 21715]}, "edge": {"target": [], "time": []}}}, "displayed_time": "25.73", "trialTime": 27125, "trial_type": "mouselab-mdp", "trial_index": 45, "time_elapsed": 1441397, "internal_node_id": "0.0-4.0-1.0-36.0"}}, {"uniqueid": "w53907704:a81521360", "current_trial": 46, "dateTime": 1691150099308, "trialdata": {"revealed_states": [], "clicked_states": ["18", "16", "17", "20", "21", "22"], "num_clicks_accrued": [0, 0, 0, 0, 0, 0, 0, 0, 0, 0, 0, 0, 0], "stateRewards": ["", -1, 3, 8, 9, -53, 20, -84, 2, -28, -62, -31, -1, -2, -7, 2, 51, 58, 45, -4, -17, -41, 36, 2, -2, -7, -15, 29, -54, -37, -16, -43, 65, -17], "withholdReward": false, "trial_id": "mdp_trial_38", "block": "test", "trialIndex": 39, "score": 37.1, "costs": -12.9, "simulationMode": [null, null, null, null, null], "rewards": [-1, -2, -7, 2, 58], "path": ["0", "0", "12", "13", "14", "15", "17"], "rt": [21233, 368, 46, 17, 19], "actions": ["right", "right", "right", "up", "right"], "actionTimes": [22798, 23662, 24206, 24727, 25246], "queries": {"click": {"state": {"target": ["18", "16", "17", "20", "21", "22"], "time": [2859, 6312, 9627, 12979, 16196, 19400]}, "edge": {"target": [], "time": []}}, "mouseover": {"state": {"target": ["18", "18", "16", "17", "20", "21", "22", "31"], "time": [1751, 2138, 3503, 6936, 10622, 13289, 16606, 21408]}, "edge": {"target": [], "time": []}}, "mouseout": {"state": {"target": ["0", "18", "18", "16", "17", "20", "21", "22", "31", "32"], "time": [1666, 1935, 3336, 6554, 9988, 13222, 16472, 19874, 26442, 26494]}, "edge": {"target": [], "time": []}}}, "displayed_time": "25.74", "trialTime": 26726, "trial_type": "mouselab-mdp", "trial_index": 46, "time_elapsed": 1468396, "internal_node_id": "0.0-4.0-1.0-37.0"}}, {"uniqueid": "w53907704:a81521360", "current_trial": 47, "dateTime": 1691150147343, "trialdata": {"revealed_states": [], "clicked_states": ["10", "11", "9", "5", "6", "7", "18", "16", "17", "20", "21", "22"], "num_clicks_accrued": [0, 0, 0, 0, 0, 0, 0, 0, 0, 0, 0, 0, 0], "stateRewards": ["", 2, -1, 4, -9, -43, 7, 54, -13, 38, -40, -83, -1, 2, -8, -10, 34, -33, 11, -14, -79, 65, 26, 1, 2, 4, 10, 21, 1, 86, 4, -53, 28, -29], "withholdReward": false, "trial_id": "mdp_trial_39", "block": "test", "trialIndex": 40, "score": 18.200000000000003, "costs": -25.799999999999994, "simulationMode": [null, null, null, null, null], "rewards": [-1, 2, -8, -14, 65], "path": ["0", "0", "12", "13", "14", "19", "21"], "rt": [42023, 473, 57, 91, 156], "actions": ["right", "right", "right", "down", "down"], "actionTimes": [43450, 44426, 44978, 45562, 46210], "queries": {"click": {"state": {"target": ["10", "11", "9", "5", "6", "7", "18", "16", "17", "20", "21", "22"], "time": [3195, 6344, 9578, 12846, 16083, 19315, 22616, 25850, 29570, 33036, 36239, 40075]}, "edge": {"target": [], "time": []}}, "mouseover": {"state": {"target": ["12", "15", "18", "10", "11", "11", "9", "5", "6", "7", "18", "16", "17", "20", "21", "22", "22"], "time": [1568, 1619, 1883, 2934, 3803, 4117, 6921, 9955, 13307, 16574, 20375, 22943, 26177, 30044, 33464, 36865, 37115]}, "edge": {"target": [], "time": []}}, "mouseout": {"state": {"target": ["0", "12", "15", "18", "10", "11", "11", "9", "5", "6", "7", "18", "16", "17", "20", "21", "22", "22", "21"], "time": [1551, 1584, 1869, 2402, 3670, 3953, 6607, 9838, 13223, 16358, 20291, 22893, 26127, 29928, 33363, 36531, 36949, 40617, 47086]}, "edge": {"target": [], "time": []}}}, "displayed_time": "46.71", "trialTime": 47770, "trial_type": "mouselab-mdp", "trial_index": 47, "time_elapsed": 1516432, "internal_node_id": "0.0-4.0-1.0-38.0"}}, {"uniqueid": "w53907704:a81521360", "current_trial": 48, "dateTime": 1691150174712, "trialdata": {"revealed_states": [], "clicked_states": ["18", "16", "17", "20", "21", "22"], "num_clicks_accrued": [0, 0, 0, 0, 0, 0, 0, 0, 0, 0, 0, 0, 0], "stateRewards": ["", -2, -1, -5, 10, -36, -70, 68, -9, 86, 71, -10, 2, -4, 7, -7, 66, 44, -66, -13, -69, 43, 15, -2, 2, 6, -13, 62, 57, 50, -10, -69, 42, -72], "withholdReward": false, "trial_id": "mdp_trial_40", "block": "test", "trialIndex": 41, "score": 51.1, "costs": -12.9, "simulationMode": [null, null, null, null, null], "rewards": [2, -4, 7, -7, 66], "path": ["0", "0", "12", "13", "14", "15", "16"], "rt": [20930, 433, 35, 16, 48], "actions": ["right", "right", "right", "up", "up"], "actionTimes": [22039, 22966, 23502, 24038, 24582], "queries": {"click": {"state": {"target": ["18", "16", "17", "20", "21", "22"], "time": [1782, 5067, 8435, 11719, 14906, 18355]}, "edge": {"target": [], "time": []}}, "mouseover": {"state": {"target": ["12", "13", "18", "16", "17", "17", "20", "21", "22"], "time": [1274, 1361, 1543, 2542, 5359, 5510, 10080, 12279, 15212]}, "edge": {"target": [], "time": []}}, "mouseout": {"state": {"target": ["0", "0", "12", "13", "18", "16", "17", "17", "20", "21", "22", "21"], "time": [675, 1244, 1324, 1442, 2411, 5309, 5419, 9679, 12096, 15146, 25833, 25898]}, "edge": {"target": [], "time": []}}}, "displayed_time": "25.08", "trialTime": 27094, "trial_type": "mouselab-mdp", "trial_index": 48, "time_elapsed": 1543801, "internal_node_id": "0.0-4.0-1.0-39.0"}}, {"uniqueid": "w53907704:a81521360", "current_trial": 49, "dateTime": 1691150214668, "trialdata": {"rt": 39951, "response": {"Q0": "$-2 to $2", "Q1": "$-16 to $16", "Q2": "$-88 to $88", "Q3": "The cost for clicking on nodes varied between nodes.", "Q4": "Very motivated"}, "question_order": [0, 1, 2, 3, 4], "trial_id": "final_quiz_control", "trial_type": "survey-multi-choice", "trial_index": 49, "time_elapsed": 1583757, "internal_node_id": "0.0-4.0-2.0"}}, {"uniqueid": "w53907704:a81521360", "current_trial": 50, "dateTime": 1691150265885, "trialdata": {"rt": 51211, "response": {"Q0": "I clicked the nodes at the end to see their value and chose a path that way.", "Q1": "Not really, i just stuck with my exit strategy.", "Q2": "Because everything was so random, it made it difficult."}, "trial_id": "self_report_control", "trial_type": "survey-text", "trial_index": 50, "time_elapsed": 1634974, "internal_node_id": "0.0-4.0-3.0"}}, {"uniqueid": "w53907704:a81521360", "current_trial": 51, "dateTime": 1691150319767, "trialdata": {"rt": 53878, "response": {"Q0": "Strongly disagree", "Q1": "Neither disagree nor agree", "Q2": "Agree", "Q3": "Agree", "Q4": "Disagree", "Q5": "Strongly agree", "Q6": "Disagree"}, "question_order": [0, 1, 2, 3, 4, 5, 6], "trial_id": "self_report_2", "trial_type": "survey-multi-choice", "trial_index": 51, "time_elapsed": 1688856, "internal_node_id": "0.0-4.0-4.0"}}, {"uniqueid": "w53907704:a81521360", "current_trial": 52, "dateTime": 1691150336106, "trialdata": {"rt": 16334, "response": {"gender": "male", "age": "41", "colorblind": "0", "effort": "0"}, "trial_type": "survey-html-form", "trial_index": 52, "time_elapsed": 1705195, "internal_node_id": "0.0-4.0-5.0"}}, {"uniqueid": "w53907704:a81521360", "current_trial": 53, "dateTime": 1691150358579, "trialdata": {"rt": 22469, "response": {"Q0": "No, it was fun.", "Q1": "No.", "Q2": ""}, "trial_type": "survey-text", "trial_index": 53, "time_elapsed": 1727668, "internal_node_id": "0.0-4.0-6.0"}}, {"uniqueid": "w53907704:a81521360", "current_trial": 54, "dateTime": 1691150361130, "trialdata": {"rt": 2548, "stimulus": "Press 'Finish HIT' in order to reach the completion code. Once the data has been saved, you will receive the code either in this window or in the original browser window where you started the experiment.\n", "response": 0, "trial_type": "html-button-response", "trial_index": 54, "time_elapsed": 1730219, "internal_node_id": "0.0-5.0"}}, {"uniqueid": "w53907704:a81521360", "current_trial": 55, "dateTime": 1691150362135, "trialdata": {"success": true, "trial_type": "fullscreen", "trial_index": 55, "time_elapsed": 1731224, "internal_node_id": "0.0-6.0"}}], "questiondata": {"params": {"CODE": "C6DMOQA6", "MIN_TIME": 14, "inspectCost": 1, "startTime": "Fri Aug 04 2023 12:30:30 GMT+0100 (British Summer Time)", "bonusRate": 0.002, "variance": "1_2_4_8_44", "branching": "31123"}, "final_score": 1297}, "eventdata": [{"eventtype": "initialized", "value": null, "timestamp": 1691148629727, "interval": 0}, {"eventtype": "window_resize", "value": [1024, 767], "timestamp": 1691148629727, "interval": 0}, {"eventtype": "window_resize", "value": [1024, 767], "timestamp": 1691148630054, "interval": 327}, {"eventtype": "window_resize", "value": [2560, 1440], "timestamp": 1691148634005, "interval": 3951}, {"eventtype": "window_resize", "value": [1024, 767], "timestamp": 1691148634693, "interval": 688}, {"eventtype": "window_resize", "value": [2560, 1440], "timestamp": 1691148825286, "interval": 190593}, {"eventtype": "window_resize", "value": [1024, 767], "timestamp": 1691148827300, "interval": 2014}, {"eventtype": "window_resize", "value": [1229, 1026], "timestamp": 1691148831989, "interval": 4689}, {"eventtype": "focus", "value": "off", "timestamp": 1691148963001, "interval": 131012}, {"eventtype": "focus", "value": "on", "timestamp": 1691148964914, "interval": 1913}, {"eventtype": "focus", "value": "off", "timestamp": 1691149031500, "interval": 66586}, {"eventtype": "focus", "value": "on", "timestamp": 1691149033868, "interval": 2368}, {"eventtype": "focus", "value": "off", "timestamp": 1691149038218, "interval": 4350}, {"eventtype": "focus", "value": "on", "timestamp": 1691149040455, "interval": 2237}], "useragent": "Mozilla/5.0 (Macintosh; Intel Mac OS X 10_15_7) AppleWebKit/537.36 (KHTML, like Gecko) Chrome/115.0.0.0 Safari/537.36", "mode": "live", "id": "w53907704:a81521360", "status": "user data saved", "Beginhit": "2023-08-04 11:30:28.644732", "Beginexp": "2023-08-04 11:30:34.898256", "Endhit": "2023-08-04 11:59:22.640626", "psiturkStatus": 3, "browser": "<redacted>", "platform": "macos", "language": "en-GB"}