{"condition": 1, "counterbalance": 0, "assignmentId": "a57362688", "workerId": "w99307795", "hitId": "h24303310", "currenttrial": 56, "bonus": 0, "data": [{"uniqueid": "w99307795:a57362688", "current_trial": 0, "dateTime": 1691142443882, "trialdata": {"success": true, "trial_type": "fullscreen", "trial_index": 0, "time_elapsed": 17526, "internal_node_id": "0.0-0.0"}}, {"uniqueid": "w99307795:a57362688", "current_trial": 1, "dateTime": 1691142473860, "trialdata": {"view_history": [{"page_index": 0, "viewing_time": 29968}], "rt": 29968, "trial_id": "exp_instructions_misaligned", "trial_type": "instructions", "trial_index": 1, "time_elapsed": 47504, "internal_node_id": "0.0-1.0"}}, {"uniqueid": "w99307795:a57362688", "current_trial": 2, "dateTime": 1691142477692, "trialdata": {"success": true, "trial_type": "fullscreen", "trial_index": 2, "time_elapsed": 51336, "internal_node_id": "0.0-2.0-0.0"}}, {"uniqueid": "w99307795:a57362688", "current_trial": 3, "dateTime": 1691142787196, "trialdata": {"view_history": [{"page_index": 0, "viewing_time": 90277}, {"page_index": 1, "viewing_time": 114880}, {"page_index": 2, "viewing_time": 36944}, {"page_index": 3, "viewing_time": 67400}], "rt": 309502, "trial_id": "mouselab_instructions_1_misaligned", "trial_type": "instructions", "trial_index": 3, "time_elapsed": 360840, "internal_node_id": "0.0-2.0-1.0"}}, {"uniqueid": "w99307795:a57362688", "current_trial": 4, "dateTime": 1691142881211, "trialdata": {"revealed_states": [], "clicked_states": ["23", "24", "25", "30", "32", "26", "12", "13", "14", "15", "18", "1", "2"], "num_clicks_accrued": [0, 0, 0, 0, 0, 0, 0, 0, 0, 0, 0, 0, 0], "stateRewards": ["", 10, 10, -10, -10, -10, -10, -10, 10, -10, -10, 10, 10, 10, 10, -10, -10, -10, 10, 10, 10, -10, -10, 10, -10, -10, 10, -10, -10, 10, -10, 10, -10, 10], "withholdReward": false, "trial_id": "practice_1", "block": "test", "trialIndex": 0, "score": 27, "costs": -6.5, "simulationMode": [null, null, null, null, null], "rewards": [10, 10, 10, 10, -10], "path": ["0", "0", "12", "13", "14", "19", "21"], "rt": [74125, 1678, 2374, 477, 596], "actions": ["right", "right", "right", "down", "down"], "actionTimes": [77835, 80010, 82888, 83877, 84979], "queries": {"click": {"state": {"target": ["23", "24", "25", "30", "32", "26", "12", "13", "14", "15", "18", "1", "2"], "time": [11268, 14089, 20603, 25284, 28892, 33798, 36614, 39178, 43362, 45606, 47437, 50014, 57632]}, "edge": {"target": [], "time": []}}, "mouseover": {"state": {"target": ["23", "23", "24", "25", "24", "23", "23", "24", "30", "32", "31", "31", "26", "0", "22", "19", "13", "12", "13", "13", "14", "15", "18", "1", "2"], "time": [10282, 10936, 12919, 15605, 23354, 23403, 24387, 24420, 24589, 28625, 32675, 32941, 33480, 35675, 35726, 35792, 36058, 36346, 37411, 38237, 40145, 45169, 47131, 49515, 51394]}, "edge": {"target": [], "time": []}}, "mouseout": {"state": {"target": ["12", "0", "0", "23", "23", "24", "25", "24", "23", "23", "24", "30", "30", "32", "31", "31", "26", "0", "22", "19", "13", "12", "13", "13", "14", "15", "18", "1", "2"], "time": [269, 648, 10248, 10348, 12704, 15149, 23325, 23386, 23455, 24404, 24471, 25572, 28508, 32490, 32793, 33307, 35648, 35692, 35742, 36033, 36216, 37227, 38015, 40029, 44963, 47089, 49402, 50087, 72310]}, "edge": {"target": [], "time": []}}}, "displayed_time": "85.48", "trialTime": 92533, "trial_type": "mouselab-mdp", "trial_index": 4, "time_elapsed": 454854, "internal_node_id": "0.0-2.0-2.0-0.0"}}, {"uniqueid": "w99307795:a57362688", "current_trial": 5, "dateTime": 1691142903224, "trialdata": {"revealed_states": [], "clicked_states": ["26", "25", "24", "23"], "num_clicks_accrued": [0, 0, 0, 0, 0, 0, 0, 0, 0, 0, 0, 0, 0], "stateRewards": ["", 10, 10, 10, 10, 10, -10, -10, 10, 10, -10, -10, 10, -10, -10, 10, 10, -10, 10, 10, -10, 10, 10, 10, 10, 10, 10, 10, 10, 10, -10, 10, 10, 10], "withholdReward": false, "trial_id": "practice_2", "block": "test", "trialIndex": 1, "score": 51.5, "costs": -2, "simulationMode": [null, null, null, null, null], "rewards": [10, 10, 10, 10, 10], "path": ["0", "0", "23", "24", "25", "26", "27"], "rt": [10653, 390, 311, 345, 332], "actions": ["left", "left", "left", "up", "up"], "actionTimes": [14479, 15373, 16195, 17044, 17883], "queries": {"click": {"state": {"target": ["26", "25", "24", "23"], "time": [6040, 8290, 10235, 11850]}, "edge": {"target": [], "time": []}}, "mouseover": {"state": {"target": ["23", "23", "26", "25", "24", "23"], "time": [4714, 5310, 5791, 7477, 9360, 11163]}, "edge": {"target": [], "time": []}}, "mouseout": {"state": {"target": ["2", "1", "23", "23", "26", "25", "24", "23"], "time": [2959, 3025, 5030, 5360, 7410, 9061, 11062, 20130]}, "edge": {"target": [], "time": []}}}, "displayed_time": "18.39", "trialTime": 21704, "trial_type": "mouselab-mdp", "trial_index": 5, "time_elapsed": 476866, "internal_node_id": "0.0-2.0-2.0-1.0"}}, {"uniqueid": "w99307795:a57362688", "current_trial": 6, "dateTime": 1691142993476, "trialdata": {"view_history": [{"page_index": 0, "viewing_time": 65649}, {"page_index": 1, "viewing_time": 24600}], "rt": 90249, "trial_id": "mouselab_instructions_2_misaligned", "trial_type": "instructions", "trial_index": 6, "time_elapsed": 567120, "internal_node_id": "0.0-2.0-3.0"}}, {"uniqueid": "w99307795:a57362688", "current_trial": 7, "dateTime": 1691143172669, "trialdata": {"rt": 179187, "response": {"Q0": "The cost for clicking on nodes may vary between nodes.", "Q1": "The better I perform the higher my bonus will be.", "Q2": "No, the amount of cash at each node of the web may be different each time.", "Q3": "To get the highest total score.", "Q4": "Only before moving the spider.", "Q5": "3 seconds"}, "question_order": [0, 1, 2, 3, 4, 5], "correct": {"Q0": "The cost for clicking on nodes may vary between nodes.", "Q1": "The better I perform the higher my bonus will be.", "Q2": "No, the amount of cash at each node of the web may be different each time.", "Q3": "To get the highest total score.", "Q4": "Only before moving the spider.", "Q5": "3 seconds"}, "trial_id": "mouselab_quiz_misaligned", "trial_type": "survey-multi-choice", "trial_index": 7, "time_elapsed": 746313, "internal_node_id": "0.0-2.0-4.0"}}, {"uniqueid": "w99307795:a57362688", "current_trial": 8, "dateTime": 1691143210772, "trialdata": {"rt": 38091, "stimulus": "\n<h1> Get ready to start the game! </h1>\n\nThank you for reading the instructions. Get ready start with the 40 rounds of this game.\n<br><br>\nIf you need to take a break, feel free to take one after the end of a round, before continuing to the next one.\n<br><br>\nRemember, the more money the spider gets, the bigger your bonus will be!\n<br><br>\n<div style='text-align: center;'>Press <code>space</code> to begin.</div>\n\n<br><br>\n(If, at any point, the <code>space</code> key does not take you to the next page, click once on the text and try again.)", "response": " ", "trial_id": "mdp_ready", "trial_type": "html-keyboard-response", "trial_index": 8, "time_elapsed": 784416, "internal_node_id": "0.0-4.0-0.0"}}, {"uniqueid": "w99307795:a57362688", "current_trial": 9, "dateTime": 1691143234484, "trialdata": {"revealed_states": [], "clicked_states": ["23", "24", "25"], "num_clicks_accrued": [0, 0, 0, 0, 0, 0, 0, 0, 0, 0, 0, 0, 0], "stateRewards": ["", -1, 3, -7, 16, -32, -74, -48, 2, 10, 15, -30, 1, 1, -2, 10, 12, -83, 67, 13, -66, 47, 65, -2, 4, 2, -14, -8, -57, 24, 9, 65, 12, 46], "withholdReward": false, "trial_id": "mdp_trial_1", "block": "test", "trialIndex": 2, "score": 58.95, "costs": -1.0499999999999998, "simulationMode": [null, null, null, null, null], "rewards": [1, 1, -2, 13, 47], "path": ["0", "0", "12", "13", "14", "19", "21"], "rt": [11534, 907, 696, 685, 444], "actions": ["right", "right", "right", "down", "down"], "actionTimes": [13326, 14725, 15915, 17103, 18046], "queries": {"click": {"state": {"target": ["23", "24", "25"], "time": [3021, 4179, 6241]}, "edge": {"target": [], "time": []}}, "mouseover": {"state": {"target": ["23", "24", "25", "26"], "time": [2598, 3278, 5529, 7648]}, "edge": {"target": [], "time": []}}, "mouseout": {"state": {"target": ["25", "24", "23", "0", "23", "24", "25", "26", "26"], "time": [497, 562, 1179, 2299, 3211, 5416, 7251, 11135, 20592]}, "edge": {"target": [], "time": []}}}, "displayed_time": "18.57", "trialTime": 23417, "trial_type": "mouselab-mdp", "trial_index": 9, "time_elapsed": 808126, "internal_node_id": "0.0-4.0-1.0-0.0"}}, {"uniqueid": "w99307795:a57362688", "current_trial": 10, "dateTime": 1691143256199, "trialdata": {"revealed_states": [], "clicked_states": ["1", "2", "3", "8", "9"], "num_clicks_accrued": [0, 0, 0, 0, 0, 0, 0, 0, 0, 0, 0, 0, 0], "stateRewards": ["", 2, 4, 4, 9, -88, -10, 44, 16, -54, 64, 78, 1, 2, 5, 16, 80, 36, 7, -4, 9, -47, -70, -1, -3, 6, -16, 11, 80, 28, 8, -1, 34, -17], "withholdReward": false, "trial_id": "mdp_trial_2", "block": "test", "trialIndex": 3, "score": -73.75, "costs": -4.75, "simulationMode": [null, null, null, null, null], "rewards": [2, 4, 4, 9, -88], "path": ["0", "0", "1", "2", "3", "4", "5"], "rt": [9817, 568, 739, 1597, 313], "actions": ["up", "up", "up", "right", "up"], "actionTimes": [11024, 12095, 13333, 15424, 16241], "queries": {"click": {"state": {"target": ["1", "2", "3", "8", "9"], "time": [2174, 3591, 5212, 6521, 7919]}, "edge": {"target": [], "time": []}}, "mouseover": {"state": {"target": ["1", "2", "3", "8", "9"], "time": [1591, 3104, 4938, 6223, 7722]}, "edge": {"target": [], "time": []}}, "mouseout": {"state": {"target": ["1", "2", "3", "8", "9", "2"], "time": [2786, 4707, 6206, 7439, 9424, 20799]}, "edge": {"target": [], "time": []}}}, "displayed_time": "16.74", "trialTime": 21381, "trial_type": "mouselab-mdp", "trial_index": 10, "time_elapsed": 829841, "internal_node_id": "0.0-4.0-1.0-1.0"}}, {"uniqueid": "w99307795:a57362688", "current_trial": 11, "dateTime": 1691143275772, "trialdata": {"revealed_states": [], "clicked_states": ["12", "13", "14", "19", "21"], "num_clicks_accrued": [0, 0, 0, 0, 0, 0, 0, 0, 0, 0, 0, 0, 0], "stateRewards": ["", 2, -1, 5, 6, 10, 86, 55, 10, -45, 63, -71, 1, -2, 5, -8, -50, -72, 36, 15, 61, 12, 33, -1, -4, 6, 5, 79, -56, -21, -16, -87, 60, -81], "withholdReward": false, "trial_id": "mdp_trial_3", "block": "test", "trialIndex": 4, "score": 47.25, "costs": -4.75, "simulationMode": [null, null, null, null, null, null], "rewards": [1, -2, 5, 15, 33], "path": ["0", "0", "12", "13", "14", "19", "22"], "rt": [7770, 1544, 374, 427, 230, 330], "actions": ["right", "right", "right", "right", "down", "left"], "actionTimes": [9667, 11216, 12108, 13030, 13765, 14599], "queries": {"click": {"state": {"target": ["12", "13", "14", "19", "21"], "time": [2742, 3920, 5112, 6373, 7433]}, "edge": {"target": [], "time": []}}, "mouseover": {"state": {"target": ["0", "12", "13", "14", "19", "21"], "time": [2115, 2465, 3398, 4364, 6147, 7213]}, "edge": {"target": [], "time": []}}, "mouseout": {"state": {"target": ["7", "7", "0", "12", "13", "14", "19", "21", "21"], "time": [217, 915, 2447, 3197, 4298, 6048, 7063, 8148, 17460]}, "edge": {"target": [], "time": []}}}, "displayed_time": "15.90", "trialTime": 19238, "trial_type": "mouselab-mdp", "trial_index": 11, "time_elapsed": 849415, "internal_node_id": "0.0-4.0-1.0-2.0"}}, {"uniqueid": "w99307795:a57362688", "current_trial": 12, "dateTime": 1691143315346, "trialdata": {"revealed_states": [], "clicked_states": ["1", "2", "12", "23", "24", "25", "30", "26", "7", "13", "14", "19", "20", "15", "17"], "num_clicks_accrued": [0, 0, 0, 0, 0, 0, 0, 0, 0, 0, 0, 0, 0], "stateRewards": ["", -2, 2, 8, -6, -25, 3, 87, 2, -62, -2, 74, -2, -1, 2, -1, 79, 49, -37, -14, 5, 67, -9, -1, 2, -2, 5, 15, 38, 32, -14, -38, -38, 30], "withholdReward": false, "trial_id": "mdp_trial_4", "block": "test", "trialIndex": 5, "score": 27.15, "costs": -14.850000000000001, "simulationMode": [null, null, null, null, null], "rewards": [-1, 2, -2, 5, 38], "path": ["0", "0", "23", "24", "25", "26", "28"], "rt": [29287, 835, 418, 788, 211], "actions": ["left", "left", "left", "up", "right"], "actionTimes": [30892, 32221, 33139, 34425, 35131], "queries": {"click": {"state": {"target": ["1", "2", "12", "23", "24", "25", "30", "26", "7", "13", "14", "19", "20", "15", "17"], "time": [2711, 3831, 5041, 6381, 8223, 9846, 10937, 12571, 14956, 19032, 20079, 21104, 22302, 26121, 27277]}, "edge": {"target": [], "time": []}}, "mouseover": {"state": {"target": ["1", "2", "12", "0", "23", "24", "25", "30", "26", "10", "2", "7", "4", "13", "13", "14", "19", "20", "15", "17", "18", "0"], "time": [2453, 3587, 4754, 5956, 6120, 7521, 9456, 10623, 12342, 13540, 13723, 14674, 15826, 17243, 18729, 19812, 20827, 22077, 22996, 27082, 28715, 29015]}, "edge": {"target": [], "time": []}}, "mouseout": {"state": {"target": ["0", "1", "2", "12", "12", "0", "23", "24", "25", "30", "25", "26", "10", "2", "7", "4", "7", "13", "13", "14", "19", "19", "20", "15", "17", "15", "18", "0", "0"], "time": [2318, 3372, 4370, 5621, 5923, 6086, 7403, 9238, 10523, 11972, 12141, 13357, 13623, 14657, 15725, 16909, 16977, 17394, 19694, 20710, 21181, 21894, 22779, 26597, 28333, 28682, 28749, 29032, 35805]}, "edge": {"target": [], "time": []}}}, "displayed_time": "35.64", "trialTime": 39242, "trial_type": "mouselab-mdp", "trial_index": 12, "time_elapsed": 888989, "internal_node_id": "0.0-4.0-1.0-3.0"}}, {"uniqueid": "w99307795:a57362688", "current_trial": 13, "dateTime": 1691143344639, "trialdata": {"revealed_states": [], "clicked_states": ["1", "2", "3", "8", "4", "5", "6", "7"], "num_clicks_accrued": [0, 0, 0, 0, 0, 0, 0, 0, 0, 0, 0, 0, 0], "stateRewards": ["", 2, -4, -4, 13, -80, 62, 13, -11, 57, -13, -44, 1, 4, 3, -4, -29, -88, 15, 16, -58, 68, -45, -1, -3, -1, -9, -44, -86, -19, -7, -36, 59, 66], "withholdReward": false, "trial_id": "mdp_trial_5", "block": "test", "trialIndex": 6, "score": 58.4, "costs": -10.6, "simulationMode": [null, null, null, null, null, null], "rewards": [2, -4, -4, 13, 62], "path": ["0", "0", "1", "2", "3", "4", "6"], "rt": [17269, 723, 335, 331, 660, 20], "actions": ["up", "up", "up", "up", "right", "right"], "actionTimes": [18363, 19090, 19920, 20751, 21911, 22510], "queries": {"click": {"state": {"target": ["1", "2", "3", "8", "4", "5", "6", "7"], "time": [2090, 3442, 4948, 6191, 7940, 9714, 13083, 16086]}, "edge": {"target": [], "time": []}}, "mouseover": {"state": {"target": ["1", "2", "3", "8", "4", "6", "5", "6", "4", "7"], "time": [1845, 3029, 4548, 5843, 7293, 9085, 9465, 10878, 14447, 14697]}, "edge": {"target": [], "time": []}}, "mouseout": {"state": {"target": ["0", "1", "1", "2", "3", "8", "3", "4", "6", "5", "6", "4", "7"], "time": [1630, 2543, 2626, 4345, 5727, 7027, 7178, 8795, 9262, 10544, 14363, 14530, 24676]}, "edge": {"target": [], "time": []}}}, "displayed_time": "23.00", "trialTime": 28953, "trial_type": "mouselab-mdp", "trial_index": 13, "time_elapsed": 918281, "internal_node_id": "0.0-4.0-1.0-4.0"}}, {"uniqueid": "w99307795:a57362688", "current_trial": 14, "dateTime": 1691143376195, "trialdata": {"revealed_states": [], "clicked_states": ["12", "13", "14", "19", "22", "20", "21"], "num_clicks_accrued": [0, 0, 0, 0, 0, 0, 0, 0, 0, 0, 0, 0, 0], "stateRewards": ["", 1, -1, 1, -14, -10, 67, -28, -11, 72, 40, -65, -1, 1, 1, -2, 8, -55, 34, -10, 61, 33, -15, 2, -4, 7, 4, -75, 63, -21, -16, 61, 19, 21], "withholdReward": false, "trial_id": "mdp_trial_6", "block": "test", "trialIndex": 7, "score": 42.95, "costs": -9.05, "simulationMode": [null, null, null, null, null], "rewards": [-1, 1, 1, -10, 61], "path": ["0", "0", "12", "13", "14", "19", "20"], "rt": [21635, 205, 197, 104, 265], "actions": ["right", "right", "right", "down", "right"], "actionTimes": [22804, 23510, 24203, 24810, 25572], "queries": {"click": {"state": {"target": ["12", "13", "14", "19", "22", "20", "21"], "time": [2340, 3567, 5211, 6500, 7938, 11551, 15594]}, "edge": {"target": [], "time": []}}, "mouseover": {"state": {"target": ["0", "12", "13", "14", "19", "22", "20", "21", "19", "13", "12", "0", "23"], "time": [1995, 2093, 2978, 4464, 6230, 7664, 9364, 12898, 17251, 17451, 17490, 17535, 17769]}, "edge": {"target": [], "time": []}}, "mouseout": {"state": {"target": ["1", "0", "12", "13", "14", "19", "19", "22", "19", "20", "21", "19", "13", "12", "0", "23", "23"], "time": [629, 2043, 2828, 4379, 6031, 6552, 7562, 8998, 9164, 11898, 16851, 17319, 17471, 17518, 17719, 27171, 27641]}, "edge": {"target": [], "time": []}}}, "displayed_time": "26.07", "trialTime": 31184, "trial_type": "mouselab-mdp", "trial_index": 14, "time_elapsed": 949837, "internal_node_id": "0.0-4.0-1.0-5.0"}}, {"uniqueid": "w99307795:a57362688", "current_trial": 15, "dateTime": 1691143411257, "trialdata": {"revealed_states": [], "clicked_states": ["1", "2", "3", "8", "11", "9", "4", "6", "7", "5"], "num_clicks_accrued": [0, 0, 0, 0, 0, 0, 0, 0, 0, 0, 0, 0, 0], "stateRewards": ["", 1, -1, 4, 5, -32, 18, 20, 6, -88, -74, 9, -2, 1, -2, -14, 34, -77, -38, -1, 80, -36, 73, 2, 3, -8, 10, -48, -73, -71, -11, -22, 20, 54], "withholdReward": false, "trial_id": "mdp_trial_7", "block": "test", "trialIndex": 8, "score": 14.099999999999998, "costs": -14.900000000000002, "simulationMode": [null, null, null, null, null], "rewards": [1, -1, 4, 5, 20], "path": ["0", "0", "1", "2", "3", "4", "7"], "rt": [26308, 176, 173, 69, 94], "actions": ["up", "up", "up", "right", "down"], "actionTimes": [27408, 28085, 28781, 29345, 29969], "queries": {"click": {"state": {"target": ["1", "2", "3", "8", "11", "9", "4", "6", "7", "5"], "time": [1850, 3261, 4605, 6001, 7749, 11293, 14707, 17689, 20820, 24125]}, "edge": {"target": [], "time": []}}, "mouseover": {"state": {"target": ["1", "2", "3", "8", "11", "9", "4", "6", "7", "4", "5"], "time": [1597, 2745, 4282, 5730, 7430, 10848, 13634, 15833, 18319, 21337, 21638]}, "edge": {"target": [], "time": []}}, "mouseout": {"state": {"target": ["1", "1", "2", "3", "8", "11", "9", "4", "6", "7", "4", "5", "4", "0"], "time": [2345, 2646, 4012, 5629, 7131, 10648, 13484, 15569, 18069, 21287, 21420, 31590, 32229, 32711]}, "edge": {"target": [], "time": []}}}, "displayed_time": "30.50", "trialTime": 34700, "trial_type": "mouselab-mdp", "trial_index": 15, "time_elapsed": 984900, "internal_node_id": "0.0-4.0-1.0-6.0"}}, {"uniqueid": "w99307795:a57362688", "current_trial": 16, "dateTime": 1691143442492, "trialdata": {"revealed_states": [], "clicked_states": ["26", "25", "24", "23", "12", "13", "14", "19", "22", "20", "21"], "num_clicks_accrued": [0, 0, 0, 0, 0, 0, 0, 0, 0, 0, 0, 0, 0], "stateRewards": ["", 2, 3, -3, 4, 72, -28, 34, -12, 57, -64, -15, 2, 1, -4, -15, 2, 49, 31, -1, -42, -58, 31, -2, 1, -2, -13, -75, -19, -22, -6, 61, 10, -56], "withholdReward": false, "trial_id": "mdp_trial_8", "block": "test", "trialIndex": 9, "score": 17.35, "costs": -11.65, "simulationMode": [null, null, null, null, null], "rewards": [2, 1, -4, -1, 31], "path": ["0", "0", "12", "13", "14", "19", "22"], "rt": [22253, 61, 161, 5, 1290], "actions": ["right", "right", "right", "down", "left"], "actionTimes": [23380, 23944, 24610, 25119, 26922], "queries": {"click": {"state": {"target": ["26", "25", "24", "23", "12", "13", "14", "19", "22", "20", "21"], "time": [3790, 4614, 5815, 6750, 8043, 9043, 9935, 11320, 12500, 15876, 19393]}, "edge": {"target": [], "time": []}}, "mouseover": {"state": {"target": ["23", "28", "24", "26", "25", "24", "23", "24", "23", "0", "12", "13", "14", "19", "22", "20", "21"], "time": [2075, 2489, 2755, 3573, 4372, 4847, 4989, 5593, 6410, 7275, 7640, 8808, 9690, 11108, 12209, 13776, 17694]}, "edge": {"target": [], "time": []}}, "mouseout": {"state": {"target": ["0", "23", "28", "24", "26", "25", "25", "24", "23", "24", "23", "0", "12", "13", "14", "19", "22", "19", "20", "21", "21"], "time": [1570, 2342, 2643, 3227, 4222, 4671, 4806, 4939, 5423, 6223, 7107, 7391, 8693, 9523, 10941, 12176, 13526, 13677, 17311, 22482, 30185]}, "edge": {"target": [], "time": []}}}, "displayed_time": "27.42", "trialTime": 30878, "trial_type": "mouselab-mdp", "trial_index": 16, "time_elapsed": 1016135, "internal_node_id": "0.0-4.0-1.0-7.0"}}, {"uniqueid": "w99307795:a57362688", "current_trial": 17, "dateTime": 1691143460779, "trialdata": {"revealed_states": [], "clicked_states": ["1", "2", "3", "4", "5"], "num_clicks_accrued": [0, 0, 0, 0, 0, 0, 0, 0, 0, 0, 0, 0, 0], "stateRewards": ["", 2, 3, 8, 11, 25, -80, 6, -4, -56, 84, -23, -2, -4, -3, 4, -51, -9, -61, -15, -64, 67, -35, 1, -1, -7, -6, 83, 59, -15, 12, -79, 56, 41], "withholdReward": false, "trial_id": "mdp_trial_9", "block": "test", "trialIndex": 10, "score": 44.25, "costs": -4.75, "simulationMode": [null, null, null, null, null], "rewards": [2, 3, 8, 11, 25], "path": ["0", "0", "1", "2", "3", "4", "5"], "rt": [10875, 240, 227, 131, 141], "actions": ["up", "up", "up", "right", "up"], "actionTimes": [12229, 12971, 13693, 14329, 14975], "queries": {"click": {"state": {"target": ["1", "2", "3", "4", "5"], "time": [2187, 3792, 5137, 6783, 8197]}, "edge": {"target": [], "time": []}}, "mouseover": {"state": {"target": ["1", "2", "3", "4", "5"], "time": [1828, 3059, 4709, 6443, 7927]}, "edge": {"target": [], "time": []}}, "mouseout": {"state": {"target": ["0", "1", "0", "1", "2", "3", "4", "4"], "time": [292, 624, 1709, 2875, 4527, 6427, 7628, 7843]}, "edge": {"target": [], "time": []}}}, "displayed_time": "15.47", "trialTime": 17906, "trial_type": "mouselab-mdp", "trial_index": 17, "time_elapsed": 1034422, "internal_node_id": "0.0-4.0-1.0-8.0"}}, {"uniqueid": "w99307795:a57362688", "current_trial": 18, "dateTime": 1691143487392, "trialdata": {"revealed_states": [], "clicked_states": ["23", "24", "25", "30", "26", "29", "28", "27"], "num_clicks_accrued": [0, 0, 0, 0, 0, 0, 0, 0, 0, 0, 0, 0, 0], "stateRewards": ["", 1, 2, 7, 13, 88, -71, 27, 3, 60, 5, -53, -2, 2, -6, -1, -30, 79, 47, -4, -14, 46, 68, 1, 1, 8, 10, -14, 86, 48, -11, -67, -44, 5], "withholdReward": false, "trial_id": "mdp_trial_10", "block": "test", "trialIndex": 11, "score": 95.4, "costs": -10.6, "simulationMode": [null, null, null, null, null], "rewards": [1, 1, 8, 10, 86], "path": ["0", "0", "23", "24", "25", "26", "28"], "rt": [18847, 147, 141, 162, 75], "actions": ["left", "left", "left", "up", "right"], "actionTimes": [20451, 21098, 21741, 22396, 22974], "queries": {"click": {"state": {"target": ["23", "24", "25", "30", "26", "29", "28", "27"], "time": [2734, 3983, 5448, 7199, 8858, 10236, 13783, 17186]}, "edge": {"target": [], "time": []}}, "mouseover": {"state": {"target": ["23", "24", "25", "30", "30", "26", "29", "28", "27"], "time": [2516, 3607, 4925, 6042, 6940, 8626, 9975, 11693, 16032]}, "edge": {"target": [], "time": []}}, "mouseout": {"state": {"target": ["5", "3", "2", "23", "0", "23", "24", "25", "25", "30", "25", "25", "30", "25", "26", "29", "26", "28", "27", "26"], "time": [510, 588, 654, 805, 2057, 3459, 4774, 5513, 6025, 6293, 6362, 6899, 8359, 8475, 9710, 11326, 11526, 15595, 18535, 26065]}, "edge": {"target": [], "time": []}}}, "displayed_time": "23.47", "trialTime": 26242, "trial_type": "mouselab-mdp", "trial_index": 18, "time_elapsed": 1061034, "internal_node_id": "0.0-4.0-1.0-9.0"}}, {"uniqueid": "w99307795:a57362688", "current_trial": 19, "dateTime": 1691143527611, "trialdata": {"revealed_states": [], "clicked_states": ["1", "2", "3", "4", "5", "6", "7", "12", "13", "14", "19", "22", "20", "21"], "num_clicks_accrued": [0, 0, 0, 0, 0, 0, 0, 0, 0, 0, 0, 0, 0], "stateRewards": ["", 2, -1, -1, -9, -81, -30, 55, -6, 78, 25, 62, 2, 4, -1, 9, -85, 1, -19, 1, -60, 12, -34, 1, 4, -1, -13, -24, -16, -83, -8, 16, 43, 9], "withholdReward": false, "trial_id": "mdp_trial_11", "block": "test", "trialIndex": 12, "score": -0.10000000000000142, "costs": -18.1, "simulationMode": [null, null, null, null, null], "rewards": [2, 4, -1, 1, 12], "path": ["0", "0", "12", "13", "14", "19", "21"], "rt": [33010, 120, 5, 83, 371], "actions": ["right", "right", "right", "down", "down"], "actionTimes": [34214, 34844, 35346, 35942, 36815], "queries": {"click": {"state": {"target": ["1", "2", "3", "4", "5", "6", "7", "12", "13", "14", "19", "22", "20", "21"], "time": [2076, 3332, 4786, 6340, 7538, 10783, 14002, 17764, 19204, 20464, 21765, 23058, 26553, 30057]}, "edge": {"target": [], "time": []}}, "mouseover": {"state": {"target": ["1", "2", "3", "4", "5", "6", "7", "12", "13", "14", "19", "22", "20", "19", "21"], "time": [1839, 3057, 4499, 6142, 7264, 8210, 11411, 14513, 18281, 19582, 21399, 22865, 24532, 28384, 28701]}, "edge": {"target": [], "time": []}}, "mouseout": {"state": {"target": ["28", "1", "2", "3", "4", "5", "6", "7", "12", "13", "14", "19", "22", "19", "20", "19", "21"], "time": [192, 2841, 4191, 5841, 6943, 7976, 11078, 14229, 18198, 19498, 21021, 22699, 24065, 24366, 28001, 28401, 38661]}, "edge": {"target": [], "time": []}}}, "displayed_time": "37.32", "trialTime": 39850, "trial_type": "mouselab-mdp", "trial_index": 19, "time_elapsed": 1101254, "internal_node_id": "0.0-4.0-1.0-10.0"}}, {"uniqueid": "w99307795:a57362688", "current_trial": 20, "dateTime": 1691143553271, "trialdata": {"revealed_states": [], "clicked_states": ["23", "12", "13", "14", "15", "19", "22", "20", "21"], "num_clicks_accrued": [0, 0, 0, 0, 0, 0, 0, 0, 0, 0, 0, 0, 0], "stateRewards": ["", -1, 2, 5, -6, 13, -64, -47, 8, -79, -80, -33, 1, 2, -2, -16, 56, -71, -10, 3, 29, 44, 85, -1, 4, 5, 4, -36, -56, 19, 8, 52, -13, -2], "withholdReward": false, "trial_id": "mdp_trial_12", "block": "test", "trialIndex": 13, "score": 78.65, "costs": -10.350000000000001, "simulationMode": [null, null, null, null, null], "rewards": [1, 2, -2, 3, 85], "path": ["0", "0", "12", "13", "14", "19", "22"], "rt": [18519, 84, 128, 77, 232], "actions": ["right", "right", "right", "down", "left"], "actionTimes": [19775, 20358, 20986, 21568, 22323], "queries": {"click": {"state": {"target": ["23", "12", "13", "14", "15", "19", "22", "20", "21"], "time": [2019, 3091, 4262, 5442, 6571, 8145, 9391, 13026, 16498]}, "edge": {"target": [], "time": []}}, "mouseover": {"state": {"target": ["23", "0", "12", "13", "14", "15", "19", "22", "20", "21"], "time": [1794, 2729, 2795, 4046, 5281, 6365, 7681, 9131, 10400, 13701]}, "edge": {"target": [], "time": []}}, "mouseout": {"state": {"target": ["22", "0", "23", "0", "12", "13", "14", "15", "14", "19", "22", "19", "20", "21", "21"], "time": [509, 1730, 2713, 2762, 3929, 5148, 6181, 7482, 7581, 9065, 10217, 10300, 13518, 23788, 24772]}, "edge": {"target": [], "time": []}}}, "displayed_time": "22.84", "trialTime": 25247, "trial_type": "mouselab-mdp", "trial_index": 20, "time_elapsed": 1126914, "internal_node_id": "0.0-4.0-1.0-11.0"}}, {"uniqueid": "w99307795:a57362688", "current_trial": 21, "dateTime": 1691143587282, "trialdata": {"revealed_states": [], "clicked_states": ["1", "2", "3", "8", "11", "9", "10", "4", "6", "7", "5"], "num_clicks_accrued": [0, 0, 0, 0, 0, 0, 0, 0, 0, 0, 0, 0, 0], "stateRewards": ["", 1, 1, -2, 7, -31, -6, 76, 1, -36, -16, -53, 2, 1, 7, 13, -47, -10, 47, -7, 72, 46, -56, -2, -2, -2, 11, -80, 44, 38, 16, 67, 85, -78], "withholdReward": false, "trial_id": "mdp_trial_13", "block": "test", "trialIndex": 14, "score": 65.95, "costs": -17.05, "simulationMode": [null, null, null, null, null], "rewards": [1, 1, -2, 7, 76], "path": ["0", "0", "1", "2", "3", "4", "7"], "rt": [27117, 111, 140, 89, 114], "actions": ["up", "up", "up", "right", "down"], "actionTimes": [28355, 28968, 29613, 30196, 30805], "queries": {"click": {"state": {"target": ["1", "2", "3", "8", "11", "9", "10", "4", "6", "7", "5"], "time": [1912, 3128, 4391, 5597, 6693, 10102, 13489, 16860, 18408, 21804, 25185]}, "edge": {"target": [], "time": []}}, "mouseover": {"state": {"target": ["1", "2", "3", "8", "11", "9", "8", "10", "4", "6", "7", "4", "5"], "time": [1710, 2748, 4193, 5342, 6477, 8215, 10463, 10568, 13848, 18233, 19083, 22253, 22302]}, "edge": {"target": [], "time": []}}, "mouseout": {"state": {"target": ["21", "0", "1", "2", "3", "8", "11", "9", "8", "10", "4", "6", "7", "4", "5"], "time": [111, 1564, 2443, 3493, 5310, 6344, 7978, 10413, 10533, 13766, 17466, 18933, 22200, 22269, 32354]}, "edge": {"target": [], "time": []}}}, "displayed_time": "31.31", "trialTime": 33626, "trial_type": "mouselab-mdp", "trial_index": 21, "time_elapsed": 1160925, "internal_node_id": "0.0-4.0-1.0-12.0"}}, {"uniqueid": "w99307795:a57362688", "current_trial": 22, "dateTime": 1691143604770, "trialdata": {"revealed_states": [], "clicked_states": ["23", "24", "25", "30", "32"], "num_clicks_accrued": [0, 0, 0, 0, 0, 0, 0, 0, 0, 0, 0, 0, 0], "stateRewards": ["", -1, 4, -5, 9, 29, -75, -42, -16, 24, -28, -41, 2, -3, 1, 10, 60, 47, 55, -1, -53, 22, -40, 2, -3, -6, 4, -26, 44, 54, 15, -76, 42, 14], "withholdReward": false, "trial_id": "mdp_trial_14", "block": "test", "trialIndex": 15, "score": 45.25, "costs": -4.75, "simulationMode": [null, null, null, null, null], "rewards": [2, -3, -6, 15, 42], "path": ["0", "0", "23", "24", "25", "30", "32"], "rt": [9937, 98, 356, 106, 96], "actions": ["left", "left", "left", "down", "down"], "actionTimes": [11456, 12070, 12927, 13527, 14117], "queries": {"click": {"state": {"target": ["23", "24", "25", "30", "32"], "time": [2873, 3921, 4907, 6018, 7494]}, "edge": {"target": [], "time": []}}, "mouseover": {"state": {"target": ["1", "23", "24", "25", "30", "32"], "time": [2385, 2598, 3622, 4632, 5799, 7081]}, "edge": {"target": [], "time": []}}, "mouseout": {"state": {"target": ["4", "1", "0", "1", "23", "24", "25", "30", "30", "32"], "time": [528, 749, 2070, 2536, 3608, 4582, 5632, 6104, 6849, 7555]}, "edge": {"target": [], "time": []}}}, "displayed_time": "15.52", "trialTime": 17086, "trial_type": "mouselab-mdp", "trial_index": 22, "time_elapsed": 1178412, "internal_node_id": "0.0-4.0-1.0-13.0"}}, {"uniqueid": "w99307795:a57362688", "current_trial": 23, "dateTime": 1691143643958, "trialdata": {"revealed_states": [], "clicked_states": ["1", "2", "3", "8", "9", "11", "10", "4", "6", "5", "7"], "num_clicks_accrued": [0, 0, 0, 0, 0, 0, 0, 0, 0, 0, 0, 0, 0], "stateRewards": ["", 2, 3, 8, 14, 69, -27, 17, 2, -71, -65, -10, 2, -3, 7, 8, 65, -10, 65, -12, 73, -12, 13, -2, -2, 6, 10, -79, -69, -18, 10, -85, 67, 74], "withholdReward": false, "trial_id": "mdp_trial_15", "block": "test", "trialIndex": 16, "score": 78.95, "costs": -17.05, "simulationMode": [null, null, null, null, null], "rewards": [2, 3, 8, 14, 69], "path": ["0", "0", "1", "2", "3", "4", "5"], "rt": [31093, 149, 151, 124, 204], "actions": ["up", "up", "up", "right", "up"], "actionTimes": [32540, 33193, 33847, 34487, 35184], "queries": {"click": {"state": {"target": ["1", "2", "3", "8", "9", "11", "10", "4", "6", "5", "7"], "time": [2198, 3203, 4494, 5645, 7390, 11241, 14653, 18797, 21608, 25199, 28927]}, "edge": {"target": [], "time": []}}, "mouseover": {"state": {"target": ["1", "2", "3", "8", "9", "11", "10", "4", "4", "6", "5", "4", "7"], "time": [1965, 2963, 4097, 5397, 7049, 10949, 13835, 18169, 18491, 20103, 24905, 28457, 28707]}, "edge": {"target": [], "time": []}}, "mouseout": {"state": {"target": ["0", "1", "2", "3", "8", "9", "11", "10", "4", "4", "6", "5", "4", "7"], "time": [1864, 2746, 3463, 5363, 5719, 10767, 13651, 18019, 18285, 19920, 24821, 28376, 28626, 36843]}, "edge": {"target": [], "time": []}}}, "displayed_time": "35.68", "trialTime": 38763, "trial_type": "mouselab-mdp", "trial_index": 23, "time_elapsed": 1217599, "internal_node_id": "0.0-4.0-1.0-14.0"}}, {"uniqueid": "w99307795:a57362688", "current_trial": 24, "dateTime": 1691143669052, "trialdata": {"revealed_states": [], "clicked_states": ["23", "24", "25", "30", "32", "31", "33"], "num_clicks_accrued": [0, 0, 0, 0, 0, 0, 0, 0, 0, 0, 0, 0, 0], "stateRewards": ["", 2, -1, 8, -2, -16, 69, -39, -7, -13, -27, -86, 2, -2, 2, 13, -34, -16, -20, -5, 19, 81, 32, -2, -1, 2, -14, 20, 80, 58, 4, 70, 12, 73], "withholdReward": false, "trial_id": "mdp_trial_16", "block": "test", "trialIndex": 17, "score": 66.95, "costs": -9.05, "simulationMode": [null, null, null, null, null], "rewards": [-2, -1, 2, 4, 73], "path": ["0", "0", "23", "24", "25", "30", "33"], "rt": [17725, 137, 154, 89, 198], "actions": ["left", "left", "left", "down", "left"], "actionTimes": [19114, 19748, 20394, 20980, 21689], "queries": {"click": {"state": {"target": ["23", "24", "25", "30", "32", "31", "33"], "time": [2583, 3618, 4560, 7061, 8044, 11388, 14814]}, "edge": {"target": [], "time": []}}, "mouseover": {"state": {"target": ["0", "23", "24", "25", "26", "26", "30", "32", "31", "30", "33", "33"], "time": [1399, 2333, 3296, 4249, 5448, 6334, 6820, 7799, 9272, 11901, 11951, 12386]}, "edge": {"target": [], "time": []}}, "mouseout": {"state": {"target": ["1", "0", "23", "24", "25", "26", "26", "25", "30", "32", "32", "32", "31", "30", "33", "33"], "time": [483, 1852, 3245, 4114, 5280, 6147, 6647, 6679, 7682, 8143, 8538, 9024, 11851, 11934, 11969, 22940]}, "edge": {"target": [], "time": []}}}, "displayed_time": "22.19", "trialTime": 24610, "trial_type": "mouselab-mdp", "trial_index": 24, "time_elapsed": 1242695, "internal_node_id": "0.0-4.0-1.0-15.0"}}, {"uniqueid": "w99307795:a57362688", "current_trial": 25, "dateTime": 1691143705959, "trialdata": {"revealed_states": [], "clicked_states": ["1", "12", "13", "14", "19", "22", "20", "21", "15", "18", "16", "17"], "num_clicks_accrued": [0, 0, 0, 0, 0, 0, 0, 0, 0, 0, 0, 0, 0], "stateRewards": ["", -1, -2, 8, -6, -79, -6, 87, 9, -5, -66, -38, 2, 2, 5, -6, -82, 74, 85, -8, 67, -30, -15, 1, -2, -2, -2, 87, 64, 49, 7, 2, -38, -9], "withholdReward": false, "trial_id": "mdp_trial_17", "block": "test", "trialIndex": 18, "score": 71.2, "costs": -16.8, "simulationMode": [null, null, null, null, null], "rewards": [2, 2, 5, -6, 85], "path": ["0", "0", "12", "13", "14", "15", "18"], "rt": [29938, 35, 333, 222, 6], "actions": ["right", "right", "right", "up", "left"], "actionTimes": [31001, 31536, 32367, 33089, 33590], "queries": {"click": {"state": {"target": ["1", "12", "13", "14", "19", "22", "20", "21", "15", "18", "16", "17"], "time": [1913, 3476, 4492, 5636, 7246, 8557, 11816, 15121, 18603, 21078, 24301, 27582]}, "edge": {"target": [], "time": []}}, "mouseover": {"state": {"target": ["1", "12", "13", "14", "19", "22", "20", "21", "19", "14", "15", "18", "16", "17"], "time": [1708, 3252, 4219, 5435, 7003, 8390, 10155, 12473, 16842, 17009, 17330, 19426, 21843, 25145]}, "edge": {"target": [], "time": []}}, "mouseout": {"state": {"target": ["0", "1", "1", "12", "13", "14", "19", "22", "19", "20", "21", "19", "14", "15", "18", "16", "17", "18"], "time": [656, 2934, 3054, 4169, 5269, 6854, 8254, 9873, 10039, 12323, 16742, 16892, 17084, 19376, 21543, 24646, 33383, 35385]}, "edge": {"target": [], "time": []}}}, "displayed_time": "34.10", "trialTime": 36478, "trial_type": "mouselab-mdp", "trial_index": 25, "time_elapsed": 1279603, "internal_node_id": "0.0-4.0-1.0-16.0"}}, {"uniqueid": "w99307795:a57362688", "current_trial": 26, "dateTime": 1691143738791, "trialdata": {"revealed_states": [], "clicked_states": ["23", "12", "1", "2", "3", "8", "11", "9", "10", "4"], "num_clicks_accrued": [0, 0, 0, 0, 0, 0, 0, 0, 0, 0, 0, 0, 0], "stateRewards": ["", 2, -1, 3, -12, -83, 6, -33, 9, 28, 24, -50, -2, -1, -2, -5, -87, 37, 82, 12, 80, -5, 10, -2, -3, -6, 9, 22, -1, 16, 9, 77, -62, 58], "withholdReward": false, "trial_id": "mdp_trial_18", "block": "test", "trialIndex": 19, "score": 30.9, "costs": -10.100000000000001, "simulationMode": [null, null, null, null, null], "rewards": [2, -1, 3, 9, 28], "path": ["0", "0", "1", "2", "3", "8", "9"], "rt": [25513, 118, 146, 66, 138], "actions": ["up", "up", "up", "left", "up"], "actionTimes": [26759, 27372, 28017, 28587, 29242], "queries": {"click": {"state": {"target": ["23", "12", "1", "2", "3", "8", "11", "9", "10", "4"], "time": [2205, 3332, 4420, 5607, 6906, 8128, 9450, 12708, 15952, 19202]}, "edge": {"target": [], "time": []}}, "mouseover": {"state": {"target": ["23", "0", "12", "1", "2", "3", "8", "11", "9", "8", "10", "4", "5", "5"], "time": [1806, 3025, 3112, 4192, 5277, 6691, 7777, 9258, 11195, 13228, 13546, 16584, 19565, 19982]}, "edge": {"target": [], "time": []}}, "mouseout": {"state": {"target": ["18", "0", "23", "23", "23", "0", "12", "1", "2", "3", "8", "11", "9", "8", "10", "4", "5", "5"], "time": [361, 1764, 2265, 2474, 2996, 3075, 3929, 5109, 6460, 7760, 9111, 10994, 13062, 13362, 16307, 19498, 19682, 24035]}, "edge": {"target": [], "time": []}}}, "displayed_time": "29.74", "trialTime": 32450, "trial_type": "mouselab-mdp", "trial_index": 26, "time_elapsed": 1312434, "internal_node_id": "0.0-4.0-1.0-17.0"}}, {"uniqueid": "w99307795:a57362688", "current_trial": 27, "dateTime": 1691143768635, "trialdata": {"revealed_states": [], "clicked_states": ["1", "23", "12", "24", "25", "30", "26", "2", "3", "8", "11", "9", "10"], "num_clicks_accrued": [0, 0, 0, 0, 0, 0, 0, 0, 0, 0, 0, 0, 0], "stateRewards": ["", -2, -3, 8, -4, -30, 31, 69, 9, 66, 87, 64, -2, 2, 8, 5, 47, 16, -39, -8, -54, 51, -19, 1, -2, -2, -11, -25, -26, 43, -9, 19, -84, 86], "withholdReward": false, "trial_id": "mdp_trial_19", "block": "test", "trialIndex": 20, "score": 86.05, "costs": -12.950000000000001, "simulationMode": [null, null, null, null, null], "rewards": [-2, -3, 8, 9, 87], "path": ["0", "0", "1", "2", "3", "8", "10"], "rt": [22531, 85, 177, 89, 225], "actions": ["up", "up", "up", "left", "down"], "actionTimes": [23852, 24463, 25136, 25729, 26450], "queries": {"click": {"state": {"target": ["1", "23", "12", "24", "25", "30", "26", "2", "3", "8", "11", "9", "10"], "time": [1828, 2834, 3831, 4813, 5745, 7269, 8593, 10377, 11628, 12616, 13966, 17412, 20635]}, "edge": {"target": [], "time": []}}, "mouseover": {"state": {"target": ["1", "23", "0", "12", "0", "24", "25", "30", "30", "26", "28", "1", "2", "3", "8", "11", "9", "8", "10"], "time": [1451, 2634, 3468, 3682, 4380, 4480, 5581, 6631, 7079, 8347, 9333, 9850, 10264, 11382, 12433, 13766, 15785, 17736, 17836]}, "edge": {"target": [], "time": []}}, "mouseout": {"state": {"target": ["2", "1", "0", "1", "23", "0", "12", "0", "23", "24", "25", "30", "30", "25", "26", "26", "28", "1", "2", "3", "8", "8", "11", "9", "8", "10", "10", "10"], "time": [495, 746, 1332, 2362, 3397, 3568, 4347, 4430, 4464, 5414, 6553, 6697, 8032, 8215, 8655, 9298, 9399, 10167, 11132, 12367, 12708, 13699, 15546, 17669, 17785, 28041, 28195, 28790]}, "edge": {"target": [], "time": []}}}, "displayed_time": "26.96", "trialTime": 29451, "trial_type": "mouselab-mdp", "trial_index": 27, "time_elapsed": 1342278, "internal_node_id": "0.0-4.0-1.0-18.0"}}, {"uniqueid": "w99307795:a57362688", "current_trial": 28, "dateTime": 1691143798617, "trialdata": {"revealed_states": [], "clicked_states": ["1", "2", "3", "4", "6", "5", "7", "8", "9"], "num_clicks_accrued": [0, 0, 0, 0, 0, 0, 0, 0, 0, 0, 0, 0, 0], "stateRewards": ["", 1, 3, 1, -13, 52, -28, 67, -14, 3, 63, -70, -1, -4, 7, -11, -10, 47, -18, 6, 69, -9, -61, 2, 3, -6, 10, 63, -34, 40, -6, -79, -35, -32], "withholdReward": false, "trial_id": "mdp_trial_20", "block": "test", "trialIndex": 21, "score": 46.25, "costs": -12.750000000000002, "simulationMode": [null, null, null, null, null], "rewards": [1, 3, 1, -13, 67], "path": ["0", "0", "1", "2", "3", "4", "7"], "rt": [22019, 124, 149, 79, 86], "actions": ["up", "up", "up", "right", "down"], "actionTimes": [23102, 23721, 24363, 24946, 25551], "queries": {"click": {"state": {"target": ["1", "2", "3", "4", "6", "5", "7", "8", "9"], "time": [1816, 2679, 3899, 4946, 5986, 9259, 12569, 16205, 19117]}, "edge": {"target": [], "time": []}}, "mouseover": {"state": {"target": ["1", "2", "3", "4", "6", "5", "4", "7", "8", "9", "11"], "time": [1617, 2517, 3687, 4701, 5636, 7318, 9721, 9821, 13490, 17007, 19875]}, "edge": {"target": [], "time": []}}, "mouseout": {"state": {"target": ["10", "1", "1", "2", "3", "3", "4", "6", "5", "4", "7", "8", "9", "11", "8"], "time": [152, 439, 2335, 3387, 4367, 4634, 5352, 7019, 9605, 9771, 13390, 16790, 19591, 28220, 28645]}, "edge": {"target": [], "time": []}}}, "displayed_time": "26.05", "trialTime": 29574, "trial_type": "mouselab-mdp", "trial_index": 28, "time_elapsed": 1372260, "internal_node_id": "0.0-4.0-1.0-19.0"}}, {"uniqueid": "w99307795:a57362688", "current_trial": 29, "dateTime": 1691143840655, "trialdata": {"revealed_states": [], "clicked_states": ["12", "23", "1", "2", "13", "14", "24", "25", "26", "27", "29", "28", "30", "33", "31", "32"], "num_clicks_accrued": [0, 0, 0, 0, 0, 0, 0, 0, 0, 0, 0, 0, 0], "stateRewards": ["", -1, -3, -3, 1, -38, 2, -53, -2, -1, -81, 70, -1, 1, -5, -9, 46, 15, 35, -1, -22, 38, 59, -2, 4, -8, 13, 1, -83, -43, 4, 76, 13, 48], "withholdReward": false, "trial_id": "mdp_trial_21", "block": "test", "trialIndex": 22, "score": 55.8, "costs": -18.2, "simulationMode": [null, null, null, null, null], "rewards": [-2, 4, -8, 4, 76], "path": ["0", "0", "23", "24", "25", "30", "31"], "rt": [34978, 261, 190, 339, 200], "actions": ["left", "left", "left", "down", "right"], "actionTimes": [36268, 37027, 37720, 38555, 39249], "queries": {"click": {"state": {"target": ["12", "23", "1", "2", "13", "14", "24", "25", "26", "27", "29", "28", "30", "33", "31", "32"], "time": [1868, 3748, 4526, 6222, 8030, 9176, 10704, 11878, 13242, 14432, 17683, 20922, 24248, 26387, 29640, 33049]}, "edge": {"target": [], "time": []}}, "mouseover": {"state": {"target": ["12", "23", "23", "1", "2", "18", "13", "14", "12", "0", "23", "24", "24", "25", "26", "27", "29", "26", "28", "25", "30", "33", "31", "32"], "time": [1763, 2799, 3646, 4346, 6014, 7648, 7850, 8900, 9934, 9984, 10034, 10300, 10433, 11651, 13003, 14036, 15786, 18105, 18254, 21755, 21905, 25241, 27091, 30643]}, "edge": {"target": [], "time": []}}, "mouseout": {"state": {"target": ["8", "8", "10", "0", "12", "23", "23", "1", "2", "2", "18", "13", "13", "14", "13", "12", "0", "23", "24", "24", "25", "25", "26", "27", "29", "26", "28", "25", "30", "33", "30", "31"], "time": [236, 315, 400, 878, 2683, 2883, 4146, 5880, 7199, 7565, 7665, 8088, 8767, 9867, 9917, 9967, 10017, 10187, 10333, 11418, 12568, 12835, 13835, 15686, 18054, 18171, 21689, 21806, 25192, 26708, 26958, 30310]}, "edge": {"target": [], "time": []}}}, "displayed_time": "39.75", "trialTime": 41525, "trial_type": "mouselab-mdp", "trial_index": 29, "time_elapsed": 1414297, "internal_node_id": "0.0-4.0-1.0-20.0"}}, {"uniqueid": "w99307795:a57362688", "current_trial": 30, "dateTime": 1691143865185, "trialdata": {"revealed_states": [], "clicked_states": ["1", "23", "24", "25", "26", "30", "33", "31", "32"], "num_clicks_accrued": [0, 0, 0, 0, 0, 0, 0, 0, 0, 0, 0, 0, 0], "stateRewards": ["", -2, 3, -1, 2, -72, 63, 20, -1, 62, -66, 39, -2, 3, -6, 14, 22, 47, 1, 8, -49, -1, -41, 2, 2, -6, -16, -64, -60, -34, 16, 54, 22, -7], "withholdReward": false, "trial_id": "mdp_trial_22", "block": "test", "trialIndex": 23, "score": 57.65, "costs": -10.350000000000001, "simulationMode": [null, null, null, null, null], "rewards": [2, 2, -6, 16, 54], "path": ["0", "0", "23", "24", "25", "30", "31"], "rt": [17857, 90, 201, 59, 211], "actions": ["left", "left", "left", "down", "right"], "actionTimes": [19465, 20057, 20754, 21312, 22029], "queries": {"click": {"state": {"target": ["1", "23", "24", "25", "26", "30", "33", "31", "32"], "time": [2268, 3462, 4654, 5565, 7137, 8222, 9496, 12826, 16201]}, "edge": {"target": [], "time": []}}, "mouseover": {"state": {"target": ["1", "23", "0", "24", "25", "30", "26", "30", "33", "31", "32"], "time": [2093, 3347, 4043, 4477, 5227, 6310, 6861, 8046, 9266, 10679, 13364]}, "edge": {"target": [], "time": []}}, "mouseout": {"state": {"target": ["32", "0", "1", "23", "23", "0", "23", "24", "25", "30", "25", "26", "25", "30", "30", "33", "30", "31", "32", "32"], "time": [356, 1963, 2926, 3557, 3926, 4177, 4343, 5160, 6044, 6527, 6676, 7795, 7945, 8301, 8962, 10462, 10580, 13214, 16290, 23584]}, "edge": {"target": [], "time": []}}}, "displayed_time": "22.57", "trialTime": 24099, "trial_type": "mouselab-mdp", "trial_index": 30, "time_elapsed": 1438828, "internal_node_id": "0.0-4.0-1.0-21.0"}}, {"uniqueid": "w99307795:a57362688", "current_trial": 31, "dateTime": 1691143887484, "trialdata": {"revealed_states": [], "clicked_states": ["1", "2", "3", "4", "5", "6", "7"], "num_clicks_accrued": [0, 0, 0, 0, 0, 0, 0, 0, 0, 0, 0, 0, 0], "stateRewards": ["", 1, -1, 4, -2, -75, -75, 84, -9, -60, -79, 59, 2, -4, 8, 9, -17, -82, 80, 14, -4, 49, 49, -1, 3, 6, -11, -33, 34, 55, 9, -57, 5, 59], "withholdReward": false, "trial_id": "mdp_trial_23", "block": "test", "trialIndex": 24, "score": 76.95, "costs": -9.05, "simulationMode": [null, null, null, null, null], "rewards": [1, -1, 4, -2, 84], "path": ["0", "0", "1", "2", "3", "4", "7"], "rt": [15823, 21, 27, 659, 38], "actions": ["up", "up", "up", "right", "down"], "actionTimes": [17033, 17555, 18093, 19277, 19806], "queries": {"click": {"state": {"target": ["1", "2", "3", "4", "5", "6", "7"], "time": [1836, 2838, 3735, 4919, 5975, 9191, 12394]}, "edge": {"target": [], "time": []}}, "mouseover": {"state": {"target": ["1", "2", "3", "4", "5", "6", "7", "0", "23"], "time": [1642, 2481, 3541, 4792, 5761, 6677, 9895, 12913, 13531]}, "edge": {"target": [], "time": []}}, "mouseout": {"state": {"target": ["0", "1", "2", "3", "3", "4", "4", "5", "6", "7", "0", "23", "31"], "time": [1425, 2425, 3275, 3818, 4376, 5525, 5681, 6444, 9661, 12763, 13413, 21115, 21165]}, "edge": {"target": [], "time": []}}}, "displayed_time": "20.30", "trialTime": 21853, "trial_type": "mouselab-mdp", "trial_index": 31, "time_elapsed": 1461126, "internal_node_id": "0.0-4.0-1.0-22.0"}}, {"uniqueid": "w99307795:a57362688", "current_trial": 32, "dateTime": 1691143908830, "trialdata": {"revealed_states": [], "clicked_states": ["23", "24", "25", "26", "30", "32", "31"], "num_clicks_accrued": [0, 0, 0, 0, 0, 0, 0, 0, 0, 0, 0, 0, 0], "stateRewards": ["", 2, 4, 4, -8, -36, -33, 38, 16, -51, 57, 57, 1, 3, 4, -6, 45, 68, 87, 1, 63, 24, -55, -2, 2, -6, -13, -63, -50, 8, 2, 80, 6, 60], "withholdReward": false, "trial_id": "mdp_trial_24", "block": "test", "trialIndex": 25, "score": 67.55, "costs": -8.45, "simulationMode": [null, null, null, null, null], "rewards": [-2, 2, -6, 2, 80], "path": ["0", "0", "23", "24", "25", "30", "31"], "rt": [14320, 158, 153, 66, 198], "actions": ["left", "left", "left", "down", "right"], "actionTimes": [15695, 16348, 16997, 17555, 18276], "queries": {"click": {"state": {"target": ["23", "24", "25", "26", "30", "32", "31"], "time": [2205, 3242, 4286, 5174, 6506, 7657, 11166]}, "edge": {"target": [], "time": []}}, "mouseover": {"state": {"target": ["23", "24", "25", "26", "30", "32", "31", "30", "33"], "time": [2001, 3033, 3981, 4948, 6298, 7450, 9801, 11851, 11969]}, "edge": {"target": [], "time": []}}, "mouseout": {"state": {"target": ["21", "0", "23", "24", "25", "26", "25", "30", "32", "31", "30", "33"], "time": [462, 1802, 2931, 3931, 4820, 6084, 6199, 7299, 7715, 11819, 11902, 19804]}, "edge": {"target": [], "time": []}}}, "displayed_time": "18.77", "trialTime": 20880, "trial_type": "mouselab-mdp", "trial_index": 32, "time_elapsed": 1482473, "internal_node_id": "0.0-4.0-1.0-23.0"}}, {"uniqueid": "w99307795:a57362688", "current_trial": 33, "dateTime": 1691143927845, "trialdata": {"revealed_states": [], "clicked_states": ["1", "2", "3", "4", "5", "6"], "num_clicks_accrued": [0, 0, 0, 0, 0, 0, 0, 0, 0, 0, 0, 0, 0], "stateRewards": ["", -1, 1, 8, -8, -49, 62, -78, 16, 28, -81, 78, -2, -3, -1, -4, 67, 49, -2, -13, -16, -39, 83, 1, -4, 4, -5, -20, 7, 84, 7, -32, -59, 19], "withholdReward": false, "trial_id": "mdp_trial_25", "block": "test", "trialIndex": 26, "score": 55.1, "costs": -6.9, "simulationMode": [null, null, null, null, null], "rewards": [-1, 1, 8, -8, 62], "path": ["0", "0", "1", "2", "3", "4", "6"], "rt": [12704, 41, 46, 410, 141], "actions": ["up", "up", "up", "right", "right"], "actionTimes": [13777, 14317, 14872, 15826, 16471], "queries": {"click": {"state": {"target": ["1", "2", "3", "4", "5", "6"], "time": [1873, 2779, 3714, 4669, 5637, 9032]}, "edge": {"target": [], "time": []}}, "mouseover": {"state": {"target": ["1", "2", "3", "4", "5", "6", "7"], "time": [1636, 2541, 3421, 4521, 5494, 8207, 10424]}, "edge": {"target": [], "time": []}}, "mouseout": {"state": {"target": ["0", "1", "2", "3", "4", "5", "6", "7"], "time": [1525, 2421, 3220, 4407, 5271, 7944, 9957, 18094]}, "edge": {"target": [], "time": []}}}, "displayed_time": "16.96", "trialTime": 18520, "trial_type": "mouselab-mdp", "trial_index": 33, "time_elapsed": 1501487, "internal_node_id": "0.0-4.0-1.0-24.0"}}, {"uniqueid": "w99307795:a57362688", "current_trial": 34, "dateTime": 1691143952489, "trialdata": {"revealed_states": [], "clicked_states": ["1", "23", "24", "25", "30", "33", "31", "32"], "num_clicks_accrued": [0, 0, 0, 0, 0, 0, 0, 0, 0, 0, 0, 0, 0], "stateRewards": ["", -1, -4, -6, -15, 21, -67, -63, 9, 51, 69, -14, -1, 3, 8, -8, 39, 72, 63, 15, 19, 47, 15, 1, 4, 5, 16, -18, 34, 35, -14, -80, 40, 1], "withholdReward": false, "trial_id": "mdp_trial_26", "block": "test", "trialIndex": 27, "score": 27.2, "costs": -8.8, "simulationMode": [null, null, null, null, null], "rewards": [1, 4, 5, -14, 40], "path": ["0", "0", "23", "24", "25", "30", "32"], "rt": [18168, 147, 127, 50, 201], "actions": ["left", "left", "left", "down", "down"], "actionTimes": [19442, 20082, 20708, 21256, 21968], "queries": {"click": {"state": {"target": ["1", "23", "24", "25", "30", "33", "31", "32"], "time": [2390, 3510, 4560, 5615, 6533, 8241, 11546, 14867]}, "edge": {"target": [], "time": []}}, "mouseover": {"state": {"target": ["0", "1", "23", "24", "25", "30", "33", "30", "31", "32"], "time": [1427, 2194, 3341, 4308, 5225, 6292, 7842, 10813, 10929, 12162]}, "edge": {"target": [], "time": []}}, "mouseout": {"state": {"target": ["0", "0", "1", "23", "24", "25", "30", "33", "30", "31", "32"], "time": [721, 1812, 3007, 4275, 5208, 6192, 7695, 10730, 10860, 11980, 14971]}, "edge": {"target": [], "time": []}}}, "displayed_time": "22.47", "trialTime": 24197, "trial_type": "mouselab-mdp", "trial_index": 34, "time_elapsed": 1526132, "internal_node_id": "0.0-4.0-1.0-25.0"}}, {"uniqueid": "w99307795:a57362688", "current_trial": 35, "dateTime": 1691143982629, "trialdata": {"revealed_states": [], "clicked_states": ["1", "23", "12", "2", "3", "24", "25", "26", "8", "9", "10", "11"], "num_clicks_accrued": [0, 0, 0, 0, 0, 0, 0, 0, 0, 0, 0, 0, 0], "stateRewards": ["", -1, 3, -4, -14, 78, 67, 2, 13, -32, 28, 39, -2, 1, -4, -4, -4, -42, -86, 11, 64, -29, -32, -1, -4, 2, -7, 5, 68, -61, 2, -21, 85, 50], "withholdReward": false, "trial_id": "mdp_trial_27", "block": "test", "trialIndex": 28, "score": 38.6, "costs": -11.4, "simulationMode": [null, null, null, null, null], "rewards": [-1, 3, -4, 13, 39], "path": ["0", "0", "1", "2", "3", "8", "11"], "rt": [22359, 39, 592, 18, 150], "actions": ["up", "up", "up", "left", "left"], "actionTimes": [23466, 24010, 25114, 25629, 26291], "queries": {"click": {"state": {"target": ["1", "23", "12", "2", "3", "24", "25", "26", "8", "9", "10", "11"], "time": [1538, 2559, 3470, 4704, 5697, 7405, 8324, 9468, 11030, 11999, 15780, 19417]}, "edge": {"target": [], "time": []}}, "mouseover": {"state": {"target": ["1", "23", "0", "12", "2", "3", "24", "25", "26", "28", "2", "3", "8", "8", "9", "8", "10", "11"], "time": [1198, 2378, 3081, 3312, 4428, 5445, 7131, 8064, 9301, 10214, 10264, 10546, 10629, 10797, 11814, 15298, 15498, 19167]}, "edge": {"target": [], "time": []}}, "mouseout": {"state": {"target": ["0", "1", "23", "23", "0", "12", "2", "3", "3", "2", "24", "25", "26", "28", "2", "3", "8", "8", "9", "8", "10", "11", "8", "2", "0"], "time": [1120, 2044, 2634, 3027, 3194, 4061, 5345, 5786, 6484, 6963, 7981, 9149, 10197, 10231, 10298, 10596, 10663, 11664, 15215, 15348, 19000, 27891, 28205, 28289, 29189]}, "edge": {"target": [], "time": []}}}, "displayed_time": "26.79", "trialTime": 29679, "trial_type": "mouselab-mdp", "trial_index": 35, "time_elapsed": 1556272, "internal_node_id": "0.0-4.0-1.0-26.0"}}, {"uniqueid": "w99307795:a57362688", "current_trial": 36, "dateTime": 1691144011758, "trialdata": {"revealed_states": [], "clicked_states": ["12", "23", "1", "2", "3", "4", "5", "8", "9", "11", "10"], "num_clicks_accrued": [0, 0, 0, 0, 0, 0, 0, 0, 0, 0, 0, 0, 0], "stateRewards": ["", 1, -3, -6, -5, 47, 80, -29, 11, -71, 10, -29, -2, 3, -6, 12, 2, -78, -6, 8, 34, -16, -5, -1, 3, 3, -13, 84, -36, -62, -3, -27, 66, 15], "withholdReward": false, "trial_id": "mdp_trial_28", "block": "test", "trialIndex": 29, "score": 0.75, "costs": -12.25, "simulationMode": [null, null, null, null, null], "rewards": [1, -3, -6, 11, 10], "path": ["0", "0", "1", "2", "3", "8", "10"], "rt": [22637, 83, 108, 60, 124], "actions": ["up", "up", "up", "left", "down"], "actionTimes": [23440, 24028, 24634, 25188, 25846], "queries": {"click": {"state": {"target": ["12", "23", "1", "2", "3", "4", "5", "8", "9", "11", "10"], "time": [1361, 2677, 4055, 4953, 5716, 6376, 7202, 11134, 12897, 16277, 19446]}, "edge": {"target": [], "time": []}}, "mouseover": {"state": {"target": ["0", "12", "0", "23", "1", "2", "3", "4", "5", "8", "9", "11", "10"], "time": [815, 1216, 2198, 2336, 3854, 4765, 5466, 6099, 6968, 8851, 12535, 14558, 16860]}, "edge": {"target": [], "time": []}}, "mouseout": {"state": {"target": ["0", "12", "12", "0", "23", "1", "2", "3", "4", "5", "3", "8", "9", "11"], "time": [1162, 1914, 2097, 2286, 3232, 4565, 5416, 6000, 6834, 8252, 8751, 12335, 14286, 16621]}, "edge": {"target": [], "time": []}}}, "displayed_time": "26.34", "trialTime": 28647, "trial_type": "mouselab-mdp", "trial_index": 36, "time_elapsed": 1585401, "internal_node_id": "0.0-4.0-1.0-27.0"}}, {"uniqueid": "w99307795:a57362688", "current_trial": 37, "dateTime": 1691144041747, "trialdata": {"revealed_states": [], "clicked_states": ["1", "2", "3", "4", "5", "6", "7", "8", "10"], "num_clicks_accrued": [0, 0, 0, 0, 0, 0, 0, 0, 0, 0, 0, 0, 0], "stateRewards": ["", 1, -3, -1, 9, -34, -40, 22, -7, 45, 53, -11, 2, 4, 5, 15, 21, 37, -49, -3, 80, -28, -34, 1, -3, 1, 1, -40, -6, -5, -16, -85, -86, 59], "withholdReward": false, "trial_id": "mdp_trial_29", "block": "test", "trialIndex": 30, "score": 30.25, "costs": -12.750000000000002, "simulationMode": [null, null, null, null, null], "rewards": [1, -3, -1, -7, 53], "path": ["0", "0", "1", "2", "3", "8", "10"], "rt": [22712, 122, 701, 105, 80], "actions": ["up", "up", "up", "left", "down"], "actionTimes": [24017, 24664, 25871, 26477, 27051], "queries": {"click": {"state": {"target": ["1", "2", "3", "4", "5", "6", "7", "8", "10"], "time": [1969, 3180, 4623, 6002, 7200, 11016, 14235, 17737, 19125]}, "edge": {"target": [], "time": []}}, "mouseover": {"state": {"target": ["1", "2", "3", "4", "5", "6", "7", "1", "10", "8", "10"], "time": [1642, 2958, 4346, 5842, 6798, 10861, 13347, 14864, 15535, 15786, 18933]}, "edge": {"target": [], "time": []}}, "mouseout": {"state": {"target": ["2", "0", "1", "2", "3", "4", "5", "6", "7", "1", "10", "8", "10", "10"], "time": [473, 1533, 2791, 4111, 5643, 6476, 10513, 12895, 14780, 14897, 15549, 18847, 28339, 28968]}, "edge": {"target": [], "time": []}}}, "displayed_time": "27.56", "trialTime": 29535, "trial_type": "mouselab-mdp", "trial_index": 37, "time_elapsed": 1615390, "internal_node_id": "0.0-4.0-1.0-28.0"}}, {"uniqueid": "w99307795:a57362688", "current_trial": 38, "dateTime": 1691144065294, "trialdata": {"revealed_states": [], "clicked_states": ["23", "24", "25", "30", "32", "33", "31"], "num_clicks_accrued": [0, 0, 0, 0, 0, 0, 0, 0, 0, 0, 0, 0, 0], "stateRewards": ["", -1, -4, 8, 8, -68, 47, 24, -7, -61, 49, -69, -1, -1, 8, -7, 42, 1, -45, -11, 10, -63, -6, 1, 4, 6, -16, 79, -37, -58, -12, 81, 18, -53], "withholdReward": false, "trial_id": "mdp_trial_30", "block": "test", "trialIndex": 31, "score": 70.95, "costs": -9.05, "simulationMode": [null, null, null, null, null], "rewards": [1, 4, 6, -12, 81], "path": ["0", "0", "23", "24", "25", "30", "31"], "rt": [16162, 171, 163, 160, 245], "actions": ["left", "left", "left", "down", "right"], "actionTimes": [17414, 18077, 18737, 19401, 20153], "queries": {"click": {"state": {"target": ["23", "24", "25", "30", "32", "33", "31"], "time": [1855, 2621, 3418, 4583, 6441, 9771, 13346]}, "edge": {"target": [], "time": []}}, "mouseover": {"state": {"target": ["23", "24", "25", "30", "30", "32", "33", "30", "31"], "time": [1729, 2402, 3131, 3731, 3964, 6297, 7299, 10284, 10634]}, "edge": {"target": [], "time": []}}, "mouseout": {"state": {"target": ["1", "0", "23", "24", "25", "30", "30", "32", "33", "30", "31", "31", "0"], "time": [700, 1267, 2353, 3098, 3714, 3748, 6199, 6476, 10201, 10434, 22105, 22255, 22388]}, "edge": {"target": [], "time": []}}}, "displayed_time": "20.66", "trialTime": 23039, "trial_type": "mouselab-mdp", "trial_index": 38, "time_elapsed": 1638937, "internal_node_id": "0.0-4.0-1.0-29.0"}}, {"uniqueid": "w99307795:a57362688", "current_trial": 39, "dateTime": 1691144084608, "trialdata": {"revealed_states": [], "clicked_states": ["1", "2", "3", "4", "5"], "num_clicks_accrued": [0, 0, 0, 0, 0, 0, 0, 0, 0, 0, 0, 0, 0], "stateRewards": ["", 2, -1, -4, -13, 74, 77, 3, 2, -43, -2, -11, 2, 3, 7, 11, -26, -29, -33, -3, -3, -13, -3, 1, 3, -7, 14, -59, 33, 9, -5, 34, 79, 68], "withholdReward": false, "trial_id": "mdp_trial_31", "block": "test", "trialIndex": 32, "score": 53.25, "costs": -4.75, "simulationMode": [null, null, null, null, null], "rewards": [2, -1, -4, -13, 74], "path": ["0", "0", "1", "2", "3", "4", "5"], "rt": [8857, 57, 437, 123, 52], "actions": ["up", "up", "up", "right", "up"], "actionTimes": [9800, 10366, 11311, 11948, 12502], "queries": {"click": {"state": {"target": ["1", "2", "3", "4", "5"], "time": [2021, 2852, 4007, 4951, 5813]}, "edge": {"target": [], "time": []}}, "mouseover": {"state": {"target": ["1", "2", "3", "4", "5", "23"], "time": [1836, 2641, 3787, 4787, 5574, 8071]}, "edge": {"target": [], "time": []}}, "mouseout": {"state": {"target": ["0", "1", "2", "3", "4", "5", "23"], "time": [1121, 2469, 3537, 4654, 5458, 7525, 14973]}, "edge": {"target": [], "time": []}}}, "displayed_time": "14.94", "trialTime": 18863, "trial_type": "mouselab-mdp", "trial_index": 39, "time_elapsed": 1658250, "internal_node_id": "0.0-4.0-1.0-30.0"}}, {"uniqueid": "w99307795:a57362688", "current_trial": 40, "dateTime": 1691144104290, "trialdata": {"revealed_states": [], "clicked_states": ["23", "24", "25", "30", "32", "31"], "num_clicks_accrued": [0, 0, 0, 0, 0, 0, 0, 0, 0, 0, 0, 0, 0], "stateRewards": ["", 1, 3, -2, 15, 51, 15, -19, 11, 67, -45, -73, 2, 4, -2, -13, 36, 9, -28, 10, -30, 31, 16, 1, 2, -1, -16, 14, -22, 36, -1, 88, -5, 45], "withholdReward": false, "trial_id": "mdp_trial_32", "block": "test", "trialIndex": 33, "score": 82.1, "costs": -6.9, "simulationMode": [null, null, null, null, null], "rewards": [1, 2, -1, -1, 88], "path": ["0", "0", "23", "24", "25", "30", "31"], "rt": [12943, 82, 186, 117, 222], "actions": ["left", "left", "left", "down", "right"], "actionTimes": [14649, 15235, 15921, 16538, 17259], "queries": {"click": {"state": {"target": ["23", "24", "25", "30", "32", "31"], "time": [2595, 3526, 4458, 5414, 7152, 10411]}, "edge": {"target": [], "time": []}}, "mouseover": {"state": {"target": ["23", "24", "25", "30", "32", "31", "30", "33", "24", "24"], "time": [2330, 3244, 4061, 5212, 7011, 8438, 10865, 11048, 13881, 14082]}, "edge": {"target": [], "time": []}}, "mouseout": {"state": {"target": ["1", "0", "23", "24", "25", "30", "32", "31", "30", "33", "24"], "time": [592, 2080, 3112, 4013, 5012, 6197, 7580, 10814, 10920, 13798, 13914]}, "edge": {"target": [], "time": []}}}, "displayed_time": "17.75", "trialTime": 19178, "trial_type": "mouselab-mdp", "trial_index": 40, "time_elapsed": 1677932, "internal_node_id": "0.0-4.0-1.0-31.0"}}, {"uniqueid": "w99307795:a57362688", "current_trial": 41, "dateTime": 1691144138173, "trialdata": {"revealed_states": [], "clicked_states": ["12", "13", "14", "15", "18", "16", "17", "19", "21", "22", "20"], "num_clicks_accrued": [0, 0, 0, 0, 0, 0, 0, 0, 0, 0, 0, 0, 0], "stateRewards": ["", 1, 2, -3, -5, 66, -50, -47, -5, 1, 28, -27, 1, 1, -1, -6, 37, -25, 56, 1, -82, -66, -40, -1, -4, -7, 15, -61, -23, 26, 10, 14, -56, 29], "withholdReward": false, "trial_id": "mdp_trial_33", "block": "test", "trialIndex": 34, "score": 14.95, "costs": -17.05, "simulationMode": [null, null, null, null, null], "rewards": [1, 1, -1, -6, 37], "path": ["0", "0", "12", "13", "14", "15", "16"], "rt": [27570, 167, 216, 78, 95], "actions": ["right", "right", "right", "up", "up"], "actionTimes": [29020, 29685, 30400, 30979, 31579], "queries": {"click": {"state": {"target": ["12", "13", "14", "15", "18", "16", "17", "19", "21", "22", "20"], "time": [2179, 2961, 3962, 4993, 6258, 9558, 12831, 16061, 18294, 21490, 24741]}, "edge": {"target": [], "time": []}}, "mouseover": {"state": {"target": ["12", "13", "14", "15", "18", "16", "17", "19", "21", "21", "22", "19", "20"], "time": [2067, 2768, 3818, 4856, 6038, 8320, 10054, 13422, 16562, 17140, 19226, 21926, 22110]}, "edge": {"target": [], "time": []}}, "mouseout": {"state": {"target": ["24", "23", "0", "12", "13", "14", "15", "18", "16", "17", "19", "21", "21", "22", "19"], "time": [583, 698, 1920, 2736, 3152, 4671, 5907, 7904, 9788, 13124, 16424, 16840, 18825, 21826, 22044]}, "edge": {"target": [], "time": []}}}, "displayed_time": "32.08", "trialTime": 33393, "trial_type": "mouselab-mdp", "trial_index": 41, "time_elapsed": 1711815, "internal_node_id": "0.0-4.0-1.0-32.0"}}, {"uniqueid": "w99307795:a57362688", "current_trial": 42, "dateTime": 1691144161861, "trialdata": {"revealed_states": [], "clicked_states": ["1", "23", "12", "13", "14", "19", "20", "22", "21"], "num_clicks_accrued": [0, 0, 0, 0, 0, 0, 0, 0, 0, 0, 0, 0, 0], "stateRewards": ["", -1, -3, 1, 13, -64, -29, 12, -4, -33, 50, 56, 2, -3, 4, 11, -64, -58, -55, 12, 47, 38, -25, -2, 2, 5, -15, 85, 7, 84, 10, 8, 57, 26], "withholdReward": false, "trial_id": "mdp_trial_34", "block": "test", "trialIndex": 35, "score": 53.45, "costs": -8.55, "simulationMode": [null, null, null, null, null], "rewards": [2, -3, 4, 12, 47], "path": ["0", "0", "12", "13", "14", "19", "20"], "rt": [17167, 141, 148, 105, 210], "actions": ["right", "right", "right", "down", "right"], "actionTimes": [18804, 19443, 20084, 20692, 21396], "queries": {"click": {"state": {"target": ["1", "23", "12", "13", "14", "19", "20", "22", "21"], "time": [2381, 3128, 3891, 4871, 5965, 6757, 8224, 12323, 15559]}, "edge": {"target": [], "time": []}}, "mouseover": {"state": {"target": ["23", "0", "1", "23", "0", "12", "13", "14", "19", "20", "19", "22", "21"], "time": [1688, 1931, 2241, 2927, 3560, 3753, 4657, 5728, 6510, 7960, 11861, 12129, 14280]}, "edge": {"target": [], "time": []}}, "mouseout": {"state": {"target": ["20", "19", "22", "0", "23", "0", "1", "23", "0", "12", "13", "14", "19", "20", "19", "22", "21"], "time": [261, 625, 673, 1652, 1740, 2007, 2809, 3525, 3610, 4597, 5660, 6412, 7943, 11831, 11962, 14053, 23084]}, "edge": {"target": [], "time": []}}}, "displayed_time": "21.90", "trialTime": 23224, "trial_type": "mouselab-mdp", "trial_index": 42, "time_elapsed": 1735504, "internal_node_id": "0.0-4.0-1.0-33.0"}}, {"uniqueid": "w99307795:a57362688", "current_trial": 43, "dateTime": 1691144188662, "trialdata": {"revealed_states": [], "clicked_states": ["1", "2", "3", "4", "5", "12", "13", "14", "19", "21", "22"], "num_clicks_accrued": [0, 0, 0, 0, 0, 0, 0, 0, 0, 0, 0, 0, 0], "stateRewards": ["", 1, -2, -8, -3, 31, -84, -55, -14, 15, -58, 17, -2, -3, 7, 7, -12, 48, 67, 4, -44, -68, 46, 2, 3, -5, -7, 76, 27, 5, 11, 57, 52, 59], "withholdReward": false, "trial_id": "mdp_trial_35", "block": "test", "trialIndex": 36, "score": 40.35, "costs": -11.65, "simulationMode": [null, null, null, null, null], "rewards": [-2, -3, 7, 4, 46], "path": ["0", "0", "12", "13", "14", "19", "22"], "rt": [20823, 71, 86, 113, 225], "actions": ["right", "right", "right", "down", "left"], "actionTimes": [22069, 22660, 23252, 23865, 24592], "queries": {"click": {"state": {"target": ["1", "2", "3", "4", "5", "12", "13", "14", "19", "21", "22"], "time": [2392, 3818, 4688, 5367, 6000, 9319, 10686, 11637, 12592, 14004, 17608]}, "edge": {"target": [], "time": []}}, "mouseover": {"state": {"target": ["1", "1", "1", "2", "2", "3", "4", "5", "12", "13", "13", "14", "19", "21", "22", "19", "20"], "time": [1707, 2123, 2287, 3089, 3638, 4456, 5224, 5840, 7426, 9809, 10461, 11364, 12459, 13759, 17427, 18495, 19079]}, "edge": {"target": [], "time": []}}, "mouseout": {"state": {"target": ["0", "1", "1", "1", "1", "2", "2", "3", "4", "5", "12", "13", "13", "14", "19", "19", "21", "22", "19", "20"], "time": [454, 1854, 2226, 2434, 2888, 3274, 3878, 5085, 5741, 6392, 9675, 9859, 11228, 12293, 12685, 13697, 17177, 18196, 18780, 21480]}, "edge": {"target": [], "time": []}}}, "displayed_time": "25.09", "trialTime": 26309, "trial_type": "mouselab-mdp", "trial_index": 43, "time_elapsed": 1762304, "internal_node_id": "0.0-4.0-1.0-34.0"}}, {"uniqueid": "w99307795:a57362688", "current_trial": 44, "dateTime": 1691144205846, "trialdata": {"revealed_states": [], "clicked_states": ["12", "13", "14", "19"], "num_clicks_accrued": [0, 0, 0, 0, 0, 0, 0, 0, 0, 0, 0, 0, 0], "stateRewards": ["", 2, -3, -4, -1, 25, -16, 16, 10, -71, -20, -55, 1, 3, -4, -9, 1, 32, 11, -6, 32, -50, -41, -1, 4, 4, -8, 7, -81, 70, 2, -52, 45, -10], "withholdReward": false, "trial_id": "mdp_trial_36", "block": "test", "trialIndex": 37, "score": 23.4, "costs": -2.5999999999999996, "simulationMode": [null, null, null, null, null], "rewards": [1, 3, -4, -6, 32], "path": ["0", "0", "12", "13", "14", "19", "20"], "rt": [10774, 69, 127, 130, 191], "actions": ["right", "right", "right", "down", "right"], "actionTimes": [12194, 12760, 13401, 14038, 14750], "queries": {"click": {"state": {"target": ["12", "13", "14", "19"], "time": [2069, 2961, 3771, 4712]}, "edge": {"target": [], "time": []}}, "mouseover": {"state": {"target": ["12", "13", "14", "19", "22", "19", "20"], "time": [1901, 2785, 3369, 4484, 5254, 8584, 9002]}, "edge": {"target": [], "time": []}}, "mouseout": {"state": {"target": ["19", "22", "12", "0", "0", "12", "13", "14", "19", "22", "19"], "time": [285, 314, 334, 633, 1769, 2618, 3318, 4354, 5220, 8503, 8635]}, "edge": {"target": [], "time": []}}}, "displayed_time": "15.42", "trialTime": 16663, "trial_type": "mouselab-mdp", "trial_index": 44, "time_elapsed": 1779489, "internal_node_id": "0.0-4.0-1.0-35.0"}}, {"uniqueid": "w99307795:a57362688", "current_trial": 45, "dateTime": 1691144228835, "trialdata": {"revealed_states": [], "clicked_states": ["1", "23", "12", "13", "14", "15", "16", "18", "17"], "num_clicks_accrued": [0, 0, 0, 0, 0, 0, 0, 0, 0, 0, 0, 0, 0], "stateRewards": ["", -1, -3, -6, -2, -7, 80, -45, -3, -38, -72, 76, 2, 1, 7, 4, -62, 14, -74, 14, -87, -21, -88, -2, 1, -7, -10, 66, 56, -76, 10, -29, -72, -70], "withholdReward": false, "trial_id": "mdp_trial_37", "block": "test", "trialIndex": 38, "score": 19.45, "costs": -8.55, "simulationMode": [null, null, null, null, null], "rewards": [2, 1, 7, 4, 14], "path": ["0", "0", "12", "13", "14", "15", "17"], "rt": [17481, 81, 108, 89, 86], "actions": ["right", "right", "right", "up", "right"], "actionTimes": [18494, 19077, 19705, 20318, 20899], "queries": {"click": {"state": {"target": ["1", "23", "12", "13", "14", "15", "16", "18", "17"], "time": [1612, 2371, 3526, 4500, 5482, 6705, 7955, 11190, 14389]}, "edge": {"target": [], "time": []}}, "mouseover": {"state": {"target": ["0", "1", "23", "0", "12", "13", "14", "15", "16", "18", "15", "17"], "time": [1292, 1489, 2185, 3148, 3336, 4320, 5221, 6488, 7724, 10607, 11716, 11927]}, "edge": {"target": [], "time": []}}, "mouseout": {"state": {"target": ["13", "12", "1", "0", "0", "1", "23", "23", "0", "12", "13", "14", "15", "16", "18", "15", "17", "14"], "time": [71, 151, 371, 1026, 1324, 2003, 2449, 3103, 3190, 4187, 5103, 6321, 7528, 10490, 11663, 11823, 22253, 22310]}, "edge": {"target": [], "time": []}}}, "displayed_time": "21.41", "trialTime": 22513, "trial_type": "mouselab-mdp", "trial_index": 45, "time_elapsed": 1802478, "internal_node_id": "0.0-4.0-1.0-36.0"}}, {"uniqueid": "w99307795:a57362688", "current_trial": 46, "dateTime": 1691144258937, "trialdata": {"revealed_states": [], "clicked_states": ["1", "2", "3", "4", "6", "5", "7", "8", "9", "10"], "num_clicks_accrued": [0, 0, 0, 0, 0, 0, 0, 0, 0, 0, 0, 0, 0], "stateRewards": ["", 1, 1, -3, 2, 22, -25, -11, -5, 50, 49, 3, 1, -1, 8, 14, -85, -30, 57, -6, -39, -16, 59, -2, -1, 5, 5, 59, -16, 8, 4, 67, 56, -9], "withholdReward": false, "trial_id": "mdp_trial_38", "block": "test", "trialIndex": 39, "score": 29.099999999999998, "costs": -14.900000000000002, "simulationMode": [null, null, null, null, null], "rewards": [1, 1, -3, -5, 50], "path": ["0", "0", "1", "2", "3", "8", "9"], "rt": [23453, 25, 115, 82, 169], "actions": ["up", "up", "up", "left", "up"], "actionTimes": [24703, 25236, 25859, 26466, 27132], "queries": {"click": {"state": {"target": ["1", "2", "3", "4", "6", "5", "7", "8", "9", "10"], "time": [1945, 2670, 3419, 4315, 5077, 8519, 11926, 15184, 18126, 21495]}, "edge": {"target": [], "time": []}}, "mouseover": {"state": {"target": ["1", "2", "3", "4", "6", "5", "5", "4", "7", "8", "9", "8", "10"], "time": [1688, 2468, 3184, 4140, 4866, 7685, 8017, 8869, 9019, 12239, 16454, 18991, 19273]}, "edge": {"target": [], "time": []}}, "mouseout": {"state": {"target": ["1", "1", "2", "3", "4", "6", "5", "5", "4", "7", "8", "9", "8", "10"], "time": [335, 2316, 3033, 4050, 4835, 7568, 7756, 8786, 8920, 12171, 15280, 18790, 19158, 28855]}, "edge": {"target": [], "time": []}}}, "displayed_time": "27.63", "trialTime": 29616, "trial_type": "mouselab-mdp", "trial_index": 46, "time_elapsed": 1832580, "internal_node_id": "0.0-4.0-1.0-37.0"}}, {"uniqueid": "w99307795:a57362688", "current_trial": 47, "dateTime": 1691144280334, "trialdata": {"revealed_states": [], "clicked_states": ["1", "23", "12", "2", "3", "8", "9", "11", "10"], "num_clicks_accrued": [0, 0, 0, 0, 0, 0, 0, 0, 0, 0, 0, 0, 0], "stateRewards": ["", -1, 3, 1, -11, -22, -36, 19, -5, -70, -52, 50, -2, -4, 4, -2, -41, -83, 29, -2, 22, 10, -6, -2, 3, -2, 14, 54, 44, 77, -9, -65, -37, -40], "withholdReward": false, "trial_id": "mdp_trial_39", "block": "test", "trialIndex": 40, "score": 39.45, "costs": -8.55, "simulationMode": [null, null, null, null, null], "rewards": [-1, 3, 1, -5, 50], "path": ["0", "0", "1", "2", "3", "8", "11"], "rt": [15892, 153, 125, 92, 135], "actions": ["up", "up", "up", "left", "left"], "actionTimes": [16928, 17575, 18199, 18799, 19445], "queries": {"click": {"state": {"target": ["1", "23", "12", "2", "3", "8", "9", "11", "10"], "time": [1654, 2541, 3281, 4374, 5217, 5910, 6617, 9853, 13232]}, "edge": {"target": [], "time": []}}, "mouseover": {"state": {"target": ["1", "23", "0", "12", "2", "3", "8", "9", "11", "10"], "time": [1494, 2401, 3019, 3096, 4151, 4996, 5716, 6482, 7817, 10299]}, "edge": {"target": [], "time": []}}, "mouseout": {"state": {"target": ["1", "0", "1", "23", "0", "12", "2", "3", "8", "9", "11", "10", "10", "1"], "time": [364, 1378, 2130, 2629, 3049, 3763, 4880, 5681, 6299, 7516, 10133, 13801, 20519, 20736]}, "edge": {"target": [], "time": []}}}, "displayed_time": "19.94", "trialTime": 20899, "trial_type": "mouselab-mdp", "trial_index": 47, "time_elapsed": 1853978, "internal_node_id": "0.0-4.0-1.0-38.0"}}, {"uniqueid": "w99307795:a57362688", "current_trial": 48, "dateTime": 1691144307396, "trialdata": {"revealed_states": [], "clicked_states": ["12", "13", "14", "19", "22", "15", "16", "18"], "num_clicks_accrued": [0, 0, 0, 0, 0, 0, 0, 0, 0, 0, 0, 0, 0], "stateRewards": ["", -2, 2, -4, -4, -59, 88, 62, -3, 69, -15, -34, 1, -2, -5, 7, -54, -20, 78, -16, -74, -53, -21, 2, -4, 2, 13, -8, -44, 26, 9, 72, 4, 17], "withholdReward": false, "trial_id": "mdp_trial_40", "block": "test", "trialIndex": 41, "score": 68.4, "costs": -10.6, "simulationMode": [null, null, null, null, null], "rewards": [1, -2, -5, 7, 78], "path": ["0", "0", "12", "13", "14", "15", "18"], "rt": [18122, 58, 67, 69, 91], "actions": ["right", "right", "right", "up", "left"], "actionTimes": [19410, 19962, 20535, 21108, 21700], "queries": {"click": {"state": {"target": ["12", "13", "14", "19", "22", "15", "16", "18"], "time": [1924, 2658, 3514, 4189, 5242, 9045, 12038, 15189]}, "edge": {"target": [], "time": []}}, "mouseover": {"state": {"target": ["12", "13", "14", "19", "22", "20", "15", "16", "18", "15", "17"], "time": [1810, 2527, 3178, 4029, 5029, 7080, 8830, 10799, 12483, 15583, 15769]}, "edge": {"target": [], "time": []}}, "mouseout": {"state": {"target": ["1", "0", "0", "12", "13", "14", "19", "22", "19", "20", "15", "16", "18", "15", "17", "17", "20"], "time": [83, 426, 1760, 2397, 3111, 3861, 4895, 6997, 7063, 8545, 10496, 12335, 15502, 15650, 24097, 24204, 24536]}, "edge": {"target": [], "time": []}}}, "displayed_time": "22.20", "trialTime": 26482, "trial_type": "mouselab-mdp", "trial_index": 48, "time_elapsed": 1881039, "internal_node_id": "0.0-4.0-1.0-39.0"}}, {"uniqueid": "w99307795:a57362688", "current_trial": 49, "dateTime": 1691144387575, "trialdata": {"rt": 80060, "response": {"Q0": "$-2 to $2", "Q1": "$-16 to $16", "Q2": "$-88 to $88", "Q3": "The cost for clicking on nodes varied between nodes.", "Q4": "Very motivated"}, "question_order": [0, 1, 2, 3, 4], "trial_id": "final_quiz_control", "trial_type": "survey-multi-choice", "trial_index": 49, "time_elapsed": 1961218, "internal_node_id": "0.0-4.0-2.0"}}, {"uniqueid": "w99307795:a57362688", "current_trial": 50, "dateTime": 1691144759629, "trialdata": {"rt": 371753, "response": {"Q0": "I used my 3 seconds to get the value and when I saw a high value I ended of taking that route. ", "Q1": "Yes I got to use the node inspector better on each round by clicking the blocks that had a good value then was looking more the click on that route.", "Q2": "It wasn't difficult because I had the node inspector but I getting worried when the node inspector was going to a high - value and when looking at value I ran out the 3 seconds."}, "trial_id": "self_report_control", "trial_type": "survey-text", "trial_index": 50, "time_elapsed": 2333272, "internal_node_id": "0.0-4.0-3.0"}}, {"uniqueid": "w99307795:a57362688", "current_trial": 51, "dateTime": 1691144822412, "trialdata": {"rt": 62777, "response": {"Q0": "Strongly agree", "Q1": "Disagree", "Q2": "Disagree", "Q3": "Strongly agree", "Q4": "Agree", "Q5": "Strongly agree", "Q6": "Strongly disagree"}, "question_order": [0, 1, 2, 3, 4, 5, 6], "trial_id": "self_report_2", "trial_type": "survey-multi-choice", "trial_index": 51, "time_elapsed": 2396056, "internal_node_id": "0.0-4.0-4.0"}}, {"uniqueid": "w99307795:a57362688", "current_trial": 52, "dateTime": 1691144858699, "trialdata": {"rt": 36194, "response": {"gender": "male", "age": "35", "colorblind": "0", "effort": "0"}, "trial_type": "survey-html-form", "trial_index": 52, "time_elapsed": 2432343, "internal_node_id": "0.0-4.0-5.0"}}, {"uniqueid": "w99307795:a57362688", "current_trial": 53, "dateTime": 1691144915203, "trialdata": {"rt": 56396, "response": {"Q0": "No", "Q1": "This was my first time", "Q2": "It was great Thanks."}, "trial_type": "survey-text", "trial_index": 53, "time_elapsed": 2488847, "internal_node_id": "0.0-4.0-6.0"}}, {"uniqueid": "w99307795:a57362688", "current_trial": 54, "dateTime": 1691144923530, "trialdata": {"rt": 8201, "stimulus": "Press 'Finish HIT' in order to reach the completion code. Once the data has been saved, you will receive the code either in this window or in the original browser window where you started the experiment.\n", "response": 0, "trial_type": "html-button-response", "trial_index": 54, "time_elapsed": 2497174, "internal_node_id": "0.0-5.0"}}, {"uniqueid": "w99307795:a57362688", "current_trial": 55, "dateTime": 1691144924592, "trialdata": {"success": true, "trial_type": "fullscreen", "trial_index": 55, "time_elapsed": 2498235, "internal_node_id": "0.0-6.0"}}], "questiondata": {"params": {"CODE": "C6DMOQA6", "MIN_TIME": 14, "inspectCost": 1, "startTime": "Fri Aug 04 2023 11:47:03 GMT+0200 (South Africa Standard Time)", "bonusRate": 0.002, "variance": "1_2_4_8_44", "branching": "31123"}, "final_score": 1806.8}, "eventdata": [{"eventtype": "initialized", "value": null, "timestamp": 1691142422506, "interval": 0}, {"eventtype": "window_resize", "value": [1366, 670], "timestamp": 1691142422507, "interval": 1}, {"eventtype": "window_resize", "value": [1366, 670], "timestamp": 1691142423074, "interval": 567}, {"eventtype": "focus", "value": "off", "timestamp": 1691142431956, "interval": 8882}, {"eventtype": "focus", "value": "on", "timestamp": 1691142442111, "interval": 10155}, {"eventtype": "window_resize", "value": [1366, 768], "timestamp": 1691142443416, "interval": 1305}], "useragent": "Mozilla/5.0 (Windows NT 10.0; Win64; x64) AppleWebKit/537.36 (KHTML, like Gecko) Chrome/115.0.0.0 Safari/537.36", "mode": "live", "id": "w99307795:a57362688", "status": "user data saved", "Beginhit": "2023-08-04 09:46:56.499892", "Beginexp": "2023-08-04 09:47:23.539388", "Endhit": "2023-08-04 10:28:52.128302", "psiturkStatus": 3, "browser": "<redacted>", "platform": "windows", "language": "en-US"}