{"condition": 0, "counterbalance": 0, "assignmentId": "a61125045", "workerId": "w66931175", "hitId": "h21675566", "currenttrial": 67, "bonus": 0, "data": [{"uniqueid": "w66931175:a61125045", "current_trial": 0, "dateTime": 1693564829712, "trialdata": {"success": true, "trial_type": "fullscreen", "trial_index": 0, "time_elapsed": 91176, "internal_node_id": "0.0-0.0"}}, {"uniqueid": "w66931175:a61125045", "current_trial": 1, "dateTime": 1693564862211, "trialdata": {"view_history": [{"page_index": 0, "viewing_time": 32479}], "rt": 32480, "trial_id": "exp_instructions_control", "trial_type": "instructions", "trial_index": 1, "time_elapsed": 123676, "internal_node_id": "0.0-1.0"}}, {"uniqueid": "w66931175:a61125045", "current_trial": 2, "dateTime": 1693566126087, "trialdata": {"view_history": [{"page_index": 0, "viewing_time": 1106691}, {"page_index": 1, "viewing_time": 43472}, {"page_index": 2, "viewing_time": 25972}, {"page_index": 3, "viewing_time": 87739}], "rt": 1263874, "trial_id": "mouselab_instructions_1_control", "trial_type": "instructions", "trial_index": 2, "time_elapsed": 1387552, "internal_node_id": "0.0-2.0-1.0"}}, {"uniqueid": "w66931175:a61125045", "current_trial": 3, "dateTime": 1693566251338, "trialdata": {"revealed_states": [], "clicked_states": ["23", "12", "13", "14", "19", "21", "24", "25", "26", "27", "30", "32", "15", "16", "1", "2", "3", "4", "6", "8", "11", "10", "9", "5", "7", "29", "28", "33", "22", "20", "18", "17", "31"], "num_clicks_accrued": [0, 0, 0, 0, 0, 0, 0, 0, 0, 0, 0, 0, 0], "stateRewards": ["", 10, 10, -10, -10, -10, -10, 10, 10, 10, -10, -10, 10, -10, 10, 10, -10, -10, 10, -10, -10, 10, -10, -10, 10, 10, -10, 10, 10, 10, 10, -10, -10, -10], "withholdReward": false, "trial_id": "practice_1", "block": "test", "trialIndex": 0, "score": -3, "costs": -16.5, "simulationMode": [null, null, null, null, null], "rewards": [10, -10, 10, 10, -10], "path": ["0", "0", "12", "13", "14", "15", "16"], "rt": [90483, 6257, 11418, 5403, 537], "actions": ["right", "right", "right", "up", "up"], "actionTimes": [91198, 97973, 109910, 115831, 116890], "queries": {"click": {"state": {"target": ["23", "12", "13", "14", "19", "21", "24", "25", "26", "27", "30", "32", "15", "16", "1", "2", "3", "4", "6", "8", "11", "10", "9", "5", "7", "29", "28", "33", "22", "20", "18", "17", "31"], "time": [2712, 5223, 8482, 10462, 12490, 14295, 23913, 26602, 28748, 31322, 33451, 35377, 37446, 39315, 40911, 42498, 44201, 45784, 47544, 49664, 51151, 52860, 54395, 57745, 59214, 60750, 61989, 63549, 66266, 67386, 68690, 69802, 73495]}, "edge": {"target": [], "time": []}}, "mouseover": {"state": {"target": ["23", "12", "1", "2", "1", "13", "14", "19", "21", "22", "22", "15", "14", "14", "23", "24", "23", "0", "12", "23", "24", "25", "25", "26", "27", "25", "30", "32", "32", "13", "15", "16", "1", "2", "3", "4", "6", "8", "8", "11", "10", "9", "5", "5", "5", "4", "7", "28", "26", "29", "26", "28", "25", "33", "30", "31", "0", "22", "19", "20", "14", "15", "18", "18", "15", "17", "14", "13", "22", "31", "24", "26", "26", "0", "1", "12", "13", "13", "14"], "time": [2564, 4227, 6197, 6510, 6959, 8239, 9954, 12118, 14018, 14918, 16430, 17329, 17959, 19444, 19992, 20575, 21009, 21044, 21975, 22806, 23223, 25561, 25842, 28218, 30714, 32892, 33201, 34212, 34960, 36676, 36978, 38688, 40552, 41705, 43400, 44847, 46267, 48462, 48976, 50392, 51775, 53838, 55236, 56568, 57265, 58199, 58386, 60097, 60383, 60462, 61181, 61497, 62833, 63409, 63878, 64011, 65072, 65973, 66844, 67240, 67953, 68339, 68428, 68525, 68971, 69036, 70717, 70768, 71253, 72964, 75626, 75727, 76393, 80888, 81704, 82471, 83122, 83358, 84221]}, "edge": {"target": [], "time": []}}, "mouseout": {"state": {"target": ["0", "23", "12", "1", "2", "1", "13", "14", "19", "19", "21", "22", "22", "15", "14", "14", "23", "24", "23", "0", "12", "23", "24", "24", "25", "25", "25", "25", "26", "27", "26", "25", "30", "30", "32", "32", "13", "15", "15", "16", "1", "2", "2", "3", "3", "4", "6", "8", "8", "11", "11", "10", "10", "8", "9", "5", "5", "5", "4", "7", "28", "26", "29", "26", "28", "25", "33", "30", "31", "0", "22", "19", "20", "14", "15", "18", "18", "15", "17", "14", "13", "22", "31", "24", "26", "26", "0", "1", "12", "13", "13", "14", "0", "12", "13", "13", "13", "12", "18", "13", "22", "19", "0", "16", "16"], "time": [2453, 3586, 6145, 6212, 6875, 7924, 8903, 11867, 12575, 13883, 14801, 15300, 16960, 17903, 17994, 19509, 20440, 20991, 21025, 21125, 22773, 22841, 24543, 25525, 25670, 26727, 27237, 28117, 30198, 32560, 32777, 32962, 33582, 34046, 34609, 35524, 36871, 38022, 38405, 40023, 41509, 42626, 43203, 44323, 44805, 46251, 48167, 48543, 50259, 51264, 51692, 52982, 53405, 53711, 54890, 55935, 56635, 58103, 58233, 59930, 60146, 60396, 61166, 61313, 62727, 63146, 63650, 63945, 64966, 65838, 66827, 66874, 67856, 68023, 68386, 68465, 68794, 69005, 70507, 70751, 70783, 71275, 73929, 75678, 75776, 76491, 81074, 82421, 83103, 83135, 83767, 86217, 92441, 93443, 93851, 94455, 95320, 103627, 104894, 104959, 105009, 113552, 117986, 118279, 119377]}, "edge": {"target": [], "time": []}}}, "displayed_time": "117.40", "trialTime": 123694, "trial_type": "mouselab-mdp", "trial_index": 3, "time_elapsed": 1512802, "internal_node_id": "0.0-2.0-2.0-0.0"}}, {"uniqueid": "w66931175:a61125045", "current_trial": 4, "dateTime": 1693566308034, "trialdata": {"revealed_states": [], "clicked_states": [], "num_clicks_accrued": [0, 0, 0, 0, 0, 0, 0, 0, 0, 0, 0, 0, 0], "stateRewards": ["", -10, -10, 10, -10, 10, 10, -10, -10, 10, 10, 10, -10, 10, -10, -10, -10, -10, -10, -10, -10, -10, 10, -10, 10, -10, -10, -10, -10, -10, -10, -10, 10, -10], "withholdReward": false, "trial_id": "practice_2", "block": "test", "trialIndex": 1, "score": -6.5, "costs": 0, "simulationMode": [null, null, null, null, null], "rewards": [-10, -10, 10, -10, 10], "path": ["0", "0", "1", "2", "3", "8", "10"], "rt": [3615, 377, 161, 30863, 5234], "actions": ["up", "up", "up", "left", "down"], "actionTimes": [6481, 7377, 8057, 39444, 45197], "queries": {"click": {"state": {"target": [], "time": []}, "edge": {"target": [], "time": []}}, "mouseover": {"state": {"target": [], "time": []}, "edge": {"target": [], "time": []}}, "mouseout": {"state": {"target": ["16", "1", "0", "0", "3", "4", "2", "1", "2", "1", "2", "2", "8", "10", "24", "26", "29", "29", "30", "32", "31", "10", "2", "4", "3", "4", "6", "3", "8", "11", "9", "8", "10", "23", "31", "28", "10", "8", "23"], "time": [930, 1174, 5530, 8993, 10375, 12437, 12705, 20295, 21260, 23093, 23225, 26025, 27189, 27255, 29285, 30169, 30235, 30770, 31034, 31633, 31698, 32004, 32067, 32634, 33480, 34164, 34700, 34799, 35344, 35845, 36944, 36993, 37026, 37443, 41638, 42055, 46325, 53584, 55373]}, "edge": {"target": [], "time": []}}}, "displayed_time": "45.72", "trialTime": 56207, "trial_type": "mouselab-mdp", "trial_index": 4, "time_elapsed": 1569498, "internal_node_id": "0.0-2.0-2.0-1.0"}}, {"uniqueid": "w66931175:a61125045", "current_trial": 5, "dateTime": 1693566351610, "trialdata": {"view_history": [{"page_index": 0, "viewing_time": 34474}, {"page_index": 1, "viewing_time": 9098}], "rt": 43573, "trial_id": "mouselab_instructions_2_control", "trial_type": "instructions", "trial_index": 5, "time_elapsed": 1613075, "internal_node_id": "0.0-2.0-3.0"}}, {"uniqueid": "w66931175:a61125045", "current_trial": 6, "dateTime": 1693566410949, "trialdata": {"rt": 59332, "response": {"Q0": "The cost for clicking on nodes may vary between nodes.", "Q1": "The better I perform the higher my bonus will be.", "Q2": "No, the amount of cash at each node of the web may be different each time.", "Q3": "To click on the least number of nodes.", "Q4": "Only after moving the spider.", "Q5": "3 seconds"}, "question_order": [0, 1, 2, 3, 4, 5], "correct": {"Q0": "The cost for clicking on nodes may vary between nodes.", "Q1": "The better I perform the higher my bonus will be.", "Q2": "No, the amount of cash at each node of the web may be different each time.", "Q3": "To get the highest total score.", "Q4": "Only before moving the spider.", "Q5": "3 seconds"}, "trial_id": "mouselab_quiz_control", "trial_type": "survey-multi-choice", "trial_index": 6, "time_elapsed": 1672414, "internal_node_id": "0.0-2.0-4.0"}}, {"uniqueid": "w66931175:a61125045", "current_trial": 7, "dateTime": 1693566442945, "trialdata": {"success": true, "trial_type": "fullscreen", "trial_index": 7, "time_elapsed": 1704410, "internal_node_id": "0.0-2.1-0.1-0.1"}}, {"uniqueid": "w66931175:a61125045", "current_trial": 8, "dateTime": 1693566499389, "trialdata": {"view_history": [{"page_index": 0, "viewing_time": 6279}, {"page_index": 1, "viewing_time": 20805}, {"page_index": 2, "viewing_time": 20280}, {"page_index": 3, "viewing_time": 9077}], "rt": 56442, "trial_id": "mouselab_instructions_1_control", "trial_type": "instructions", "trial_index": 8, "time_elapsed": 1760854, "internal_node_id": "0.0-2.1-1.1"}}, {"uniqueid": "w66931175:a61125045", "current_trial": 9, "dateTime": 1693566576785, "trialdata": {"revealed_states": [], "clicked_states": ["1", "2", "23", "24", "12", "13", "14", "16", "18", "3", "8", "9", "29", "30", "32", "31", "25", "28", "26", "10", "19", "21", "22", "17", "15", "4", "7", "6", "20", "11", "5"], "num_clicks_accrued": [0, 0, 0, 0, 0, 0, 0, 0, 0, 0, 0, 0, 0], "stateRewards": ["", 10, 10, -10, -10, -10, -10, 10, 10, 10, -10, -10, 10, -10, 10, 10, -10, -10, 10, -10, -10, 10, -10, -10, 10, 10, -10, 10, 10, 10, 10, -10, -10, -10], "withholdReward": false, "trial_id": "practice_1", "block": "test", "trialIndex": 2, "score": -2, "costs": -15.5, "simulationMode": [null, null, null, null, null], "rewards": [10, -10, 10, 10, -10], "path": ["0", "0", "12", "13", "14", "15", "16"], "rt": [66626, 970, 361, 1000, 1211], "actions": ["right", "right", "right", "up", "up"], "actionTimes": [68262, 69751, 70624, 72163, 73887], "queries": {"click": {"state": {"target": ["1", "2", "23", "24", "12", "13", "14", "16", "18", "3", "8", "9", "29", "30", "32", "31", "25", "28", "26", "10", "19", "21", "22", "17", "15", "4", "7", "6", "20", "11", "5"], "time": [3188, 5131, 6873, 8086, 9954, 12370, 14019, 16035, 18653, 21802, 23013, 24669, 26141, 27194, 28822, 30358, 31894, 33794, 34908, 36319, 40510, 41555, 44672, 47012, 48435, 50360, 51418, 52982, 54519, 59992, 62481]}, "edge": {"target": [], "time": []}}, "mouseover": {"state": {"target": ["1", "2", "23", "24", "25", "0", "12", "13", "14", "13", "13", "14", "15", "16", "15", "17", "18", "18", "0", "0", "1", "3", "8", "9", "10", "28", "26", "29", "30", "32", "31", "25", "28", "26", "26", "0", "1", "2", "10", "2", "7", "12", "19", "21", "22", "19", "20", "14", "15", "17", "15", "15", "4", "3", "4", "4", "7", "7", "5", "6", "18", "13", "19", "20", "20", "20", "24", "11", "27", "3", "5", "5", "4", "7", "12"], "time": [2967, 3819, 6380, 7731, 8945, 9243, 9562, 10495, 11484, 11908, 12056, 13024, 14488, 15754, 16556, 17816, 18016, 18374, 19881, 20884, 20932, 21565, 22199, 23580, 25257, 25444, 25580, 25828, 26698, 27807, 29742, 31453, 33634, 34435, 34667, 35568, 35834, 36015, 36129, 36638, 36816, 38013, 39711, 41427, 43672, 45224, 45506, 46273, 46352, 46879, 47386, 47870, 49284, 49333, 49534, 49999, 50847, 51364, 52146, 52649, 53403, 53447, 53566, 53794, 54194, 54313, 59356, 59705, 60556, 61769, 61819, 62192, 63188, 63239, 65946]}, "edge": {"target": [], "time": []}}, "mouseout": {"state": {"target": ["0", "1", "2", "1", "23", "23", "24", "25", "24", "23", "0", "12", "12", "13", "14", "13", "13", "14", "15", "16", "15", "17", "18", "18", "0", "0", "1", "3", "8", "9", "8", "10", "28", "26", "29", "30", "32", "31", "30", "25", "25", "28", "26", "26", "26", "0", "1", "2", "10", "2", "7", "12", "19", "21", "22", "19", "20", "14", "15", "17", "15", "15", "4", "3", "4", "4", "7", "7", "5", "6", "6", "18", "13", "19", "20", "20", "20", "24", "11", "27", "3", "5", "5", "4", "7", "12", "13", "13", "13", "14", "13", "13"], "time": [2350, 3703, 6016, 6131, 6990, 7468, 8846, 9160, 9194, 9228, 9259, 10070, 10329, 11233, 11891, 11924, 12858, 14406, 15469, 16412, 17749, 17974, 18064, 19301, 19916, 20901, 20965, 22180, 23430, 25134, 25239, 25309, 25539, 25793, 26495, 27694, 28925, 30940, 31368, 31909, 32519, 34419, 34467, 34925, 35252, 35590, 35944, 36031, 36603, 36653, 37646, 38034, 41076, 41681, 45181, 45286, 46186, 46303, 46569, 47369, 47570, 48769, 49318, 49385, 49646, 50699, 51281, 51762, 52603, 53074, 53306, 53426, 53469, 53604, 53811, 54211, 54946, 59390, 60344, 61351, 61789, 61838, 63153, 63204, 63260, 66267, 69643, 70642, 71290, 73051, 73112, 74522]}, "edge": {"target": [], "time": []}}}, "displayed_time": "74.41", "trialTime": 76872, "trial_type": "mouselab-mdp", "trial_index": 9, "time_elapsed": 1838247, "internal_node_id": "0.0-2.1-2.1-0.1"}}, {"uniqueid": "w66931175:a61125045", "current_trial": 10, "dateTime": 1693566602215, "trialdata": {"revealed_states": [], "clicked_states": [], "num_clicks_accrued": [0, 0, 0, 0, 0, 0, 0, 0, 0, 0, 0, 0, 0], "stateRewards": ["", -10, -10, 10, -10, 10, 10, -10, -10, 10, 10, 10, -10, 10, -10, -10, -10, -10, -10, -10, -10, -10, 10, -10, 10, -10, -10, -10, -10, -10, -10, -10, 10, -10], "withholdReward": false, "trial_id": "practice_2", "block": "test", "trialIndex": 3, "score": -26.5, "costs": 0, "simulationMode": [null, null, null, null, null], "rewards": [-10, 10, -10, -10, -10], "path": ["0", "0", "12", "13", "14", "15", "16"], "rt": [1628, 3047, 461, 8294, 1863], "actions": ["right", "right", "right", "up", "up"], "actionTimes": [4070, 7630, 8609, 17425, 19811], "queries": {"click": {"state": {"target": [], "time": []}, "edge": {"target": [], "time": []}}, "mouseover": {"state": {"target": [], "time": []}, "edge": {"target": [], "time": []}}, "mouseout": {"state": {"target": ["0", "0", "13", "13", "14", "14", "19", "19", "22", "14", "13"], "time": [1634, 4677, 7024, 9405, 9704, 10220, 11286, 16284, 16515, 21412, 21792]}, "edge": {"target": [], "time": []}}}, "displayed_time": "20.33", "trialTime": 24988, "trial_type": "mouselab-mdp", "trial_index": 10, "time_elapsed": 1863678, "internal_node_id": "0.0-2.1-2.1-1.1"}}, {"uniqueid": "w66931175:a61125045", "current_trial": 11, "dateTime": 1693566652866, "trialdata": {"view_history": [{"page_index": 0, "viewing_time": 48270}, {"page_index": 1, "viewing_time": 2370}], "rt": 50640, "trial_id": "mouselab_instructions_2_control", "trial_type": "instructions", "trial_index": 11, "time_elapsed": 1914331, "internal_node_id": "0.0-2.1-3.1"}}, {"uniqueid": "w66931175:a61125045", "current_trial": 12, "dateTime": 1693566832272, "trialdata": {"rt": 179403, "response": {"Q0": "The cost for clicking on nodes may vary between nodes.", "Q1": "The better I perform the higher my bonus will be.", "Q2": "No, the amount of cash at each node of the web may be different each time.", "Q3": "To get the highest total score.", "Q4": "Any time during the round.", "Q5": "3 seconds"}, "question_order": [0, 1, 2, 3, 4, 5], "correct": {"Q0": "The cost for clicking on nodes may vary between nodes.", "Q1": "The better I perform the higher my bonus will be.", "Q2": "No, the amount of cash at each node of the web may be different each time.", "Q3": "To get the highest total score.", "Q4": "Only before moving the spider.", "Q5": "3 seconds"}, "trial_id": "mouselab_quiz_control", "trial_type": "survey-multi-choice", "trial_index": 12, "time_elapsed": 2093737, "internal_node_id": "0.0-2.1-4.1"}}, {"uniqueid": "w66931175:a61125045", "current_trial": 13, "dateTime": 1693566841176, "trialdata": {"success": true, "trial_type": "fullscreen", "trial_index": 13, "time_elapsed": 2102641, "internal_node_id": "0.0-2.2-0.2-0.2"}}, {"uniqueid": "w66931175:a61125045", "current_trial": 14, "dateTime": 1693567111144, "trialdata": {"view_history": [{"page_index": 0, "viewing_time": 159504}, {"page_index": 1, "viewing_time": 100773}, {"page_index": 2, "viewing_time": 2243}, {"page_index": 3, "viewing_time": 7441}], "rt": 269960, "trial_id": "mouselab_instructions_1_control", "trial_type": "instructions", "trial_index": 14, "time_elapsed": 2372609, "internal_node_id": "0.0-2.2-1.2"}}, {"uniqueid": "w66931175:a61125045", "current_trial": 15, "dateTime": 1693567143065, "trialdata": {"revealed_states": [], "clicked_states": ["23"], "num_clicks_accrued": [0, 0, 0, 0, 0, 0, 0, 0, 0, 0, 0, 0, 0], "stateRewards": ["", 10, 10, -10, -10, -10, -10, 10, 10, 10, -10, -10, 10, -10, 10, 10, -10, -10, 10, -10, -10, 10, -10, -10, 10, 10, -10, 10, 10, 10, 10, -10, -10, -10], "withholdReward": false, "trial_id": "practice_1", "block": "test", "trialIndex": 4, "score": 13, "costs": -0.5, "simulationMode": [null, null, null, null, null], "rewards": [10, -10, 10, 10, -10], "path": ["0", "0", "12", "13", "14", "15", "17"], "rt": [4212, 1482, 8480, 2615, 4038], "actions": ["right", "right", "right", "up", "right"], "actionTimes": [6692, 8696, 17719, 20849, 25425], "queries": {"click": {"state": {"target": ["23"], "time": [4967]}, "edge": {"target": [], "time": []}}, "mouseover": {"state": {"target": ["0", "0", "23"], "time": [2616, 3245, 3562]}, "edge": {"target": [], "time": []}}, "mouseout": {"state": {"target": ["0", "0", "0", "23", "0", "12", "12", "13", "12", "0", "23", "24", "23", "0", "1", "17", "16", "15"], "time": [1514, 2687, 3429, 5128, 7623, 7957, 9009, 13452, 13700, 13900, 14116, 14866, 15415, 16045, 17179, 22091, 23306, 23440]}, "edge": {"target": [], "time": []}}}, "displayed_time": "25.94", "trialTime": 30268, "trial_type": "mouselab-mdp", "trial_index": 15, "time_elapsed": 2404529, "internal_node_id": "0.0-2.2-2.2-0.2"}}, {"uniqueid": "w66931175:a61125045", "current_trial": 16, "dateTime": 1693567192865, "trialdata": {"revealed_states": [], "clicked_states": ["3", "4", "18", "15", "14", "13", "12", "25", "30", "32", "2"], "num_clicks_accrued": [0, 0, 0, 0, 0, 0, 0, 0, 0, 0, 0, 0, 0], "stateRewards": ["", -10, -10, 10, -10, 10, 10, -10, -10, 10, 10, 10, -10, 10, -10, -10, -10, -10, -10, -10, -10, -10, 10, -10, 10, -10, -10, -10, -10, -10, -10, -10, 10, -10], "withholdReward": false, "trial_id": "practice_2", "block": "test", "trialIndex": 5, "score": -12, "costs": -5.5, "simulationMode": [null, null, null, null, null], "rewards": [-10, -10, 10, -10, 10], "path": ["0", "0", "1", "2", "3", "8", "9"], "rt": [19984, 11084, 519, 989, 3601], "actions": ["up", "up", "up", "left", "up"], "actionTimes": [25611, 37217, 38262, 39773, 43897], "queries": {"click": {"state": {"target": ["3", "4", "18", "15", "14", "13", "12", "25", "30", "32", "2"], "time": [9039, 10982, 13027, 14274, 15301, 16630, 17718, 20019, 21451, 22918, 24279]}, "edge": {"target": [], "time": []}}, "mouseover": {"state": {"target": ["1", "2", "3", "4", "6", "18", "15", "14", "13", "12", "0", "23", "24", "25", "30", "32", "23", "2"], "time": [8332, 8515, 8713, 10442, 11589, 12741, 13676, 14813, 15754, 17093, 19167, 19234, 19500, 19717, 20659, 22160, 23679, 23991]}, "edge": {"target": [], "time": []}}, "mouseout": {"state": {"target": ["15", "18", "0", "1", "2", "3", "4", "6", "18", "15", "14", "13", "12", "0", "23", "24", "25", "30", "32", "23", "2", "2", "1", "1", "0", "24", "26", "23"], "time": [1088, 1204, 8315, 8464, 8612, 10395, 11497, 12542, 13642, 14691, 15736, 17067, 19134, 19202, 19299, 19669, 20604, 21987, 23045, 23739, 24376, 26694, 31616, 33767, 33818, 34504, 35917, 47003]}, "edge": {"target": [], "time": []}}}, "displayed_time": "44.41", "trialTime": 48994, "trial_type": "mouselab-mdp", "trial_index": 16, "time_elapsed": 2454329, "internal_node_id": "0.0-2.2-2.2-1.2"}}, {"uniqueid": "w66931175:a61125045", "current_trial": 17, "dateTime": 1693567197156, "trialdata": {"view_history": [{"page_index": 0, "viewing_time": 2956}, {"page_index": 1, "viewing_time": 1327}], "rt": 4284, "trial_id": "mouselab_instructions_2_control", "trial_type": "instructions", "trial_index": 17, "time_elapsed": 2458621, "internal_node_id": "0.0-2.2-3.2"}}, {"uniqueid": "w66931175:a61125045", "current_trial": 18, "dateTime": 1693567249652, "trialdata": {"rt": 52493, "response": {"Q0": "The cost for clicking on nodes may vary between nodes.", "Q1": "The better I perform the higher my bonus will be.", "Q2": "No, the amount of cash at each node of the web may be different each time.", "Q3": "To get the highest total score.", "Q4": "Only before moving the spider.", "Q5": "3 seconds"}, "question_order": [0, 1, 2, 3, 4, 5], "correct": {"Q0": "The cost for clicking on nodes may vary between nodes.", "Q1": "The better I perform the higher my bonus will be.", "Q2": "No, the amount of cash at each node of the web may be different each time.", "Q3": "To get the highest total score.", "Q4": "Only before moving the spider.", "Q5": "3 seconds"}, "trial_id": "mouselab_quiz_control", "trial_type": "survey-multi-choice", "trial_index": 18, "time_elapsed": 2511117, "internal_node_id": "0.0-2.2-4.2"}}, {"uniqueid": "w66931175:a61125045", "current_trial": 19, "dateTime": 1693567262717, "trialdata": {"rt": 13049, "response": {"Q0": "No"}, "question_order": [0], "trial_id": "repeat_check", "trial_type": "survey-multi-choice", "trial_index": 19, "time_elapsed": 2524181, "internal_node_id": "0.0-4.0-0.0"}}, {"uniqueid": "w66931175:a61125045", "current_trial": 20, "dateTime": 1693567273088, "trialdata": {"rt": 10363, "stimulus": "\n<h1> Get ready to start the game! </h1>\n\nThank you for reading the instructions. Get ready start with the 40 rounds of this game.\n<br><br>\nIf you need to take a break, feel free to take one after the end of a round, before continuing to the next one.\n<br><br>\nRemember, the more money the spider gets, the bigger your bonus will be!\n<br><br>\n<div style='text-align: center;'>Press <code>space</code> to begin.</div>\n\n<br><br>\n(If, at any point, the <code>space</code> key does not take you to the next page, click once on the text and try again.)", "response": " ", "trial_id": "mdp_ready", "trial_type": "html-keyboard-response", "trial_index": 20, "time_elapsed": 2534553, "internal_node_id": "0.0-6.0-0.0"}}, {"uniqueid": "w66931175:a61125045", "current_trial": 21, "dateTime": 1693567305927, "trialdata": {"revealed_states": [], "clicked_states": ["9", "29", "25", "15", "5"], "num_clicks_accrued": [0, 0, 0, 0, 0, 0, 0, 0, 0, 0, 0, 0, 0], "stateRewards": ["", -2, -3, 4, 1, 33, -53, 15, 9, -12, 61, -6, -2, 4, 6, -11, 47, -43, -7, -11, 46, 23, -28, -1, -1, 3, -10, 11, 76, -76, 10, 18, -38, 87], "withholdReward": false, "trial_id": "mdp_trial_1", "block": "test", "trialIndex": 6, "score": 13, "costs": -7, "simulationMode": [null, null, null, null, null], "rewards": [-2, 4, 6, -11, 23], "path": ["0", "0", "12", "13", "14", "19", "21"], "rt": [19343, 3279, 39, 700, 929], "actions": ["right", "right", "right", "down", "down"], "actionTimes": [21850, 25653, 26210, 27457, 28908], "queries": {"click": {"state": {"target": ["9", "29", "25", "15", "5"], "time": [5099, 7029, 8675, 10916, 12569]}, "edge": {"target": [], "time": []}}, "mouseover": {"state": {"target": ["1", "2", "9", "8", "27", "29", "25", "24", "23", "0", "12", "18", "15", "16", "6", "5", "4", "7", "7", "7", "2", "1", "12"], "time": [2669, 4321, 4576, 5934, 6226, 6530, 8260, 10100, 10135, 10162, 10194, 10234, 10578, 11481, 12017, 12364, 13408, 14891, 16172, 16506, 18332, 18501, 19419]}, "edge": {"target": [], "time": []}}, "mouseout": {"state": {"target": ["3", "1", "2", "9", "8", "27", "29", "29", "25", "24", "23", "0", "12", "18", "15", "16", "6", "5", "4", "7", "7", "7", "2", "1", "12", "13", "13", "13"], "time": [555, 4287, 4342, 5747, 6052, 6313, 7124, 7571, 10068, 10130, 10156, 10181, 10229, 10264, 11330, 11997, 12039, 13283, 14840, 14925, 16206, 18051, 18419, 18737, 19735, 23117, 23347, 31052]}, "edge": {"target": [], "time": []}}}, "displayed_time": "29.44", "trialTime": 31941, "trial_type": "mouselab-mdp", "trial_index": 21, "time_elapsed": 2567391, "internal_node_id": "0.0-6.0-1.0-0.0"}}, {"uniqueid": "w66931175:a61125045", "current_trial": 22, "dateTime": 1693567327568, "trialdata": {"revealed_states": [], "clicked_states": [], "num_clicks_accrued": [0, 0, 0, 0, 0, 0, 0, 0, 0, 0, 0, 0, 0], "stateRewards": ["", 1, -1, 4, -2, -75, -75, 84, -9, -60, -79, 59, 2, -4, 8, 9, -17, -82, 80, 14, -4, 49, 49, -1, 3, 6, -11, -33, 34, 55, 9, -57, 5, 59], "withholdReward": false, "trial_id": "mdp_trial_2", "block": "test", "trialIndex": 7, "score": -2, "costs": 0, "simulationMode": [null, null, null, null, null], "rewards": [2, -4, 8, 9, -17], "path": ["0", "0", "12", "13", "14", "15", "16"], "rt": [1759, 3610, 213, 425, 845], "actions": ["right", "right", "right", "up", "up"], "actionTimes": [6054, 10196, 10925, 11869, 13243], "queries": {"click": {"state": {"target": [], "time": []}, "edge": {"target": [], "time": []}}, "mouseover": {"state": {"target": [], "time": []}, "edge": {"target": [], "time": []}}, "mouseout": {"state": {"target": ["0", "1"], "time": [12614, 13497]}, "edge": {"target": [], "time": []}}}, "displayed_time": "18.31", "trialTime": 20809, "trial_type": "mouselab-mdp", "trial_index": 22, "time_elapsed": 2589031, "internal_node_id": "0.0-6.0-1.0-1.0"}}, {"uniqueid": "w66931175:a61125045", "current_trial": 23, "dateTime": 1693567349064, "trialdata": {"revealed_states": [], "clicked_states": ["3", "9", "29", "33"], "num_clicks_accrued": [0, 0, 0, 0, 0, 0, 0, 0, 0, 0, 0, 0, 0], "stateRewards": ["", 2, -1, -3, 16, -3, -16, -62, -1, 13, -26, 43, -1, 4, 3, -9, -54, -37, -3, -12, -71, -68, -57, 1, -3, 2, -9, 2, -2, -9, -11, 84, -52, 55], "withholdReward": false, "trial_id": "mdp_trial_3", "block": "test", "trialIndex": 8, "score": -68.6, "costs": -5.6, "simulationMode": [null, null, null, null, null], "rewards": [1, -3, 2, -11, -52], "path": ["0", "0", "23", "24", "25", "30", "32"], "rt": [10257, 5, 547, 149, 728], "actions": ["left", "left", "left", "down", "down"], "actionTimes": [11719, 12242, 13329, 13998, 15257], "queries": {"click": {"state": {"target": ["3", "9", "29", "33"], "time": [2823, 5731, 7893, 9429]}, "edge": {"target": [], "time": []}}, "mouseover": {"state": {"target": ["1", "2", "3", "9", "11", "26", "29", "33", "32"], "time": [2288, 2356, 2643, 3841, 6356, 6441, 6833, 8798, 10871]}, "edge": {"target": [], "time": []}}, "mouseout": {"state": {"target": ["1", "1", "2", "3", "9", "11", "26", "29", "33", "33", "32"], "time": [273, 2322, 2405, 2939, 6337, 6375, 6717, 8314, 9531, 9944, 18366]}, "edge": {"target": [], "time": []}}}, "displayed_time": "15.78", "trialTime": 20824, "trial_type": "mouselab-mdp", "trial_index": 23, "time_elapsed": 2610528, "internal_node_id": "0.0-6.0-1.0-2.0"}}, {"uniqueid": "w66931175:a61125045", "current_trial": 24, "dateTime": 1693567373515, "trialdata": {"revealed_states": [], "clicked_states": ["14", "16", "5", "9"], "num_clicks_accrued": [0, 0, 0, 0, 0, 0, 0, 0, 0, 0, 0, 0, 0], "stateRewards": ["", 2, 3, -6, -5, -3, 55, 40, 11, 61, 11, 51, 2, -4, -6, 9, -25, 29, -15, -6, 7, -77, -2, -2, -4, 1, 14, -43, -1, 56, -12, -54, 41, -74], "withholdReward": false, "trial_id": "mdp_trial_4", "block": "test", "trialIndex": 9, "score": 65.4, "costs": -5.6, "simulationMode": [null, null, null, null, null], "rewards": [2, 3, -6, 11, 61], "path": ["0", "0", "1", "2", "3", "8", "9"], "rt": [12868, 787, 297, 592, 521], "actions": ["up", "up", "up", "left", "up"], "actionTimes": [15117, 16424, 17243, 18368, 19414], "queries": {"click": {"state": {"target": ["14", "16", "5", "9"], "time": [3482, 5499, 8095, 9693]}, "edge": {"target": [], "time": []}}, "mouseover": {"state": {"target": ["12", "13", "14", "15", "16", "6", "5", "9", "8", "2"], "time": [2836, 2920, 3270, 3907, 4609, 6170, 6318, 8600, 10252, 12658]}, "edge": {"target": [], "time": []}}, "mouseout": {"state": {"target": ["0", "12", "13", "14", "15", "16", "6", "5", "5", "9", "8", "2", "2"], "time": [1255, 2856, 3002, 3594, 4505, 5626, 6268, 8223, 8483, 10072, 12285, 14589, 22148]}, "edge": {"target": [], "time": []}}}, "displayed_time": "19.94", "trialTime": 23817, "trial_type": "mouselab-mdp", "trial_index": 24, "time_elapsed": 2634979, "internal_node_id": "0.0-6.0-1.0-3.0"}}, {"uniqueid": "w66931175:a61125045", "current_trial": 25, "dateTime": 1693567418927, "trialdata": {"revealed_states": [], "clicked_states": ["29", "25", "23", "24", "13", "14", "20", "21", "5", "3", "2", "10", "9"], "num_clicks_accrued": [0, 0, 0, 0, 0, 0, 0, 0, 0, 0, 0, 0, 0], "stateRewards": ["", 1, 1, -3, 2, 22, -25, -11, -5, 50, 49, 3, 1, -1, 8, 14, -85, -30, 57, -6, -39, -16, 59, -2, -1, 5, 5, 59, -16, 8, 4, 67, 56, -9], "withholdReward": false, "trial_id": "mdp_trial_5", "block": "test", "trialIndex": 10, "score": 25.8, "costs": -18.2, "simulationMode": [null, null, null, null, null], "rewards": [1, 1, -3, -5, 50], "path": ["0", "0", "1", "2", "3", "8", "9"], "rt": [36621, 168, 200, 489, 532], "actions": ["up", "up", "up", "left", "up"], "actionTimes": [38665, 39375, 40093, 41097, 42153], "queries": {"click": {"state": {"target": ["29", "25", "23", "24", "13", "14", "20", "21", "5", "3", "2", "10", "9"], "time": [3995, 6312, 10168, 12252, 15349, 17111, 19329, 21468, 23974, 26032, 28426, 30903, 32737]}, "edge": {"target": [], "time": []}}, "mouseover": {"state": {"target": ["26", "29", "25", "30", "32", "31", "24", "23", "24", "13", "13", "14", "19", "20", "21", "19", "22", "12", "1", "8", "5", "9", "9", "3", "2", "10", "8", "9", "11"], "time": [3496, 3629, 4648, 6799, 7147, 9072, 9273, 9837, 10814, 14216, 14735, 16152, 18346, 19026, 20144, 22335, 23105, 23189, 23223, 23456, 23689, 24537, 24856, 25338, 27494, 29084, 31752, 31912, 34392]}, "edge": {"target": [], "time": []}}, "mouseout": {"state": {"target": ["2", "1", "26", "29", "25", "30", "32", "31", "24", "23", "23", "24", "23", "13", "13", "14", "19", "20", "21", "19", "22", "12", "1", "8", "5", "5", "9", "9", "3", "2", "2", "10", "8", "9", "9", "11"], "time": [1097, 1114, 3562, 4297, 6758, 7105, 8639, 9172, 9771, 10315, 10743, 12654, 12688, 14530, 16016, 17979, 18992, 19864, 22074, 22813, 23155, 23207, 23240, 23484, 24075, 24490, 24588, 25230, 27304, 28556, 29034, 31631, 31846, 33007, 34234, 43668]}, "edge": {"target": [], "time": []}}}, "displayed_time": "42.67", "trialTime": 44764, "trial_type": "mouselab-mdp", "trial_index": 25, "time_elapsed": 2680391, "internal_node_id": "0.0-6.0-1.0-4.0"}}, {"uniqueid": "w66931175:a61125045", "current_trial": 26, "dateTime": 1693567447198, "trialdata": {"revealed_states": [], "clicked_states": ["24", "11", "8", "5", "17", "20", "21"], "num_clicks_accrued": [0, 0, 0, 0, 0, 0, 0, 0, 0, 0, 0, 0, 0], "stateRewards": ["", 2, 3, 8, 11, 25, -80, 6, -4, -56, 84, -23, -2, -4, -3, 4, -51, -9, -61, -15, -64, 67, -35, 1, -1, -7, -6, 83, 59, -15, 12, -79, 56, 41], "withholdReward": false, "trial_id": "mdp_trial_6", "block": "test", "trialIndex": 11, "score": 33.2, "costs": -9.8, "simulationMode": [null, null, null, null, null], "rewards": [-2, -4, -3, -15, 67], "path": ["0", "0", "12", "13", "14", "19", "21"], "rt": [19512, 800, 237, 536, 215], "actions": ["right", "right", "right", "down", "down"], "actionTimes": [21525, 22844, 23598, 24644, 25376], "queries": {"click": {"state": {"target": ["24", "11", "8", "5", "17", "20", "21"], "time": [3962, 5572, 7333, 9216, 12819, 14408, 16279]}, "edge": {"target": [], "time": []}}, "mouseover": {"state": {"target": ["1", "24", "28", "11", "9", "11", "8", "3", "5", "6", "17", "17", "19", "20", "21", "19", "22", "31", "30", "30", "31", "30"], "time": [2711, 3678, 4328, 4488, 4640, 4968, 5977, 7760, 8908, 9810, 12316, 12584, 13832, 14204, 15012, 17138, 17340, 19125, 19161, 19359, 19445, 19601]}, "edge": {"target": [], "time": []}}, "mouseout": {"state": {"target": ["0", "1", "24", "28", "11", "9", "11", "8", "3", "5", "6", "17", "17", "17", "19", "20", "21", "19", "22", "31", "30", "30", "31", "30"], "time": [1112, 2728, 4073, 4365, 4570, 4935, 5916, 7713, 7891, 9743, 11059, 12384, 12929, 13433, 14150, 14851, 16814, 17267, 19024, 19145, 19210, 19426, 19558, 19941]}, "edge": {"target": [], "time": []}}}, "displayed_time": "25.89", "trialTime": 27586, "trial_type": "mouselab-mdp", "trial_index": 26, "time_elapsed": 2708662, "internal_node_id": "0.0-6.0-1.0-5.0"}}, {"uniqueid": "w66931175:a61125045", "current_trial": 27, "dateTime": 1693567479870, "trialdata": {"revealed_states": [], "clicked_states": ["4", "5", "29", "32", "21", "14"], "num_clicks_accrued": [0, 0, 0, 0, 0, 0, 0, 0, 0, 0, 0, 0, 0], "stateRewards": ["", 1, 1, 6, -14, -40, 37, 16, -13, 33, -68, 49, 2, 4, 3, 6, 55, 27, 32, 10, -65, 20, -87, 2, 1, -6, -5, -42, 12, 29, -8, 16, 76, -33], "withholdReward": false, "trial_id": "mdp_trial_7", "block": "test", "trialIndex": 12, "score": 56.6, "costs": -8.4, "simulationMode": [null, null, null, null, null], "rewards": [2, 1, -6, -8, 76], "path": ["0", "0", "23", "24", "25", "30", "32"], "rt": [21122, 771, 201, 509, 188], "actions": ["left", "left", "left", "down", "down"], "actionTimes": [25155, 26440, 27152, 28176, 28886], "queries": {"click": {"state": {"target": ["4", "5", "29", "32", "21", "14"], "time": [5957, 8766, 13192, 15436, 18661, 21739]}, "edge": {"target": [], "time": []}}, "mouseover": {"state": {"target": ["7", "4", "5", "3", "8", "26", "29", "30", "29", "29", "30", "32", "32", "32", "33", "33", "22", "21", "19", "14", "13", "12", "0", "23", "24"], "time": [5436, 5736, 6656, 9240, 9285, 9505, 9655, 11296, 12612, 13042, 13766, 13978, 14149, 14320, 17540, 17837, 18024, 18325, 19063, 21021, 22420, 22461, 22518, 23417, 24099]}, "edge": {"target": [], "time": []}}, "mouseout": {"state": {"target": ["24", "0", "7", "4", "5", "3", "8", "26", "29", "30", "29", "29", "30", "32", "32", "32", "33", "33", "22", "21", "19", "14", "13", "12", "0", "23", "24"], "time": [2580, 3587, 5551, 6076, 9186, 9262, 9323, 9616, 10764, 12512, 12662, 13632, 13914, 14083, 14183, 16698, 17558, 17874, 18178, 18928, 20903, 22286, 22440, 22483, 23215, 23720, 30908]}, "edge": {"target": [], "time": []}}}, "displayed_time": "29.40", "trialTime": 32054, "trial_type": "mouselab-mdp", "trial_index": 27, "time_elapsed": 2741335, "internal_node_id": "0.0-6.0-1.0-6.0"}}, {"uniqueid": "w66931175:a61125045", "current_trial": 28, "dateTime": 1693567502057, "trialdata": {"revealed_states": [], "clicked_states": ["17", "16", "20", "21", "32"], "num_clicks_accrued": [0, 0, 0, 0, 0, 0, 0, 0, 0, 0, 0, 0, 0], "stateRewards": ["", 1, 3, -2, 15, 51, 15, -19, 11, 67, -45, -73, 2, 4, -2, -13, 36, 9, -28, 10, -30, 31, 16, 1, 2, -1, -16, 14, -22, 36, -1, 88, -5, 45], "withholdReward": false, "trial_id": "mdp_trial_8", "block": "test", "trialIndex": 13, "score": 20, "costs": -7, "simulationMode": [null, null, null, null, null], "rewards": [2, 4, -2, -13, 36], "path": ["0", "0", "12", "13", "14", "15", "16"], "rt": [11861, 46, 118, 565, 121], "actions": ["right", "right", "right", "up", "up"], "actionTimes": [14328, 14895, 15558, 16642, 17281], "queries": {"click": {"state": {"target": ["17", "16", "20", "21", "32"], "time": [3935, 5577, 7157, 9747, 11427]}, "edge": {"target": [], "time": []}}, "mouseover": {"state": {"target": ["12", "13", "17", "17", "15", "16", "15", "14", "20", "21", "32"], "time": [3238, 3262, 3370, 3765, 4313, 4582, 6244, 6275, 6380, 7754, 10636]}, "edge": {"target": [], "time": []}}, "mouseout": {"state": {"target": ["12", "13", "17", "17", "15", "16", "15", "14", "20", "20", "21", "32", "12", "0", "23"], "time": [3256, 3280, 3619, 4290, 4350, 6185, 6270, 6323, 7323, 7680, 10236, 12094, 19184, 19203, 19700]}, "edge": {"target": [], "time": []}}}, "displayed_time": "17.81", "trialTime": 21392, "trial_type": "mouselab-mdp", "trial_index": 28, "time_elapsed": 2763521, "internal_node_id": "0.0-6.0-1.0-7.0"}}, {"uniqueid": "w66931175:a61125045", "current_trial": 29, "dateTime": 1693567519978, "trialdata": {"revealed_states": [], "clicked_states": ["5", "8"], "num_clicks_accrued": [0, 0, 0, 0, 0, 0, 0, 0, 0, 0, 0, 0, 0], "stateRewards": ["", 1, 4, -4, 14, 35, 51, 19, -13, 54, 78, -74, -2, -1, -3, 13, -11, -42, -73, -15, -24, -3, -69, 2, -1, 5, 16, -27, 73, 58, 9, -60, 5, -60], "withholdReward": false, "trial_id": "mdp_trial_9", "block": "test", "trialIndex": 14, "score": 47.2, "costs": -2.8, "simulationMode": [null, null, null, null, null], "rewards": [1, 4, -4, 14, 35], "path": ["0", "0", "1", "2", "3", "4", "5"], "rt": [5740, 32, 144, 411, 500], "actions": ["up", "up", "up", "right", "up"], "actionTimes": [6929, 7485, 8143, 9076, 10100], "queries": {"click": {"state": {"target": ["5", "8"], "time": [2237, 4352]}, "edge": {"target": [], "time": []}}, "mouseover": {"state": {"target": ["1", "2", "4", "5", "11", "8", "10"], "time": [1216, 1652, 1785, 2035, 2968, 3676, 4900]}, "edge": {"target": [], "time": []}}, "mouseout": {"state": {"target": ["0", "0", "1", "2", "4", "5", "11", "8"], "time": [18, 1211, 1302, 1702, 1834, 2668, 3655, 4786]}, "edge": {"target": [], "time": []}}}, "displayed_time": "15.19", "trialTime": 17119, "trial_type": "mouselab-mdp", "trial_index": 29, "time_elapsed": 2781443, "internal_node_id": "0.0-6.0-1.0-8.0"}}, {"uniqueid": "w66931175:a61125045", "current_trial": 30, "dateTime": 1693567539485, "trialdata": {"revealed_states": [], "clicked_states": ["29", "25"], "num_clicks_accrued": [0, 0, 0, 0, 0, 0, 0, 0, 0, 0, 0, 0, 0], "stateRewards": ["", 1, -1, -7, -7, -22, 15, -13, 13, 26, -32, 38, -1, 1, -7, -4, 16, -62, 86, 12, -54, 56, 64, -2, -1, 6, 14, -57, 37, 62, -6, -25, 50, -70], "withholdReward": false, "trial_id": "mdp_trial_10", "block": "test", "trialIndex": 15, "score": 76.2, "costs": -2.8, "simulationMode": [null, null, null, null, null], "rewards": [-2, -1, 6, 14, 62], "path": ["0", "0", "23", "24", "25", "26", "29"], "rt": [5309, 34, 211, 629, 121], "actions": ["left", "left", "left", "up", "left"], "actionTimes": [8249, 8796, 9525, 10686, 11331], "queries": {"click": {"state": {"target": ["29", "25"], "time": [4077, 5992]}, "edge": {"target": [], "time": []}}, "mouseover": {"state": {"target": ["28", "26", "29", "25"], "time": [3531, 3563, 3897, 4558]}, "edge": {"target": [], "time": []}}, "mouseout": {"state": {"target": ["10", "0", "0", "28", "26", "29", "25"], "time": [1133, 2297, 2969, 3546, 3596, 4481, 12403]}, "edge": {"target": [], "time": []}}}, "displayed_time": "16.94", "trialTime": 18787, "trial_type": "mouselab-mdp", "trial_index": 30, "time_elapsed": 2800947, "internal_node_id": "0.0-6.0-1.0-9.0"}}, {"uniqueid": "w66931175:a61125045", "current_trial": 31, "dateTime": 1693567582525, "trialdata": {"revealed_states": [], "clicked_states": ["1", "2", "3", "7", "10", "26", "25", "24", "23", "12", "13", "14", "21"], "num_clicks_accrued": [0, 0, 0, 0, 0, 0, 0, 0, 0, 0, 0, 0, 0], "stateRewards": ["", 2, 3, -3, 12, -43, 81, -82, -15, 58, -7, -75, -1, -1, 3, -5, 50, -25, -8, 4, 66, 65, -66, 2, -4, 2, -1, -10, 10, 37, 11, 88, -37, 8], "withholdReward": false, "trial_id": "mdp_trial_11", "block": "test", "trialIndex": 16, "score": 51.8, "costs": -18.2, "simulationMode": [null, null, null, null, null], "rewards": [-1, -1, 3, 4, 65], "path": ["0", "0", "12", "13", "14", "19", "21"], "rt": [30738, 326, 93, 308, 87], "actions": ["right", "right", "right", "down", "down"], "actionTimes": [34490, 35376, 36042, 36904, 37531], "queries": {"click": {"state": {"target": ["1", "2", "3", "7", "10", "26", "25", "24", "23", "12", "13", "14", "21"], "time": [4456, 6582, 8656, 12105, 14497, 17182, 19178, 21097, 23010, 25136, 27107, 29158, 31471]}, "edge": {"target": [], "time": []}}, "mouseover": {"state": {"target": ["1", "10", "2", "3", "2", "7", "1", "10", "28", "28", "26", "25", "24", "23", "0", "12", "13", "14", "19", "21", "32", "30", "24", "2", "7"], "time": [4259, 5172, 6262, 7158, 11419, 11768, 14037, 14216, 16486, 16830, 17015, 17772, 19572, 21561, 23416, 23554, 25979, 27545, 29904, 31217, 32058, 33165, 33245, 33378, 33594]}, "edge": {"target": [], "time": []}}, "mouseout": {"state": {"target": ["1", "10", "2", "3", "3", "2", "7", "1", "10", "28", "28", "26", "25", "24", "23", "0", "12", "13", "14", "19", "21", "32", "30", "24", "2", "7"], "time": [4990, 6042, 7012, 8768, 9090, 11437, 12588, 14068, 14893, 16770, 16966, 17648, 19512, 21531, 23393, 23458, 25941, 27522, 29851, 30848, 31851, 32084, 33195, 33265, 33426, 33728]}, "edge": {"target": [], "time": []}}}, "displayed_time": "38.05", "trialTime": 42436, "trial_type": "mouselab-mdp", "trial_index": 31, "time_elapsed": 2843989, "internal_node_id": "0.0-6.0-1.0-10.0"}}, {"uniqueid": "w66931175:a61125045", "current_trial": 32, "dateTime": 1693567607534, "trialdata": {"revealed_states": [], "clicked_states": ["9", "5", "7", "10"], "num_clicks_accrued": [0, 0, 0, 0, 0, 0, 0, 0, 0, 0, 0, 0, 0], "stateRewards": ["", -1, -4, -3, 1, -45, -67, -24, 14, 32, 22, 22, -1, 1, -5, -7, 72, 84, -79, -5, 19, -40, -2, -1, -2, 8, -3, 84, -25, -28, 11, 64, -66, 77], "withholdReward": false, "trial_id": "mdp_trial_12", "block": "test", "trialIndex": 17, "score": 32.4, "costs": -5.6, "simulationMode": [null, null, null, null, null], "rewards": [-1, -4, -3, 14, 32], "path": ["0", "0", "1", "2", "3", "8", "9"], "rt": [12357, 729, 217, 1162, 325], "actions": ["up", "up", "up", "left", "up"], "actionTimes": [15004, 16292, 17032, 18732, 19601], "queries": {"click": {"state": {"target": ["9", "5", "7", "10"], "time": [3788, 6468, 9747, 12254]}, "edge": {"target": [], "time": []}}, "mouseover": {"state": {"target": ["1", "8", "9", "5", "4", "7", "1", "10", "1"], "time": [3118, 3300, 3590, 4348, 7004, 7126, 10587, 11991, 14139]}, "edge": {"target": [], "time": []}}, "mouseout": {"state": {"target": ["18", "12", "0", "1", "8", "9", "5", "4", "7", "1", "10", "10", "1", "0"], "time": [1202, 1352, 1567, 3167, 3368, 4232, 6981, 7083, 10544, 11940, 12400, 12824, 22283, 22562]}, "edge": {"target": [], "time": []}}}, "displayed_time": "20.13", "trialTime": 23600, "trial_type": "mouselab-mdp", "trial_index": 32, "time_elapsed": 2868998, "internal_node_id": "0.0-6.0-1.0-11.0"}}, {"uniqueid": "w66931175:a61125045", "current_trial": 33, "dateTime": 1693567651907, "trialdata": {"revealed_states": [], "clicked_states": ["14", "25", "24", "23", "12", "13", "2", "3", "30", "31", "19", "20", "21", "16"], "num_clicks_accrued": [0, 0, 0, 0, 0, 0, 0, 0, 0, 0, 0, 0, 0], "stateRewards": ["", 2, 2, 3, -15, 23, -14, 73, -7, -32, -20, -6, 1, 1, -5, -12, 73, 6, -84, 11, -81, -57, 13, -2, -1, -4, -8, -52, -58, 49, 13, 5, -41, -41], "withholdReward": false, "trial_id": "mdp_trial_13", "block": "test", "trialIndex": 18, "score": 38.400000000000006, "costs": -19.599999999999998, "simulationMode": [null, null, null, null, null], "rewards": [1, 1, -5, -12, 73], "path": ["0", "0", "12", "13", "14", "15", "16"], "rt": [35396, 470, 251, 505, 157], "actions": ["right", "right", "right", "up", "up"], "actionTimes": [36753, 37742, 38506, 39529, 40209], "queries": {"click": {"state": {"target": ["14", "25", "24", "23", "12", "13", "2", "3", "30", "31", "19", "20", "21", "16"], "time": [2541, 4579, 6559, 8540, 10587, 12816, 15484, 18110, 20707, 23446, 26446, 29023, 31090, 33954]}, "edge": {"target": [], "time": []}}, "mouseover": {"state": {"target": ["12", "13", "14", "13", "23", "24", "25", "24", "23", "12", "13", "1", "2", "3", "3", "1", "25", "30", "31", "31", "22", "19", "20", "22", "20", "21", "22", "13", "16", "15"], "time": [2062, 2123, 2403, 3063, 3190, 3297, 3504, 4951, 6947, 9051, 11359, 14821, 15230, 17146, 17915, 19990, 20353, 20504, 21196, 23282, 25766, 26014, 27199, 27367, 28629, 29763, 33240, 33307, 33523, 34773]}, "edge": {"target": [], "time": []}}, "mouseout": {"state": {"target": ["0", "12", "13", "14", "13", "23", "24", "25", "24", "23", "12", "13", "12", "1", "2", "2", "3", "3", "2", "1", "25", "30", "31", "31", "22", "19", "20", "19", "22", "19", "20", "21", "22", "13", "16", "15", "14", "22"], "time": [2043, 2117, 2326, 3007, 3125, 3257, 3461, 4915, 6914, 8938, 11330, 13329, 14696, 14850, 16019, 17100, 17326, 19040, 19192, 20025, 20404, 21156, 21254, 24244, 25899, 26991, 27315, 27349, 28329, 28578, 29529, 32114, 33273, 33324, 34641, 42117, 42148, 42162]}, "edge": {"target": [], "time": []}}}, "displayed_time": "40.72", "trialTime": 43076, "trial_type": "mouselab-mdp", "trial_index": 33, "time_elapsed": 2913371, "internal_node_id": "0.0-6.0-1.0-12.0"}}, {"uniqueid": "w66931175:a61125045", "current_trial": 34, "dateTime": 1693567679766, "trialdata": {"revealed_states": [], "clicked_states": ["2", "24"], "num_clicks_accrued": [0, 0, 0, 0, 0, 0, 0, 0, 0, 0, 0, 0, 0], "stateRewards": ["", -2, -1, -5, 10, -36, -70, 68, -9, 86, 71, -10, 2, -4, 7, -7, 66, 44, -66, -13, -69, 43, 15, -2, 2, 6, -13, 62, 57, 50, -10, -69, 42, -72], "withholdReward": false, "trial_id": "mdp_trial_14", "block": "test", "trialIndex": 19, "score": 52.2, "costs": -2.8, "simulationMode": [null, null, null, null, null], "rewards": [-2, 2, 6, -13, 62], "path": ["0", "0", "23", "24", "25", "26", "27"], "rt": [6293, 731, 6439, 5924, 123], "actions": ["left", "left", "left", "up", "up"], "actionTimes": [7881, 9137, 16092, 22538, 23181], "queries": {"click": {"state": {"target": ["2", "24"], "time": [2443, 5106]}, "edge": {"target": [], "time": []}}, "mouseover": {"state": {"target": ["2", "24", "25", "24", "23"], "time": [2209, 3107, 3340, 4408, 5528]}, "edge": {"target": [], "time": []}}, "mouseout": {"state": {"target": ["23", "2", "2", "24", "25", "24", "23", "24", "24", "25", "31"], "time": [962, 2560, 2924, 3173, 4340, 5488, 10983, 14859, 21087, 25732, 25832]}, "edge": {"target": [], "time": []}}}, "displayed_time": "23.70", "trialTime": 27168, "trial_type": "mouselab-mdp", "trial_index": 34, "time_elapsed": 2941230, "internal_node_id": "0.0-6.0-1.0-13.0"}}, {"uniqueid": "w66931175:a61125045", "current_trial": 35, "dateTime": 1693567699198, "trialdata": {"revealed_states": [], "clicked_states": ["2", "3", "6"], "num_clicks_accrued": [0, 0, 0, 0, 0, 0, 0, 0, 0, 0, 0, 0, 0], "stateRewards": ["", 2, -4, -4, 13, -80, 62, 13, -11, 57, -13, -44, 1, 4, 3, -4, -29, -88, 15, 16, -58, 68, -45, -1, -3, -1, -9, -44, -86, -19, -7, -36, 59, 66], "withholdReward": false, "trial_id": "mdp_trial_15", "block": "test", "trialIndex": 20, "score": 64.8, "costs": -4.199999999999999, "simulationMode": [null, null, null, null, null], "rewards": [2, -4, -4, 13, 62], "path": ["0", "0", "1", "2", "3", "4", "6"], "rt": [9692, 16, 171, 469, 144], "actions": ["up", "up", "up", "right", "right"], "actionTimes": [12163, 12700, 13403, 14384, 15045], "queries": {"click": {"state": {"target": ["2", "3", "6"], "time": [3917, 6121, 8927]}, "edge": {"target": [], "time": []}}, "mouseover": {"state": {"target": ["1", "2", "3", "3", "4", "6", "7", "4", "5", "5"], "time": [3173, 3773, 4443, 5906, 6529, 8302, 9752, 9808, 9913, 10127]}, "edge": {"target": [], "time": []}}, "mouseout": {"state": {"target": ["30", "25", "24", "0", "1", "2", "3", "3", "4", "6", "7", "4", "5", "5", "23"], "time": [444, 742, 776, 2775, 3239, 4039, 5761, 6239, 8003, 9452, 9789, 9865, 10005, 17491, 17600]}, "edge": {"target": [], "time": []}}}, "displayed_time": "16.50", "trialTime": 18850, "trial_type": "mouselab-mdp", "trial_index": 35, "time_elapsed": 2960662, "internal_node_id": "0.0-6.0-1.0-14.0"}}, {"uniqueid": "w66931175:a61125045", "current_trial": 36, "dateTime": 1693567725104, "trialdata": {"revealed_states": [], "clicked_states": ["2", "13", "24", "23", "12", "25", "29"], "num_clicks_accrued": [0, 0, 0, 0, 0, 0, 0, 0, 0, 0, 0, 0, 0], "stateRewards": ["", -1, -4, -1, -11, 43, 69, 39, 4, 17, -20, -82, -2, -1, 4, 8, -79, 24, -79, 11, 36, 64, 41, 2, 4, -1, 11, -79, -47, 75, -3, 63, -36, -19], "withholdReward": false, "trial_id": "mdp_trial_16", "block": "test", "trialIndex": 21, "score": 81.2, "costs": -9.8, "simulationMode": [null, null, null, null, null], "rewards": [2, 4, -1, 11, 75], "path": ["0", "0", "23", "24", "25", "26", "29"], "rt": [16757, 3, 38, 528, 60], "actions": ["left", "left", "left", "up", "left"], "actionTimes": [18601, 19127, 19704, 20770, 21348], "queries": {"click": {"state": {"target": ["2", "13", "24", "23", "12", "25", "29"], "time": [2994, 4946, 7249, 9891, 12063, 14215, 16149]}, "edge": {"target": [], "time": []}}, "mouseover": {"state": {"target": ["1", "2", "1", "12", "13", "13", "12", "0", "23", "24", "23", "0", "12", "0", "24", "25", "24", "29", "26"], "time": [2591, 2705, 3588, 3696, 3758, 4073, 5463, 5511, 5571, 5772, 9515, 10684, 11877, 13130, 13257, 13343, 14612, 15342, 16556]}, "edge": {"target": [], "time": []}}, "mouseout": {"state": {"target": ["23", "1", "2", "2", "1", "12", "13", "13", "13", "12", "0", "23", "24", "23", "0", "12", "0", "23", "24", "25", "24", "29", "26"], "time": [928, 2637, 3101, 3514, 3653, 3739, 3811, 5101, 5441, 5487, 5537, 5653, 7950, 10649, 11529, 13094, 13185, 13221, 13292, 14592, 15208, 16535, 16573]}, "edge": {"target": [], "time": []}}}, "displayed_time": "21.87", "trialTime": 25142, "trial_type": "mouselab-mdp", "trial_index": 36, "time_elapsed": 2986568, "internal_node_id": "0.0-6.0-1.0-15.0"}}, {"uniqueid": "w66931175:a61125045", "current_trial": 37, "dateTime": 1693567745993, "trialdata": {"revealed_states": [], "clicked_states": ["2", "8", "7", "12"], "num_clicks_accrued": [0, 0, 0, 0, 0, 0, 0, 0, 0, 0, 0, 0, 0], "stateRewards": ["", 1, -3, 4, 13, -72, 52, 5, 5, -58, 5, 14, 2, 1, 3, -14, -86, -4, 73, 6, -58, -50, 49, 2, -3, -4, 2, 33, -41, 42, -11, 81, 45, 53], "withholdReward": false, "trial_id": "mdp_trial_17", "block": "test", "trialIndex": 22, "score": 14.4, "costs": -5.6, "simulationMode": [null, null, null, null, null], "rewards": [1, -3, 4, 13, 5], "path": ["0", "0", "1", "2", "3", "4", "7"], "rt": [8293, 4, 2511, 130, 141], "actions": ["up", "up", "up", "right", "down"], "actionTimes": [11765, 12287, 15327, 15975, 16646], "queries": {"click": {"state": {"target": ["2", "8", "7", "12"], "time": [4596, 6528, 8632, 10202]}, "edge": {"target": [], "time": []}}, "mouseover": {"state": {"target": ["2", "3", "3", "8", "3", "4", "6", "4", "7", "12"], "time": [4370, 5258, 5845, 6401, 6939, 7230, 7275, 7486, 8150, 9682]}, "edge": {"target": [], "time": []}}, "mouseout": {"state": {"target": ["24", "23", "23", "0", "2", "3", "3", "8", "3", "4", "6", "4", "7", "7", "12", "12"], "time": [892, 1106, 2754, 3719, 5134, 5562, 6006, 6902, 7177, 7263, 7449, 8043, 8788, 9132, 10332, 18741]}, "edge": {"target": [], "time": []}}}, "displayed_time": "17.47", "trialTime": 20094, "trial_type": "mouselab-mdp", "trial_index": 37, "time_elapsed": 3007458, "internal_node_id": "0.0-6.0-1.0-16.0"}}, {"uniqueid": "w66931175:a61125045", "current_trial": 38, "dateTime": 1693567763912, "trialdata": {"revealed_states": [], "clicked_states": ["5"], "num_clicks_accrued": [0, 0, 0, 0, 0, 0, 0, 0, 0, 0, 0, 0, 0], "stateRewards": ["", -1, -3, -6, 14, 41, 18, 63, -14, 80, 21, 17, -2, -4, -2, -5, 13, 70, 8, -4, -64, -10, -20, 2, -1, 4, -1, -17, -55, 42, -7, 47, 54, 15], "withholdReward": false, "trial_id": "mdp_trial_18", "block": "test", "trialIndex": 23, "score": 43.6, "costs": -1.4, "simulationMode": [null, null, null, null, null], "rewards": [-1, -3, -6, 14, 41], "path": ["0", "0", "1", "2", "3", "4", "5"], "rt": [4094, 817, 144, 568, 632], "actions": ["up", "up", "up", "right", "up"], "actionTimes": [5566, 6900, 7561, 8666, 9812], "queries": {"click": {"state": {"target": ["5"], "time": [2566]}, "edge": {"target": [], "time": []}}, "mouseover": {"state": {"target": ["2", "3", "5", "5", "8", "1", "2", "4", "6"], "time": [1935, 1988, 2120, 2401, 3280, 3355, 3921, 4081, 4182]}, "edge": {"target": [], "time": []}}, "mouseout": {"state": {"target": ["0", "2", "3", "5", "5", "8", "1", "2", "4", "6", "4", "7", "0"], "time": [866, 1953, 2026, 2139, 2982, 3306, 3896, 3991, 4134, 10658, 16420, 16443, 16602]}, "edge": {"target": [], "time": []}}}, "displayed_time": "15.47", "trialTime": 17188, "trial_type": "mouselab-mdp", "trial_index": 38, "time_elapsed": 3025374, "internal_node_id": "0.0-6.0-1.0-17.0"}}, {"uniqueid": "w66931175:a61125045", "current_trial": 39, "dateTime": 1693567781622, "trialdata": {"revealed_states": [], "clicked_states": ["10"], "num_clicks_accrued": [0, 0, 0, 0, 0, 0, 0, 0, 0, 0, 0, 0, 0], "stateRewards": ["", -2, -4, 2, 10, -17, 18, 73, 11, -32, 23, -13, -2, -4, 7, 12, -25, 66, -23, 15, 40, -76, -9, 1, 2, -7, -5, -20, 24, 3, -5, 16, -73, 70], "withholdReward": false, "trial_id": "mdp_trial_19", "block": "test", "trialIndex": 24, "score": 28.6, "costs": -1.4, "simulationMode": [null, null, null, null, null], "rewards": [-2, -4, 2, 11, 23], "path": ["0", "0", "1", "2", "3", "8", "10"], "rt": [4541, 82, 327, 599, 213], "actions": ["up", "up", "up", "left", "down"], "actionTimes": [5835, 6429, 7273, 8396, 9128], "queries": {"click": {"state": {"target": ["10"], "time": [2840]}, "edge": {"target": [], "time": []}}, "mouseover": {"state": {"target": ["10", "2"], "time": [2282, 3176]}, "edge": {"target": [], "time": []}}, "mouseout": {"state": {"target": ["10", "2", "1"], "time": [2929, 10471, 16170]}, "edge": {"target": [], "time": []}}}, "displayed_time": "15.29", "trialTime": 17074, "trial_type": "mouselab-mdp", "trial_index": 39, "time_elapsed": 3043086, "internal_node_id": "0.0-6.0-1.0-18.0"}}, {"uniqueid": "w66931175:a61125045", "current_trial": 40, "dateTime": 1693567823246, "trialdata": {"revealed_states": [], "clicked_states": ["2", "1", "3", "8", "9", "17", "14", "13", "12", "23", "24", "25", "30", "31"], "num_clicks_accrued": [0, 0, 0, 0, 0, 0, 0, 0, 0, 0, 0, 0, 0], "stateRewards": ["", -2, 2, 2, -6, 9, 37, 50, -13, -7, -18, -75, -2, -4, 4, 7, 23, -57, -66, -7, -81, -48, -76, 1, 1, -8, 1, 51, -2, 70, 14, 59, 71, -37], "withholdReward": false, "trial_id": "mdp_trial_20", "block": "test", "trialIndex": 25, "score": 59.400000000000006, "costs": -19.599999999999998, "simulationMode": [null, null, null, null, null], "rewards": [1, 1, -8, 14, 71], "path": ["0", "0", "23", "24", "25", "30", "32"], "rt": [32419, 38, 288, 130, 192], "actions": ["left", "left", "left", "down", "down"], "actionTimes": [34152, 34710, 35540, 36182, 36890], "queries": {"click": {"state": {"target": ["2", "1", "3", "8", "9", "17", "14", "13", "12", "23", "24", "25", "30", "31"], "time": [2733, 4736, 6788, 9472, 11406, 14129, 16439, 18485, 20450, 22389, 24423, 26329, 28508, 30963]}, "edge": {"target": [], "time": []}}, "mouseover": {"state": {"target": ["1", "2", "1", "3", "8", "9", "2", "7", "15", "17", "14", "13", "13", "12", "0", "23", "24", "25", "30", "31"], "time": [2266, 2573, 3195, 5715, 9257, 10279, 13454, 13487, 13688, 13908, 14774, 17061, 17984, 19013, 21051, 21154, 23161, 24889, 28303, 29198]}, "edge": {"target": [], "time": []}}, "mouseout": {"state": {"target": ["0", "1", "2", "1", "2", "3", "8", "8", "9", "9", "8", "2", "7", "15", "17", "17", "14", "13", "13", "12", "0", "23", "24", "25", "30", "30", "31"], "time": [1184, 2501, 3114, 5416, 5533, 7596, 9560, 10100, 11550, 11842, 11956, 13470, 13520, 13705, 14230, 14688, 17023, 17318, 18957, 20969, 21101, 23094, 24863, 27782, 28655, 29077, 39573]}, "edge": {"target": [], "time": []}}}, "displayed_time": "37.42", "trialTime": 40721, "trial_type": "mouselab-mdp", "trial_index": 40, "time_elapsed": 3084710, "internal_node_id": "0.0-6.0-1.0-19.0"}}, {"uniqueid": "w66931175:a61125045", "current_trial": 41, "dateTime": 1693567841513, "trialdata": {"revealed_states": [], "clicked_states": ["2", "3", "17", "21"], "num_clicks_accrued": [0, 0, 0, 0, 0, 0, 0, 0, 0, 0, 0, 0, 0], "stateRewards": ["", 2, -3, -4, -1, 25, -16, 16, 10, -71, -20, -55, 1, 3, -4, -9, 1, 32, 11, -6, 32, -50, -41, -1, 4, 4, -8, 7, -81, 70, 2, -52, 45, -10], "withholdReward": false, "trial_id": "mdp_trial_21", "block": "test", "trialIndex": 26, "score": 17.4, "costs": -5.6, "simulationMode": [null, null, null, null, null, null], "rewards": [1, 3, -4, -9, 32], "path": ["0", "0", "12", "13", "14", "15", "17"], "rt": [7891, 988, 99, 288, 311, 149], "actions": ["right", "right", "right", "right", "up", "right"], "actionTimes": [9706, 10697, 11336, 12142, 12963, 13635], "queries": {"click": {"state": {"target": ["2", "3", "17", "21"], "time": [3116, 5037, 6729, 8279]}, "edge": {"target": [], "time": []}}, "mouseover": {"state": {"target": ["1", "2", "3", "1", "18", "15", "17", "14", "19", "21", "22", "13"], "time": [2591, 2830, 3540, 5766, 5950, 6329, 6561, 7322, 7660, 7990, 10531, 10615]}, "edge": {"target": [], "time": []}}, "mouseout": {"state": {"target": ["0", "1", "2", "3", "2", "1", "18", "15", "17", "17", "14", "19", "21", "22", "13", "12", "0"], "time": [1232, 2642, 3209, 5460, 5668, 5792, 6292, 6512, 6836, 7121, 7629, 7871, 8767, 10582, 15045, 15246, 15316]}, "edge": {"target": [], "time": []}}}, "displayed_time": "15.82", "trialTime": 17214, "trial_type": "mouselab-mdp", "trial_index": 41, "time_elapsed": 3102977, "internal_node_id": "0.0-6.0-1.0-20.0"}}, {"uniqueid": "w66931175:a61125045", "current_trial": 42, "dateTime": 1693567876209, "trialdata": {"revealed_states": [], "clicked_states": ["5", "23", "12", "13", "14", "24", "25", "1", "31", "30", "32"], "num_clicks_accrued": [0, 0, 0, 0, 0, 0, 0, 0, 0, 0, 0, 0, 0], "stateRewards": ["", -1, -1, 4, -16, -75, 81, -51, -7, -84, 73, -30, -2, 1, -3, -16, -77, 33, 14, 1, 45, 87, -66, 2, 2, -5, -7, -19, -17, 79, -3, 8, 49, 47], "withholdReward": false, "trial_id": "mdp_trial_22", "block": "test", "trialIndex": 27, "score": 29.599999999999998, "costs": -15.400000000000002, "simulationMode": [null, null, null, null, null], "rewards": [2, 2, -5, -3, 49], "path": ["0", "0", "23", "24", "25", "30", "32"], "rt": [26257, 10, 124, 495, 245], "actions": ["left", "left", "left", "down", "down"], "actionTimes": [27986, 28510, 29172, 30180, 30941], "queries": {"click": {"state": {"target": ["5", "23", "12", "13", "14", "24", "25", "1", "31", "30", "32"], "time": [3029, 6528, 9735, 11585, 13553, 15262, 17522, 19458, 21558, 23411, 25260]}, "edge": {"target": [], "time": []}}, "mouseover": {"state": {"target": ["1", "4", "5", "4", "7", "12", "0", "23", "0", "12", "13", "14", "0", "23", "24", "24", "23", "25", "1", "23", "31", "30", "32"], "time": [2399, 2608, 2791, 3400, 3440, 3578, 5492, 5655, 7213, 7657, 10266, 12599, 14157, 14185, 14218, 14574, 16575, 17178, 18850, 20855, 21154, 22183, 24192]}, "edge": {"target": [], "time": []}}, "mouseout": {"state": {"target": ["1", "4", "5", "5", "4", "7", "12", "0", "23", "0", "12", "13", "14", "13", "12", "0", "23", "24", "24", "23", "25", "1", "23", "31", "30", "32"], "time": [2443, 2642, 3135, 3379, 3421, 3479, 5405, 5556, 7157, 7333, 10235, 12548, 14082, 14127, 14151, 14180, 14202, 14269, 16516, 16621, 17638, 20575, 20964, 22100, 24069, 25391]}, "edge": {"target": [], "time": []}}}, "displayed_time": "31.46", "trialTime": 34062, "trial_type": "mouselab-mdp", "trial_index": 42, "time_elapsed": 3137673, "internal_node_id": "0.0-6.0-1.0-21.0"}}, {"uniqueid": "w66931175:a61125045", "current_trial": 43, "dateTime": 1693567896286, "trialdata": {"revealed_states": [], "clicked_states": ["14", "21", "16", "5"], "num_clicks_accrued": [0, 0, 0, 0, 0, 0, 0, 0, 0, 0, 0, 0, 0], "stateRewards": ["", 1, 1, -5, 10, -31, 73, 14, -8, -23, 63, -70, -1, 2, 8, 7, 25, -59, 27, -10, -40, -71, -15, -2, 3, -8, -5, -19, 77, -34, 7, 67, 63, 19], "withholdReward": false, "trial_id": "mdp_trial_23", "block": "test", "trialIndex": 28, "score": 35.4, "costs": -5.6, "simulationMode": [null, null, null, null, null], "rewards": [-1, 2, 8, 7, 25], "path": ["0", "0", "12", "13", "14", "15", "16"], "rt": [10569, 532, 423, 407, 431], "actions": ["right", "right", "right", "up", "up"], "actionTimes": [12205, 13257, 14201, 15128, 16070], "queries": {"click": {"state": {"target": ["14", "21", "16", "5"], "time": [2801, 4877, 8561, 10141]}, "edge": {"target": [], "time": []}}, "mouseover": {"state": {"target": ["12", "13", "14", "19", "21", "19", "15", "16", "16", "15", "18", "16", "7", "5", "4", "2", "18"], "time": [2352, 2403, 2440, 3335, 4570, 5234, 5398, 5460, 7443, 7759, 7995, 8425, 9146, 9446, 10641, 10928, 11256]}, "edge": {"target": [], "time": []}}, "mouseout": {"state": {"target": ["0", "12", "13", "14", "14", "19", "21", "19", "14", "15", "16", "16", "15", "18", "16", "7", "5", "4", "2", "18", "19", "22"], "time": [942, 2399, 2420, 2882, 3241, 4248, 4972, 5270, 5329, 5441, 7046, 7729, 7778, 8014, 9025, 9183, 10558, 10690, 11159, 11369, 18037, 18081]}, "edge": {"target": [], "time": []}}}, "displayed_time": "16.59", "trialTime": 19136, "trial_type": "mouselab-mdp", "trial_index": 43, "time_elapsed": 3157750, "internal_node_id": "0.0-6.0-1.0-22.0"}}, {"uniqueid": "w66931175:a61125045", "current_trial": 44, "dateTime": 1693567915106, "trialdata": {"revealed_states": [], "clicked_states": ["2", "1"], "num_clicks_accrued": [0, 0, 0, 0, 0, 0, 0, 0, 0, 0, 0, 0, 0], "stateRewards": ["", -1, 3, 2, 9, 41, 4, -46, -12, -54, -87, -25, 2, 3, -1, 11, -77, 12, -33, -9, -32, 35, 72, 1, 3, -7, 4, 37, 65, -73, 6, 77, -43, 8], "withholdReward": false, "trial_id": "mdp_trial_24", "block": "test", "trialIndex": 29, "score": 51.2, "costs": -2.8, "simulationMode": [null, null, null, null, null], "rewards": [-1, 3, 2, 9, 41], "path": ["0", "0", "1", "2", "3", "4", "5"], "rt": [4651, 270, 2144, 783, 318], "actions": ["up", "up", "up", "right", "up"], "actionTimes": [5952, 6746, 9405, 10704, 11542], "queries": {"click": {"state": {"target": ["2", "1"], "time": [2105, 4365]}, "edge": {"target": [], "time": []}}, "mouseover": {"state": {"target": ["1", "2", "1"], "time": [1647, 1927, 2536]}, "edge": {"target": [], "time": []}}, "mouseout": {"state": {"target": ["0", "1", "2", "1", "0"], "time": [775, 1726, 2447, 4810, 13782]}, "edge": {"target": [], "time": []}}}, "displayed_time": "15.30", "trialTime": 17873, "trial_type": "mouselab-mdp", "trial_index": 44, "time_elapsed": 3176570, "internal_node_id": "0.0-6.0-1.0-23.0"}}, {"uniqueid": "w66931175:a61125045", "current_trial": 45, "dateTime": 1693567940164, "trialdata": {"revealed_states": [], "clicked_states": ["15", "14", "23", "24", "25", "31", "5"], "num_clicks_accrued": [0, 0, 0, 0, 0, 0, 0, 0, 0, 0, 0, 0, 0], "stateRewards": ["", -2, -3, 7, -13, 60, 9, 37, -6, 37, 20, 1, 2, -2, -8, 6, -80, -31, -10, -7, 70, -65, -44, -1, 1, 7, 6, -11, 73, -85, 16, -21, 47, 34], "withholdReward": false, "trial_id": "mdp_trial_25", "block": "test", "trialIndex": 30, "score": 39.2, "costs": -9.8, "simulationMode": [null, null, null, null, null], "rewards": [-2, -3, 7, -13, 60], "path": ["0", "0", "1", "2", "3", "4", "5"], "rt": [17332, 10, 122, 226, 205], "actions": ["up", "up", "up", "right", "up"], "actionTimes": [18862, 19395, 20056, 20809, 21540], "queries": {"click": {"state": {"target": ["15", "14", "23", "24", "25", "31", "5"], "time": [2432, 4399, 6602, 8497, 11175, 13480, 15871]}, "edge": {"target": [], "time": []}}, "mouseover": {"state": {"target": ["15", "14", "13", "12", "0", "23", "23", "24", "25", "31", "7", "4", "5", "4", "3", "9"], "time": [2215, 2778, 5685, 5730, 5808, 5902, 6390, 7320, 9398, 13273, 15005, 15149, 15432, 16428, 17463, 17746]}, "edge": {"target": [], "time": []}}, "mouseout": {"state": {"target": ["0", "15", "14", "13", "12", "0", "23", "23", "24", "25", "31", "7", "4", "5", "5", "4", "3", "9"], "time": [1013, 2748, 5133, 5721, 5778, 5835, 6006, 7242, 9243, 11670, 14458, 15073, 15320, 16029, 16365, 16524, 17530, 18096]}, "edge": {"target": [], "time": []}}}, "displayed_time": "22.08", "trialTime": 24404, "trial_type": "mouselab-mdp", "trial_index": 45, "time_elapsed": 3201629, "internal_node_id": "0.0-6.0-1.0-24.0"}}, {"uniqueid": "w66931175:a61125045", "current_trial": 46, "dateTime": 1693567960036, "trialdata": {"revealed_states": [], "clicked_states": ["2", "10", "8"], "num_clicks_accrued": [0, 0, 0, 0, 0, 0, 0, 0, 0, 0, 0, 0, 0], "stateRewards": ["", 2, -1, 5, 6, 10, 86, 55, 10, -45, 63, -71, 1, -2, 5, -8, -50, -72, 36, 15, 61, 12, 33, -1, -4, 6, 5, 79, -56, -21, -16, -87, 60, -81], "withholdReward": false, "trial_id": "mdp_trial_26", "block": "test", "trialIndex": 31, "score": 74.8, "costs": -4.199999999999999, "simulationMode": [null, null, null, null, null, null], "rewards": [2, -1, 5, 10, 63], "path": ["0", "0", "1", "2", "3", "8", "10"], "rt": [6163, 831, 198, 202, 439, 169], "actions": ["up", "up", "up", "up", "left", "down"], "actionTimes": [8665, 9505, 10226, 10945, 11899, 12600], "queries": {"click": {"state": {"target": ["2", "10", "8"], "time": [3374, 5552, 7402]}, "edge": {"target": [], "time": []}}, "mouseover": {"state": {"target": ["2", "10", "8", "8"], "time": [3046, 4110, 5944, 6280]}, "edge": {"target": [], "time": []}}, "mouseout": {"state": {"target": ["1", "0", "2", "2", "10", "8", "8"], "time": [1149, 2571, 3468, 4103, 5911, 5995, 15065]}, "edge": {"target": [], "time": []}}}, "displayed_time": "16.50", "trialTime": 18823, "trial_type": "mouselab-mdp", "trial_index": 46, "time_elapsed": 3221500, "internal_node_id": "0.0-6.0-1.0-25.0"}}, {"uniqueid": "w66931175:a61125045", "current_trial": 47, "dateTime": 1693567978574, "trialdata": {"revealed_states": [], "clicked_states": ["3", "32"], "num_clicks_accrued": [0, 0, 0, 0, 0, 0, 0, 0, 0, 0, 0, 0, 0], "stateRewards": ["", 1, -4, -6, -1, -21, 17, -72, 10, 77, 67, -46, -1, 4, -2, 14, -66, -49, -45, -15, -52, 23, -67, 2, -2, -2, 15, -3, 45, -64, 5, -44, 83, 61], "withholdReward": false, "trial_id": "mdp_trial_27", "block": "test", "trialIndex": 32, "score": 83.2, "costs": -2.8, "simulationMode": [null, null, null, null, null], "rewards": [2, -2, -2, 5, 83], "path": ["0", "0", "23", "24", "25", "30", "32"], "rt": [8698, 539, 209, 616, 221], "actions": ["left", "left", "left", "down", "down"], "actionTimes": [10279, 11327, 12059, 13199, 13950], "queries": {"click": {"state": {"target": ["3", "32"], "time": [2832, 5825]}, "edge": {"target": [], "time": []}}, "mouseover": {"state": {"target": ["1", "2", "3", "2", "12", "22", "19", "21", "32", "21", "21"], "time": [2229, 2530, 2627, 3222, 3313, 3384, 3620, 3675, 5692, 6752, 7305]}, "edge": {"target": [], "time": []}}, "mouseout": {"state": {"target": ["8", "1", "2", "3", "2", "12", "22", "19", "21", "32", "21", "21", "21"], "time": [845, 2347, 2578, 3195, 3248, 3360, 3579, 3638, 4808, 5861, 7168, 14886, 15046]}, "edge": {"target": [], "time": []}}}, "displayed_time": "15.58", "trialTime": 17778, "trial_type": "mouselab-mdp", "trial_index": 47, "time_elapsed": 3240037, "internal_node_id": "0.0-6.0-1.0-26.0"}}, {"uniqueid": "w66931175:a61125045", "current_trial": 48, "dateTime": 1693567995637, "trialdata": {"revealed_states": [], "clicked_states": ["6"], "num_clicks_accrued": [0, 0, 0, 0, 0, 0, 0, 0, 0, 0, 0, 0, 0], "stateRewards": ["", -2, -4, 6, 14, -34, 49, 36, -8, -3, 32, -4, 1, -2, 1, -8, -20, -71, -57, -7, -86, -62, -16, -2, -3, -5, 11, 23, -21, 53, 5, -5, 85, 73], "withholdReward": false, "trial_id": "mdp_trial_28", "block": "test", "trialIndex": 33, "score": 61.6, "costs": -1.4, "simulationMode": [null, null, null, null, null], "rewards": [-2, -4, 6, 14, 49], "path": ["0", "0", "1", "2", "3", "4", "6"], "rt": [5139, 55, 159, 382, 107], "actions": ["up", "up", "up", "right", "right"], "actionTimes": [6553, 7131, 7820, 8724, 9350], "queries": {"click": {"state": {"target": ["6"], "time": [2421]}, "edge": {"target": [], "time": []}}, "mouseover": {"state": {"target": ["1", "2", "7", "6", "18", "13", "22", "21"], "time": [1713, 1910, 2029, 2278, 2947, 3019, 3065, 3544]}, "edge": {"target": [], "time": []}}, "mouseout": {"state": {"target": ["22", "12", "1", "2", "7", "6", "6", "18", "13", "22", "21"], "time": [262, 495, 1813, 1978, 2095, 2525, 2827, 3012, 3061, 3229, 5557]}, "edge": {"target": [], "time": []}}}, "displayed_time": "15.41", "trialTime": 16346, "trial_type": "mouselab-mdp", "trial_index": 48, "time_elapsed": 3257100, "internal_node_id": "0.0-6.0-1.0-27.0"}}, {"uniqueid": "w66931175:a61125045", "current_trial": 49, "dateTime": 1693568018137, "trialdata": {"revealed_states": [], "clicked_states": ["2", "1", "3", "4", "6", "5", "11"], "num_clicks_accrued": [0, 0, 0, 0, 0, 0, 0, 0, 0, 0, 0, 0, 0], "stateRewards": ["", -1, -3, -5, -14, -13, -47, 79, 8, -60, -64, 41, -1, 2, 3, 13, -46, 61, -79, -11, -64, -65, 23, 1, -2, 6, -14, 46, 32, 21, 7, 75, -66, 15], "withholdReward": false, "trial_id": "mdp_trial_29", "block": "test", "trialIndex": 34, "score": 30.2, "costs": -9.8, "simulationMode": [null, null, null, null, null], "rewards": [-1, -3, -5, 8, 41], "path": ["0", "0", "1", "2", "3", "8", "11"], "rt": [14972, 77, 93, 362, 148], "actions": ["up", "up", "up", "left", "left"], "actionTimes": [16230, 16796, 17413, 18301, 18967], "queries": {"click": {"state": {"target": ["2", "1", "3", "4", "6", "5", "11"], "time": [1958, 3906, 5788, 7683, 9602, 11666, 13596]}, "edge": {"target": [], "time": []}}, "mouseover": {"state": {"target": ["1", "2", "1", "3", "4", "6", "5", "4", "3", "11", "8"], "time": [1666, 1783, 2372, 4497, 6861, 8200, 11211, 12287, 12741, 12846, 14851]}, "edge": {"target": [], "time": []}}, "mouseout": {"state": {"target": ["12", "1", "2", "2", "1", "3", "4", "4", "6", "4", "4", "5", "4", "3", "11", "11", "8"], "time": [77, 1731, 2075, 2323, 4039, 6291, 7870, 8170, 10454, 10521, 10989, 12167, 12495, 12774, 14170, 14403, 20794]}, "edge": {"target": [], "time": []}}}, "displayed_time": "19.49", "trialTime": 21623, "trial_type": "mouselab-mdp", "trial_index": 49, "time_elapsed": 3279601, "internal_node_id": "0.0-6.0-1.0-28.0"}}, {"uniqueid": "w66931175:a61125045", "current_trial": 50, "dateTime": 1693568038463, "trialdata": {"revealed_states": [], "clicked_states": ["26", "25"], "num_clicks_accrued": [0, 0, 0, 0, 0, 0, 0, 0, 0, 0, 0, 0, 0], "stateRewards": ["", 1, 1, 4, 11, 83, -66, 18, -16, -23, 5, 25, 1, -3, 1, -12, 18, 24, -86, -11, -64, 36, 40, 2, 1, -6, 13, 55, 29, 72, -2, 81, -72, -41], "withholdReward": false, "trial_id": "mdp_trial_30", "block": "test", "trialIndex": 35, "score": 62.2, "costs": -2.8, "simulationMode": [null, null, null, null, null, null], "rewards": [2, 1, -6, 13, 55], "path": ["0", "0", "23", "24", "25", "26", "27"], "rt": [5180, 702, 39, 264, 407, 3730], "actions": ["left", "left", "left", "left", "up", "up"], "actionTimes": [8248, 8958, 9514, 10293, 11217, 15471], "queries": {"click": {"state": {"target": ["26", "25"], "time": [4918, 7079]}, "edge": {"target": [], "time": []}}, "mouseover": {"state": {"target": ["1", "28", "26", "26", "25", "25", "24", "23", "0"], "time": [3766, 4377, 4497, 4822, 5494, 6958, 7594, 7666, 7763]}, "edge": {"target": [], "time": []}}, "mouseout": {"state": {"target": ["8", "10", "1", "1", "28", "26", "26", "25", "25", "24", "23", "0", "0"], "time": [2378, 2395, 2529, 4327, 4410, 4527, 5304, 6809, 7560, 7643, 7715, 8501, 12221]}, "edge": {"target": [], "time": []}}}, "displayed_time": "17.07", "trialTime": 19656, "trial_type": "mouselab-mdp", "trial_index": 50, "time_elapsed": 3299927, "internal_node_id": "0.0-6.0-1.0-29.0"}}, {"uniqueid": "w66931175:a61125045", "current_trial": 51, "dateTime": 1693568067169, "trialdata": {"revealed_states": [], "clicked_states": ["1", "29", "24", "23", "12", "13", "14", "20"], "num_clicks_accrued": [0, 0, 0, 0, 0, 0, 0, 0, 0, 0, 0, 0, 0], "stateRewards": ["", -1, 1, -1, 2, 19, 85, -18, 2, -3, -26, 36, 2, 4, 7, -9, -18, 70, 72, -5, 35, -20, -28, 1, -2, -4, -3, -59, -11, -63, -2, -72, 59, -69], "withholdReward": false, "trial_id": "mdp_trial_31", "block": "test", "trialIndex": 36, "score": 31.799999999999997, "costs": -11.200000000000001, "simulationMode": [null, null, null, null, null], "rewards": [2, 4, 7, -5, 35], "path": ["0", "0", "12", "13", "14", "19", "20"], "rt": [18650, 686, 136, 750, 988], "actions": ["right", "right", "right", "down", "right"], "actionTimes": [20296, 21492, 22139, 23405, 24910], "queries": {"click": {"state": {"target": ["1", "29", "24", "23", "12", "13", "14", "20"], "time": [2990, 4606, 6934, 8800, 11072, 12995, 15279, 17392]}, "edge": {"target": [], "time": []}}, "mouseover": {"state": {"target": ["1", "28", "26", "29", "25", "25", "24", "25", "23", "0", "12", "12", "12", "13", "14", "19", "20", "21"], "time": [2520, 3404, 3496, 3584, 5161, 5384, 6418, 7492, 8414, 9172, 9234, 9572, 9816, 11963, 13674, 15959, 16284, 17930]}, "edge": {"target": [], "time": []}}, "mouseout": {"state": {"target": ["0", "1", "28", "26", "29", "25", "25", "24", "25", "24", "23", "0", "12", "12", "12", "13", "14", "19", "20", "20", "21", "20", "19", "22"], "time": [718, 3378, 3441, 3539, 5029, 5200, 6334, 7451, 8153, 8328, 9084, 9225, 9293, 9637, 11550, 13575, 15821, 16177, 17506, 17791, 23976, 26245, 26278, 26312]}, "edge": {"target": [], "time": []}}}, "displayed_time": "25.43", "trialTime": 27756, "trial_type": "mouselab-mdp", "trial_index": 51, "time_elapsed": 3328632, "internal_node_id": "0.0-6.0-1.0-30.0"}}, {"uniqueid": "w66931175:a61125045", "current_trial": 52, "dateTime": 1693568103755, "trialdata": {"revealed_states": [], "clicked_states": ["17", "15", "16", "14", "18", "13", "12", "23", "24", "25", "26", "27"], "num_clicks_accrued": [0, 0, 0, 0, 0, 0, 0, 0, 0, 0, 0, 0, 0], "stateRewards": ["", -2, -2, -3, -6, -15, -11, 41, -12, -63, -76, 2, -2, -3, 8, 9, -36, -2, -18, -16, -32, -85, -17, -2, 1, 5, -16, 82, 35, -88, -1, 80, -82, -20], "withholdReward": false, "trial_id": "mdp_trial_32", "block": "test", "trialIndex": 37, "score": 53.2, "costs": -16.8, "simulationMode": [null, null, null, null, null], "rewards": [-2, 1, 5, -16, 82], "path": ["0", "0", "23", "24", "25", "26", "27"], "rt": [27720, 664, 223, 445, 123], "actions": ["left", "left", "left", "up", "up"], "actionTimes": [29607, 30794, 31534, 32519, 33162], "queries": {"click": {"state": {"target": ["17", "15", "16", "14", "18", "13", "12", "23", "24", "25", "26", "27"], "time": [4058, 6138, 8060, 10855, 13569, 15454, 17360, 19332, 21247, 23099, 24939, 26823]}, "edge": {"target": [], "time": []}}, "mouseover": {"state": {"target": ["1", "15", "17", "15", "18", "15", "15", "15", "16", "14", "14", "18", "18", "13", "22", "13", "12", "0", "23", "24", "25", "26", "27", "29", "29"], "time": [2089, 3468, 3917, 4464, 4504, 4812, 5502, 5881, 6776, 8952, 9458, 12288, 13292, 14048, 14167, 14481, 15964, 18438, 18574, 20286, 21970, 23898, 25978, 27357, 27693]}, "edge": {"target": [], "time": []}}, "mouseout": {"state": {"target": ["0", "1", "15", "17", "15", "18", "15", "15", "15", "16", "15", "14", "14", "18", "18", "13", "22", "13", "13", "12", "0", "23", "24", "25", "26", "27", "29", "29"], "time": [1916, 2210, 3534, 4433, 4497, 4719, 5137, 5648, 6689, 8653, 8797, 9190, 11084, 12777, 14022, 14119, 14327, 15595, 15897, 18316, 18522, 20122, 21850, 23769, 25606, 27282, 27438, 34915]}, "edge": {"target": [], "time": []}}}, "displayed_time": "33.69", "trialTime": 35724, "trial_type": "mouselab-mdp", "trial_index": 52, "time_elapsed": 3365218, "internal_node_id": "0.0-6.0-1.0-31.0"}}, {"uniqueid": "w66931175:a61125045", "current_trial": 53, "dateTime": 1693568121731, "trialdata": {"revealed_states": [], "clicked_states": ["1", "9"], "num_clicks_accrued": [0, 0, 0, 0, 0, 0, 0, 0, 0, 0, 0, 0, 0], "stateRewards": ["", -1, 2, -6, 6, 43, 78, 78, -2, 55, -29, -17, -2, -4, 1, -15, 13, 7, -79, 8, -28, -68, 36, -1, -3, 3, -16, 84, -18, 87, 10, 32, 13, -81], "withholdReward": false, "trial_id": "mdp_trial_33", "block": "test", "trialIndex": 38, "score": 45.2, "costs": -2.8, "simulationMode": [null, null, null, null, null], "rewards": [-1, 2, -6, -2, 55], "path": ["0", "0", "1", "2", "3", "8", "9"], "rt": [5527, 72, 160, 183, 243], "actions": ["up", "up", "up", "left", "up"], "actionTimes": [7383, 7980, 8668, 9411, 10162], "queries": {"click": {"state": {"target": ["1", "9"], "time": [2773, 4659]}, "edge": {"target": [], "time": []}}, "mouseover": {"state": {"target": ["1", "1", "8", "9", "5"], "time": [2258, 2591, 3692, 3936, 5663]}, "edge": {"target": [], "time": []}}, "mouseout": {"state": {"target": ["29", "26", "28", "1", "1", "1", "8", "9", "5"], "time": [693, 713, 793, 891, 2343, 3335, 3720, 5140, 10738]}, "edge": {"target": [], "time": []}}}, "displayed_time": "15.86", "trialTime": 17081, "trial_type": "mouselab-mdp", "trial_index": 53, "time_elapsed": 3383195, "internal_node_id": "0.0-6.0-1.0-32.0"}}, {"uniqueid": "w66931175:a61125045", "current_trial": 54, "dateTime": 1693568150400, "trialdata": {"revealed_states": [], "clicked_states": ["1", "17", "14", "19", "20", "32", "33", "25", "27"], "num_clicks_accrued": [0, 0, 0, 0, 0, 0, 0, 0, 0, 0, 0, 0, 0], "stateRewards": ["", 1, 2, -3, -5, 66, -50, -47, -5, 1, 28, -27, 1, 1, -1, -6, 37, -25, 56, 1, -82, -66, -40, -1, -4, -7, 15, -61, -23, 26, 10, 14, -56, 29], "withholdReward": false, "trial_id": "mdp_trial_34", "block": "test", "trialIndex": 39, "score": 14.399999999999999, "costs": -12.600000000000001, "simulationMode": [null, null, null, null, null], "rewards": [-1, -4, -7, 10, 29], "path": ["0", "0", "23", "24", "25", "30", "33"], "rt": [18918, 592, 224, 342, 553], "actions": ["left", "left", "left", "down", "left"], "actionTimes": [20704, 21810, 22570, 23426, 24520], "queries": {"click": {"state": {"target": ["1", "17", "14", "19", "20", "32", "33", "25", "27"], "time": [3301, 5344, 6994, 8863, 10743, 12698, 14603, 16915, 18842]}, "edge": {"target": [], "time": []}}, "mouseover": {"state": {"target": ["1", "1", "18", "15", "17", "14", "19", "20", "32", "30", "33", "25", "26", "27"], "time": [2466, 3133, 3809, 3973, 4243, 6054, 7579, 9275, 11870, 13259, 13938, 15310, 17723, 17929]}, "edge": {"target": [], "time": []}}, "mouseout": {"state": {"target": ["0", "1", "1", "18", "15", "17", "14", "14", "19", "20", "32", "30", "33", "25", "26", "27", "27", "28", "24"], "time": [1825, 2567, 3715, 3848, 4098, 5757, 7156, 7497, 9269, 11211, 12915, 13498, 14767, 17072, 17852, 19347, 26274, 26694, 26956]}, "edge": {"target": [], "time": []}}}, "displayed_time": "25.05", "trialTime": 27498, "trial_type": "mouselab-mdp", "trial_index": 54, "time_elapsed": 3411865, "internal_node_id": "0.0-6.0-1.0-33.0"}}, {"uniqueid": "w66931175:a61125045", "current_trial": 55, "dateTime": 1693568171510, "trialdata": {"revealed_states": [], "clicked_states": ["7"], "num_clicks_accrued": [0, 0, 0, 0, 0, 0, 0, 0, 0, 0, 0, 0, 0], "stateRewards": ["", 2, -1, -1, -9, -81, -30, 55, -6, 78, 25, 62, 2, 4, -1, 9, -85, 1, -19, 1, -60, 12, -34, 1, 4, -1, -13, -24, -16, -83, -8, 16, 43, 9], "withholdReward": false, "trial_id": "mdp_trial_35", "block": "test", "trialIndex": 40, "score": 44.6, "costs": -1.4, "simulationMode": [null, null, null, null, null], "rewards": [2, -1, -1, -9, 55], "path": ["0", "0", "1", "2", "3", "4", "7"], "rt": [3799, 184, 1422, 318, 547], "actions": ["up", "up", "up", "right", "down"], "actionTimes": [6546, 7254, 9194, 10033, 11101], "queries": {"click": {"state": {"target": ["7"], "time": [3551]}, "edge": {"target": [], "time": []}}, "mouseover": {"state": {"target": ["1", "7", "12", "12"], "time": [3169, 3386, 3992, 4354]}, "edge": {"target": [], "time": []}}, "mouseout": {"state": {"target": ["1", "12", "12", "0", "0", "1", "7", "12", "12"], "time": [1038, 1254, 1438, 1504, 2002, 3255, 3871, 4011, 18927]}, "edge": {"target": [], "time": []}}}, "displayed_time": "16.75", "trialTime": 20295, "trial_type": "mouselab-mdp", "trial_index": 55, "time_elapsed": 3432975, "internal_node_id": "0.0-6.0-1.0-34.0"}}, {"uniqueid": "w66931175:a61125045", "current_trial": 56, "dateTime": 1693568189335, "trialdata": {"revealed_states": [], "clicked_states": ["16"], "num_clicks_accrued": [0, 0, 0, 0, 0, 0, 0, 0, 0, 0, 0, 0, 0], "stateRewards": ["", 2, 4, -3, 16, -58, 30, -35, 11, -60, 47, 27, -2, -1, -7, -16, 23, -70, 68, -10, -65, -43, -34, -2, 1, 7, 9, -63, 34, -31, -8, -12, -86, 59], "withholdReward": false, "trial_id": "mdp_trial_36", "block": "test", "trialIndex": 41, "score": -4.399999999999999, "costs": -1.4, "simulationMode": [null, null, null, null, null], "rewards": [-2, -1, -7, -16, 23], "path": ["0", "0", "12", "13", "14", "15", "16"], "rt": [4565, 19, 101, 745, 140], "actions": ["right", "right", "right", "up", "up"], "actionTimes": [6186, 6723, 7362, 8631, 9291], "queries": {"click": {"state": {"target": ["16"], "time": [2712]}, "edge": {"target": [], "time": []}}, "mouseover": {"state": {"target": ["16", "15", "17"], "time": [2554, 3099, 3693]}, "edge": {"target": [], "time": []}}, "mouseout": {"state": {"target": ["0", "16", "15", "17"], "time": [1972, 3048, 3671, 10579]}, "edge": {"target": [], "time": []}}}, "displayed_time": "15.62", "trialTime": 16911, "trial_type": "mouselab-mdp", "trial_index": 56, "time_elapsed": 3450800, "internal_node_id": "0.0-6.0-1.0-35.0"}}, {"uniqueid": "w66931175:a61125045", "current_trial": 57, "dateTime": 1693568214644, "trialdata": {"revealed_states": [], "clicked_states": ["1", "3", "2", "10", "8", "9"], "num_clicks_accrued": [0, 0, 0, 0, 0, 0, 0, 0, 0, 0, 0, 0, 0], "stateRewards": ["", 2, -4, -8, -15, 71, -43, -41, 7, -17, 20, 67, -1, -1, -4, 6, 37, -24, -47, 9, 34, 57, 45, 1, 2, -4, -5, -23, 88, -5, 13, -40, 43, 44], "withholdReward": false, "trial_id": "mdp_trial_37", "block": "test", "trialIndex": 42, "score": 8.600000000000001, "costs": -8.4, "simulationMode": [null, null, null, null, null], "rewards": [2, -4, -8, 7, 20], "path": ["0", "0", "1", "2", "3", "8", "10"], "rt": [16505, 411, 149, 414, 91], "actions": ["up", "up", "up", "left", "down"], "actionTimes": [18265, 19217, 19887, 20819, 21428], "queries": {"click": {"state": {"target": ["1", "3", "2", "10", "8", "9"], "time": [2939, 5229, 8205, 10409, 12226, 14197]}, "edge": {"target": [], "time": []}}, "mouseover": {"state": {"target": ["1", "1", "2", "10", "3", "2", "10", "8", "9"], "time": [2423, 2755, 3586, 4198, 4953, 5990, 9538, 11149, 13417]}, "edge": {"target": [], "time": []}}, "mouseout": {"state": {"target": ["10", "10", "1", "1", "2", "10", "3", "2", "10", "8", "9", "8"], "time": [31, 722, 2462, 3410, 3711, 4562, 5862, 8400, 10616, 12476, 14804, 15021]}, "edge": {"target": [], "time": []}}}, "displayed_time": "21.95", "trialTime": 24041, "trial_type": "mouselab-mdp", "trial_index": 57, "time_elapsed": 3476108, "internal_node_id": "0.0-6.0-1.0-36.0"}}, {"uniqueid": "w66931175:a61125045", "current_trial": 58, "dateTime": 1693568233241, "trialdata": {"revealed_states": [], "clicked_states": ["15", "14"], "num_clicks_accrued": [0, 0, 0, 0, 0, 0, 0, 0, 0, 0, 0, 0, 0], "stateRewards": ["", 1, -4, -4, 8, 1, -79, 68, -10, -79, 8, -74, -1, -3, -6, 14, 43, 23, 9, 5, -51, 63, 61, -2, 4, 6, -10, 69, -32, 57, 15, -80, -80, -77], "withholdReward": false, "trial_id": "mdp_trial_38", "block": "test", "trialIndex": 43, "score": 24.2, "costs": -2.8, "simulationMode": [null, null, null, null, null], "rewards": [-1, -3, -6, 14, 23], "path": ["0", "0", "12", "13", "14", "15", "17"], "rt": [5833, 676, 258, 475, 1128], "actions": ["right", "right", "right", "up", "right"], "actionTimes": [7476, 8705, 9487, 10478, 12145], "queries": {"click": {"state": {"target": ["15", "14"], "time": [2506, 5602]}, "edge": {"target": [], "time": []}}, "mouseover": {"state": {"target": ["18", "15", "14", "17", "14", "19", "20"], "time": [2076, 2375, 2890, 3263, 4522, 6299, 6600]}, "edge": {"target": [], "time": []}}, "mouseout": {"state": {"target": ["23", "0", "18", "15", "15", "14", "17", "14", "19", "20"], "time": [608, 1691, 2166, 2556, 2885, 3199, 4472, 6239, 6337, 11231]}, "edge": {"target": [], "time": []}}}, "displayed_time": "15.64", "trialTime": 17520, "trial_type": "mouselab-mdp", "trial_index": 58, "time_elapsed": 3494706, "internal_node_id": "0.0-6.0-1.0-37.0"}}, {"uniqueid": "w66931175:a61125045", "current_trial": 59, "dateTime": 1693568277218, "trialdata": {"revealed_states": [], "clicked_states": ["1", "23", "12", "13", "14", "24", "25", "26", "27", "11", "9", "5", "6", "16", "17", "20"], "num_clicks_accrued": [0, 0, 0, 0, 0, 0, 0, 0, 0, 0, 0, 0, 0], "stateRewards": ["", 2, 3, -1, 16, -78, -11, 46, 2, -20, 79, -67, 2, 3, 2, 11, -83, -42, -58, -11, -67, -22, 55, 2, -1, -1, -16, -83, -82, 23, -11, -29, 13, 13], "withholdReward": false, "trial_id": "mdp_trial_39", "block": "test", "trialIndex": 44, "score": -20.39999999999999, "costs": -22.399999999999995, "simulationMode": [null, null, null, null, null], "rewards": [2, -1, -1, -11, 13], "path": ["0", "0", "23", "24", "25", "30", "32"], "rt": [36343, 44, 82, 275, 25], "actions": ["left", "left", "left", "down", "down"], "actionTimes": [38322, 38887, 39504, 40300, 40845], "queries": {"click": {"state": {"target": ["1", "23", "12", "13", "14", "24", "25", "26", "27", "11", "9", "5", "6", "16", "17", "20"], "time": [2845, 4429, 6387, 8260, 10141, 12029, 13922, 15761, 17632, 21218, 23551, 25442, 27340, 28985, 30652, 32246]}, "edge": {"target": [], "time": []}}, "mouseover": {"state": {"target": ["1", "0", "23", "23", "0", "12", "13", "14", "23", "24", "24", "25", "26", "27", "11", "10", "8", "9", "5", "6", "16", "16", "15", "17", "20", "21", "32", "31", "23", "30", "32", "24"], "time": [2493, 3337, 3901, 4161, 4949, 5091, 7004, 8803, 10859, 10968, 11202, 12639, 14855, 16556, 20989, 22403, 23178, 23355, 24060, 26184, 27903, 28107, 29924, 30036, 31956, 33171, 35193, 35408, 35723, 36075, 36208, 37107]}, "edge": {"target": [], "time": []}}, "mouseout": {"state": {"target": ["23", "0", "1", "0", "23", "23", "0", "12", "13", "14", "14", "13", "23", "24", "24", "25", "26", "27", "26", "11", "10", "8", "9", "9", "5", "6", "16", "16", "15", "17", "20", "20", "21", "32", "31", "23", "30", "32", "24", "31"], "time": [1311, 1377, 3195, 3590, 3955, 4942, 5018, 6909, 8740, 10336, 10782, 10804, 10882, 11018, 12484, 14668, 16419, 18267, 19577, 21557, 23132, 23219, 23652, 23996, 25821, 27804, 27933, 29760, 29967, 31323, 32410, 32712, 34475, 35327, 35425, 35857, 36139, 36717, 37222, 42498]}, "edge": {"target": [], "time": []}}}, "displayed_time": "41.37", "trialTime": 43088, "trial_type": "mouselab-mdp", "trial_index": 59, "time_elapsed": 3538682, "internal_node_id": "0.0-6.0-1.0-38.0"}}, {"uniqueid": "w66931175:a61125045", "current_trial": 60, "dateTime": 1693568301667, "trialdata": {"revealed_states": [], "clicked_states": ["2", "1", "9"], "num_clicks_accrued": [0, 0, 0, 0, 0, 0, 0, 0, 0, 0, 0, 0, 0], "stateRewards": ["", -2, 3, -5, -7, 66, 43, -60, -4, -70, -75, 4, -1, 2, 2, -13, 54, 11, -40, -1, 77, 32, 15, -2, 3, -8, -9, -35, 83, -27, 6, -74, -34, 44], "withholdReward": false, "trial_id": "mdp_trial_40", "block": "test", "trialIndex": 45, "score": 50.8, "costs": -4.199999999999999, "simulationMode": [null, null, null, null, null], "rewards": [-2, 3, -5, -7, 66], "path": ["0", "0", "1", "2", "3", "4", "5"], "rt": [9081, 1061, 651, 6294, 720], "actions": ["up", "up", "up", "right", "up"], "actionTimes": [10316, 11895, 13062, 19906, 21144], "queries": {"click": {"state": {"target": ["2", "1", "9"], "time": [2026, 4078, 6520]}, "edge": {"target": [], "time": []}}, "mouseover": {"state": {"target": ["2", "1", "9", "8", "10", "2"], "time": [1869, 2505, 6250, 6937, 7029, 8830]}, "edge": {"target": [], "time": []}}, "mouseout": {"state": {"target": ["0", "2", "1", "1", "1", "9", "8", "10", "2", "2", "2", "1"], "time": [671, 2350, 4249, 4743, 6114, 6894, 6998, 8731, 8896, 16975, 18853, 22446]}, "edge": {"target": [], "time": []}}}, "displayed_time": "21.66", "trialTime": 23396, "trial_type": "mouselab-mdp", "trial_index": 60, "time_elapsed": 3563131, "internal_node_id": "0.0-6.0-1.0-39.0"}}, {"uniqueid": "w66931175:a61125045", "current_trial": 61, "dateTime": 1693568353556, "trialdata": {"rt": 51877, "response": {"Q0": "$-2 to $2", "Q1": "$-16 to $16", "Q2": "$-88 to $88", "Q3": "The cost was always $1.4.", "Q4": "Slightly motivated"}, "question_order": [0, 1, 2, 3, 4], "trial_id": "final_quiz_control", "trial_type": "survey-multi-choice", "trial_index": 61, "time_elapsed": 3615020, "internal_node_id": "0.0-6.0-2.0"}}, {"uniqueid": "w66931175:a61125045", "current_trial": 62, "dateTime": 1693568430707, "trialdata": {"rt": 77126, "response": {"Q0": "i open the first 3 nodes and select the highest, the more nodes i open the more i lose", "Q1": "not really i got too excited and started opening more nodes", "Q2": "it wasnt"}, "trial_id": "self_report_control", "trial_type": "survey-text", "trial_index": 62, "time_elapsed": 3692172, "internal_node_id": "0.0-6.0-3.0"}}, {"uniqueid": "w66931175:a61125045", "current_trial": 63, "dateTime": 1693568448484, "trialdata": {"rt": 17768, "response": {"gender": "female", "age": "34", "colorblind": "0", "effort": "0"}, "trial_type": "survey-html-form", "trial_index": 63, "time_elapsed": 3709948, "internal_node_id": "0.0-6.0-4.0"}}, {"uniqueid": "w66931175:a61125045", "current_trial": 64, "dateTime": 1693568469080, "trialdata": {"rt": 20587, "response": {"Q0": "no", "Q1": "no", "Q2": ""}, "trial_type": "survey-text", "trial_index": 64, "time_elapsed": 3730544, "internal_node_id": "0.0-6.0-5.0"}}, {"uniqueid": "w66931175:a61125045", "current_trial": 65, "dateTime": 1693568482521, "trialdata": {"rt": 13434, "stimulus": "<h1>Completion Code Instructions (1/2)</h1>\n<br><br><br><br>\nYou have reached the end of the experiment! The completion code consists of two parts: (1) a code with 2 characters (2) a code with 6 characters. On this page, you will receive the second part of the code. The first part of the completion code will be on the next page.\n<br><br>\nThe second part of your completion code is: <b>EWEK22</b>\n<br><br>\nPlease note this down. Then, press 'Finish HIT' in order to find the first part of your completion code. Once the data has been saved, you will receive this code either in this window or in the original browser window where you started the experiment.\n", "response": 0, "trial_type": "html-button-response", "trial_index": 65, "time_elapsed": 3743986, "internal_node_id": "0.0-6.0-6.0"}}, {"uniqueid": "w66931175:a61125045", "current_trial": 66, "dateTime": 1693568483527, "trialdata": {"success": true, "trial_type": "fullscreen", "trial_index": 66, "time_elapsed": 3744992, "internal_node_id": "0.0-7.0"}}], "questiondata": {"params": {"CODE": "C6DMOQA6", "MIN_TIME": 14, "inspectCost": 1, "startTime": "Fri Sep 01 2023 12:38:55 GMT+0200 (South Africa Standard Time)", "bonusRate": 0.002, "variance": "1_2_4_8_44", "branching": "31123"}, "final_score": 1466.4}, "eventdata": [{"eventtype": "initialized", "value": null, "timestamp": 1693564735132, "interval": 0}, {"eventtype": "window_resize", "value": [1032, 608], "timestamp": 1693564735132, "interval": 0}, {"eventtype": "window_resize", "value": [1032, 608], "timestamp": 1693564735737, "interval": 605}, {"eventtype": "focus", "value": "off", "timestamp": 1693564748314, "interval": 12577}, {"eventtype": "focus", "value": "on", "timestamp": 1693564770700, "interval": 22386}, {"eventtype": "focus", "value": "off", "timestamp": 1693564798161, "interval": 27461}, {"eventtype": "focus", "value": "on", "timestamp": 1693564828566, "interval": 30405}, {"eventtype": "window_resize", "value": [1280, 720], "timestamp": 1693564828966, "interval": 400}, {"eventtype": "focus", "value": "off", "timestamp": 1693566438132, "interval": 1609166}, {"eventtype": "focus", "value": "on", "timestamp": 1693566438133, "interval": 1}, {"eventtype": "window_resize", "value": [1280, 622], "timestamp": 1693566438373, "interval": 240}, {"eventtype": "window_resize", "value": [1280, 720], "timestamp": 1693566442164, "interval": 3791}, {"eventtype": "focus", "value": "off", "timestamp": 1693566838224, "interval": 396060}, {"eventtype": "focus", "value": "on", "timestamp": 1693566838224, "interval": 0}, {"eventtype": "window_resize", "value": [1280, 622], "timestamp": 1693566838440, "interval": 216}, {"eventtype": "window_resize", "value": [1280, 720], "timestamp": 1693566840393, "interval": 1953}, {"eventtype": "window_resize", "value": [1280, 622], "timestamp": 1693568482777, "interval": 1642384}], "useragent": "Mozilla/5.0 (Windows NT 10.0; Win64; x64) AppleWebKit/537.36 (KHTML, like Gecko) Chrome/116.0.0.0 Safari/537.36", "mode": "live", "id": "w66931175:a61125045", "status": "user data saved", "Beginhit": "2023-09-01 10:38:50.310002", "Beginexp": "2023-09-01 10:40:30.659987", "Endhit": "2023-09-01 11:41:27.907246", "psiturkStatus": 3, "browser": "<redacted>", "platform": "windows", "language": "en-US"}