{"condition": 1, "counterbalance": 0, "assignmentId": "a88599542", "workerId": "w10990650", "hitId": "h82090625", "currenttrial": 24, "bonus": 0, "data": [{"uniqueid": "w10990650:a88599542", "current_trial": 0, "dateTime": 1693565592090, "trialdata": {"success": true, "trial_type": "fullscreen", "trial_index": 0, "time_elapsed": 6258, "internal_node_id": "0.0-0.0"}}, {"uniqueid": "w10990650:a88599542", "current_trial": 1, "dateTime": 1693565615877, "trialdata": {"view_history": [{"page_index": 0, "viewing_time": 23767}], "rt": 23769, "trial_id": "exp_instructions_misaligned", "trial_type": "instructions", "trial_index": 1, "time_elapsed": 30045, "internal_node_id": "0.0-1.0"}}, {"uniqueid": "w10990650:a88599542", "current_trial": 2, "dateTime": 1693565832488, "trialdata": {"view_history": [{"page_index": 0, "viewing_time": 66288}, {"page_index": 1, "viewing_time": 58758}, {"page_index": 2, "viewing_time": 55272}, {"page_index": 3, "viewing_time": 36279}], "rt": 216599, "trial_id": "mouselab_instructions_1_misaligned", "trial_type": "instructions", "trial_index": 2, "time_elapsed": 246655, "internal_node_id": "0.0-2.0-1.0"}}, {"uniqueid": "w10990650:a88599542", "current_trial": 3, "dateTime": 1693565965973, "trialdata": {"revealed_states": [], "clicked_states": ["2", "13", "24", "23", "3", "9", "27", "30", "12", "15", "21", "14", "19", "20", "22", "1", "7", "5", "4", "6", "11", "8", "26", "28", "29", "25", "33", "32", "31", "18", "16", "17", "10"], "num_clicks_accrued": [0, 0, 0, 0, 0, 0, 0, 0, 0, 0, 0, 0, 0], "stateRewards": ["", -10, 10, -10, -10, 10, -10, -10, -10, -10, -10, 10, 10, -10, 10, 10, 10, -10, -10, 10, 10, -10, -10, -10, 10, 10, 10, -10, 10, 10, 10, 10, 10, -10], "withholdReward": false, "trial_id": "practice_1", "block": "test", "trialIndex": 0, "score": -23, "costs": -16.5, "simulationMode": [null, null, null, null, null], "rewards": [-10, 10, -10, -10, 10], "path": ["0", "0", "1", "2", "3", "4", "5"], "rt": [103006, 5176, 1545, 4964, 871], "actions": ["up", "up", "up", "right", "up"], "actionTimes": [110238, 115943, 118013, 123500, 124891], "queries": {"click": {"state": {"target": ["2", "13", "24", "23", "3", "9", "27", "30", "12", "15", "21", "14", "19", "20", "22", "1", "7", "5", "4", "6", "11", "8", "26", "28", "29", "25", "33", "32", "31", "18", "16", "17", "10"], "time": [12794, 17556, 19903, 22381, 25792, 34444, 36795, 38389, 40063, 43296, 45471, 47421, 49927, 52050, 54028, 57475, 59484, 61235, 64450, 66566, 69883, 72885, 77998, 81213, 84165, 85736, 87385, 88566, 89763, 94663, 96936, 98115, 101600]}, "edge": {"target": [], "time": []}}, "mouseover": {"state": {"target": ["0", "1", "2", "13", "18", "13", "24", "23", "2", "3", "2", "1", "2", "8", "9", "11", "27", "26", "25", "30", "12", "15", "19", "21", "19", "14", "19", "20", "22", "0", "1", "2", "7", "4", "5", "4", "6", "8", "11", "8", "11", "11", "27", "26", "28", "29", "29", "25", "33", "32", "31", "16", "18", "16", "17", "2", "10", "10", "0", "0"], "time": [11458, 11528, 12137, 15655, 16321, 17107, 19424, 21622, 25055, 25272, 27235, 30704, 31088, 32488, 34087, 35639, 35904, 37565, 37665, 37937, 39654, 42787, 44379, 44755, 46557, 46987, 48921, 51406, 53671, 55121, 57121, 58671, 59055, 60445, 60687, 63004, 66189, 68037, 68121, 71154, 74136, 74450, 76955, 77488, 81005, 82872, 83204, 85176, 86871, 88214, 89332, 94105, 94238, 95266, 97706, 100238, 100574, 101239, 102822, 106338]}, "edge": {"target": [], "time": []}}, "mouseout": {"state": {"target": ["0", "0", "1", "2", "13", "18", "13", "24", "23", "2", "3", "3", "2", "1", "2", "8", "9", "11", "27", "26", "25", "30", "12", "15", "19", "21", "19", "14", "19", "20", "19", "22", "0", "1", "2", "7", "4", "5", "4", "4", "6", "4", "8", "11", "8", "11", "11", "27", "26", "28", "29", "29", "25", "33", "33", "32", "31", "16", "18", "16", "17", "17", "2", "10", "10", "0", "0", "0", "2", "3"], "time": [9106, 11489, 11549, 14570, 16220, 16988, 18704, 21238, 24654, 25105, 25989, 26887, 30537, 30888, 32348, 32670, 35478, 35738, 37534, 37595, 37880, 39196, 42718, 44356, 44471, 46534, 46670, 48771, 50136, 53257, 53388, 55073, 55171, 58604, 58737, 60373, 60589, 62655, 64653, 66039, 67962, 67988, 68072, 71104, 74108, 74374, 76823, 77304, 80771, 82829, 82892, 85109, 86681, 87590, 88084, 88771, 93489, 94124, 95141, 97531, 98321, 99188, 100259, 100626, 102758, 102856, 106437, 119106, 119422, 121822]}, "edge": {"target": [], "time": []}}}, "displayed_time": "125.40", "trialTime": 131737, "trial_type": "mouselab-mdp", "trial_index": 3, "time_elapsed": 380138, "internal_node_id": "0.0-2.0-2.0-0.0"}}, {"uniqueid": "w10990650:a88599542", "current_trial": 4, "dateTime": 1693566000759, "trialdata": {"revealed_states": [], "clicked_states": ["1", "3", "2", "4", "6"], "num_clicks_accrued": [0, 0, 0, 0, 0, 0, 0, 0, 0, 0, 0, 0, 0], "stateRewards": ["", -10, 10, -10, 10, 10, -10, 10, 10, -10, -10, -10, -10, -10, 10, -10, 10, -10, -10, -10, 10, -10, -10, 10, -10, -10, 10, 10, 10, 10, 10, 10, 10, -10], "withholdReward": false, "trial_id": "practice_2", "block": "test", "trialIndex": 1, "score": -9, "costs": -2.5, "simulationMode": [null, null, null, null, null], "rewards": [-10, 10, -10, 10, -10], "path": ["0", "0", "1", "2", "3", "4", "6"], "rt": [14684, 550, 580, 561, 4], "actions": ["up", "up", "up", "right", "right"], "actionTimes": [18126, 19219, 20328, 21428, 21949], "queries": {"click": {"state": {"target": ["1", "3", "2", "4", "6"], "time": [5896, 9106, 10621, 12186, 15361]}, "edge": {"target": [], "time": []}}, "mouseover": {"state": {"target": ["1", "2", "3", "2", "4", "4", "6", "6"], "time": [4434, 8001, 8568, 9978, 11430, 11767, 13913, 15057]}, "edge": {"target": [], "time": []}}, "mouseout": {"state": {"target": ["2", "1", "1", "2", "3", "2", "4", "4", "4", "6", "6", "0"], "time": [1599, 1798, 7860, 8143, 9914, 10819, 11463, 12392, 13266, 13950, 16240, 28051]}, "edge": {"target": [], "time": []}}}, "displayed_time": "22.49", "trialTime": 33737, "trial_type": "mouselab-mdp", "trial_index": 4, "time_elapsed": 414926, "internal_node_id": "0.0-2.0-2.0-1.0"}}, {"uniqueid": "w10990650:a88599542", "current_trial": 5, "dateTime": 1693566092199, "trialdata": {"view_history": [{"page_index": 0, "viewing_time": 74278}, {"page_index": 1, "viewing_time": 17149}], "rt": 91428, "trial_id": "mouselab_instructions_2_misaligned", "trial_type": "instructions", "trial_index": 5, "time_elapsed": 506367, "internal_node_id": "0.0-2.0-3.0"}}, {"uniqueid": "w10990650:a88599542", "current_trial": 6, "dateTime": 1693566169188, "trialdata": {"rt": 76964, "response": {"Q0": "The cost for clicking on nodes may vary between nodes.", "Q1": "The better I perform the higher my bonus will be.", "Q2": "No, the amount of cash at each node of the web may be different each time.", "Q3": "To get the highest total score.", "Q4": "Only before moving the spider.", "Q5": "3 seconds"}, "question_order": [0, 1, 2, 3, 4, 5], "correct": {"Q0": "The cost for clicking on nodes may vary between nodes.", "Q1": "The better I perform the higher my bonus will be.", "Q2": "No, the amount of cash at each node of the web may be different each time.", "Q3": "To get the highest total score.", "Q4": "Only before moving the spider.", "Q5": "3 seconds"}, "trial_id": "mouselab_quiz_misaligned", "trial_type": "survey-multi-choice", "trial_index": 6, "time_elapsed": 583356, "internal_node_id": "0.0-2.0-4.0"}}, {"uniqueid": "w10990650:a88599542", "current_trial": 7, "dateTime": 1693566179932, "trialdata": {"rt": 10714, "response": {"Q0": "No"}, "question_order": [0], "trial_id": "repeat_check", "trial_type": "survey-multi-choice", "trial_index": 7, "time_elapsed": 594097, "internal_node_id": "0.0-4.0-0.0"}}, {"uniqueid": "w10990650:a88599542", "current_trial": 8, "dateTime": 1693566195927, "trialdata": {"rt": 15981, "stimulus": "\n<h1> Get ready to start the game! </h1>\n\nThank you for reading the instructions. Get ready start with the 40 rounds of this game.\n<br><br>\nIf you need to take a break, feel free to take one after the end of a round, before continuing to the next one.\n<br><br>\nRemember, the more money the spider gets, the bigger your bonus will be!\n<br><br>\n<div style='text-align: center;'>Press <code>space</code> to begin.</div>\n\n<br><br>\n(If, at any point, the <code>space</code> key does not take you to the next page, click once on the text and try again.)", "response": " ", "trial_id": "mdp_ready", "trial_type": "html-keyboard-response", "trial_index": 8, "time_elapsed": 610095, "internal_node_id": "0.0-6.0-0.0"}}, {"uniqueid": "w10990650:a88599542", "current_trial": 9, "dateTime": 1693566222783, "trialdata": {"revealed_states": [], "clicked_states": [], "num_clicks_accrued": [0, 0, 0, 0, 0, 0, 0, 0, 0, 0, 0, 0, 0], "stateRewards": ["", 2, -4, -8, -15, 71, -43, -41, 7, -17, 20, 67, -1, -1, -4, 6, 37, -24, -47, 9, 34, 57, 45, 1, 2, -4, -5, -23, 88, -5, 13, -40, 43, 44], "withholdReward": false, "trial_id": "mdp_trial_1", "block": "test", "trialIndex": 2, "score": 17, "costs": 0, "simulationMode": [null, null, null, null, null], "rewards": [2, -4, -8, 7, 20], "path": ["0", "0", "1", "2", "3", "8", "10"], "rt": [8442, 2584, 197, 1077, 416], "actions": ["up", "up", "up", "left", "down"], "actionTimes": [15058, 18163, 18880, 20481, 21417], "queries": {"click": {"state": {"target": [], "time": []}, "edge": {"target": [], "time": []}}, "mouseover": {"state": {"target": ["1", "24", "23"], "time": [8851, 8966, 11485]}, "edge": {"target": [], "time": []}}, "mouseout": {"state": {"target": ["0", "1", "1", "24", "23"], "time": [3447, 3897, 8879, 11350, 11801]}, "edge": {"target": [], "time": []}}}, "displayed_time": "21.93", "trialTime": 25670, "trial_type": "mouselab-mdp", "trial_index": 9, "time_elapsed": 636950, "internal_node_id": "0.0-6.0-1.0-0.0"}}, {"uniqueid": "w10990650:a88599542", "current_trial": 10, "dateTime": 1693566252706, "trialdata": {"revealed_states": [], "clicked_states": [], "num_clicks_accrued": [0, 0, 0, 0, 0, 0, 0, 0, 0, 0, 0, 0, 0], "stateRewards": ["", -2, 4, 3, 5, -61, 4, 30, 1, -47, 83, 10, 1, 4, 7, -14, 19, -74, -83, 6, -2, -2, -65, -1, -2, 4, -11, 12, -1, -68, 11, -38, -28, 66], "withholdReward": false, "trial_id": "mdp_trial_2", "block": "test", "trialIndex": 3, "score": 2, "costs": 0, "simulationMode": [null, null, null, null, null], "rewards": [-1, -2, 4, -11, 12], "path": ["0", "0", "23", "24", "25", "26", "27"], "rt": [2339, 509, 488, 799, 806], "actions": ["left", "left", "left", "up", "up"], "actionTimes": [11551, 12568, 13590, 14949, 16264], "queries": {"click": {"state": {"target": [], "time": []}, "edge": {"target": [], "time": []}}, "mouseover": {"state": {"target": [], "time": []}, "edge": {"target": [], "time": []}}, "mouseout": {"state": {"target": ["0", "1", "2", "1", "0", "0"], "time": [1881, 2780, 4030, 7181, 7347, 10349]}, "edge": {"target": [], "time": []}}}, "displayed_time": "23.22", "trialTime": 28796, "trial_type": "mouselab-mdp", "trial_index": 10, "time_elapsed": 666873, "internal_node_id": "0.0-6.0-1.0-1.0"}}, {"uniqueid": "w10990650:a88599542", "current_trial": 11, "dateTime": 1693566276259, "trialdata": {"revealed_states": [], "clicked_states": [], "num_clicks_accrued": [0, 0, 0, 0, 0, 0, 0, 0, 0, 0, 0, 0, 0], "stateRewards": ["", -2, -1, -2, -15, 87, 57, 29, -10, 77, -80, -7, 1, -3, 6, 14, -11, 87, -59, 4, -71, 16, -11, 2, 2, -7, 2, -47, 61, 50, 14, -20, 17, 81], "withholdReward": false, "trial_id": "mdp_trial_3", "block": "test", "trialIndex": 4, "score": -63, "costs": 0, "simulationMode": [null, null, null, null, null], "rewards": [1, -3, 6, 4, -71], "path": ["0", "0", "12", "13", "14", "19", "20"], "rt": [2294, 554, 717, 453, 1751], "actions": ["right", "right", "right", "down", "right"], "actionTimes": [6563, 7641, 8901, 9892, 12170], "queries": {"click": {"state": {"target": [], "time": []}, "edge": {"target": [], "time": []}}, "mouseover": {"state": {"target": [], "time": []}, "edge": {"target": [], "time": []}}, "mouseout": {"state": {"target": [], "time": []}, "edge": {"target": [], "time": []}}}, "displayed_time": "18.27", "trialTime": 22321, "trial_type": "mouselab-mdp", "trial_index": 11, "time_elapsed": 690425, "internal_node_id": "0.0-6.0-1.0-2.0"}}, {"uniqueid": "w10990650:a88599542", "current_trial": 12, "dateTime": 1693566297604, "trialdata": {"revealed_states": [], "clicked_states": [], "num_clicks_accrued": [0, 0, 0, 0, 0, 0, 0, 0, 0, 0, 0, 0, 0], "stateRewards": ["", -2, -3, 7, -13, 60, 9, 37, -6, 37, 20, 1, 2, -2, -8, 6, -80, -31, -10, -7, 70, -65, -44, -1, 1, 7, 6, -11, 73, -85, 16, -21, 47, 34], "withholdReward": false, "trial_id": "mdp_trial_4", "block": "test", "trialIndex": 5, "score": 49, "costs": 0, "simulationMode": [null, null, null, null, null], "rewards": [-2, -3, 7, -13, 60], "path": ["0", "0", "1", "2", "3", "4", "5"], "rt": [1348, 286, 230, 1170, 1082], "actions": ["up", "up", "up", "right", "up"], "actionTimes": [3795, 4609, 5374, 7066, 8681], "queries": {"click": {"state": {"target": [], "time": []}, "edge": {"target": [], "time": []}}, "mouseover": {"state": {"target": [], "time": []}, "edge": {"target": [], "time": []}}, "mouseout": {"state": {"target": [], "time": []}, "edge": {"target": [], "time": []}}}, "displayed_time": "16.45", "trialTime": 19986, "trial_type": "mouselab-mdp", "trial_index": 12, "time_elapsed": 711769, "internal_node_id": "0.0-6.0-1.0-3.0"}}, {"uniqueid": "w10990650:a88599542", "current_trial": 13, "dateTime": 1693566320932, "trialdata": {"revealed_states": [], "clicked_states": [], "num_clicks_accrued": [0, 0, 0, 0, 0, 0, 0, 0, 0, 0, 0, 0, 0], "stateRewards": ["", 1, 4, -8, -13, -13, -87, -77, -10, -44, 54, 42, 2, -3, -4, 12, -9, -80, 52, 9, 84, -2, -65, 1, -4, -5, -6, 8, 80, 32, 13, -59, -5, -13], "withholdReward": false, "trial_id": "mdp_trial_5", "block": "test", "trialIndex": 6, "score": 29, "costs": 0, "simulationMode": [null, null, null, null, null], "rewards": [1, 4, -8, -10, 42], "path": ["0", "0", "1", "2", "3", "8", "11"], "rt": [2213, 583, 251, 394, 1221], "actions": ["up", "up", "up", "left", "left"], "actionTimes": [4351, 5490, 6284, 7220, 9038], "queries": {"click": {"state": {"target": [], "time": []}, "edge": {"target": [], "time": []}}, "mouseover": {"state": {"target": [], "time": []}, "edge": {"target": [], "time": []}}, "mouseout": {"state": {"target": [], "time": []}, "edge": {"target": [], "time": []}}}, "displayed_time": "16.14", "trialTime": 21779, "trial_type": "mouselab-mdp", "trial_index": 13, "time_elapsed": 735099, "internal_node_id": "0.0-6.0-1.0-4.0"}}, {"uniqueid": "w10990650:a88599542", "current_trial": 14, "dateTime": 1693566341346, "trialdata": {"revealed_states": [], "clicked_states": [], "num_clicks_accrued": [0, 0, 0, 0, 0, 0, 0, 0, 0, 0, 0, 0, 0], "stateRewards": ["", 1, 1, -6, -2, 7, 77, 3, 16, -16, 66, 31, -1, 3, -8, -6, 33, -50, -48, 7, -60, -66, 36, 2, -3, 3, -7, -12, -61, -79, -4, 8, 74, -70], "withholdReward": false, "trial_id": "mdp_trial_6", "block": "test", "trialIndex": 7, "score": 73, "costs": 0, "simulationMode": [null, null, null, null, null, null, null, null, null, null, null, null], "rewards": [1, 1, 1, 1, -6, -2, 77], "path": ["0", "0", "1", "1", "2", "2", "3", "4", "6"], "rt": [7574, 7513, 1872, 1373, 1047, 590, 814, 333, 803, 306, 818, 618], "actions": ["up", "up", "up", "up", "up", "up", "up", "up", "up", "up", "right", "right"], "actionTimes": [7510, 7523, 9404, 9426, 10483, 10503, 11326, 11339, 12153, 12168, 13521, 14649], "queries": {"click": {"state": {"target": [], "time": []}, "edge": {"target": [], "time": []}}, "mouseover": {"state": {"target": ["1", "8", "11"], "time": [2135, 3370, 3618]}, "edge": {"target": [], "time": []}}, "mouseout": {"state": {"target": ["0", "1", "8"], "time": [32, 2688, 3553]}, "edge": {"target": [], "time": []}}}, "displayed_time": "15.16", "trialTime": 17437, "trial_type": "mouselab-mdp", "trial_index": 14, "time_elapsed": 755513, "internal_node_id": "0.0-6.0-1.0-5.0"}}, {"uniqueid": "w10990650:a88599542", "current_trial": 15, "dateTime": 1693566364905, "trialdata": {"revealed_states": [], "clicked_states": ["1"], "num_clicks_accrued": [0, 0, 0, 0, 0, 0, 0, 0, 0, 0, 0, 0, 0], "stateRewards": ["", -2, 3, -1, 2, -72, 63, 20, -1, 62, -66, 39, -2, 3, -6, 14, 22, 47, 1, 8, -49, -1, -41, 2, 2, -6, -16, -64, -60, -34, 16, 54, 22, -7], "withholdReward": false, "trial_id": "mdp_trial_7", "block": "test", "trialIndex": 8, "score": 65.25, "costs": 0.25, "simulationMode": [null, null, null, null, null], "rewards": [-2, 3, -1, 2, 63], "path": ["0", "0", "1", "2", "3", "4", "6"], "rt": [5913, 1706, 1790, 1463, 794], "actions": ["up", "up", "up", "right", "right"], "actionTimes": [11050, 13268, 15570, 17541, 18897], "queries": {"click": {"state": {"target": ["1"], "time": [6531]}, "edge": {"target": [], "time": []}}, "mouseover": {"state": {"target": ["1"], "time": [5818]}, "edge": {"target": [], "time": []}}, "mouseout": {"state": {"target": ["11", "1", "1"], "time": [2982, 6734, 8517]}, "edge": {"target": [], "time": []}}}, "displayed_time": "19.45", "trialTime": 21801, "trial_type": "mouselab-mdp", "trial_index": 15, "time_elapsed": 779072, "internal_node_id": "0.0-6.0-1.0-6.0"}}, {"uniqueid": "w10990650:a88599542", "current_trial": 16, "dateTime": 1693566386548, "trialdata": {"revealed_states": [], "clicked_states": ["23"], "num_clicks_accrued": [0, 0, 0, 0, 0, 0, 0, 0, 0, 0, 0, 0, 0], "stateRewards": ["", -1, -2, 4, 9, 10, -75, 39, 16, -43, 88, -19, -1, 1, 2, 4, -31, 10, 73, 12, 41, -64, -81, -2, 2, -6, 1, -81, -1, -26, 3, -59, -3, -20], "withholdReward": false, "trial_id": "mdp_trial_8", "block": "test", "trialIndex": 9, "score": -85.75, "costs": 0.25, "simulationMode": [null, null, null, null, null], "rewards": [-2, 2, -6, 1, -81], "path": ["0", "0", "23", "24", "25", "26", "27"], "rt": [3676, 719, 615, 500, 476], "actions": ["left", "left", "left", "up", "up"], "actionTimes": [6692, 8007, 9137, 10443, 11609], "queries": {"click": {"state": {"target": ["23"], "time": [4376]}, "edge": {"target": [], "time": []}}, "mouseover": {"state": {"target": ["0", "23"], "time": [3262, 3878]}, "edge": {"target": [], "time": []}}, "mouseout": {"state": {"target": ["0", "0"], "time": [1939, 3779]}, "edge": {"target": [], "time": []}}}, "displayed_time": "17.02", "trialTime": 19689, "trial_type": "mouselab-mdp", "trial_index": 16, "time_elapsed": 800715, "internal_node_id": "0.0-6.0-1.0-7.0"}}, {"uniqueid": "w10990650:a88599542", "current_trial": 17, "dateTime": 1693566421709, "trialdata": {"revealed_states": [], "clicked_states": [], "num_clicks_accrued": [0, 0, 0, 0, 0, 0, 0, 0, 0, 0, 0, 0, 0], "stateRewards": ["", -1, -2, 8, -6, -79, -6, 87, 9, -5, -66, -38, 2, 2, 5, -6, -82, 74, 85, -8, 67, -30, -15, 1, -2, -2, -2, 87, 64, 49, 7, 2, -38, -9], "withholdReward": false, "trial_id": "mdp_trial_9", "block": "test", "trialIndex": 10, "score": -24, "costs": 0, "simulationMode": [null, null, null, null, null], "rewards": [-1, -2, 8, 9, -38], "path": ["0", "0", "1", "2", "3", "8", "11"], "rt": [5726, 278, 86, 602, 1645], "actions": ["up", "up", "up", "left", "left"], "actionTimes": [11423, 12307, 12889, 14016, 16207], "queries": {"click": {"state": {"target": [], "time": []}, "edge": {"target": [], "time": []}}, "mouseover": {"state": {"target": [], "time": []}, "edge": {"target": [], "time": []}}, "mouseout": {"state": {"target": ["23"], "time": [3556]}, "edge": {"target": [], "time": []}}}, "displayed_time": "19.91", "trialTime": 33052, "trial_type": "mouselab-mdp", "trial_index": 17, "time_elapsed": 835876, "internal_node_id": "0.0-6.0-1.0-8.0"}}, {"uniqueid": "w10990650:a88599542", "current_trial": 18, "dateTime": 1693566442169, "trialdata": {"revealed_states": [], "clicked_states": ["6"], "num_clicks_accrued": [0, 0, 0, 0, 0, 0, 0, 0, 0, 0, 0, 0, 0], "stateRewards": ["", 2, -3, -2, 14, -4, 85, 46, 15, -28, 41, 31, -1, -1, -1, 5, 62, 79, 57, 12, -73, -64, 86, -1, 1, -3, -5, 68, 11, -32, 8, -80, -21, -56], "withholdReward": false, "trial_id": "mdp_trial_10", "block": "test", "trialIndex": 11, "score": -18.15, "costs": -2.15, "simulationMode": [null, null, null, null, null], "rewards": [-1, 1, -3, 8, -21], "path": ["0", "0", "23", "24", "25", "30", "32"], "rt": [5974, 485, 378, 278, 186], "actions": ["left", "left", "left", "down", "down"], "actionTimes": [8782, 9785, 10683, 11539, 12307], "queries": {"click": {"state": {"target": ["6"], "time": [4705]}, "edge": {"target": [], "time": []}}, "mouseover": {"state": {"target": ["1", "7", "4", "6"], "time": [3355, 3388, 3454, 4155]}, "edge": {"target": [], "time": []}}, "mouseout": {"state": {"target": ["0", "1", "7", "4"], "time": [1469, 3380, 3421, 3488]}, "edge": {"target": [], "time": []}}}, "displayed_time": "16.82", "trialTime": 18337, "trial_type": "mouselab-mdp", "trial_index": 18, "time_elapsed": 856334, "internal_node_id": "0.0-6.0-1.0-9.0"}}, {"uniqueid": "w10990650:a88599542", "current_trial": 19, "dateTime": 1693566465627, "trialdata": {"revealed_states": [], "clicked_states": [], "num_clicks_accrued": [0, 0, 0, 0, 0, 0, 0, 0, 0, 0, 0, 0, 0], "stateRewards": ["", 1, -3, -1, 9, -34, -40, 22, -7, 45, 53, -11, 2, 4, 5, 15, 21, 37, -49, -3, 80, -28, -34, 1, -3, 1, 1, -40, -6, -5, -16, -85, -86, 59], "withholdReward": false, "trial_id": "mdp_trial_11", "block": "test", "trialIndex": 12, "score": 63, "costs": 0, "simulationMode": [null, null, null, null, null], "rewards": [2, 4, 5, 15, 37], "path": ["0", "0", "12", "13", "14", "15", "17"], "rt": [1603, 325, 324, 322, 665], "actions": ["right", "right", "right", "up", "right"], "actionTimes": [5823, 6664, 7545, 8394, 9613], "queries": {"click": {"state": {"target": [], "time": []}, "edge": {"target": [], "time": []}}, "mouseover": {"state": {"target": ["0"], "time": [4503]}, "edge": {"target": [], "time": []}}, "mouseout": {"state": {"target": ["6"], "time": [2489]}, "edge": {"target": [], "time": []}}}, "displayed_time": "18.23", "trialTime": 21661, "trial_type": "mouselab-mdp", "trial_index": 19, "time_elapsed": 879793, "internal_node_id": "0.0-6.0-1.0-10.0"}}, {"uniqueid": "w10990650:a88599542", "current_trial": 20, "dateTime": 1693566486550, "trialdata": {"revealed_states": [], "clicked_states": ["32"], "num_clicks_accrued": [0, 0, 0, 0, 0, 0, 0, 0, 0, 0, 0, 0, 0], "stateRewards": ["", -2, -4, -2, -13, -15, 87, -19, -6, -80, 30, 12, 1, 1, -8, 2, 55, 56, 15, 11, -68, -7, 55, -2, 3, -3, -3, 48, 62, 4, 1, -3, 69, -33], "withholdReward": false, "trial_id": "mdp_trial_12", "block": "test", "trialIndex": 13, "score": -42.15, "costs": -2.15, "simulationMode": [null, null, null, null, null], "rewards": [-2, -4, -2, -13, -19], "path": ["0", "0", "1", "2", "3", "4", "7"], "rt": [10100, 257, 176, 620, 918], "actions": ["up", "up", "up", "right", "down"], "actionTimes": [12162, 12963, 13675, 14917, 16352], "queries": {"click": {"state": {"target": ["32"], "time": [4616]}, "edge": {"target": [], "time": []}}, "mouseover": {"state": {"target": ["8", "26", "25", "30", "32"], "time": [3352, 3601, 3719, 3835, 4101]}, "edge": {"target": [], "time": []}}, "mouseout": {"state": {"target": ["0", "8", "26", "25", "30"], "time": [2835, 3418, 3668, 3801, 4001]}, "edge": {"target": [], "time": []}}}, "displayed_time": "16.88", "trialTime": 18978, "trial_type": "mouselab-mdp", "trial_index": 20, "time_elapsed": 900716, "internal_node_id": "0.0-6.0-1.0-11.0"}}, {"uniqueid": "w10990650:a88599542", "current_trial": 21, "dateTime": 1693566513010, "trialdata": {"revealed_states": [], "clicked_states": [], "num_clicks_accrued": [0, 0, 0, 0, 0, 0, 0, 0, 0, 0, 0, 0, 0], "stateRewards": ["", 1, -1, 8, 4, 76, -33, -17, -3, -1, -54, -74, -2, 2, -5, 13, -51, 63, 83, 1, 84, 29, -36, 2, -1, 7, -12, -10, -44, -43, -14, 8, -69, 19], "withholdReward": false, "trial_id": "mdp_trial_13", "block": "test", "trialIndex": 14, "score": 4, "costs": 0, "simulationMode": [null, null, null, null, null], "rewards": [1, -1, 8, -3, -1], "path": ["0", "0", "1", "2", "3", "8", "9"], "rt": [2194, 596, 614, 544, 42], "actions": ["up", "up", "up", "left", "up"], "actionTimes": [7289, 8406, 9531, 10605, 11178], "queries": {"click": {"state": {"target": [], "time": []}, "edge": {"target": [], "time": []}}, "mouseover": {"state": {"target": [], "time": []}, "edge": {"target": [], "time": []}}, "mouseout": {"state": {"target": ["32", "0"], "time": [2338, 2938]}, "edge": {"target": [], "time": []}}}, "displayed_time": "19.10", "trialTime": 24626, "trial_type": "mouselab-mdp", "trial_index": 21, "time_elapsed": 927177, "internal_node_id": "0.0-6.0-1.0-12.0"}}, {"uniqueid": "w10990650:a88599542", "current_trial": 22, "dateTime": 1693566533552, "trialdata": {"revealed_states": [], "clicked_states": ["2"], "num_clicks_accrued": [0, 0, 0, 0, 0, 0, 0, 0, 0, 0, 0, 0, 0], "stateRewards": ["", -1, 2, 6, 11, 21, -21, -21, -6, 48, -71, 88, -1, -3, 3, 7, 64, 2, 9, -4, 37, -67, 72, 2, 2, -8, -8, -10, 71, -40, -3, 73, 80, 47], "withholdReward": false, "trial_id": "mdp_trial_14", "block": "test", "trialIndex": 15, "score": 48.65, "costs": -0.35, "simulationMode": [null, null, null, null, null], "rewards": [-1, 2, 6, -6, 48], "path": ["0", "0", "1", "2", "3", "8", "9"], "rt": [4900, 108, 493, 831, 280], "actions": ["up", "up", "up", "left", "up"], "actionTimes": [7262, 7928, 8932, 10288, 11078], "queries": {"click": {"state": {"target": ["2"], "time": [4905]}, "edge": {"target": [], "time": []}}, "mouseover": {"state": {"target": ["1", "2", "3", "2", "2"], "time": [3122, 3502, 3562, 3977, 4336]}, "edge": {"target": [], "time": []}}, "mouseout": {"state": {"target": ["0", "1", "2", "3", "2"], "time": [3087, 3253, 3552, 3953, 4053]}, "edge": {"target": [], "time": []}}}, "displayed_time": "16.36", "trialTime": 18700, "trial_type": "mouselab-mdp", "trial_index": 22, "time_elapsed": 947719, "internal_node_id": "0.0-6.0-1.0-13.0"}}, {"uniqueid": "w10990650:a88599542", "current_trial": 23, "dateTime": 1693566555047, "trialdata": {"revealed_states": [], "clicked_states": [], "num_clicks_accrued": [0, 0, 0, 0, 0, 0, 0, 0, 0, 0, 0, 0, 0], "stateRewards": ["", 2, -1, 3, -12, -83, 6, -33, 9, 28, 24, -50, -2, -1, -2, -5, -87, 37, 82, 12, 80, -5, 10, -2, -3, -6, 9, 22, -1, 16, 9, 77, -62, 58], "withholdReward": false, "trial_id": "mdp_trial_15", "block": "test", "trialIndex": 16, "score": -37, "costs": 0, "simulationMode": [null, null, null, null, null], "rewards": [2, -1, 3, 9, -50], "path": ["0", "0", "1", "2", "3", "8", "11"], "rt": [1790, 195, 997, 882, 919], "actions": ["up", "up", "up", "left", "left"], "actionTimes": [5523, 6264, 7788, 9213, 10639], "queries": {"click": {"state": {"target": [], "time": []}, "edge": {"target": [], "time": []}}, "mouseover": {"state": {"target": ["0"], "time": [3780]}, "edge": {"target": [], "time": []}}, "mouseout": {"state": {"target": ["2", "1", "0", "1", "0"], "time": [757, 856, 1240, 1573, 4611]}, "edge": {"target": [], "time": []}}}, "displayed_time": "17.74", "trialTime": 19653, "trial_type": "mouselab-mdp", "trial_index": 23, "time_elapsed": 969214, "internal_node_id": "0.0-6.0-1.0-14.0"}}], "questiondata": {"params": {"CODE": "C6DMOQA6", "MIN_TIME": 14, "inspectCost": 1, "startTime": "Fri Sep 01 2023 12:53:02 GMT+0200 (South Africa Standard Time)", "bonusRate": 0.002, "variance": "1_2_4_8_44", "branching": "31123"}}, "eventdata": [{"eventtype": "initialized", "value": null, "timestamp": 1693565582109, "interval": 0}, {"eventtype": "window_resize", "value": [1024, 654], "timestamp": 1693565582109, "interval": 0}, {"eventtype": "window_resize", "value": [1024, 654], "timestamp": 1693565582750, "interval": 641}, {"eventtype": "window_resize", "value": [1366, 768], "timestamp": 1693565591438, "interval": 8688}], "useragent": "Mozilla/5.0 (Windows NT 10.0; Win64; x64) AppleWebKit/537.36 (KHTML, like Gecko) Chrome/116.0.0.0 Safari/537.36", "mode": "live", "id": "w10990650:a88599542", "status": "user data saved", "Beginhit": "2023-09-01 10:52:58.57458", "Beginexp": "2023-09-01 10:53:13.923284", "Endhit": null, "psiturkStatus": 2, "browser": "<redacted>", "platform": "windows", "language": "en-US", "excludeReason": "dataincomplete"}