{"condition": 1, "counterbalance": 0, "assignmentId": "a23872220", "workerId": "w67943223", "hitId": "h16249358", "currenttrial": 8, "bonus": 0, "data": [{"uniqueid": "w67943223:a23872220", "current_trial": 0, "dateTime": 1691159509822, "trialdata": {"success": true, "trial_type": "fullscreen", "trial_index": 0, "time_elapsed": 37085, "internal_node_id": "0.0-0.0"}}, {"uniqueid": "w67943223:a23872220", "current_trial": 1, "dateTime": 1691159548056, "trialdata": {"view_history": [{"page_index": 0, "viewing_time": 38222}], "rt": 38223, "trial_id": "exp_instructions_misaligned", "trial_type": "instructions", "trial_index": 1, "time_elapsed": 75321, "internal_node_id": "0.0-1.0"}}, {"uniqueid": "w67943223:a23872220", "current_trial": 2, "dateTime": 1691159553868, "trialdata": {"success": true, "trial_type": "fullscreen", "trial_index": 2, "time_elapsed": 81133, "internal_node_id": "0.0-2.0-0.0"}}, {"uniqueid": "w67943223:a23872220", "current_trial": 3, "dateTime": 1691160079184, "trialdata": {"view_history": [{"page_index": 0, "viewing_time": 234051}, {"page_index": 1, "viewing_time": 163064}, {"page_index": 2, "viewing_time": 78043}, {"page_index": 3, "viewing_time": 50154}], "rt": 525313, "trial_id": "mouselab_instructions_1_misaligned", "trial_type": "instructions", "trial_index": 3, "time_elapsed": 606449, "internal_node_id": "0.0-2.0-1.0"}}, {"uniqueid": "w67943223:a23872220", "current_trial": 4, "dateTime": 1691160105850, "trialdata": {"revealed_states": [], "clicked_states": [], "num_clicks_accrued": [0, 0, 0, 0, 0, 0, 0, 0, 0, 0, 0, 0, 0], "stateRewards": ["", -10, -10, 10, 10, 10, 10, -10, 10, -10, 10, -10, -10, -10, -10, -10, 10, 10, -10, 10, -10, 10, 10, 10, -10, -10, -10, -10, 10, -10, 10, 10, 10, -10], "withholdReward": false, "trial_id": "practice_1", "block": "test", "trialIndex": 0, "score": -6.5, "costs": 0, "simulationMode": [null, null, null, null, null], "rewards": [-10, -10, 10, 10, -10], "path": ["0", "0", "1", "2", "3", "8", "9"], "rt": [1838, 409, 237, 826, 944], "actions": ["up", "up", "up", "left", "up"], "actionTimes": [7252, 8159, 8904, 10225, 11660], "queries": {"click": {"state": {"target": [], "time": []}, "edge": {"target": [], "time": []}}, "mouseover": {"state": {"target": [], "time": []}, "edge": {"target": [], "time": []}}, "mouseout": {"state": {"target": ["0", "0", "0", "1", "2", "9", "9", "2"], "time": [4567, 5127, 18164, 18284, 20634, 21583, 24482, 24563]}, "edge": {"target": [], "time": []}}}, "displayed_time": "12.18", "trialTime": 25459, "trial_type": "mouselab-mdp", "trial_index": 4, "time_elapsed": 633114, "internal_node_id": "0.0-2.0-2.0-0.0"}}, {"uniqueid": "w67943223:a23872220", "current_trial": 5, "dateTime": 1691160124344, "trialdata": {"revealed_states": [], "clicked_states": [], "num_clicks_accrued": [0, 0, 0, 0, 0, 0, 0, 0, 0, 0, 0, 0, 0], "stateRewards": ["", 10, -10, 10, 10, 10, 10, 10, 10, -10, 10, -10, -10, -10, 10, 10, -10, -10, -10, -10, 10, 10, -10, 10, 10, 10, 10, -10, 10, 10, 10, 10, -10, -10], "withholdReward": false, "trial_id": "practice_2", "block": "test", "trialIndex": 1, "score": -6.5, "costs": 0, "simulationMode": [null, null, null, null, null], "rewards": [-10, -10, 10, -10, 10], "path": ["0", "0", "12", "13", "14", "19", "21"], "rt": [2393, 474, 603, 141, 329], "actions": ["right", "right", "right", "down", "down"], "actionTimes": [7132, 8111, 9224, 9878, 10700], "queries": {"click": {"state": {"target": [], "time": []}, "edge": {"target": [], "time": []}}, "mouseover": {"state": {"target": [], "time": []}, "edge": {"target": [], "time": []}}, "mouseout": {"state": {"target": ["0", "13", "14"], "time": [15721, 15734, 15751]}, "edge": {"target": [], "time": []}}}, "displayed_time": "11.21", "trialTime": 18276, "trial_type": "mouselab-mdp", "trial_index": 5, "time_elapsed": 651608, "internal_node_id": "0.0-2.0-2.0-1.0"}}, {"uniqueid": "w67943223:a23872220", "current_trial": 6, "dateTime": 1691160283389, "trialdata": {"view_history": [{"page_index": 0, "viewing_time": 81601}, {"page_index": 1, "viewing_time": 12531}, {"page_index": 0, "viewing_time": 60946}, {"page_index": 1, "viewing_time": 3960}], "rt": 159039, "trial_id": "mouselab_instructions_2_misaligned", "trial_type": "instructions", "trial_index": 6, "time_elapsed": 810654, "internal_node_id": "0.0-2.0-3.0"}}, {"uniqueid": "w67943223:a23872220", "current_trial": 7, "dateTime": 1691160411642, "trialdata": {"rt": 128246, "response": {"Q0": "The cost for clicking on nodes may vary between nodes.", "Q1": "The better I perform the higher my bonus will be.", "Q2": "No, the structure of the web will be different each time.", "Q3": "To finish the game in the shortest amount of time.", "Q4": "Only after moving the spider.", "Q5": "3 seconds"}, "question_order": [0, 1, 2, 3, 4, 5], "correct": {"Q0": "The cost for clicking on nodes may vary between nodes.", "Q1": "The better I perform the higher my bonus will be.", "Q2": "No, the amount of cash at each node of the web may be different each time.", "Q3": "To get the highest total score.", "Q4": "Only before moving the spider.", "Q5": "3 seconds"}, "trial_id": "mouselab_quiz_misaligned", "trial_type": "survey-multi-choice", "trial_index": 7, "time_elapsed": 938907, "internal_node_id": "0.0-2.0-4.0"}}], "questiondata": {"params": {"CODE": "C6DMOQA6", "MIN_TIME": 14, "inspectCost": 1, "startTime": "Fri Aug 04 2023 16:31:08 GMT+0200 (South Africa Standard Time)", "bonusRate": 0.002, "variance": "1_2_4_8_44", "branching": "31123"}}, "eventdata": [{"eventtype": "initialized", "value": null, "timestamp": 1691159467344, "interval": 0}, {"eventtype": "window_resize", "value": [1024, 694], "timestamp": 1691159467344, "interval": 0}, {"eventtype": "window_resize", "value": [1024, 694], "timestamp": 1691159467884, "interval": 540}, {"eventtype": "window_resize", "value": [1366, 768], "timestamp": 1691159509089, "interval": 41205}, {"eventtype": "window_resize", "value": [1024, 694], "timestamp": 1691160237919, "interval": 728830}, {"eventtype": "window_resize", "value": [1364, 710], "timestamp": 1691160243609, "interval": 5690}, {"eventtype": "focus", "value": "off", "timestamp": 1691160488845, "interval": 245236}, {"eventtype": "focus", "value": "on", "timestamp": 1691160488845, "interval": 0}, {"eventtype": "focus", "value": "off", "timestamp": 1691160494141, "interval": 5296}, {"eventtype": "focus", "value": "on", "timestamp": 1691160494146, "interval": 5}], "useragent": "Mozilla/5.0 (Windows NT 10.0; Win64; x64) AppleWebKit/537.36 (KHTML, like Gecko) Chrome/115.0.0.0 Safari/537.36", "mode": "live", "id": "w67943223:a23872220", "status": "user data saved", "Beginhit": "2023-08-04 14:31:02.493489", "Beginexp": "2023-08-04 14:31:51.364829", "Endhit": null, "psiturkStatus": 6, "browser": "<redacted>", "platform": "windows", "language": "en-US", "excludeReason": "quizfail"}