{"condition": 1, "counterbalance": 0, "assignmentId": "a32096643", "workerId": "w64797713", "hitId": "h43000832", "currenttrial": 56, "bonus": 0, "data": [{"uniqueid": "w64797713:a32096643", "current_trial": 0, "dateTime": 1693660452130, "trialdata": {"success": true, "trial_type": "fullscreen", "trial_index": 0, "time_elapsed": 8637, "internal_node_id": "0.0-0.0"}}, {"uniqueid": "w64797713:a32096643", "current_trial": 1, "dateTime": 1693660479564, "trialdata": {"view_history": [{"page_index": 0, "viewing_time": 27426}], "rt": 27427, "trial_id": "exp_instructions_misaligned", "trial_type": "instructions", "trial_index": 1, "time_elapsed": 36072, "internal_node_id": "0.0-1.0"}}, {"uniqueid": "w64797713:a32096643", "current_trial": 2, "dateTime": 1693660834612, "trialdata": {"view_history": [{"page_index": 0, "viewing_time": 135055}, {"page_index": 1, "viewing_time": 123839}, {"page_index": 2, "viewing_time": 39522}, {"page_index": 3, "viewing_time": 56629}], "rt": 355046, "trial_id": "mouselab_instructions_1_misaligned", "trial_type": "instructions", "trial_index": 2, "time_elapsed": 391120, "internal_node_id": "0.0-2.0-1.0"}}, {"uniqueid": "w64797713:a32096643", "current_trial": 3, "dateTime": 1693660863032, "trialdata": {"revealed_states": [], "clicked_states": ["1", "13", "23"], "num_clicks_accrued": [0, 0, 0, 0, 0, 0, 0, 0, 0, 0, 0, 0, 0], "stateRewards": ["", -10, 10, 10, 10, -10, -10, -10, 10, -10, -10, 10, 10, 10, -10, -10, 10, -10, 10, -10, -10, -10, 10, -10, -10, 10, -10, 10, 10, -10, 10, 10, -10, 10], "withholdReward": false, "trial_id": "practice_1", "block": "test", "trialIndex": 0, "score": -8, "costs": -1.5, "simulationMode": [null, null, null, null, null], "rewards": [10, 10, -10, -10, -10], "path": ["0", "0", "12", "13", "14", "19", "20"], "rt": [9572, 534, 1175, 1207, 395], "actions": ["right", "right", "right", "down", "right"], "actionTimes": [12993, 14030, 15707, 17428, 18332], "queries": {"click": {"state": {"target": ["1", "13", "23"], "time": [6075, 8101, 9729]}, "edge": {"target": [], "time": []}}, "mouseover": {"state": {"target": ["1", "13", "23", "0", "12", "12"], "time": [5119, 7656, 9345, 10784, 10865, 11416]}, "edge": {"target": [], "time": []}}, "mouseout": {"state": {"target": ["0", "0", "1", "13", "23", "0", "12", "12", "14", "17"], "time": [1105, 4948, 7406, 8997, 10750, 10833, 11049, 22901, 23344, 23812]}, "edge": {"target": [], "time": []}}}, "displayed_time": "18.84", "trialTime": 27423, "trial_type": "mouselab-mdp", "trial_index": 3, "time_elapsed": 419539, "internal_node_id": "0.0-2.0-2.0-0.0"}}, {"uniqueid": "w64797713:a32096643", "current_trial": 4, "dateTime": 1693660882380, "trialdata": {"revealed_states": [], "clicked_states": ["1", "23", "12"], "num_clicks_accrued": [0, 0, 0, 0, 0, 0, 0, 0, 0, 0, 0, 0, 0], "stateRewards": ["", 10, -10, 10, 10, 10, 10, 10, 10, 10, 10, 10, -10, 10, -10, 10, -10, -10, 10, -10, 10, 10, -10, 10, 10, -10, 10, -10, -10, 10, 10, 10, -10, -10], "withholdReward": false, "trial_id": "practice_2", "block": "test", "trialIndex": 1, "score": 12, "costs": -1.5, "simulationMode": [null, null, null, null, null], "rewards": [10, 10, -10, 10, -10], "path": ["0", "0", "23", "24", "25", "30", "33"], "rt": [6577, 772, 943, 896, 326], "actions": ["left", "left", "left", "down", "left"], "actionTimes": [8919, 10191, 11648, 13053, 13886], "queries": {"click": {"state": {"target": ["1", "23", "12"], "time": [4003, 5045, 6621]}, "edge": {"target": [], "time": []}}, "mouseover": {"state": {"target": ["1", "1", "23", "0", "12"], "time": [3264, 3617, 4521, 5823, 6137]}, "edge": {"target": [], "time": []}}, "mouseout": {"state": {"target": ["13", "12", "0", "1", "1", "23", "23", "0", "12", "23", "1"], "time": [1206, 1224, 2929, 3414, 4403, 5185, 5723, 5959, 6740, 16293, 16362]}, "edge": {"target": [], "time": []}}}, "displayed_time": "14.40", "trialTime": 18954, "trial_type": "mouselab-mdp", "trial_index": 4, "time_elapsed": 438887, "internal_node_id": "0.0-2.0-2.0-1.0"}}, {"uniqueid": "w64797713:a32096643", "current_trial": 5, "dateTime": 1693660953806, "trialdata": {"view_history": [{"page_index": 0, "viewing_time": 63286}, {"page_index": 1, "viewing_time": 8136}], "rt": 71423, "trial_id": "mouselab_instructions_2_misaligned", "trial_type": "instructions", "trial_index": 5, "time_elapsed": 510314, "internal_node_id": "0.0-2.0-3.0"}}, {"uniqueid": "w64797713:a32096643", "current_trial": 6, "dateTime": 1693661032022, "trialdata": {"rt": 78209, "response": {"Q0": "The cost for clicking on nodes may vary between nodes.", "Q1": "The better I perform the higher my bonus will be.", "Q2": "No, the amount of cash at each node of the web may be different each time.", "Q3": "To get the highest total score.", "Q4": "Only before moving the spider.", "Q5": "3 seconds"}, "question_order": [0, 1, 2, 3, 4, 5], "correct": {"Q0": "The cost for clicking on nodes may vary between nodes.", "Q1": "The better I perform the higher my bonus will be.", "Q2": "No, the amount of cash at each node of the web may be different each time.", "Q3": "To get the highest total score.", "Q4": "Only before moving the spider.", "Q5": "3 seconds"}, "trial_id": "mouselab_quiz_misaligned", "trial_type": "survey-multi-choice", "trial_index": 6, "time_elapsed": 588530, "internal_node_id": "0.0-2.0-4.0"}}, {"uniqueid": "w64797713:a32096643", "current_trial": 7, "dateTime": 1693661042736, "trialdata": {"rt": 10702, "response": {"Q0": "No"}, "question_order": [0], "trial_id": "repeat_check", "trial_type": "survey-multi-choice", "trial_index": 7, "time_elapsed": 599243, "internal_node_id": "0.0-4.0-0.0"}}, {"uniqueid": "w64797713:a32096643", "current_trial": 8, "dateTime": 1693661067880, "trialdata": {"rt": 25135, "stimulus": "\n<h1> Get ready to start the game! </h1>\n\nThank you for reading the instructions. Get ready start with the 40 rounds of this game.\n<br><br>\nIf you need to take a break, feel free to take one after the end of a round, before continuing to the next one.\n<br><br>\nRemember, the more money the spider gets, the bigger your bonus will be!\n<br><br>\n<div style='text-align: center;'>Press <code>space</code> to begin.</div>\n\n<br><br>\n(If, at any point, the <code>space</code> key does not take you to the next page, click once on the text and try again.)", "response": " ", "trial_id": "mdp_ready", "trial_type": "html-keyboard-response", "trial_index": 8, "time_elapsed": 624388, "internal_node_id": "0.0-6.0-0.0"}}, {"uniqueid": "w64797713:a32096643", "current_trial": 9, "dateTime": 1693661088705, "trialdata": {"revealed_states": [], "clicked_states": ["1", "23", "12"], "num_clicks_accrued": [0, 0, 0, 0, 0, 0, 0, 0, 0, 0, 0, 0, 0], "stateRewards": ["", 1, 1, -5, 10, -31, 73, 14, -8, -23, 63, -70, -1, 2, 8, 7, 25, -59, 27, -10, -40, -71, -15, -2, 3, -8, -5, -19, 77, -34, 7, 67, 63, 19], "withholdReward": false, "trial_id": "mdp_trial_1", "block": "test", "trialIndex": 2, "score": -23.25, "costs": 0.75, "simulationMode": [null, null, null, null, null], "rewards": [1, 1, -5, 10, -31], "path": ["0", "0", "1", "2", "3", "4", "5"], "rt": [6686, 719, 550, 871, 423], "actions": ["up", "up", "up", "right", "up"], "actionTimes": [9465, 10692, 11754, 13128, 14072], "queries": {"click": {"state": {"target": ["1", "23", "12"], "time": [4391, 5500, 6760]}, "edge": {"target": [], "time": []}}, "mouseover": {"state": {"target": ["1", "23", "0", "12", "1", "1"], "time": [3945, 4783, 6151, 6303, 7871, 8345]}, "edge": {"target": [], "time": []}}, "mouseout": {"state": {"target": ["0", "1", "23", "0", "12", "1", "1", "18", "15"], "time": [3846, 4757, 6093, 6227, 7763, 7921, 17324, 17777, 17796]}, "edge": {"target": [], "time": []}}}, "displayed_time": "16.78", "trialTime": 20353, "trial_type": "mouselab-mdp", "trial_index": 9, "time_elapsed": 645213, "internal_node_id": "0.0-6.0-1.0-0.0"}}, {"uniqueid": "w64797713:a32096643", "current_trial": 10, "dateTime": 1693661110520, "trialdata": {"revealed_states": [], "clicked_states": ["1", "2", "23", "24", "12", "13"], "num_clicks_accrued": [0, 0, 0, 0, 0, 0, 0, 0, 0, 0, 0, 0, 0], "stateRewards": ["", -1, 4, -8, 12, 14, 69, -8, 5, -72, -14, 56, -1, -1, -1, 9, 67, 19, 11, -9, -88, -58, 3, 2, -4, -8, 4, 62, 77, -74, 5, -31, 65, 88], "withholdReward": false, "trial_id": "mdp_trial_2", "block": "test", "trialIndex": 3, "score": 24.7, "costs": -0.29999999999999993, "simulationMode": [null, null, null, null, null], "rewards": [-1, -1, -1, 9, 19], "path": ["0", "0", "12", "13", "14", "15", "17"], "rt": [11244, 465, 443, 1325, 584], "actions": ["right", "right", "right", "up", "right"], "actionTimes": [13492, 14467, 15413, 17247, 18351], "queries": {"click": {"state": {"target": ["1", "2", "23", "24", "12", "13"], "time": [3466, 5016, 6681, 7843, 9458, 10804]}, "edge": {"target": [], "time": []}}, "mouseover": {"state": {"target": ["1", "2", "23", "24", "0", "12", "13", "13"], "time": [2868, 4523, 6393, 7531, 8874, 9200, 10076, 10407]}, "edge": {"target": [], "time": []}}, "mouseout": {"state": {"target": ["14", "22", "0", "1", "2", "2", "23", "24", "23", "0", "12", "13", "13", "12", "13", "14"], "time": [762, 797, 2751, 4292, 5831, 6092, 7265, 8819, 8870, 8950, 10022, 10156, 11743, 20223, 20310, 20393]}, "edge": {"target": [], "time": []}}}, "displayed_time": "18.86", "trialTime": 21393, "trial_type": "mouselab-mdp", "trial_index": 10, "time_elapsed": 667027, "internal_node_id": "0.0-6.0-1.0-1.0"}}, {"uniqueid": "w64797713:a32096643", "current_trial": 11, "dateTime": 1693661131858, "trialdata": {"revealed_states": [], "clicked_states": ["1", "2", "12", "13", "23", "24"], "num_clicks_accrued": [0, 0, 0, 0, 0, 0, 0, 0, 0, 0, 0, 0, 0], "stateRewards": ["", -1, -3, 1, -4, -48, -63, -49, -2, -84, -19, 65, 2, -2, -2, -12, -4, 59, 9, 6, 75, 69, -13, -1, -3, -3, -2, -37, -68, -36, 13, 32, 18, -14], "withholdReward": false, "trial_id": "mdp_trial_3", "block": "test", "trialIndex": 4, "score": 78.7, "costs": -0.29999999999999993, "simulationMode": [null, null, null, null, null], "rewards": [2, -2, -2, 6, 75], "path": ["0", "0", "12", "13", "14", "19", "20"], "rt": [11490, 451, 565, 538, 578], "actions": ["right", "right", "right", "down", "right"], "actionTimes": [13607, 14566, 15637, 16692, 17775], "queries": {"click": {"state": {"target": ["1", "2", "12", "13", "23", "24"], "time": [3330, 4776, 6586, 7638, 9192, 10162]}, "edge": {"target": [], "time": []}}, "mouseover": {"state": {"target": ["1", "2", "12", "12", "13", "0", "23", "24"], "time": [2887, 4409, 5812, 6229, 7137, 8623, 8886, 9791]}, "edge": {"target": [], "time": []}}, "mouseout": {"state": {"target": ["14", "12", "0", "1", "2", "12", "12", "13", "12", "0", "23"], "time": [913, 963, 2753, 3500, 5714, 5830, 7018, 8539, 8588, 8735, 9676]}, "edge": {"target": [], "time": []}}}, "displayed_time": "18.28", "trialTime": 20898, "trial_type": "mouselab-mdp", "trial_index": 11, "time_elapsed": 688365, "internal_node_id": "0.0-6.0-1.0-2.0"}}, {"uniqueid": "w64797713:a32096643", "current_trial": 12, "dateTime": 1693661152865, "trialdata": {"revealed_states": [], "clicked_states": ["12", "13", "14", "19", "23", "24", "1"], "num_clicks_accrued": [0, 0, 0, 0, 0, 0, 0, 0, 0, 0, 0, 0, 0], "stateRewards": ["", -1, 4, -6, -5, -22, -38, -38, -2, -56, 88, 14, -1, -1, -7, -6, 61, -60, 21, 11, 57, 31, -30, -2, -2, 6, -9, -44, -70, -44, -15, 34, 16, -78], "withholdReward": false, "trial_id": "mdp_trial_4", "block": "test", "trialIndex": 5, "score": -32.45, "costs": -2.4499999999999997, "simulationMode": [null, null, null, null, null], "rewards": [-1, 4, -6, -5, -22], "path": ["0", "0", "1", "2", "3", "4", "5"], "rt": [11687, 383, 470, 722, 206], "actions": ["up", "up", "up", "right", "up"], "actionTimes": [13733, 14635, 15617, 16838, 17558], "queries": {"click": {"state": {"target": ["12", "13", "14", "19", "23", "24", "1"], "time": [3286, 4399, 5561, 7126, 8673, 9819, 11202]}, "edge": {"target": [], "time": []}}, "mouseover": {"state": {"target": ["12", "13", "14", "19", "23", "24", "1", "1", "2"], "time": [2759, 3951, 5020, 6804, 8664, 9546, 10566, 10800, 12171]}, "edge": {"target": [], "time": []}}, "mouseout": {"state": {"target": ["24", "23", "12", "13", "14", "19", "23", "24", "1", "1"], "time": [1053, 1140, 3833, 4936, 6671, 8660, 8684, 10466, 10700, 11347]}, "edge": {"target": [], "time": []}}}, "displayed_time": "18.07", "trialTime": 20528, "trial_type": "mouselab-mdp", "trial_index": 12, "time_elapsed": 709372, "internal_node_id": "0.0-6.0-1.0-3.0"}}, {"uniqueid": "w64797713:a32096643", "current_trial": 13, "dateTime": 1693661170691, "trialdata": {"revealed_states": [], "clicked_states": ["1", "12", "23"], "num_clicks_accrued": [0, 0, 0, 0, 0, 0, 0, 0, 0, 0, 0, 0, 0], "stateRewards": ["", -1, 3, 2, 9, 41, 4, -46, -12, -54, -87, -25, 2, 3, -1, 11, -77, 12, -33, -9, -32, 35, 72, 1, 3, -7, 4, 37, 65, -73, 6, 77, -43, 8], "withholdReward": false, "trial_id": "mdp_trial_5", "block": "test", "trialIndex": 6, "score": 27.75, "costs": 0.75, "simulationMode": [null, null, null, null, null], "rewards": [2, 3, -1, 11, 12], "path": ["0", "0", "12", "13", "14", "15", "17"], "rt": [6111, 440, 360, 410, 209], "actions": ["right", "right", "right", "up", "right"], "actionTimes": [8283, 9230, 10101, 11019, 11738], "queries": {"click": {"state": {"target": ["1", "12", "23"], "time": [3151, 4718, 5964]}, "edge": {"target": [], "time": []}}, "mouseover": {"state": {"target": ["1", "12", "0", "23", "0"], "time": [2717, 4222, 5461, 5569, 7078]}, "edge": {"target": [], "time": []}}, "mouseout": {"state": {"target": ["2", "1", "0", "1", "12", "0", "23", "0", "12"], "time": [1064, 1164, 2534, 4091, 5445, 5548, 7046, 7113, 7245]}, "edge": {"target": [], "time": []}}}, "displayed_time": "16.17", "trialTime": 17344, "trial_type": "mouselab-mdp", "trial_index": 13, "time_elapsed": 727199, "internal_node_id": "0.0-6.0-1.0-4.0"}}, {"uniqueid": "w64797713:a32096643", "current_trial": 14, "dateTime": 1693661190720, "trialdata": {"revealed_states": [], "clicked_states": ["1", "23", "12"], "num_clicks_accrued": [0, 0, 0, 0, 0, 0, 0, 0, 0, 0, 0, 0, 0], "stateRewards": ["", 2, -4, 7, 3, 23, -42, 4, 7, -81, -33, 7, -2, -4, 5, -1, 50, -57, -14, -13, -14, 44, 55, -2, -2, 5, -2, 33, 1, 57, -13, -7, 58, 87], "withholdReward": false, "trial_id": "mdp_trial_6", "block": "test", "trialIndex": 7, "score": 31.75, "costs": 0.75, "simulationMode": [null, null, null, null, null], "rewards": [2, -4, 7, 3, 23], "path": ["0", "0", "1", "2", "3", "4", "5"], "rt": [6128, 223, 376, 1090, 720], "actions": ["up", "up", "up", "right", "up"], "actionTimes": [8201, 8937, 9824, 11428, 12658], "queries": {"click": {"state": {"target": ["1", "23", "12"], "time": [3652, 4949, 6283]}, "edge": {"target": [], "time": []}}, "mouseover": {"state": {"target": ["1", "23", "0", "12"], "time": [3110, 4486, 5535, 5853]}, "edge": {"target": [], "time": []}}, "mouseout": {"state": {"target": ["12", "0", "1", "23", "0"], "time": [1101, 2936, 4384, 5502, 5654]}, "edge": {"target": [], "time": []}}}, "displayed_time": "16.07", "trialTime": 19554, "trial_type": "mouselab-mdp", "trial_index": 14, "time_elapsed": 747227, "internal_node_id": "0.0-6.0-1.0-5.0"}}, {"uniqueid": "w64797713:a32096643", "current_trial": 15, "dateTime": 1693661225576, "trialdata": {"revealed_states": [], "clicked_states": ["1", "23", "12", "5", "17", "33", "27"], "num_clicks_accrued": [0, 0, 0, 0, 0, 0, 0, 0, 0, 0, 0, 0, 0], "stateRewards": ["", -2, 2, -2, -7, -50, -62, -45, 7, 36, -24, -72, -1, -1, 8, -1, -67, 20, -52, 2, 35, -50, 80, -1, 1, 6, -6, -70, 6, 88, 8, -47, 74, -19], "withholdReward": false, "trial_id": "mdp_trial_7", "block": "test", "trialIndex": 8, "score": 33.15, "costs": -7.85, "simulationMode": [null, null, null, null, null], "rewards": [-2, 2, -2, 7, 36], "path": ["0", "0", "1", "2", "3", "8", "9"], "rt": [22765, 278, 372, 471, 874], "actions": ["up", "up", "up", "left", "up"], "actionTimes": [24630, 25426, 26306, 27281, 28666], "queries": {"click": {"state": {"target": ["1", "23", "12", "5", "17", "33", "27"], "time": [2946, 4206, 5640, 7314, 11096, 14509, 17397]}, "edge": {"target": [], "time": []}}, "mouseover": {"state": {"target": ["1", "23", "0", "12", "3", "5", "9", "4", "6", "17", "20", "33", "29", "27", "11", "9", "3", "4", "18", "12"], "time": [2557, 3799, 4882, 5048, 6606, 6917, 8758, 9845, 9871, 10308, 12336, 14135, 15642, 17044, 18297, 18592, 20053, 20116, 20415, 20951]}, "edge": {"target": [], "time": []}}, "mouseout": {"state": {"target": ["12", "0", "1", "23", "0", "12", "3", "5", "9", "4", "6", "17", "20", "33", "29", "27", "11", "9", "3", "4", "18", "12"], "time": [932, 2426, 3479, 4833, 4951, 6370, 6808, 8391, 9761, 9866, 9887, 11965, 13704, 15210, 16861, 18214, 18366, 20004, 20096, 20156, 20866, 21001]}, "edge": {"target": [], "time": []}}}, "displayed_time": "29.18", "trialTime": 34343, "trial_type": "mouselab-mdp", "trial_index": 15, "time_elapsed": 782084, "internal_node_id": "0.0-6.0-1.0-6.0"}}, {"uniqueid": "w64797713:a32096643", "current_trial": 16, "dateTime": 1693661250325, "trialdata": {"revealed_states": [], "clicked_states": ["1", "23", "12", "20", "16"], "num_clicks_accrued": [0, 0, 0, 0, 0, 0, 0, 0, 0, 0, 0, 0, 0], "stateRewards": ["", -1, -3, -7, -4, -85, -70, 79, 8, 84, -66, 42, 2, -2, -3, -16, -54, -66, 68, -3, 21, -14, 7, -2, -1, -3, -8, 75, 80, 86, -7, -84, 73, -16], "withholdReward": false, "trial_id": "mdp_trial_8", "block": "test", "trialIndex": 9, "score": -88.55, "costs": -3.55, "simulationMode": [null, null, null, null, null], "rewards": [2, -2, -3, -16, -66], "path": ["0", "0", "12", "13", "14", "15", "17"], "rt": [12432, 366, 446, 880, 549], "actions": ["right", "right", "right", "up", "right"], "actionTimes": [14670, 15540, 16489, 17873, 18934], "queries": {"click": {"state": {"target": ["1", "23", "12", "20", "16"], "time": [3729, 4867, 6152, 8626, 11442]}, "edge": {"target": [], "time": []}}, "mouseover": {"state": {"target": ["1", "23", "0", "12", "15", "14", "20", "20", "17", "15", "16", "15", "14"], "time": [3036, 4399, 5495, 5595, 7280, 7364, 7681, 8008, 9604, 10977, 11108, 12865, 12979]}, "edge": {"target": [], "time": []}}, "mouseout": {"state": {"target": ["12", "0", "1", "23", "0", "12", "15", "14", "20", "20", "17", "15", "16", "15", "14"], "time": [1195, 2835, 4260, 5431, 5545, 7016, 7313, 7382, 7764, 9321, 10925, 10997, 12795, 12929, 12997]}, "edge": {"target": [], "time": []}}}, "displayed_time": "19.45", "trialTime": 24221, "trial_type": "mouselab-mdp", "trial_index": 16, "time_elapsed": 806832, "internal_node_id": "0.0-6.0-1.0-7.0"}}, {"uniqueid": "w64797713:a32096643", "current_trial": 17, "dateTime": 1693661281006, "trialdata": {"revealed_states": [], "clicked_states": ["1", "12", "23", "29", "20", "16", "5"], "num_clicks_accrued": [0, 0, 0, 0, 0, 0, 0, 0, 0, 0, 0, 0, 0], "stateRewards": ["", -2, 2, -1, -6, 22, 6, 6, -5, 70, -42, 65, 1, 3, 5, -6, -67, -9, 3, 14, 7, -62, -13, -2, 4, 1, 16, 42, -21, -52, -8, 32, 53, 81], "withholdReward": false, "trial_id": "mdp_trial_9", "block": "test", "trialIndex": 10, "score": 56.15, "costs": -7.85, "simulationMode": [null, null, null, null, null], "rewards": [-2, 2, -1, -5, 70], "path": ["0", "0", "1", "2", "3", "8", "9"], "rt": [18637, 476, 644, 1150, 412], "actions": ["up", "up", "up", "left", "up"], "actionTimes": [21181, 22165, 23320, 24976, 25892], "queries": {"click": {"state": {"target": ["1", "12", "23", "29", "20", "16", "5"], "time": [3962, 4987, 5970, 8047, 11572, 14484, 17265]}, "edge": {"target": [], "time": []}}, "mouseover": {"state": {"target": ["1", "12", "0", "23", "24", "25", "29", "33", "19", "20", "17", "17", "16", "6", "5", "9", "8", "2", "0"], "time": [3455, 4489, 5463, 5580, 6694, 6824, 7132, 8954, 10906, 11190, 12546, 12950, 14101, 15272, 15672, 18097, 19898, 19940, 20279]}, "edge": {"target": [], "time": []}}, "mouseout": {"state": {"target": ["14", "13", "12", "0", "1", "12", "0", "23", "24", "25", "29", "33", "19", "20", "17", "17", "16", "6", "5", "9", "8", "2"], "time": [1212, 1315, 1632, 3269, 4405, 5429, 5531, 6649, 6762, 7002, 8706, 10457, 11039, 12145, 12683, 14041, 15222, 15288, 17828, 19864, 19920, 19957]}, "edge": {"target": [], "time": []}}}, "displayed_time": "26.40", "trialTime": 30194, "trial_type": "mouselab-mdp", "trial_index": 17, "time_elapsed": 837513, "internal_node_id": "0.0-6.0-1.0-8.0"}}, {"uniqueid": "w64797713:a32096643", "current_trial": 18, "dateTime": 1693661298697, "trialdata": {"revealed_states": [], "clicked_states": ["1", "23", "12"], "num_clicks_accrued": [0, 0, 0, 0, 0, 0, 0, 0, 0, 0, 0, 0, 0], "stateRewards": ["", 2, 4, -5, 7, 81, 35, 6, 11, 14, -72, 42, -1, 2, 3, -7, -77, -44, -40, -15, -85, 51, -32, -2, -1, -5, 7, -74, 47, 52, 16, -49, 48, -46], "withholdReward": false, "trial_id": "mdp_trial_10", "block": "test", "trialIndex": 11, "score": -79.25, "costs": 0.75, "simulationMode": [null, null, null, null, null], "rewards": [-1, 2, 3, -7, -77], "path": ["0", "0", "12", "13", "14", "15", "16"], "rt": [6422, 549, 572, 577, 856], "actions": ["right", "right", "right", "up", "up"], "actionTimes": [7814, 8865, 9943, 11031, 12404], "queries": {"click": {"state": {"target": ["1", "23", "12"], "time": [2817, 3942, 5104]}, "edge": {"target": [], "time": []}}, "mouseover": {"state": {"target": ["1", "23", "0", "12"], "time": [2445, 3533, 4553, 4626]}, "edge": {"target": [], "time": []}}, "mouseout": {"state": {"target": ["0", "1", "23", "0"], "time": [2093, 3334, 4490, 4606]}, "edge": {"target": [], "time": []}}}, "displayed_time": "15.39", "trialTime": 17204, "trial_type": "mouselab-mdp", "trial_index": 18, "time_elapsed": 855205, "internal_node_id": "0.0-6.0-1.0-9.0"}}, {"uniqueid": "w64797713:a32096643", "current_trial": 19, "dateTime": 1693661320794, "trialdata": {"revealed_states": [], "clicked_states": ["12", "1", "23", "25", "29"], "num_clicks_accrued": [0, 0, 0, 0, 0, 0, 0, 0, 0, 0, 0, 0, 0], "stateRewards": ["", -2, -3, -7, 7, -54, -69, -4, -14, -77, 22, 40, -2, -1, 5, 6, -35, 50, -60, 10, -28, 75, 57, 1, -4, -2, 2, 68, 34, -18, 12, 3, -21, -43], "withholdReward": false, "trial_id": "mdp_trial_11", "block": "test", "trialIndex": 12, "score": -16.35, "costs": -2.3499999999999996, "simulationMode": [null, null, null, null, null], "rewards": [1, -4, -2, 12, -21], "path": ["0", "0", "23", "24", "25", "30", "32"], "rt": [10368, 401, 483, 733, 416], "actions": ["left", "left", "left", "down", "down"], "actionTimes": [12444, 13353, 14347, 15585, 16503], "queries": {"click": {"state": {"target": ["12", "1", "23", "25", "29"], "time": [3455, 4530, 5818, 7360, 8765]}, "edge": {"target": [], "time": []}}, "mouseover": {"state": {"target": ["12", "12", "1", "23", "24", "25", "29", "33", "30", "31", "0"], "time": [2846, 3045, 4118, 5507, 6822, 6911, 8347, 9619, 10883, 10923, 11492]}, "edge": {"target": [], "time": []}}, "mouseout": {"state": {"target": ["12", "12", "12", "1", "23", "24", "25", "29", "33", "30", "31"], "time": [1090, 2931, 3920, 5110, 6800, 6877, 8130, 9400, 10858, 10905, 10940]}, "edge": {"target": [], "time": []}}}, "displayed_time": "17.01", "trialTime": 21610, "trial_type": "mouselab-mdp", "trial_index": 19, "time_elapsed": 877301, "internal_node_id": "0.0-6.0-1.0-10.0"}}, {"uniqueid": "w64797713:a32096643", "current_trial": 20, "dateTime": 1693661339402, "trialdata": {"revealed_states": [], "clicked_states": ["1", "12", "23"], "num_clicks_accrued": [0, 0, 0, 0, 0, 0, 0, 0, 0, 0, 0, 0, 0], "stateRewards": ["", 1, 2, 7, 13, 88, -71, 27, 3, 60, 5, -53, -2, 2, -6, -1, -30, 79, 47, -4, -14, 46, 68, 1, 1, 8, 10, -14, 86, 48, -11, -67, -44, 5], "withholdReward": false, "trial_id": "mdp_trial_12", "block": "test", "trialIndex": 13, "score": 68.75, "costs": 0.75, "simulationMode": [null, null, null, null, null], "rewards": [1, 1, 8, 10, 48], "path": ["0", "0", "23", "24", "25", "26", "29"], "rt": [7949, 404, 475, 767, 479], "actions": ["left", "left", "left", "up", "left"], "actionTimes": [9864, 10784, 11781, 13047, 14029], "queries": {"click": {"state": {"target": ["1", "12", "23"], "time": [3851, 5061, 6629]}, "edge": {"target": [], "time": []}}, "mouseover": {"state": {"target": ["0", "1", "12", "0", "23", "24", "23"], "time": [3151, 3486, 4592, 5795, 5862, 5996, 6242]}, "edge": {"target": [], "time": []}}, "mouseout": {"state": {"target": ["0", "0", "1", "12", "0", "23", "24"], "time": [2718, 3335, 4376, 5744, 5831, 5928, 6192]}, "edge": {"target": [], "time": []}}}, "displayed_time": "15.92", "trialTime": 18103, "trial_type": "mouselab-mdp", "trial_index": 20, "time_elapsed": 895910, "internal_node_id": "0.0-6.0-1.0-11.0"}}, {"uniqueid": "w64797713:a32096643", "current_trial": 21, "dateTime": 1693661359662, "trialdata": {"revealed_states": [], "clicked_states": ["1", "23", "12", "25", "33"], "num_clicks_accrued": [0, 0, 0, 0, 0, 0, 0, 0, 0, 0, 0, 0, 0], "stateRewards": ["", -2, 2, 2, -6, 9, 37, 50, -13, -7, -18, -75, -2, -4, 4, 7, 23, -57, -66, -7, -81, -48, -76, 1, 1, -8, 1, 51, -2, 70, 14, 59, 71, -37], "withholdReward": false, "trial_id": "mdp_trial_13", "block": "test", "trialIndex": 14, "score": 62.65, "costs": -2.3499999999999996, "simulationMode": [null, null, null, null, null], "rewards": [1, 1, -8, 1, 70], "path": ["0", "0", "23", "24", "25", "26", "29"], "rt": [10615, 280, 425, 759, 222], "actions": ["left", "left", "left", "up", "left"], "actionTimes": [12479, 13261, 14191, 15460, 16206], "queries": {"click": {"state": {"target": ["1", "23", "12", "25", "33"], "time": [2880, 4005, 5131, 6859, 7970]}, "edge": {"target": [], "time": []}}, "mouseover": {"state": {"target": ["1", "23", "0", "12", "0", "24", "25", "33", "29", "27"], "time": [2480, 3586, 4574, 4771, 5975, 6108, 6389, 7579, 8817, 10005]}, "edge": {"target": [], "time": []}}, "mouseout": {"state": {"target": ["23", "0", "1", "23", "0", "12", "0", "23", "24", "25", "33", "29", "27"], "time": [924, 2312, 3453, 4522, 4640, 5948, 6009, 6059, 6206, 7496, 8138, 9820, 11284]}, "edge": {"target": [], "time": []}}}, "displayed_time": "16.71", "trialTime": 19764, "trial_type": "mouselab-mdp", "trial_index": 21, "time_elapsed": 916169, "internal_node_id": "0.0-6.0-1.0-12.0"}}, {"uniqueid": "w64797713:a32096643", "current_trial": 22, "dateTime": 1693661387576, "trialdata": {"revealed_states": [], "clicked_states": ["1", "23", "12", "27", "32", "20", "9"], "num_clicks_accrued": [0, 0, 0, 0, 0, 0, 0, 0, 0, 0, 0, 0, 0], "stateRewards": ["", -1, 2, 6, 11, 21, -21, -21, -6, 48, -71, 88, -1, -3, 3, 7, 64, 2, 9, -4, 37, -67, 72, 2, 2, -8, -8, -10, 71, -40, -3, 73, 80, 47], "withholdReward": false, "trial_id": "mdp_trial_14", "block": "test", "trialIndex": 15, "score": 58.15, "costs": -7.85, "simulationMode": [null, null, null, null, null], "rewards": [2, 2, -8, -3, 73], "path": ["0", "0", "23", "24", "25", "30", "31"], "rt": [17771, 707, 459, 735, 358], "actions": ["left", "left", "left", "down", "right"], "actionTimes": [19573, 20802, 21772, 23016, 23878], "queries": {"click": {"state": {"target": ["1", "23", "12", "27", "32", "20", "9"], "time": [3058, 3953, 5370, 6838, 10093, 13261, 16736]}, "edge": {"target": [], "time": []}}, "mouseover": {"state": {"target": ["1", "23", "0", "12", "0", "26", "27", "33", "32", "30", "29", "26", "28", "12", "22", "20", "17", "16", "6", "5", "9"], "time": [2544, 3602, 4485, 4957, 6109, 6241, 6488, 7658, 8749, 10736, 10868, 12160, 12190, 12255, 12289, 12641, 14009, 14999, 15035, 15232, 16328]}, "edge": {"target": [], "time": []}}, "mouseout": {"state": {"target": ["0", "1", "23", "0", "12", "0", "26", "27", "33", "32", "30", "29", "26", "28", "12", "22", "20", "17", "16", "6", "5", "9"], "time": [2342, 3483, 4385, 4606, 6078, 6129, 6390, 7346, 8646, 10702, 10754, 12126, 12183, 12207, 12272, 12310, 13858, 14965, 15018, 15056, 16244, 18140]}, "edge": {"target": [], "time": []}}}, "displayed_time": "24.39", "trialTime": 27393, "trial_type": "mouselab-mdp", "trial_index": 22, "time_elapsed": 944083, "internal_node_id": "0.0-6.0-1.0-13.0"}}, {"uniqueid": "w64797713:a32096643", "current_trial": 23, "dateTime": 1693661413960, "trialdata": {"revealed_states": [], "clicked_states": ["1", "23", "12", "17", "21", "18"], "num_clicks_accrued": [0, 0, 0, 0, 0, 0, 0, 0, 0, 0, 0, 0, 0], "stateRewards": ["", -2, 3, 3, -14, 62, 36, 49, 16, 11, 17, -84, 2, -1, 6, 2, -82, -73, 49, -6, -87, 48, 50, -1, -2, -1, -16, -11, 37, -44, 4, 55, 73, -10], "withholdReward": false, "trial_id": "mdp_trial_15", "block": "test", "trialIndex": 16, "score": 52.3, "costs": -5.699999999999999, "simulationMode": [null, null, null, null, null], "rewards": [2, -1, 6, 2, 49], "path": ["0", "0", "12", "13", "14", "15", "18"], "rt": [16019, 326, 398, 1125, 217], "actions": ["right", "right", "right", "up", "left"], "actionTimes": [17428, 18265, 19174, 20801, 21528], "queries": {"click": {"state": {"target": ["1", "23", "12", "17", "21", "18"], "time": [2444, 3497, 4756, 6825, 9749, 12905]}, "edge": {"target": [], "time": []}}, "mouseover": {"state": {"target": ["1", "23", "12", "12", "13", "15", "17", "16", "20", "21", "19", "14", "15", "16", "18", "13", "14"], "time": [1976, 3115, 4151, 4439, 6139, 6190, 6228, 7543, 8217, 9227, 10483, 10554, 10604, 10835, 12455, 14997, 15264]}, "edge": {"target": [], "time": []}}, "mouseout": {"state": {"target": ["0", "0", "1", "23", "12", "12", "13", "15", "17", "16", "17", "20", "21", "19", "14", "15", "16", "18", "13"], "time": [589, 1777, 2999, 3653, 4240, 6122, 6159, 6210, 6986, 7862, 7883, 9072, 10433, 10522, 10575, 10653, 12203, 14965, 15078]}, "edge": {"target": [], "time": []}}}, "displayed_time": "22.04", "trialTime": 25861, "trial_type": "mouselab-mdp", "trial_index": 23, "time_elapsed": 970468, "internal_node_id": "0.0-6.0-1.0-14.0"}}, {"uniqueid": "w64797713:a32096643", "current_trial": 24, "dateTime": 1693661438395, "trialdata": {"revealed_states": [], "clicked_states": ["1", "23", "12", "21", "20"], "num_clicks_accrued": [0, 0, 0, 0, 0, 0, 0, 0, 0, 0, 0, 0, 0], "stateRewards": ["", 1, 1, 1, -3, -7, -1, -41, -10, 20, -72, -63, 1, -4, -2, 2, -66, 30, -84, -2, 49, 23, 71, -1, -4, 4, -12, 67, 5, 18, -16, 88, 56, -5], "withholdReward": false, "trial_id": "mdp_trial_16", "block": "test", "trialIndex": 17, "score": 38.45, "costs": -3.55, "simulationMode": [null, null, null, null, null], "rewards": [1, -4, -2, -2, 49], "path": ["0", "0", "12", "13", "14", "19", "20"], "rt": [14686, 188, 332, 358, 765], "actions": ["right", "right", "right", "down", "right"], "actionTimes": [16748, 17437, 18270, 19127, 20401], "queries": {"click": {"state": {"target": ["1", "23", "12", "21", "20"], "time": [3174, 4237, 5387, 7139, 11371]}, "edge": {"target": [], "time": []}}, "mouseover": {"state": {"target": ["1", "23", "12", "13", "19", "21", "19", "14", "15", "16", "17", "20", "19", "5", "5", "6", "12"], "time": [2523, 3812, 4882, 6261, 6322, 6635, 7756, 7792, 7856, 8139, 9464, 10927, 12418, 12903, 13223, 14453, 15372]}, "edge": {"target": [], "time": []}}, "mouseout": {"state": {"target": ["14", "13", "12", "0", "0", "1", "23", "12", "13", "19", "21", "19", "14", "15", "16", "17", "20", "19", "5", "5", "6"], "time": [717, 768, 786, 869, 2422, 3598, 4727, 6238, 6281, 6395, 7722, 7773, 7810, 7990, 9147, 10459, 12368, 12439, 12971, 14353, 15321]}, "edge": {"target": [], "time": []}}}, "displayed_time": "20.91", "trialTime": 23928, "trial_type": "mouselab-mdp", "trial_index": 24, "time_elapsed": 994902, "internal_node_id": "0.0-6.0-1.0-15.0"}}, {"uniqueid": "w64797713:a32096643", "current_trial": 25, "dateTime": 1693661469729, "trialdata": {"revealed_states": [], "clicked_states": ["12", "1", "23", "29", "33", "20"], "num_clicks_accrued": [0, 0, 0, 0, 0, 0, 0, 0, 0, 0, 0, 0, 0], "stateRewards": ["", -2, -4, -6, 12, -58, -70, -80, 2, 16, -88, -62, 1, 2, -5, 11, 77, -35, -44, -5, 18, -83, 87, 1, -3, -5, 13, -44, -21, -86, 10, -52, 8, 29], "withholdReward": false, "trial_id": "mdp_trial_17", "block": "test", "trialIndex": 18, "score": -85.7, "costs": -5.699999999999999, "simulationMode": [null, null, null, null, null], "rewards": [1, -3, -5, 13, -86], "path": ["0", "0", "23", "24", "25", "26", "29"], "rt": [20303, 399, 399, 837, 396], "actions": ["left", "left", "left", "up", "left"], "actionTimes": [21717, 22619, 23523, 24864, 25773], "queries": {"click": {"state": {"target": ["12", "1", "23", "29", "33", "20"], "time": [2788, 3938, 5812, 7817, 11309, 16174]}, "edge": {"target": [], "time": []}}, "mouseover": {"state": {"target": ["12", "1", "23", "23", "24", "26", "29", "33", "30", "31", "21", "20", "22", "0"], "time": [2415, 3519, 4590, 5454, 6859, 7175, 7275, 8934, 12075, 12103, 12659, 15496, 19955, 20472]}, "edge": {"target": [], "time": []}}, "mouseout": {"state": {"target": ["12", "0", "12", "1", "1", "23", "23", "24", "26", "29", "33", "30", "31", "21", "20", "22"], "time": [566, 2295, 3369, 4091, 4542, 5137, 6829, 6908, 7192, 8665, 12056, 12096, 12118, 15410, 19672, 19990]}, "edge": {"target": [], "time": []}}}, "displayed_time": "26.28", "trialTime": 30845, "trial_type": "mouselab-mdp", "trial_index": 25, "time_elapsed": 1026236, "internal_node_id": "0.0-6.0-1.0-16.0"}}, {"uniqueid": "w64797713:a32096643", "current_trial": 26, "dateTime": 1693661501186, "trialdata": {"revealed_states": [], "clicked_states": ["1", "23", "12", "21", "20", "17", "16"], "num_clicks_accrued": [0, 0, 0, 0, 0, 0, 0, 0, 0, 0, 0, 0, 0], "stateRewards": ["", -2, 4, 3, 5, -61, 4, 30, 1, -47, 83, 10, 1, 4, 7, -14, 19, -74, -83, 6, -2, -2, -65, -1, -2, 4, -11, 12, -1, -68, 11, -38, -28, 66], "withholdReward": false, "trial_id": "mdp_trial_18", "block": "test", "trialIndex": 19, "score": 9.15, "costs": -7.85, "simulationMode": [null, null, null, null, null], "rewards": [1, 4, 7, -14, 19], "path": ["0", "0", "12", "13", "14", "15", "16"], "rt": [22159, 204, 309, 858, 186], "actions": ["right", "right", "right", "up", "up"], "actionTimes": [23877, 24588, 25408, 26776, 27473], "queries": {"click": {"state": {"target": ["1", "23", "12", "21", "20", "17", "16"], "time": [3184, 4369, 5865, 7824, 11248, 15080, 18495]}, "edge": {"target": [], "time": []}}, "mouseover": {"state": {"target": ["1", "23", "0", "12", "19", "21", "20", "17", "16", "15", "13", "12", "12"], "time": [2840, 4013, 4861, 5388, 6745, 7136, 8691, 14686, 16381, 22235, 22337, 22420, 22687]}, "edge": {"target": [], "time": []}}, "mouseout": {"state": {"target": ["0", "1", "23", "0", "12", "19", "21", "20", "17", "16", "15", "13", "12"], "time": [2481, 3645, 4823, 4894, 6698, 6770, 8591, 14451, 16277, 22202, 22271, 22371, 22455]}, "edge": {"target": [], "time": []}}}, "displayed_time": "27.98", "trialTime": 30969, "trial_type": "mouselab-mdp", "trial_index": 26, "time_elapsed": 1057693, "internal_node_id": "0.0-6.0-1.0-17.0"}}, {"uniqueid": "w64797713:a32096643", "current_trial": 27, "dateTime": 1693661522028, "trialdata": {"revealed_states": [], "clicked_states": ["12", "1", "23", "29"], "num_clicks_accrued": [0, 0, 0, 0, 0, 0, 0, 0, 0, 0, 0, 0, 0], "stateRewards": ["", -1, 1, 8, -8, -49, 62, -78, 16, 28, -81, 78, -2, -3, -1, -4, 67, 49, -2, -13, -16, -39, 83, 1, -4, 4, -5, -20, 7, 84, 7, -32, -59, 19], "withholdReward": false, "trial_id": "mdp_trial_19", "block": "test", "trialIndex": 20, "score": 78.6, "costs": -1.4, "simulationMode": [null, null, null, null, null], "rewards": [1, -4, 4, -5, 84], "path": ["0", "0", "23", "24", "25", "26", "29"], "rt": [10435, 319, 412, 725, 149], "actions": ["left", "left", "left", "up", "left"], "actionTimes": [12254, 13092, 14032, 15266, 15922], "queries": {"click": {"state": {"target": ["12", "1", "23", "29"], "time": [3150, 4337, 5560, 7274]}, "edge": {"target": [], "time": []}}, "mouseover": {"state": {"target": ["12", "1", "23", "24", "29", "25", "24"], "time": [2766, 3790, 5141, 6626, 6776, 10901, 10971]}, "edge": {"target": [], "time": []}}, "mouseout": {"state": {"target": ["12", "0", "12", "1", "23", "24", "29", "25", "24"], "time": [743, 2631, 3657, 5025, 6609, 6642, 8803, 10936, 18167]}, "edge": {"target": [], "time": []}}}, "displayed_time": "16.43", "trialTime": 20295, "trial_type": "mouselab-mdp", "trial_index": 27, "time_elapsed": 1078535, "internal_node_id": "0.0-6.0-1.0-18.0"}}, {"uniqueid": "w64797713:a32096643", "current_trial": 28, "dateTime": 1693661558190, "trialdata": {"revealed_states": [], "clicked_states": ["12", "1", "23", "21", "20", "17", "16", "18"], "num_clicks_accrued": [0, 0, 0, 0, 0, 0, 0, 0, 0, 0, 0, 0, 0], "stateRewards": ["", -2, -3, 8, 14, -73, 73, 84, -12, -2, -50, -17, 2, 1, -2, -9, -44, -27, -33, 16, -63, -47, -66, -2, 1, 4, -5, -33, -11, 50, 9, 38, -79, 31], "withholdReward": false, "trial_id": "mdp_trial_20", "block": "test", "trialIndex": 21, "score": -45, "costs": -10, "simulationMode": [null, null, null, null, null], "rewards": [-2, 1, 4, -5, -33], "path": ["0", "0", "23", "24", "25", "26", "27"], "rt": [25080, 395, 404, 717, 162], "actions": ["left", "left", "left", "up", "up"], "actionTimes": [27066, 27971, 28892, 30114, 30779], "queries": {"click": {"state": {"target": ["12", "1", "23", "21", "20", "17", "16", "18"], "time": [3324, 4645, 5796, 7755, 11009, 15116, 18597, 22327]}, "edge": {"target": [], "time": []}}, "mouseover": {"state": {"target": ["12", "1", "23", "13", "14", "19", "21", "21", "20", "17", "17", "16", "18"], "time": [2840, 3977, 5355, 6689, 6760, 6851, 6954, 7288, 8962, 14506, 14742, 17532, 22040]}, "edge": {"target": [], "time": []}}, "mouseout": {"state": {"target": ["0", "12", "1", "23", "13", "14", "19", "21", "21", "20", "17", "17", "16"], "time": [2658, 3869, 5256, 5930, 6723, 6781, 6921, 7087, 8563, 14411, 14572, 15259, 21772]}, "edge": {"target": [], "time": []}}}, "displayed_time": "31.29", "trialTime": 35516, "trial_type": "mouselab-mdp", "trial_index": 28, "time_elapsed": 1114697, "internal_node_id": "0.0-6.0-1.0-19.0"}}, {"uniqueid": "w64797713:a32096643", "current_trial": 29, "dateTime": 1693661585607, "trialdata": {"revealed_states": [], "clicked_states": ["1", "23", "12", "29", "27", "32"], "num_clicks_accrued": [0, 0, 0, 0, 0, 0, 0, 0, 0, 0, 0, 0, 0], "stateRewards": ["", 1, 1, -6, -2, 7, 77, 3, 16, -16, 66, 31, -1, 3, -8, -6, 33, -50, -48, 7, -60, -66, 36, 2, -3, 3, -7, -12, -61, -79, -4, 8, 74, -70], "withholdReward": false, "trial_id": "mdp_trial_21", "block": "test", "trialIndex": 22, "score": 66.3, "costs": -5.699999999999999, "simulationMode": [null, null, null, null, null], "rewards": [2, -3, 3, -4, 74], "path": ["0", "0", "23", "24", "25", "30", "32"], "rt": [19502, 242, 328, 335, 336], "actions": ["left", "left", "left", "down", "down"], "actionTimes": [21205, 21950, 22786, 23628, 24465], "queries": {"click": {"state": {"target": ["1", "23", "12", "29", "27", "32"], "time": [2899, 4243, 5981, 8391, 11943, 16097]}, "edge": {"target": [], "time": []}}, "mouseover": {"state": {"target": ["1", "23", "12", "23", "24", "25", "29", "27", "26", "25", "30", "32", "31"], "time": [2470, 3848, 5662, 7316, 7383, 7433, 7934, 9530, 14834, 14935, 15085, 15486, 19228]}, "edge": {"target": [], "time": []}}, "mouseout": {"state": {"target": ["18", "1", "23", "12", "23", "24", "25", "29", "27", "26", "25", "30", "32"], "time": [682, 3549, 4388, 7224, 7350, 7401, 7800, 9352, 14784, 14902, 15001, 15418, 16252]}, "edge": {"target": [], "time": []}}}, "displayed_time": "24.96", "trialTime": 26859, "trial_type": "mouselab-mdp", "trial_index": 29, "time_elapsed": 1142114, "internal_node_id": "0.0-6.0-1.0-20.0"}}, {"uniqueid": "w64797713:a32096643", "current_trial": 30, "dateTime": 1693661608566, "trialdata": {"revealed_states": [], "clicked_states": ["1", "23", "12", "29", "33"], "num_clicks_accrued": [0, 0, 0, 0, 0, 0, 0, 0, 0, 0, 0, 0, 0], "stateRewards": ["", 1, 3, 1, -13, 52, -28, 67, -14, 3, 63, -70, -1, -4, 7, -11, -10, 47, -18, 6, 69, -9, -61, 2, 3, -6, 10, 63, -34, 40, -6, -79, -35, -32], "withholdReward": false, "trial_id": "mdp_trial_22", "block": "test", "trialIndex": 23, "score": 45.45, "costs": -3.55, "simulationMode": [null, null, null, null, null], "rewards": [2, 3, -6, 10, 40], "path": ["0", "0", "23", "24", "25", "26", "29"], "rt": [14145, 222, 320, 521, 194], "actions": ["left", "left", "left", "up", "left"], "actionTimes": [16053, 16790, 17617, 18640, 19345], "queries": {"click": {"state": {"target": ["1", "23", "12", "29", "33"], "time": [3254, 4502, 6008, 7966, 11429]}, "edge": {"target": [], "time": []}}, "mouseover": {"state": {"target": ["1", "23", "12", "24", "28", "26", "29", "33"], "time": [2789, 3996, 5332, 7168, 7237, 7270, 7508, 9061]}, "edge": {"target": [], "time": []}}, "mouseout": {"state": {"target": ["31", "0", "1", "23", "12", "12", "24", "28", "26", "29"], "time": [734, 2672, 3813, 5199, 6161, 7026, 7187, 7255, 7385, 8857]}, "edge": {"target": [], "time": []}}}, "displayed_time": "19.86", "trialTime": 22420, "trial_type": "mouselab-mdp", "trial_index": 30, "time_elapsed": 1165073, "internal_node_id": "0.0-6.0-1.0-21.0"}}, {"uniqueid": "w64797713:a32096643", "current_trial": 31, "dateTime": 1693661642706, "trialdata": {"revealed_states": [], "clicked_states": ["1", "23", "12", "16", "17", "20", "21", "33"], "num_clicks_accrued": [0, 0, 0, 0, 0, 0, 0, 0, 0, 0, 0, 0, 0], "stateRewards": ["", -2, -4, 6, 14, -34, 49, 36, -8, -3, 32, -4, 1, -2, 1, -8, -20, -71, -57, -7, -86, -62, -16, -2, -3, -5, 11, 23, -21, 53, 5, -5, 85, 73], "withholdReward": false, "trial_id": "mdp_trial_23", "block": "test", "trialIndex": 24, "score": 58, "costs": -10, "simulationMode": [null, null, null, null, null], "rewards": [-2, -3, -5, 5, 73], "path": ["0", "0", "23", "24", "25", "30", "33"], "rt": [25822, 175, 309, 258, 268], "actions": ["left", "left", "left", "down", "left"], "actionTimes": [27949, 28637, 29454, 30222, 31000], "queries": {"click": {"state": {"target": ["1", "23", "12", "16", "17", "20", "21", "33"], "time": [3241, 4659, 5870, 8149, 11844, 15370, 19183, 23508]}, "edge": {"target": [], "time": []}}, "mouseover": {"state": {"target": ["1", "23", "12", "13", "15", "16", "16", "17", "20", "20", "21", "32", "33"], "time": [2760, 4133, 5284, 7005, 7056, 7423, 7740, 9747, 12988, 13255, 18821, 22757, 23091]}, "edge": {"target": [], "time": []}}, "mouseout": {"state": {"target": ["33", "30", "31", "0", "1", "1", "23", "12", "13", "15", "16", "16", "17", "17", "20", "20", "21", "32"], "time": [852, 902, 938, 2676, 3360, 3799, 5161, 6972, 7024, 7122, 7490, 8891, 11969, 12688, 13005, 18532, 22640, 22792]}, "edge": {"target": [], "time": []}}}, "displayed_time": "31.51", "trialTime": 33576, "trial_type": "mouselab-mdp", "trial_index": 31, "time_elapsed": 1199213, "internal_node_id": "0.0-6.0-1.0-22.0"}}, {"uniqueid": "w64797713:a32096643", "current_trial": 32, "dateTime": 1693661671287, "trialdata": {"revealed_states": [], "clicked_states": ["1", "23", "12", "9", "5", "6"], "num_clicks_accrued": [0, 0, 0, 0, 0, 0, 0, 0, 0, 0, 0, 0, 0], "stateRewards": ["", 2, -1, 1, 10, -52, 86, -22, -2, -14, -63, 38, 1, 3, 7, -8, 11, -32, -27, 9, -71, 40, -87, -2, -1, 5, -7, 12, 31, -57, 13, 86, -58, 29], "withholdReward": false, "trial_id": "mdp_trial_24", "block": "test", "trialIndex": 25, "score": 92.3, "costs": -5.699999999999999, "simulationMode": [null, null, null, null, null], "rewards": [2, -1, 1, 10, 86], "path": ["0", "0", "1", "2", "3", "4", "6"], "rt": [20352, 191, 213, 545, 192], "actions": ["up", "up", "up", "right", "right"], "actionTimes": [22241, 22936, 23659, 24711, 25414], "queries": {"click": {"state": {"target": ["1", "23", "12", "9", "5", "6"], "time": [3508, 4988, 6543, 8367, 12538, 16869]}, "edge": {"target": [], "time": []}}, "mouseover": {"state": {"target": ["1", "23", "0", "12", "2", "3", "9", "5", "6"], "time": [2909, 4314, 5822, 5903, 7736, 7804, 7920, 12062, 16274]}, "edge": {"target": [], "time": []}}, "mouseout": {"state": {"target": ["33", "30", "31", "23", "0", "1", "23", "0", "12", "2", "3", "9", "5"], "time": [622, 668, 702, 786, 2755, 4132, 5751, 5853, 7654, 7770, 7837, 9682, 16006]}, "edge": {"target": [], "time": []}}}, "displayed_time": "25.92", "trialTime": 28023, "trial_type": "mouselab-mdp", "trial_index": 32, "time_elapsed": 1227794, "internal_node_id": "0.0-6.0-1.0-23.0"}}, {"uniqueid": "w64797713:a32096643", "current_trial": 33, "dateTime": 1693661690034, "trialdata": {"revealed_states": [], "clicked_states": ["1", "12", "23", "6"], "num_clicks_accrued": [0, 0, 0, 0, 0, 0, 0, 0, 0, 0, 0, 0, 0], "stateRewards": ["", 1, -4, 6, -3, 40, 76, -51, 5, -24, -63, 44, -2, -2, 8, 1, 76, -85, -58, 10, 59, 20, 11, -2, 3, -3, 3, -82, -10, 54, -7, -57, -6, -32], "withholdReward": false, "trial_id": "mdp_trial_25", "block": "test", "trialIndex": 26, "score": 74.6, "costs": -1.4, "simulationMode": [null, null, null, null, null], "rewards": [1, -4, 6, -3, 76], "path": ["0", "0", "1", "2", "3", "4", "6"], "rt": [10960, 164, 198, 587, 256], "actions": ["up", "up", "up", "right", "right"], "actionTimes": [12789, 13467, 14174, 15273, 16035], "queries": {"click": {"state": {"target": ["1", "12", "23", "6"], "time": [3176, 4533, 6029, 8232]}, "edge": {"target": [], "time": []}}, "mouseover": {"state": {"target": ["1", "12", "0", "23", "1", "4", "6"], "time": [2606, 3915, 5250, 5339, 7136, 7433, 7669]}, "edge": {"target": [], "time": []}}, "mouseout": {"state": {"target": ["6", "7", "0", "1", "12", "0", "23", "1", "4"], "time": [616, 717, 2454, 3813, 5216, 5287, 7048, 7154, 7502]}, "edge": {"target": [], "time": []}}}, "displayed_time": "16.55", "trialTime": 18216, "trial_type": "mouselab-mdp", "trial_index": 33, "time_elapsed": 1246541, "internal_node_id": "0.0-6.0-1.0-24.0"}}, {"uniqueid": "w64797713:a32096643", "current_trial": 34, "dateTime": 1693661709657, "trialdata": {"revealed_states": [], "clicked_states": ["1", "23", "12", "17"], "num_clicks_accrued": [0, 0, 0, 0, 0, 0, 0, 0, 0, 0, 0, 0, 0], "stateRewards": ["", -2, 4, -5, -12, 85, -24, -18, -15, -78, -22, 26, -1, -1, 2, 14, -45, 52, -23, 7, -33, 24, -6, -2, -4, 5, -7, -16, 36, -39, 5, 71, -87, -23], "withholdReward": false, "trial_id": "mdp_trial_26", "block": "test", "trialIndex": 27, "score": 64.6, "costs": -1.4, "simulationMode": [null, null, null, null, null], "rewards": [-1, -1, 2, 14, 52], "path": ["0", "0", "12", "13", "14", "15", "17"], "rt": [11935, 207, 315, 527, 136], "actions": ["right", "right", "right", "up", "right"], "actionTimes": [13704, 14414, 15241, 16273, 16916], "queries": {"click": {"state": {"target": ["1", "23", "12", "17"], "time": [3228, 4819, 6312, 9030]}, "edge": {"target": [], "time": []}}, "mouseover": {"state": {"target": ["1", "23", "0", "12", "13", "15", "17"], "time": [2857, 4344, 5591, 5712, 7969, 8388, 8671]}, "edge": {"target": [], "time": []}}, "mouseout": {"state": {"target": ["6", "7", "1", "0", "1", "23", "0", "12", "13", "15"], "time": [550, 583, 685, 2505, 4264, 5555, 5640, 7802, 8320, 8421]}, "edge": {"target": [], "time": []}}}, "displayed_time": "17.42", "trialTime": 18996, "trial_type": "mouselab-mdp", "trial_index": 34, "time_elapsed": 1266165, "internal_node_id": "0.0-6.0-1.0-25.0"}}, {"uniqueid": "w64797713:a32096643", "current_trial": 35, "dateTime": 1693661734998, "trialdata": {"revealed_states": [], "clicked_states": ["1", "23", "12", "29", "27"], "num_clicks_accrued": [0, 0, 0, 0, 0, 0, 0, 0, 0, 0, 0, 0, 0], "stateRewards": ["", 1, 2, 8, -2, 23, -69, -18, -16, 54, -21, 71, -1, -4, 7, 11, 43, -6, 88, 6, -55, 72, 43, 1, -3, -2, -1, 68, -31, -54, 4, -8, 25, -2], "withholdReward": false, "trial_id": "mdp_trial_27", "block": "test", "trialIndex": 28, "score": 59.45, "costs": -3.55, "simulationMode": [null, null, null, null, null], "rewards": [1, -3, -2, -1, 68], "path": ["0", "0", "23", "24", "25", "26", "27"], "rt": [16918, 215, 313, 693, 292], "actions": ["left", "left", "left", "up", "up"], "actionTimes": [18776, 19490, 20327, 21527, 22335], "queries": {"click": {"state": {"target": ["1", "23", "12", "29", "27"], "time": [3360, 4926, 6713, 9618, 13683]}, "edge": {"target": [], "time": []}}, "mouseover": {"state": {"target": ["1", "23", "0", "12", "0", "23", "24", "25", "29", "27", "26"], "time": [2726, 4417, 5957, 6086, 8526, 8579, 8676, 8777, 9261, 13288, 16630]}, "edge": {"target": [], "time": []}}, "mouseout": {"state": {"target": ["17", "15", "12", "1", "1", "23", "0", "12", "0", "23", "24", "25", "29", "27", "27", "26"], "time": [660, 705, 956, 3466, 3976, 5923, 6003, 8492, 8575, 8644, 8746, 9145, 13069, 13820, 16579, 17531]}, "edge": {"target": [], "time": []}}}, "displayed_time": "22.83", "trialTime": 24727, "trial_type": "mouselab-mdp", "trial_index": 35, "time_elapsed": 1291505, "internal_node_id": "0.0-6.0-1.0-26.0"}}, {"uniqueid": "w64797713:a32096643", "current_trial": 36, "dateTime": 1693661766947, "trialdata": {"revealed_states": [], "clicked_states": ["1", "12", "23", "27", "29", "33", "32"], "num_clicks_accrued": [0, 0, 0, 0, 0, 0, 0, 0, 0, 0, 0, 0, 0], "stateRewards": ["", -2, -3, 1, -14, 48, -49, 67, -1, -35, -48, 3, -2, 1, -4, -5, 86, -84, 39, 1, 48, 41, -42, -1, -4, 2, -7, 18, -86, 17, 7, -9, 57, -69], "withholdReward": false, "trial_id": "mdp_trial_28", "block": "test", "trialIndex": 29, "score": 53.15, "costs": -7.85, "simulationMode": [null, null, null, null, null], "rewards": [-1, -4, 2, 7, 57], "path": ["0", "0", "23", "24", "25", "30", "32"], "rt": [23715, 196, 358, 256, 337], "actions": ["left", "left", "left", "down", "down"], "actionTimes": [25535, 26246, 27124, 27905, 28739], "queries": {"click": {"state": {"target": ["1", "12", "23", "27", "29", "33", "32"], "time": [3171, 4652, 6207, 8105, 12199, 16436, 20441]}, "edge": {"target": [], "time": []}}, "mouseover": {"state": {"target": ["1", "12", "0", "23", "27", "29", "33", "32"], "time": [2583, 4290, 5539, 5678, 7563, 11856, 15968, 20007]}, "edge": {"target": [], "time": []}}, "mouseout": {"state": {"target": ["24", "23", "0", "1", "12", "12", "0", "23", "27", "29", "33", "32", "32"], "time": [644, 745, 2382, 3947, 4830, 5464, 5604, 7363, 11788, 15732, 19958, 20625, 23934]}, "edge": {"target": [], "time": []}}}, "displayed_time": "29.24", "trialTime": 31339, "trial_type": "mouselab-mdp", "trial_index": 36, "time_elapsed": 1323454, "internal_node_id": "0.0-6.0-1.0-27.0"}}, {"uniqueid": "w64797713:a32096643", "current_trial": 37, "dateTime": 1693661790046, "trialdata": {"revealed_states": [], "clicked_states": ["1", "23", "12", "17", "16"], "num_clicks_accrued": [0, 0, 0, 0, 0, 0, 0, 0, 0, 0, 0, 0, 0], "stateRewards": ["", -2, 1, 6, -2, -10, -78, -69, 14, -15, 7, -1, 1, -1, -2, 13, 77, 32, 87, 5, -74, 30, -26, 1, 3, 4, 12, 39, 54, -43, 2, 10, 23, 13], "withholdReward": false, "trial_id": "mdp_trial_29", "block": "test", "trialIndex": 30, "score": 84.45, "costs": -3.55, "simulationMode": [null, null, null, null, null], "rewards": [1, -1, -2, 13, 77], "path": ["0", "0", "12", "13", "14", "15", "16"], "rt": [15128, 286, 247, 646, 194], "actions": ["right", "right", "right", "up", "up"], "actionTimes": [17044, 17844, 18603, 19755, 20457], "queries": {"click": {"state": {"target": ["1", "23", "12", "17", "16"], "time": [3167, 4230, 5505, 7401, 11542]}, "edge": {"target": [], "time": []}}, "mouseover": {"state": {"target": ["1", "23", "12", "13", "17", "16"], "time": [2529, 3717, 4793, 6687, 7005, 11099]}, "edge": {"target": [], "time": []}}, "mouseout": {"state": {"target": ["31", "0", "0", "1", "23", "12", "13", "17", "16"], "time": [738, 972, 2343, 3667, 4687, 6637, 6706, 10930, 15410]}, "edge": {"target": [], "time": []}}}, "displayed_time": "20.98", "trialTime": 22539, "trial_type": "mouselab-mdp", "trial_index": 37, "time_elapsed": 1346553, "internal_node_id": "0.0-6.0-1.0-28.0"}}, {"uniqueid": "w64797713:a32096643", "current_trial": 38, "dateTime": 1693661836915, "trialdata": {"revealed_states": [], "clicked_states": ["1", "23", "12", "5", "9", "11", "6", "27", "29", "33"], "num_clicks_accrued": [0, 0, 0, 0, 0, 0, 0, 0, 0, 0, 0, 0, 0], "stateRewards": ["", -1, 2, -6, 6, -82, -19, -39, -16, -83, 11, -33, -2, -2, 4, -6, -82, -1, -19, -6, -10, -67, -41, -2, 1, -7, 16, -23, -78, -52, 14, 31, -71, 74], "withholdReward": false, "trial_id": "mdp_trial_30", "block": "test", "trialIndex": 31, "score": 65.7, "costs": -14.3, "simulationMode": [null, null, null, null, null], "rewards": [-2, 1, -7, 14, 74], "path": ["0", "0", "23", "24", "25", "30", "33"], "rt": [38304, 308, 360, 293, 303], "actions": ["left", "left", "left", "down", "left"], "actionTimes": [40522, 41345, 42217, 43022, 43829], "queries": {"click": {"state": {"target": ["1", "23", "12", "5", "9", "11", "6", "27", "29", "33"], "time": [3794, 5397, 7282, 9827, 14084, 18153, 22596, 26965, 31181, 35847]}, "edge": {"target": [], "time": []}}, "mouseover": {"state": {"target": ["1", "23", "12", "4", "5", "9", "11", "2", "7", "6", "4", "10", "27", "29", "33"], "time": [3275, 4978, 6548, 9071, 9255, 13431, 17626, 21835, 21904, 22319, 26145, 26181, 26547, 30807, 35401]}, "edge": {"target": [], "time": []}}, "mouseout": {"state": {"target": ["17", "15", "18", "0", "1", "23", "12", "4", "5", "9", "11", "2", "7", "6", "4", "10", "27", "29"], "time": [649, 684, 717, 3138, 4814, 5564, 8938, 9088, 13346, 17556, 21601, 21868, 21954, 26127, 26164, 26213, 30421, 35231]}, "edge": {"target": [], "time": []}}}, "displayed_time": "44.33", "trialTime": 46296, "trial_type": "mouselab-mdp", "trial_index": 38, "time_elapsed": 1393422, "internal_node_id": "0.0-6.0-1.0-29.0"}}, {"uniqueid": "w64797713:a32096643", "current_trial": 39, "dateTime": 1693661866680, "trialdata": {"revealed_states": [], "clicked_states": ["1", "12", "23", "5", "9", "29"], "num_clicks_accrued": [0, 0, 0, 0, 0, 0, 0, 0, 0, 0, 0, 0, 0], "stateRewards": ["", -1, -2, -8, 8, -27, -82, 19, -14, -62, 4, 1, -2, 2, 6, 10, 73, -51, -2, 2, 73, -48, 54, -1, 2, -4, 11, -25, 47, 86, 15, 33, 43, -42], "withholdReward": false, "trial_id": "mdp_trial_31", "block": "test", "trialIndex": 32, "score": 88.3, "costs": -5.699999999999999, "simulationMode": [null, null, null, null, null], "rewards": [-1, 2, -4, 11, 86], "path": ["0", "0", "23", "24", "25", "26", "29"], "rt": [20479, 184, 169, 634, 149], "actions": ["left", "left", "left", "up", "left"], "actionTimes": [22550, 23239, 23907, 25046, 25711], "queries": {"click": {"state": {"target": ["1", "12", "23", "5", "9", "29"], "time": [3274, 4891, 6510, 8760, 13273, 17875]}, "edge": {"target": [], "time": []}}, "mouseover": {"state": {"target": ["1", "12", "0", "23", "2", "3", "5", "9", "29"], "time": [2881, 4283, 5900, 6107, 7977, 8061, 8295, 12955, 17500]}, "edge": {"target": [], "time": []}}, "mouseout": {"state": {"target": ["33", "30", "0", "1", "1", "12", "12", "0", "23", "2", "3", "5", "9", "9"], "time": [795, 842, 1360, 3422, 4190, 5074, 5844, 5942, 7860, 8028, 8194, 12654, 13396, 17196]}, "edge": {"target": [], "time": []}}}, "displayed_time": "26.21", "trialTime": 29208, "trial_type": "mouselab-mdp", "trial_index": 39, "time_elapsed": 1423187, "internal_node_id": "0.0-6.0-1.0-30.0"}}, {"uniqueid": "w64797713:a32096643", "current_trial": 40, "dateTime": 1693661884676, "trialdata": {"revealed_states": [], "clicked_states": ["1", "12", "23", "27"], "num_clicks_accrued": [0, 0, 0, 0, 0, 0, 0, 0, 0, 0, 0, 0, 0], "stateRewards": ["", -1, -4, -3, 1, -45, -67, -24, 14, 32, 22, 22, -1, 1, -5, -7, 72, 84, -79, -5, 19, -40, -2, -1, -2, 8, -3, 84, -25, -28, 11, 64, -66, 77], "withholdReward": false, "trial_id": "mdp_trial_32", "block": "test", "trialIndex": 33, "score": 84.6, "costs": -1.4, "simulationMode": [null, null, null, null, null], "rewards": [-1, -2, 8, -3, 84], "path": ["0", "0", "23", "24", "25", "26", "27"], "rt": [10739, 180, 232, 498, 109], "actions": ["left", "left", "left", "up", "up"], "actionTimes": [12439, 13134, 13879, 14890, 15504], "queries": {"click": {"state": {"target": ["1", "12", "23", "27"], "time": [3083, 4429, 5872, 8182]}, "edge": {"target": [], "time": []}}, "mouseover": {"state": {"target": ["1", "12", "23", "28", "27"], "time": [2675, 3766, 5388, 7601, 7835]}, "edge": {"target": [], "time": []}}, "mouseout": {"state": {"target": ["29", "24", "23", "0", "1", "12", "23", "28"], "time": [566, 683, 800, 2404, 3644, 5311, 7500, 7719]}, "edge": {"target": [], "time": []}}}, "displayed_time": "16.01", "trialTime": 17423, "trial_type": "mouselab-mdp", "trial_index": 40, "time_elapsed": 1441183, "internal_node_id": "0.0-6.0-1.0-31.0"}}, {"uniqueid": "w64797713:a32096643", "current_trial": 41, "dateTime": 1693661918175, "trialdata": {"revealed_states": [], "clicked_states": ["1", "23", "12", "5", "9", "17", "20"], "num_clicks_accrued": [0, 0, 0, 0, 0, 0, 0, 0, 0, 0, 0, 0, 0], "stateRewards": ["", 2, 3, 8, 14, 69, -27, 17, 2, -71, -65, -10, 2, -3, 7, 8, 65, -10, 65, -12, 73, -12, 13, -2, -2, 6, 10, -79, -69, -18, 10, -85, 67, 74], "withholdReward": false, "trial_id": "mdp_trial_33", "block": "test", "trialIndex": 34, "score": 59.15, "costs": -7.85, "simulationMode": [null, null, null, null, null], "rewards": [2, -3, 7, -12, 73], "path": ["0", "0", "12", "13", "14", "19", "20"], "rt": [25233, 175, 188, 510, 455], "actions": ["right", "right", "right", "down", "right"], "actionTimes": [27298, 27982, 28680, 29705, 30666], "queries": {"click": {"state": {"target": ["1", "23", "12", "5", "9", "17", "20"], "time": [3740, 5465, 7425, 9471, 13803, 18476, 22075]}, "edge": {"target": [], "time": []}}, "mouseover": {"state": {"target": ["1", "23", "0", "12", "7", "4", "5", "5", "9", "4", "17", "20"], "time": [3172, 4844, 6665, 6819, 8603, 8638, 8720, 9072, 13446, 17659, 18058, 19939]}, "edge": {"target": [], "time": []}}, "mouseout": {"state": {"target": ["27", "28", "23", "0", "1", "23", "0", "12", "7", "4", "5", "5", "5", "9", "4", "17", "17"], "time": [764, 833, 967, 2903, 4755, 6581, 6755, 8503, 8620, 8687, 8837, 9622, 13078, 17573, 17691, 18639, 19503]}, "edge": {"target": [], "time": []}}}, "displayed_time": "31.18", "trialTime": 32878, "trial_type": "mouselab-mdp", "trial_index": 41, "time_elapsed": 1474681, "internal_node_id": "0.0-6.0-1.0-32.0"}}, {"uniqueid": "w64797713:a32096643", "current_trial": 42, "dateTime": 1693661947226, "trialdata": {"revealed_states": [], "clicked_states": ["1", "23", "12", "9", "5", "11"], "num_clicks_accrued": [0, 0, 0, 0, 0, 0, 0, 0, 0, 0, 0, 0, 0], "stateRewards": ["", 1, 1, -7, -9, -44, 24, -83, -15, 44, -24, 72, -2, -3, 4, -5, 57, 55, 29, -11, 22, 12, -25, -1, 2, 7, 12, 33, -8, 47, -4, 8, 50, -4], "withholdReward": false, "trial_id": "mdp_trial_34", "block": "test", "trialIndex": 35, "score": 46.3, "costs": -5.699999999999999, "simulationMode": [null, null, null, null, null], "rewards": [1, 1, -7, -15, 72], "path": ["0", "0", "1", "2", "3", "8", "11"], "rt": [20321, 359, 284, 673, 258], "actions": ["up", "up", "up", "left", "left"], "actionTimes": [22663, 23541, 24345, 25524, 26294], "queries": {"click": {"state": {"target": ["1", "23", "12", "9", "5", "11"], "time": [3527, 5032, 6512, 8728, 13071, 17805]}, "edge": {"target": [], "time": []}}, "mouseover": {"state": {"target": ["1", "23", "12", "2", "9", "5", "11"], "time": [3107, 4578, 5985, 7789, 8286, 12381, 17346]}, "edge": {"target": [], "time": []}}, "mouseout": {"state": {"target": ["20", "23", "1", "23", "12", "12", "12", "2", "9", "5"], "time": [785, 1152, 4459, 5875, 6673, 7378, 7755, 7819, 12244, 17059]}, "edge": {"target": [], "time": []}}}, "displayed_time": "26.82", "trialTime": 28435, "trial_type": "mouselab-mdp", "trial_index": 42, "time_elapsed": 1503733, "internal_node_id": "0.0-6.0-1.0-33.0"}}, {"uniqueid": "w64797713:a32096643", "current_trial": 43, "dateTime": 1693661980963, "trialdata": {"revealed_states": [], "clicked_states": ["1", "23", "12", "9", "11", "6", "5"], "num_clicks_accrued": [0, 0, 0, 0, 0, 0, 0, 0, 0, 0, 0, 0, 0], "stateRewards": ["", 2, -1, -3, 16, -3, -16, -62, -1, 13, -26, 43, -1, 4, 3, -9, -54, -37, -3, -12, -71, -68, -57, 1, -3, 2, -9, 2, -2, -9, -11, 84, -52, 55], "withholdReward": false, "trial_id": "mdp_trial_35", "block": "test", "trialIndex": 36, "score": 32.15, "costs": -7.85, "simulationMode": [null, null, null, null, null], "rewards": [2, -1, -3, -1, 43], "path": ["0", "0", "1", "2", "3", "8", "11"], "rt": [25379, 181, 281, 854, 141], "actions": ["up", "up", "up", "left", "left"], "actionTimes": [27483, 28174, 28971, 30332, 30977], "queries": {"click": {"state": {"target": ["1", "23", "12", "9", "11", "6", "5"], "time": [3815, 5874, 7708, 9718, 13828, 18351, 22900]}, "edge": {"target": [], "time": []}}, "mouseover": {"state": {"target": ["1", "23", "0", "12", "2", "3", "9", "11", "8", "3", "4", "6", "6", "5", "5", "5"], "time": [3442, 5314, 6861, 6917, 8976, 9023, 9307, 13450, 17510, 17546, 17595, 17694, 17928, 21886, 22206, 22541]}, "edge": {"target": [], "time": []}}, "mouseout": {"state": {"target": ["11", "10", "1", "1", "23", "0", "12", "2", "3", "9", "11", "8", "3", "4", "6", "6", "5", "5"], "time": [684, 751, 819, 5146, 6824, 6900, 8890, 8990, 9056, 13283, 17492, 17529, 17569, 17628, 17777, 21836, 21955, 22271]}, "edge": {"target": [], "time": []}}}, "displayed_time": "31.49", "trialTime": 33119, "trial_type": "mouselab-mdp", "trial_index": 43, "time_elapsed": 1537470, "internal_node_id": "0.0-6.0-1.0-34.0"}}, {"uniqueid": "w64797713:a32096643", "current_trial": 44, "dateTime": 1693662000261, "trialdata": {"revealed_states": [], "clicked_states": ["1", "23", "12", "9"], "num_clicks_accrued": [0, 0, 0, 0, 0, 0, 0, 0, 0, 0, 0, 0, 0], "stateRewards": ["", 1, -2, 7, -14, 88, -56, -44, -14, 64, -51, -57, -2, 3, -4, -9, -11, 19, -77, -1, 68, 75, -67, -1, 1, -2, 5, -37, 70, -34, -10, -72, 63, -41], "withholdReward": false, "trial_id": "mdp_trial_36", "block": "test", "trialIndex": 37, "score": 54.6, "costs": -1.4, "simulationMode": [null, null, null, null, null], "rewards": [1, -2, 7, -14, 64], "path": ["0", "0", "1", "2", "3", "8", "9"], "rt": [11174, 158, 193, 635, 180], "actions": ["up", "up", "up", "left", "up"], "actionTimes": [13290, 13962, 14672, 15807, 16487], "queries": {"click": {"state": {"target": ["1", "23", "12", "9"], "time": [3933, 5450, 6859, 8768]}, "edge": {"target": [], "time": []}}, "mouseover": {"state": {"target": ["1", "23", "0", "12", "1", "8", "9", "9", "5", "4", "2"], "time": [3302, 4699, 6157, 6295, 7930, 8031, 8082, 8347, 10357, 12340, 12508]}, "edge": {"target": [], "time": []}}, "mouseout": {"state": {"target": ["5", "4", "7", "0", "1", "23", "0", "12", "1", "8", "9", "9", "5", "4"], "time": [927, 976, 1013, 2984, 4612, 6115, 6209, 7897, 7948, 8064, 8180, 8916, 12205, 12407]}, "edge": {"target": [], "time": []}}}, "displayed_time": "16.99", "trialTime": 18680, "trial_type": "mouselab-mdp", "trial_index": 44, "time_elapsed": 1556768, "internal_node_id": "0.0-6.0-1.0-35.0"}}, {"uniqueid": "w64797713:a32096643", "current_trial": 45, "dateTime": 1693662053180, "trialdata": {"revealed_states": [], "clicked_states": ["1", "23", "12", "17", "16", "21", "20", "5", "9", "11", "10"], "num_clicks_accrued": [0, 0, 0, 0, 0, 0, 0, 0, 0, 0, 0, 0, 0], "stateRewards": ["", 1, 2, -3, 6, -88, 74, -45, 7, -46, 40, -77, 1, -4, 4, 3, 22, -25, -59, 8, -83, 19, -60, -1, -1, -1, -8, 26, -29, 64, -7, -88, -51, -55], "withholdReward": false, "trial_id": "mdp_trial_37", "block": "test", "trialIndex": 38, "score": 30.55, "costs": -16.45, "simulationMode": [null, null, null, null, null], "rewards": [1, 2, -3, 7, 40], "path": ["0", "0", "1", "2", "3", "8", "10"], "rt": [41939, 270, 3159, 381, 338], "actions": ["up", "up", "up", "left", "down"], "actionTimes": [43947, 44721, 48381, 49275, 50118], "queries": {"click": {"state": {"target": ["1", "23", "12", "17", "16", "21", "20", "5", "9", "11", "10"], "time": [3167, 4709, 6436, 8707, 12699, 17360, 22090, 26492, 30772, 34897, 39259]}, "edge": {"target": [], "time": []}}, "mouseover": {"state": {"target": ["1", "23", "0", "12", "12", "13", "14", "17", "16", "20", "21", "20", "5", "9", "11", "10"], "time": [2678, 4192, 5698, 5770, 5836, 7974, 8040, 8225, 12284, 16512, 16828, 21589, 26070, 30394, 34419, 38730]}, "edge": {"target": [], "time": []}}, "mouseout": {"state": {"target": ["2", "1", "0", "1", "23", "0", "12", "12", "13", "14", "17", "16", "20", "21", "20", "5", "9", "11"], "time": [821, 871, 2426, 4103, 5643, 5742, 5786, 7929, 8013, 8062, 12216, 16409, 16530, 17520, 25648, 30009, 34386, 38645]}, "edge": {"target": [], "time": []}}}, "displayed_time": "50.62", "trialTime": 52313, "trial_type": "mouselab-mdp", "trial_index": 45, "time_elapsed": 1609687, "internal_node_id": "0.0-6.0-1.0-36.0"}}, {"uniqueid": "w64797713:a32096643", "current_trial": 46, "dateTime": 1693662084696, "trialdata": {"revealed_states": [], "clicked_states": ["1", "23", "12", "16", "17", "20", "21"], "num_clicks_accrued": [0, 0, 0, 0, 0, 0, 0, 0, 0, 0, 0, 0, 0], "stateRewards": ["", -1, -3, -3, 1, -38, 2, -53, -2, -1, -81, 70, -1, 1, -5, -9, 46, 15, 35, -1, -22, 38, 59, -2, 4, -8, 13, 1, -83, -43, 4, 76, 13, 48], "withholdReward": false, "trial_id": "mdp_trial_38", "block": "test", "trialIndex": 39, "score": 24.15, "costs": -7.85, "simulationMode": [null, null, null, null, null], "rewards": [-1, 1, -5, -9, 46], "path": ["0", "0", "12", "13", "14", "15", "16"], "rt": [23235, 124, 313, 1136, 181], "actions": ["right", "right", "right", "up", "up"], "actionTimes": [25286, 25924, 26746, 28404, 29088], "queries": {"click": {"state": {"target": ["1", "23", "12", "16", "17", "20", "21"], "time": [3444, 5108, 6565, 8769, 12611, 16351, 20372]}, "edge": {"target": [], "time": []}}, "mouseover": {"state": {"target": ["1", "23", "0", "12", "13", "15", "16", "17", "20", "21"], "time": [2853, 4540, 5787, 5920, 7815, 7949, 8082, 11373, 16017, 19926]}, "edge": {"target": [], "time": []}}, "mouseout": {"state": {"target": ["10", "0", "1", "1", "23", "0", "12", "13", "15", "16", "16", "17", "20"], "time": [928, 2728, 3614, 4087, 5749, 5846, 7766, 7884, 8034, 8939, 11244, 15767, 19792]}, "edge": {"target": [], "time": []}}}, "displayed_time": "29.59", "trialTime": 30909, "trial_type": "mouselab-mdp", "trial_index": 46, "time_elapsed": 1641203, "internal_node_id": "0.0-6.0-1.0-37.0"}}, {"uniqueid": "w64797713:a32096643", "current_trial": 47, "dateTime": 1693662117336, "trialdata": {"revealed_states": [], "clicked_states": ["1", "23", "12", "16", "17", "20", "21"], "num_clicks_accrued": [0, 0, 0, 0, 0, 0, 0, 0, 0, 0, 0, 0, 0], "stateRewards": ["", 2, 3, 3, 10, 19, -21, 6, 9, 54, 68, 16, 2, 2, -6, -8, 40, -2, -75, -2, -42, 55, 59, -1, 2, 4, -14, 11, -34, -30, -6, 61, -53, 13], "withholdReward": false, "trial_id": "mdp_trial_39", "block": "test", "trialIndex": 40, "score": 43.15, "costs": -7.85, "simulationMode": [null, null, null, null, null], "rewards": [2, 2, -6, -2, 55], "path": ["0", "0", "12", "13", "14", "19", "21"], "rt": [23656, 153, 293, 217, 271], "actions": ["right", "right", "right", "down", "down"], "actionTimes": [25798, 26453, 27245, 27971, 28747], "queries": {"click": {"state": {"target": ["1", "23", "12", "16", "17", "20", "21"], "time": [3662, 5488, 7218, 9282, 13078, 17173, 21185]}, "edge": {"target": [], "time": []}}, "mouseover": {"state": {"target": ["1", "23", "12", "12", "18", "16", "17", "20", "21"], "time": [3241, 4844, 6479, 6698, 8467, 8617, 10736, 16435, 20628]}, "edge": {"target": [], "time": []}}, "mouseout": {"state": {"target": ["21", "0", "1", "23", "12", "12", "18", "16", "17", "17", "20"], "time": [880, 2902, 4446, 5668, 6502, 7400, 8506, 10533, 13233, 14545, 20579]}, "edge": {"target": [], "time": []}}}, "displayed_time": "29.26", "trialTime": 32009, "trial_type": "mouselab-mdp", "trial_index": 47, "time_elapsed": 1673843, "internal_node_id": "0.0-6.0-1.0-38.0"}}, {"uniqueid": "w64797713:a32096643", "current_trial": 48, "dateTime": 1693662152299, "trialdata": {"revealed_states": [], "clicked_states": ["1", "23", "12", "5", "6", "7", "11"], "num_clicks_accrued": [0, 0, 0, 0, 0, 0, 0, 0, 0, 0, 0, 0, 0], "stateRewards": ["", 2, -2, 7, -11, -76, -65, -23, 16, -58, 30, 81, 1, 2, 7, 14, 9, 55, -2, 6, 11, -15, 31, -1, -1, -3, 2, 15, 2, 46, 15, 18, 45, -34], "withholdReward": false, "trial_id": "mdp_trial_40", "block": "test", "trialIndex": 41, "score": 96.15, "costs": -7.85, "simulationMode": [null, null, null, null, null], "rewards": [2, -2, 7, 16, 81], "path": ["0", "0", "1", "2", "3", "8", "11"], "rt": [24843, 213, 325, 306, 222], "actions": ["up", "up", "up", "left", "left"], "actionTimes": [27253, 27973, 28803, 29618, 30354], "queries": {"click": {"state": {"target": ["1", "23", "12", "5", "6", "7", "11"], "time": [3590, 5231, 6896, 9320, 13734, 18137, 22421]}, "edge": {"target": [], "time": []}}, "mouseover": {"state": {"target": ["1", "23", "0", "12", "2", "3", "5", "4", "6", "7", "2", "11", "11"], "time": [3044, 4676, 6108, 6451, 8140, 8163, 8559, 12934, 13068, 17461, 21571, 21623, 21989]}, "edge": {"target": [], "time": []}}, "mouseout": {"state": {"target": ["21", "0", "1", "23", "0", "12", "2", "3", "5", "4", "6", "6", "7", "2", "11"], "time": [937, 2860, 4645, 6061, 6188, 8077, 8159, 8176, 12798, 13002, 13878, 17261, 21554, 21587, 21673]}, "edge": {"target": [], "time": []}}}, "displayed_time": "30.86", "trialTime": 34250, "trial_type": "mouselab-mdp", "trial_index": 48, "time_elapsed": 1708807, "internal_node_id": "0.0-6.0-1.0-39.0"}}, {"uniqueid": "w64797713:a32096643", "current_trial": 49, "dateTime": 1693662232012, "trialdata": {"rt": 79675, "response": {"Q0": "$-2 to $2", "Q1": "$-4 to $4", "Q2": "$-88 to $88", "Q3": "The cost for clicking on nodes varied between nodes.", "Q4": "Very motivated"}, "question_order": [0, 1, 2, 3, 4], "trial_id": "final_quiz_control", "trial_type": "survey-multi-choice", "trial_index": 49, "time_elapsed": 1788519, "internal_node_id": "0.0-6.0-2.0"}}, {"uniqueid": "w64797713:a32096643", "current_trial": 50, "dateTime": 1693662436360, "trialdata": {"rt": 204276, "response": {"Q0": "I learnt from my mistakes in the begining. I saw that it was beneficial to click the begining notes and the last note as that was how i could earn the most money.", "Q1": "Yes, i saw that checking every note at the edges was beneficial although costly. So i did that and went for the one with the most value.", "Q2": "It wasn't difficult at all. i learnt the hard way though at the begining."}, "trial_id": "self_report_control", "trial_type": "survey-text", "trial_index": 50, "time_elapsed": 1992868, "internal_node_id": "0.0-6.0-3.0"}}, {"uniqueid": "w64797713:a32096643", "current_trial": 51, "dateTime": 1693662518448, "trialdata": {"rt": 82082, "response": {"Q0": "Strongly agree", "Q1": "Agree", "Q2": "Strongly agree", "Q3": "Strongly agree", "Q4": "Disagree", "Q5": "Strongly agree", "Q6": "Disagree"}, "question_order": [0, 1, 2, 3, 4, 5, 6], "trial_id": "self_report_2", "trial_type": "survey-multi-choice", "trial_index": 51, "time_elapsed": 2074956, "internal_node_id": "0.0-6.0-4.0"}}, {"uniqueid": "w64797713:a32096643", "current_trial": 52, "dateTime": 1693662545077, "trialdata": {"rt": 26619, "response": {"gender": "female", "age": "26", "colorblind": "0", "effort": "0"}, "trial_type": "survey-html-form", "trial_index": 52, "time_elapsed": 2101585, "internal_node_id": "0.0-6.0-5.0"}}, {"uniqueid": "w64797713:a32096643", "current_trial": 53, "dateTime": 1693662599183, "trialdata": {"rt": 54075, "response": {"Q0": "No", "Q1": "The game did seem familiar", "Q2": ""}, "trial_type": "survey-text", "trial_index": 53, "time_elapsed": 2155691, "internal_node_id": "0.0-6.0-6.0"}}, {"uniqueid": "w64797713:a32096643", "current_trial": 54, "dateTime": 1693662647109, "trialdata": {"rt": 47919, "stimulus": "<h1>Completion Code Instructions (1/2)</h1>\n<br><br><br><br>\nYou have reached the end of the experiment! The completion code consists of two parts: (1) a code with 2 characters (2) a code with 6 characters. On this page, you will receive the second part of the code. The first part of the completion code will be on the next page.\n<br><br>\nThe second part of your completion code is: <b>EWEK22</b>\n<br><br>\nPlease note this down. Then, press 'Next' in order to find the first part of your completion code. Once the data has been saved, you will receive this code either in this window or in the original browser window where you started the experiment.\n <br><br>\n<h2 style='color: red;'>Note: this is <strong>NOT</strong> the full completion code. Copy this down and click 'Next' to get the full completion code on the next page.</h2>", "response": 0, "trial_type": "html-button-response", "trial_index": 54, "time_elapsed": 2203617, "internal_node_id": "0.0-6.0-7.0"}}, {"uniqueid": "w64797713:a32096643", "current_trial": 55, "dateTime": 1693662648135, "trialdata": {"success": true, "trial_type": "fullscreen", "trial_index": 55, "time_elapsed": 2204643, "internal_node_id": "0.0-7.0"}}], "questiondata": {"params": {"CODE": "C6DMOQA6", "MIN_TIME": 14, "inspectCost": 1, "startTime": "Sat Sep 02 2023 15:14:01 GMT+0200 (South Africa Standard Time)", "bonusRate": 0.002, "variance": "1_2_4_8_44", "branching": "31123"}, "final_score": 1472.8}, "eventdata": [{"eventtype": "initialized", "value": null, "timestamp": 1693660440751, "interval": 0}, {"eventtype": "window_resize", "value": [1360, 670], "timestamp": 1693660440751, "interval": 0}, {"eventtype": "window_resize", "value": [1360, 670], "timestamp": 1693660441299, "interval": 548}, {"eventtype": "window_resize", "value": [1360, 768], "timestamp": 1693660451349, "interval": 10050}, {"eventtype": "window_resize", "value": [1360, 670], "timestamp": 1693662647549, "interval": 2196200}], "useragent": "Mozilla/5.0 (Windows NT 10.0; Win64; x64) AppleWebKit/537.36 (KHTML, like Gecko) Chrome/116.0.0.0 Safari/537.36", "mode": "live", "id": "w64797713:a32096643", "status": "user data saved", "Beginhit": "2023-09-02 13:13:58.701066", "Beginexp": "2023-09-02 13:14:14.336608", "Endhit": "2023-09-02 13:50:51.48493", "psiturkStatus": 3, "browser": "<redacted>", "platform": "windows", "language": "en-US", "excludeReason": "alreadyparticipated"}