{"condition": 1, "counterbalance": 0, "assignmentId": "a78419395", "workerId": "w50449936", "hitId": "h49061952", "currenttrial": 68, "bonus": 0, "data": [{"uniqueid": "w50449936:a78419395", "current_trial": 0, "dateTime": 1691072792192, "trialdata": {"success": true, "trial_type": "fullscreen", "trial_index": 0, "time_elapsed": 6882, "internal_node_id": "0.0-0.0"}}, {"uniqueid": "w50449936:a78419395", "current_trial": 1, "dateTime": 1691072794391, "trialdata": {"view_history": [{"page_index": 0, "viewing_time": 2186}], "rt": 2186, "trial_id": "exp_instructions_misaligned", "trial_type": "instructions", "trial_index": 1, "time_elapsed": 9082, "internal_node_id": "0.0-1.0"}}, {"uniqueid": "w50449936:a78419395", "current_trial": 2, "dateTime": 1691072798642, "trialdata": {"success": true, "trial_type": "fullscreen", "trial_index": 2, "time_elapsed": 13333, "internal_node_id": "0.0-2.0-0.0"}}, {"uniqueid": "w50449936:a78419395", "current_trial": 3, "dateTime": 1691072848194, "trialdata": {"view_history": [{"page_index": 0, "viewing_time": 15091}, {"page_index": 1, "viewing_time": 6588}, {"page_index": 0, "viewing_time": 1931}, {"page_index": 1, "viewing_time": 92}, {"page_index": 0, "viewing_time": 120}, {"page_index": 1, "viewing_time": 193}, {"page_index": 0, "viewing_time": 1710}, {"page_index": 1, "viewing_time": 8491}, {"page_index": 0, "viewing_time": 2301}, {"page_index": 1, "viewing_time": 7880}, {"page_index": 2, "viewing_time": 3300}, {"page_index": 3, "viewing_time": 1849}], "rt": 49547, "trial_id": "mouselab_instructions_1_misaligned", "trial_type": "instructions", "trial_index": 3, "time_elapsed": 62885, "internal_node_id": "0.0-2.0-1.0"}}, {"uniqueid": "w50449936:a78419395", "current_trial": 4, "dateTime": 1691072872244, "trialdata": {"revealed_states": [], "clicked_states": ["12", "1", "23"], "num_clicks_accrued": [0, 0, 0, 0, 0, 0, 0, 0, 0, 0, 0, 0, 0], "stateRewards": ["", 10, 10, -10, 10, 10, -10, 10, 10, -10, -10, 10, -10, -10, 10, 10, 10, -10, -10, 10, 10, 10, -10, 10, 10, 10, 10, -10, -10, -10, 10, -10, 10, -10], "withholdReward": false, "trial_id": "practice_1", "block": "test", "trialIndex": 0, "score": 12, "costs": -1.5, "simulationMode": [null, null, null, null, null], "rewards": [10, 10, -10, 10, -10], "path": ["0", "0", "1", "2", "3", "8", "9"], "rt": [5834, 2896, 5688, 661, 105], "actions": ["up", "up", "up", "left", "up"], "actionTimes": [9647, 13062, 19253, 20426, 21037], "queries": {"click": {"state": {"target": ["12", "1", "23"], "time": [5696, 6916, 7977]}, "edge": {"target": [], "time": []}}, "mouseover": {"state": {"target": ["0", "12", "12", "1", "23", "18"], "time": [4551, 4714, 5002, 6547, 7496, 8981]}, "edge": {"target": [], "time": []}}, "mouseout": {"state": {"target": ["0", "0", "12", "12", "1", "23", "18", "2", "2", "4", "3"], "time": [3165, 4614, 4764, 6480, 7380, 8879, 10945, 11047, 14695, 15853, 18300]}, "edge": {"target": [], "time": []}}}, "displayed_time": "21.55", "trialTime": 23489, "trial_type": "mouselab-mdp", "trial_index": 4, "time_elapsed": 86933, "internal_node_id": "0.0-2.0-2.0-0.0"}}, {"uniqueid": "w50449936:a78419395", "current_trial": 5, "dateTime": 1691072891202, "trialdata": {"revealed_states": [], "clicked_states": [], "num_clicks_accrued": [0, 0, 0, 0, 0, 0, 0, 0, 0, 0, 0, 0, 0], "stateRewards": ["", -10, -10, -10, 10, 10, -10, 10, 10, -10, 10, 10, -10, -10, 10, 10, 10, 10, -10, 10, 10, -10, -10, 10, -10, 10, -10, 10, 10, 10, -10, 10, 10, 10], "withholdReward": false, "trial_id": "practice_2", "block": "test", "trialIndex": 1, "score": 13.5, "costs": 0, "simulationMode": [null, null, null, null, null], "rewards": [10, -10, 10, -10, 10], "path": ["0", "0", "23", "24", "25", "30", "31"], "rt": [1958, 524, 187, 809, 173], "actions": ["left", "left", "left", "down", "right"], "actionTimes": [4774, 5807, 6488, 7809, 8490], "queries": {"click": {"state": {"target": [], "time": []}, "edge": {"target": [], "time": []}}, "mouseover": {"state": {"target": [], "time": []}, "edge": {"target": [], "time": []}}, "mouseout": {"state": {"target": ["2", "1", "0", "13", "14"], "time": [2019, 2068, 11656, 16889, 16915]}, "edge": {"target": [], "time": []}}}, "displayed_time": "9.00", "trialTime": 18634, "trial_type": "mouselab-mdp", "trial_index": 5, "time_elapsed": 105892, "internal_node_id": "0.0-2.0-2.0-1.0"}}, {"uniqueid": "w50449936:a78419395", "current_trial": 6, "dateTime": 1691072900854, "trialdata": {"view_history": [{"page_index": 0, "viewing_time": 6398}, {"page_index": 1, "viewing_time": 3249}], "rt": 9648, "trial_id": "mouselab_instructions_2_misaligned", "trial_type": "instructions", "trial_index": 6, "time_elapsed": 115545, "internal_node_id": "0.0-2.0-3.0"}}, {"uniqueid": "w50449936:a78419395", "current_trial": 7, "dateTime": 1691072933540, "trialdata": {"rt": 32676, "response": {"Q0": "There is no cost for clicking on nodes.", "Q1": "The better I perform the higher my bonus will be.", "Q2": "No, the structure of the web will be different each time.", "Q3": "To get the highest total score.", "Q4": "Only before moving the spider.", "Q5": "3 seconds"}, "question_order": [0, 1, 2, 3, 4, 5], "correct": {"Q0": "The cost for clicking on nodes may vary between nodes.", "Q1": "The better I perform the higher my bonus will be.", "Q2": "No, the amount of cash at each node of the web may be different each time.", "Q3": "To get the highest total score.", "Q4": "Only before moving the spider.", "Q5": "3 seconds"}, "trial_id": "mouselab_quiz_misaligned", "trial_type": "survey-multi-choice", "trial_index": 7, "time_elapsed": 148231, "internal_node_id": "0.0-2.0-4.0"}}, {"uniqueid": "w50449936:a78419395", "current_trial": 8, "dateTime": 1691072939746, "trialdata": {"success": true, "trial_type": "fullscreen", "trial_index": 8, "time_elapsed": 154437, "internal_node_id": "0.0-2.1-0.1"}}, {"uniqueid": "w50449936:a78419395", "current_trial": 9, "dateTime": 1691073008266, "trialdata": {"view_history": [{"page_index": 0, "viewing_time": 40637}, {"page_index": 1, "viewing_time": 12153}, {"page_index": 2, "viewing_time": 7474}, {"page_index": 3, "viewing_time": 8249}], "rt": 68515, "trial_id": "mouselab_instructions_1_misaligned", "trial_type": "instructions", "trial_index": 9, "time_elapsed": 222957, "internal_node_id": "0.0-2.1-1.1"}}, {"uniqueid": "w50449936:a78419395", "current_trial": 10, "dateTime": 1691073017286, "trialdata": {"revealed_states": [], "clicked_states": [], "num_clicks_accrued": [0, 0, 0, 0, 0, 0, 0, 0, 0, 0, 0, 0, 0], "stateRewards": ["", 10, 10, -10, 10, 10, -10, 10, 10, -10, -10, 10, -10, -10, 10, 10, 10, -10, -10, 10, 10, 10, -10, 10, 10, 10, 10, -10, -10, -10, 10, -10, 10, -10], "withholdReward": false, "trial_id": "practice_1", "block": "test", "trialIndex": 2, "score": 13.5, "costs": 0, "simulationMode": [null, null, null, null, null], "rewards": [10, 10, -10, 10, -10], "path": ["0", "0", "1", "2", "3", "8", "10"], "rt": [502, 257, 1, 805, 329], "actions": ["up", "up", "up", "left", "down"], "actionTimes": [2628, 3380, 3890, 5211, 6051], "queries": {"click": {"state": {"target": [], "time": []}, "edge": {"target": [], "time": []}}, "mouseover": {"state": {"target": [], "time": []}, "edge": {"target": [], "time": []}}, "mouseout": {"state": {"target": ["0", "13"], "time": [8193, 8220]}, "edge": {"target": [], "time": []}}}, "displayed_time": "6.55", "trialTime": 8629, "trial_type": "mouselab-mdp", "trial_index": 10, "time_elapsed": 231976, "internal_node_id": "0.0-2.1-2.1-0.1"}}, {"uniqueid": "w50449936:a78419395", "current_trial": 11, "dateTime": 1691073024772, "trialdata": {"revealed_states": [], "clicked_states": [], "num_clicks_accrued": [0, 0, 0, 0, 0, 0, 0, 0, 0, 0, 0, 0, 0], "stateRewards": ["", -10, -10, -10, 10, 10, -10, 10, 10, -10, 10, 10, -10, -10, 10, 10, 10, 10, -10, 10, 10, -10, -10, 10, -10, 10, -10, 10, 10, 10, -10, 10, 10, 10], "withholdReward": false, "trial_id": "practice_2", "block": "test", "trialIndex": 3, "score": -6.5, "costs": 0, "simulationMode": [null, null, null, null, null], "rewards": [-10, -10, 10, 10, -10], "path": ["0", "0", "12", "13", "14", "19", "21"], "rt": [1177, 120, 100, 44, 3], "actions": ["right", "right", "right", "down", "down"], "actionTimes": [3424, 4037, 4633, 5194, 5703], "queries": {"click": {"state": {"target": [], "time": []}, "edge": {"target": [], "time": []}}, "mouseover": {"state": {"target": [], "time": []}, "edge": {"target": [], "time": []}}, "mouseout": {"state": {"target": ["14", "13", "12"], "time": [1317, 1351, 1381]}, "edge": {"target": [], "time": []}}}, "displayed_time": "6.22", "trialTime": 7143, "trial_type": "mouselab-mdp", "trial_index": 11, "time_elapsed": 239462, "internal_node_id": "0.0-2.1-2.1-1.1"}}, {"uniqueid": "w50449936:a78419395", "current_trial": 12, "dateTime": 1691073034627, "trialdata": {"view_history": [{"page_index": 0, "viewing_time": 8404}, {"page_index": 1, "viewing_time": 1448}], "rt": 9853, "trial_id": "mouselab_instructions_2_misaligned", "trial_type": "instructions", "trial_index": 12, "time_elapsed": 249318, "internal_node_id": "0.0-2.1-3.1"}}, {"uniqueid": "w50449936:a78419395", "current_trial": 13, "dateTime": 1691073125192, "trialdata": {"rt": 90560, "response": {"Q0": "There is no cost for clicking on nodes.", "Q1": "The better I perform the higher my bonus will be.", "Q2": "No, the amount of cash at each node of the web may be different each time.", "Q3": "To get the highest total score.", "Q4": "Only before moving the spider.", "Q5": "3 seconds"}, "question_order": [0, 1, 2, 3, 4, 5], "correct": {"Q0": "The cost for clicking on nodes may vary between nodes.", "Q1": "The better I perform the higher my bonus will be.", "Q2": "No, the amount of cash at each node of the web may be different each time.", "Q3": "To get the highest total score.", "Q4": "Only before moving the spider.", "Q5": "3 seconds"}, "trial_id": "mouselab_quiz_misaligned", "trial_type": "survey-multi-choice", "trial_index": 13, "time_elapsed": 339883, "internal_node_id": "0.0-2.1-4.1"}}, {"uniqueid": "w50449936:a78419395", "current_trial": 14, "dateTime": 1691073130970, "trialdata": {"success": true, "trial_type": "fullscreen", "trial_index": 14, "time_elapsed": 345661, "internal_node_id": "0.0-2.2-0.2"}}, {"uniqueid": "w50449936:a78419395", "current_trial": 15, "dateTime": 1691073174954, "trialdata": {"view_history": [{"page_index": 0, "viewing_time": 2967}, {"page_index": 1, "viewing_time": 37599}, {"page_index": 2, "viewing_time": 2017}, {"page_index": 3, "viewing_time": 1394}], "rt": 43979, "trial_id": "mouselab_instructions_1_misaligned", "trial_type": "instructions", "trial_index": 15, "time_elapsed": 389645, "internal_node_id": "0.0-2.2-1.2"}}, {"uniqueid": "w50449936:a78419395", "current_trial": 16, "dateTime": 1691073184876, "trialdata": {"revealed_states": [], "clicked_states": ["12"], "num_clicks_accrued": [0, 0, 0, 0, 0, 0, 0, 0, 0, 0, 0, 0, 0], "stateRewards": ["", 10, 10, -10, 10, 10, -10, 10, 10, -10, -10, 10, -10, -10, 10, 10, 10, -10, -10, 10, 10, 10, -10, 10, 10, 10, 10, -10, -10, -10, 10, -10, 10, -10], "withholdReward": false, "trial_id": "practice_1", "block": "test", "trialIndex": 4, "score": 13, "costs": -0.5, "simulationMode": [null, null, null, null, null], "rewards": [-10, -10, 10, 10, 10], "path": ["0", "0", "12", "13", "14", "19", "21"], "rt": [2136, 133, 119, 84, 1870], "actions": ["right", "right", "right", "down", "down"], "actionTimes": [4371, 5002, 5621, 6202, 8587], "queries": {"click": {"state": {"target": ["12"], "time": [3114]}, "edge": {"target": [], "time": []}}, "mouseover": {"state": {"target": ["12"], "time": [2667]}, "edge": {"target": [], "time": []}}, "mouseout": {"state": {"target": ["23", "0", "12"], "time": [1387, 2633, 3734]}, "edge": {"target": [], "time": []}}}, "displayed_time": "9.08", "trialTime": 9557, "trial_type": "mouselab-mdp", "trial_index": 16, "time_elapsed": 399566, "internal_node_id": "0.0-2.2-2.2-0.2"}}, {"uniqueid": "w50449936:a78419395", "current_trial": 17, "dateTime": 1691073190889, "trialdata": {"revealed_states": [], "clicked_states": [], "num_clicks_accrued": [0, 0, 0, 0, 0, 0, 0, 0, 0, 0, 0, 0, 0], "stateRewards": ["", -10, -10, -10, 10, 10, -10, 10, 10, -10, 10, 10, -10, -10, 10, 10, 10, 10, -10, 10, 10, -10, -10, 10, -10, 10, -10, 10, 10, 10, -10, 10, 10, 10], "withholdReward": false, "trial_id": "practice_2", "block": "test", "trialIndex": 5, "score": -6.5, "costs": 0, "simulationMode": [null, null, null, null, null], "rewards": [-10, -10, -10, 10, 10], "path": ["0", "0", "1", "2", "3", "8", "10"], "rt": [393, 4, 61, 148, 101], "actions": ["up", "up", "up", "left", "down"], "actionTimes": [2407, 2915, 3489, 4158, 4762], "queries": {"click": {"state": {"target": [], "time": []}, "edge": {"target": [], "time": []}}, "mouseover": {"state": {"target": [], "time": []}, "edge": {"target": [], "time": []}}, "mouseout": {"state": {"target": ["0"], "time": [1564]}, "edge": {"target": [], "time": []}}}, "displayed_time": "5.28", "trialTime": 5679, "trial_type": "mouselab-mdp", "trial_index": 17, "time_elapsed": 405578, "internal_node_id": "0.0-2.2-2.2-1.2"}}, {"uniqueid": "w50449936:a78419395", "current_trial": 18, "dateTime": 1691073195849, "trialdata": {"view_history": [{"page_index": 0, "viewing_time": 3172}, {"page_index": 1, "viewing_time": 1777}], "rt": 4950, "trial_id": "mouselab_instructions_2_misaligned", "trial_type": "instructions", "trial_index": 18, "time_elapsed": 410540, "internal_node_id": "0.0-2.2-3.2"}}, {"uniqueid": "w50449936:a78419395", "current_trial": 19, "dateTime": 1691073217944, "trialdata": {"rt": 22087, "response": {"Q0": "The cost for clicking on nodes may vary between nodes.", "Q1": "The better I perform the higher my bonus will be.", "Q2": "No, the amount of cash at each node of the web may be different each time.", "Q3": "To get the highest total score.", "Q4": "Only before moving the spider.", "Q5": "3 seconds"}, "question_order": [0, 1, 2, 3, 4, 5], "correct": {"Q0": "The cost for clicking on nodes may vary between nodes.", "Q1": "The better I perform the higher my bonus will be.", "Q2": "No, the amount of cash at each node of the web may be different each time.", "Q3": "To get the highest total score.", "Q4": "Only before moving the spider.", "Q5": "3 seconds"}, "trial_id": "mouselab_quiz_misaligned", "trial_type": "survey-multi-choice", "trial_index": 19, "time_elapsed": 432635, "internal_node_id": "0.0-2.2-4.2"}}, {"uniqueid": "w50449936:a78419395", "current_trial": 20, "dateTime": 1691073263021, "trialdata": {"rt": 45068, "stimulus": "\n<h1> Get ready to start the game! </h1>\n\nThank you for reading the instructions. Get ready start with the 40 rounds of this game.\n<br><br>\nIf you need to take a break, feel free to take one after the end of a round, before continuing to the next one.\n<br><br>\nRemember, the more money the spider gets, the bigger your bonus will be!\n<br><br>\n<div style='text-align: center;'>Press <code>space</code> to begin.</div>\n\n<br><br>\n(If, at any point, the <code>space</code> key does not take you to the next page, click once on the text and try again.)", "response": " ", "trial_id": "mdp_ready", "trial_type": "html-keyboard-response", "trial_index": 20, "time_elapsed": 477712, "internal_node_id": "0.0-4.0-0.0"}}, {"uniqueid": "w50449936:a78419395", "current_trial": 21, "dateTime": 1691073284412, "trialdata": {"revealed_states": [], "clicked_states": [], "num_clicks_accrued": [0, 0, 0, 0, 0, 0, 0, 0, 0, 0, 0, 0, 0], "stateRewards": ["", -2, 1, 6, -2, -10, -78, -69, 14, -15, 7, -1, 1, -1, -2, 13, 77, 32, 87, 5, -74, 30, -26, 1, 3, 4, 12, 39, 54, -43, 2, 10, 23, 13], "withholdReward": false, "trial_id": "mdp_trial_1", "block": "test", "trialIndex": 6, "score": 88, "costs": 0, "simulationMode": [null, null, null, null, null], "rewards": [1, -1, -2, 13, 77], "path": ["0", "0", "12", "13", "14", "15", "16"], "rt": [999, 552, 182, 171, 287], "actions": ["right", "right", "right", "up", "up"], "actionTimes": [3502, 4555, 5235, 5908, 6691], "queries": {"click": {"state": {"target": [], "time": []}, "edge": {"target": [], "time": []}}, "mouseover": {"state": {"target": [], "time": []}, "edge": {"target": [], "time": []}}, "mouseout": {"state": {"target": ["0", "12"], "time": [10062, 10084]}, "edge": {"target": [], "time": []}}}, "displayed_time": "16.50", "trialTime": 21052, "trial_type": "mouselab-mdp", "trial_index": 21, "time_elapsed": 499102, "internal_node_id": "0.0-4.0-1.0-0.0"}}, {"uniqueid": "w50449936:a78419395", "current_trial": 22, "dateTime": 1691073304006, "trialdata": {"revealed_states": [], "clicked_states": ["12"], "num_clicks_accrued": [0, 0, 0, 0, 0, 0, 0, 0, 0, 0, 0, 0, 0], "stateRewards": ["", 2, -3, -2, 14, -4, 85, 46, 15, -28, 41, 31, -1, -1, -1, 5, 62, 79, 57, 12, -73, -64, 86, -1, 1, -3, -5, 68, 11, -32, 8, -80, -21, -56], "withholdReward": false, "trial_id": "mdp_trial_2", "block": "test", "trialIndex": 7, "score": -54.75, "costs": 0.25, "simulationMode": [null, null, null, null, null], "rewards": [-1, -1, -1, 12, -64], "path": ["0", "0", "12", "13", "14", "19", "21"], "rt": [2323, 1206, 1089, 842, 772], "actions": ["right", "right", "right", "down", "down"], "actionTimes": [4600, 6324, 7924, 9278, 10541], "queries": {"click": {"state": {"target": ["12"], "time": [3150]}, "edge": {"target": [], "time": []}}, "mouseover": {"state": {"target": ["12"], "time": [2618]}, "edge": {"target": [], "time": []}}, "mouseout": {"state": {"target": ["1", "0", "12"], "time": [1270, 2462, 13132]}, "edge": {"target": [], "time": []}}}, "displayed_time": "16.28", "trialTime": 19242, "trial_type": "mouselab-mdp", "trial_index": 22, "time_elapsed": 518696, "internal_node_id": "0.0-4.0-1.0-1.0"}}, {"uniqueid": "w50449936:a78419395", "current_trial": 23, "dateTime": 1691073330394, "trialdata": {"revealed_states": [], "clicked_states": [], "num_clicks_accrued": [0, 0, 0, 0, 0, 0, 0, 0, 0, 0, 0, 0, 0], "stateRewards": ["", 1, 3, -2, 15, 51, 15, -19, 11, 67, -45, -73, 2, 4, -2, -13, 36, 9, -28, 10, -30, 31, 16, 1, 2, -1, -16, 14, -22, 36, -1, 88, -5, 45], "withholdReward": false, "trial_id": "mdp_trial_3", "block": "test", "trialIndex": 8, "score": 0, "costs": 0, "simulationMode": [null, null, null, null, null], "rewards": [1, 2, -1, -16, 14], "path": ["0", "0", "23", "24", "25", "26", "27"], "rt": [1298, 2571, 316, 634, 41], "actions": ["left", "left", "left", "up", "up"], "actionTimes": [3411, 6492, 7303, 8454, 8994], "queries": {"click": {"state": {"target": [], "time": []}, "edge": {"target": [], "time": []}}, "mouseover": {"state": {"target": [], "time": []}, "edge": {"target": [], "time": []}}, "mouseout": {"state": {"target": ["18", "12"], "time": [1322, 1369]}, "edge": {"target": [], "time": []}}}, "displayed_time": "16.12", "trialTime": 26034, "trial_type": "mouselab-mdp", "trial_index": 23, "time_elapsed": 545084, "internal_node_id": "0.0-4.0-1.0-2.0"}}, {"uniqueid": "w50449936:a78419395", "current_trial": 24, "dateTime": 1691073349686, "trialdata": {"revealed_states": [], "clicked_states": [], "num_clicks_accrued": [0, 0, 0, 0, 0, 0, 0, 0, 0, 0, 0, 0, 0], "stateRewards": ["", -2, -4, -2, 10, -8, -15, -47, 7, -84, 53, 5, -1, 2, -7, 3, 83, 31, 47, -1, 30, -8, 69, 2, -4, -1, 8, -7, 12, -8, -8, -13, 30, -84], "withholdReward": false, "trial_id": "mdp_trial_4", "block": "test", "trialIndex": 9, "score": 19, "costs": 0, "simulationMode": [null, null, null, null, null], "rewards": [2, -4, -1, -8, 30], "path": ["0", "0", "23", "24", "25", "30", "32"], "rt": [915, 84, 246, 151, 34], "actions": ["left", "left", "left", "down", "down"], "actionTimes": [4183, 4762, 5524, 6195, 6744], "queries": {"click": {"state": {"target": [], "time": []}, "edge": {"target": [], "time": []}}, "mouseover": {"state": {"target": [], "time": []}, "edge": {"target": [], "time": []}}, "mouseout": {"state": {"target": ["12", "0", "12", "13"], "time": [2392, 9850, 9859, 9877]}, "edge": {"target": [], "time": []}}}, "displayed_time": "17.27", "trialTime": 18917, "trial_type": "mouselab-mdp", "trial_index": 24, "time_elapsed": 564375, "internal_node_id": "0.0-4.0-1.0-3.0"}}, {"uniqueid": "w50449936:a78419395", "current_trial": 25, "dateTime": 1691073369162, "trialdata": {"revealed_states": [], "clicked_states": [], "num_clicks_accrued": [0, 0, 0, 0, 0, 0, 0, 0, 0, 0, 0, 0, 0], "stateRewards": ["", -2, 1, -7, -8, -37, -76, -87, 11, 30, -63, 80, -1, 4, 2, -1, 42, 17, 52, -3, -75, -80, -68, 2, -3, -5, -15, -48, 82, 24, -7, 5, -22, -71], "withholdReward": false, "trial_id": "mdp_trial_5", "block": "test", "trialIndex": 10, "score": -35, "costs": 0, "simulationMode": [null, null, null, null, null], "rewards": [2, -3, -5, -7, -22], "path": ["0", "0", "23", "24", "25", "30", "32"], "rt": [224, 24, 106, 109, 90], "actions": ["left", "left", "left", "down", "down"], "actionTimes": [2659, 3176, 3789, 4411, 4991], "queries": {"click": {"state": {"target": [], "time": []}, "edge": {"target": [], "time": []}}, "mouseover": {"state": {"target": [], "time": []}, "edge": {"target": [], "time": []}}, "mouseout": {"state": {"target": ["20", "13", "12", "0", "0", "12"], "time": [1403, 1534, 1801, 1882, 6222, 6235]}, "edge": {"target": [], "time": []}}}, "displayed_time": "16.44", "trialTime": 19117, "trial_type": "mouselab-mdp", "trial_index": 25, "time_elapsed": 583851, "internal_node_id": "0.0-4.0-1.0-4.0"}}, {"uniqueid": "w50449936:a78419395", "current_trial": 26, "dateTime": 1691073388416, "trialdata": {"revealed_states": [], "clicked_states": ["23"], "num_clicks_accrued": [0, 0, 0, 0, 0, 0, 0, 0, 0, 0, 0, 0, 0], "stateRewards": ["", -1, 2, 5, -6, 13, -64, -47, 8, -79, -80, -33, 1, 2, -2, -16, 56, -71, -10, 3, 29, 44, 85, -1, 4, 5, 4, -36, -56, 19, 8, 52, -13, -2], "withholdReward": false, "trial_id": "mdp_trial_6", "block": "test", "trialIndex": 11, "score": 3.25, "costs": 0.25, "simulationMode": [null, null, null, null, null], "rewards": [-1, 4, 5, 8, -13], "path": ["0", "0", "23", "24", "25", "30", "32"], "rt": [1791, 231, 190, 249, 181], "actions": ["left", "left", "left", "down", "down"], "actionTimes": [4281, 5023, 5715, 6474, 7155], "queries": {"click": {"state": {"target": ["23"], "time": [3605]}, "edge": {"target": [], "time": []}}, "mouseover": {"state": {"target": ["23", "23"], "time": [2846, 3211]}, "edge": {"target": [], "time": []}}, "mouseout": {"state": {"target": ["12", "23", "23", "12"], "time": [1805, 2909, 7850, 7872]}, "edge": {"target": [], "time": []}}}, "displayed_time": "16.49", "trialTime": 18863, "trial_type": "mouselab-mdp", "trial_index": 26, "time_elapsed": 603106, "internal_node_id": "0.0-4.0-1.0-5.0"}}, {"uniqueid": "w50449936:a78419395", "current_trial": 27, "dateTime": 1691073417563, "trialdata": {"revealed_states": [], "clicked_states": [], "num_clicks_accrued": [0, 0, 0, 0, 0, 0, 0, 0, 0, 0, 0, 0, 0], "stateRewards": ["", 2, -3, 5, -14, -63, -9, -24, -11, -54, -43, 68, 2, -2, -4, 7, -64, 30, 47, 12, -74, 11, 86, 1, -3, 3, 10, -71, -42, -52, -1, -29, -16, 69], "withholdReward": false, "trial_id": "mdp_trial_7", "block": "test", "trialIndex": 12, "score": -16, "costs": 0, "simulationMode": [null, null, null, null, null], "rewards": [1, -3, 3, -1, -16], "path": ["0", "0", "23", "24", "25", "30", "32"], "rt": [229, 309, 23, 74, 430], "actions": ["left", "left", "left", "down", "down"], "actionTimes": [11041, 11853, 12383, 12965, 13907], "queries": {"click": {"state": {"target": [], "time": []}, "edge": {"target": [], "time": []}}, "mouseover": {"state": {"target": [], "time": []}, "edge": {"target": [], "time": []}}, "mouseout": {"state": {"target": ["0"], "time": [15072]}, "edge": {"target": [], "time": []}}}, "displayed_time": "24.81", "trialTime": 28794, "trial_type": "mouselab-mdp", "trial_index": 27, "time_elapsed": 632253, "internal_node_id": "0.0-4.0-1.0-6.0"}}, {"uniqueid": "w50449936:a78419395", "current_trial": 28, "dateTime": 1691073440539, "trialdata": {"revealed_states": [], "clicked_states": [], "num_clicks_accrued": [0, 0, 0, 0, 0, 0, 0, 0, 0, 0, 0, 0, 0], "stateRewards": ["", -2, -1, -2, -15, 87, 57, 29, -10, 77, -80, -7, 1, -3, 6, 14, -11, 87, -59, 4, -71, 16, -11, 2, 2, -7, 2, -47, 61, 50, 14, -20, 17, 81], "withholdReward": false, "trial_id": "mdp_trial_8", "block": "test", "trialIndex": 13, "score": -95, "costs": 0, "simulationMode": [null, null, null, null, null], "rewards": [-2, -1, -2, -10, -80], "path": ["0", "0", "1", "2", "3", "8", "10"], "rt": [335, 40, 97, 9, 7], "actions": ["up", "up", "up", "left", "down"], "actionTimes": [2241, 2782, 3389, 3918, 4450], "queries": {"click": {"state": {"target": [], "time": []}, "edge": {"target": [], "time": []}}, "mouseover": {"state": {"target": [], "time": []}, "edge": {"target": [], "time": []}}, "mouseout": {"state": {"target": [], "time": []}, "edge": {"target": [], "time": []}}}, "displayed_time": "15.91", "trialTime": 22621, "trial_type": "mouselab-mdp", "trial_index": 28, "time_elapsed": 655229, "internal_node_id": "0.0-4.0-1.0-7.0"}}, {"uniqueid": "w50449936:a78419395", "current_trial": 29, "dateTime": 1691073466658, "trialdata": {"revealed_states": [], "clicked_states": [], "num_clicks_accrued": [0, 0, 0, 0, 0, 0, 0, 0, 0, 0, 0, 0, 0], "stateRewards": ["", 1, 2, -6, -13, -51, 22, -4, -12, -44, -12, 6, -2, -2, -2, -14, -46, -4, -77, -2, 36, -79, 41, 2, -4, 2, -6, -55, 59, 70, -5, 39, -19, 24], "withholdReward": false, "trial_id": "mdp_trial_9", "block": "test", "trialIndex": 14, "score": -9, "costs": 0, "simulationMode": [null, null, null, null, null], "rewards": [1, 2, -6, -12, 6], "path": ["0", "0", "1", "2", "3", "8", "11"], "rt": [934, 739, 80, 93, 31], "actions": ["up", "up", "up", "left", "left"], "actionTimes": [1788, 3026, 3618, 4228, 4768], "queries": {"click": {"state": {"target": [], "time": []}, "edge": {"target": [], "time": []}}, "mouseover": {"state": {"target": [], "time": []}, "edge": {"target": [], "time": []}}, "mouseout": {"state": {"target": [], "time": []}, "edge": {"target": [], "time": []}}}, "displayed_time": "14.86", "trialTime": 25735, "trial_type": "mouselab-mdp", "trial_index": 29, "time_elapsed": 681347, "internal_node_id": "0.0-4.0-1.0-8.0"}}, {"uniqueid": "w50449936:a78419395", "current_trial": 30, "dateTime": 1691073497416, "trialdata": {"revealed_states": [], "clicked_states": [], "num_clicks_accrued": [0, 0, 0, 0, 0, 0, 0, 0, 0, 0, 0, 0, 0], "stateRewards": ["", 2, -4, -8, -15, 71, -43, -41, 7, -17, 20, 67, -1, -1, -4, 6, 37, -24, -47, 9, 34, 57, 45, 1, 2, -4, -5, -23, 88, -5, 13, -40, 43, 44], "withholdReward": false, "trial_id": "mdp_trial_10", "block": "test", "trialIndex": 15, "score": 64, "costs": 0, "simulationMode": [null, null, null, null, null], "rewards": [2, -4, -8, 7, 67], "path": ["0", "0", "1", "2", "3", "8", "11"], "rt": [535, 168, 20, 62, 314], "actions": ["up", "up", "up", "left", "left"], "actionTimes": [1320, 1993, 2529, 3101, 3937], "queries": {"click": {"state": {"target": [], "time": []}, "edge": {"target": [], "time": []}}, "mouseover": {"state": {"target": [], "time": []}, "edge": {"target": [], "time": []}}, "mouseout": {"state": {"target": [], "time": []}, "edge": {"target": [], "time": []}}}, "displayed_time": "14.79", "trialTime": 30365, "trial_type": "mouselab-mdp", "trial_index": 30, "time_elapsed": 712105, "internal_node_id": "0.0-4.0-1.0-9.0"}}, {"uniqueid": "w50449936:a78419395", "current_trial": 31, "dateTime": 1691073515874, "trialdata": {"revealed_states": [], "clicked_states": [], "num_clicks_accrued": [0, 0, 0, 0, 0, 0, 0, 0, 0, 0, 0, 0, 0], "stateRewards": ["", 2, 4, 7, -6, -76, -81, 2, 5, -66, -3, 36, -2, -4, 6, -2, -69, 4, -49, -6, 67, 38, -67, 2, 1, 1, 6, -68, -21, 52, -16, -16, 6, -70], "withholdReward": false, "trial_id": "mdp_trial_11", "block": "test", "trialIndex": 16, "score": -6, "costs": 0, "simulationMode": [null, null, null, null, null], "rewards": [2, 1, 1, -16, 6], "path": ["0", "0", "23", "24", "25", "30", "32"], "rt": [389, 134, 431, 110, 292], "actions": ["left", "left", "left", "down", "down"], "actionTimes": [1214, 1844, 2774, 3386, 4185], "queries": {"click": {"state": {"target": [], "time": []}, "edge": {"target": [], "time": []}}, "mouseover": {"state": {"target": [], "time": []}, "edge": {"target": [], "time": []}}, "mouseout": {"state": {"target": [], "time": []}, "edge": {"target": [], "time": []}}}, "displayed_time": "14.83", "trialTime": 18062, "trial_type": "mouselab-mdp", "trial_index": 31, "time_elapsed": 730565, "internal_node_id": "0.0-4.0-1.0-10.0"}}, {"uniqueid": "w50449936:a78419395", "current_trial": 32, "dateTime": 1691073536536, "trialdata": {"revealed_states": [], "clicked_states": [], "num_clicks_accrued": [0, 0, 0, 0, 0, 0, 0, 0, 0, 0, 0, 0, 0], "stateRewards": ["", -2, 4, -7, -3, -76, 39, -28, 10, 14, 12, 60, 2, -3, 6, -10, 88, -34, -41, -3, 72, -13, -56, 1, 3, 2, 8, -51, 23, -57, 1, 14, -46, -16], "withholdReward": false, "trial_id": "mdp_trial_12", "block": "test", "trialIndex": 17, "score": -39, "costs": 0, "simulationMode": [null, null, null, null, null], "rewards": [1, 3, 2, 1, -46], "path": ["0", "0", "23", "24", "25", "30", "32"], "rt": [784, 3, 382, 80, 155], "actions": ["left", "left", "left", "down", "down"], "actionTimes": [2694, 3196, 4092, 4673, 5332], "queries": {"click": {"state": {"target": [], "time": []}, "edge": {"target": [], "time": []}}, "mouseover": {"state": {"target": [], "time": []}, "edge": {"target": [], "time": []}}, "mouseout": {"state": {"target": [], "time": []}, "edge": {"target": [], "time": []}}}, "displayed_time": "15.91", "trialTime": 20276, "trial_type": "mouselab-mdp", "trial_index": 32, "time_elapsed": 751227, "internal_node_id": "0.0-4.0-1.0-11.0"}}, {"uniqueid": "w50449936:a78419395", "current_trial": 33, "dateTime": 1691073556527, "trialdata": {"revealed_states": [], "clicked_states": [], "num_clicks_accrued": [0, 0, 0, 0, 0, 0, 0, 0, 0, 0, 0, 0, 0], "stateRewards": ["", -1, 1, -5, -6, -78, 47, -13, 12, 48, -88, 20, 2, -3, -2, 13, -20, 37, -57, 14, -38, 30, 31, -2, -2, 8, 2, -23, 78, 28, 12, -74, -88, 8], "withholdReward": false, "trial_id": "mdp_trial_13", "block": "test", "trialIndex": 18, "score": 41, "costs": 0, "simulationMode": [null, null, null, null, null], "rewards": [2, -3, -2, 14, 30], "path": ["0", "0", "12", "13", "14", "19", "21"], "rt": [1366, 2, 147, 140, 136], "actions": ["right", "right", "right", "down", "down"], "actionTimes": [2745, 3249, 3928, 4570, 5216], "queries": {"click": {"state": {"target": [], "time": []}, "edge": {"target": [], "time": []}}, "mouseover": {"state": {"target": [], "time": []}, "edge": {"target": [], "time": []}}, "mouseout": {"state": {"target": [], "time": []}, "edge": {"target": [], "time": []}}}, "displayed_time": "15.39", "trialTime": 19619, "trial_type": "mouselab-mdp", "trial_index": 33, "time_elapsed": 771216, "internal_node_id": "0.0-4.0-1.0-12.0"}}, {"uniqueid": "w50449936:a78419395", "current_trial": 34, "dateTime": 1691073572831, "trialdata": {"revealed_states": [], "clicked_states": [], "num_clicks_accrued": [0, 0, 0, 0, 0, 0, 0, 0, 0, 0, 0, 0, 0], "stateRewards": ["", 1, -2, -2, 10, -31, -77, 35, 9, -47, 8, 48, -2, 1, -4, -3, -26, -50, 43, -11, 76, -38, 17, 1, -1, 6, 10, 15, -9, 12, -8, 85, 11, -55], "withholdReward": false, "trial_id": "mdp_trial_14", "block": "test", "trialIndex": 19, "score": 54, "costs": 0, "simulationMode": [null, null, null, null, null], "rewards": [1, -2, -2, 9, 48], "path": ["0", "0", "1", "2", "3", "8", "11"], "rt": [635, 2, 115, 244, 97], "actions": ["up", "up", "up", "left", "left"], "actionTimes": [1375, 1871, 2520, 3262, 3898], "queries": {"click": {"state": {"target": [], "time": []}, "edge": {"target": [], "time": []}}, "mouseover": {"state": {"target": [], "time": []}, "edge": {"target": [], "time": []}}, "mouseout": {"state": {"target": [], "time": []}, "edge": {"target": [], "time": []}}}, "displayed_time": "14.74", "trialTime": 15913, "trial_type": "mouselab-mdp", "trial_index": 34, "time_elapsed": 787521, "internal_node_id": "0.0-4.0-1.0-13.0"}}, {"uniqueid": "w50449936:a78419395", "current_trial": 35, "dateTime": 1691073592827, "trialdata": {"revealed_states": [], "clicked_states": [], "num_clicks_accrued": [0, 0, 0, 0, 0, 0, 0, 0, 0, 0, 0, 0, 0], "stateRewards": ["", -1, 1, 3, -8, -23, -15, -14, -11, -23, 58, 68, 1, 3, 5, 12, -17, -41, -7, -10, -4, 82, 10, 1, 4, -4, 11, 73, 55, -55, -1, -86, -86, 54], "withholdReward": false, "trial_id": "mdp_trial_15", "block": "test", "trialIndex": 20, "score": 60, "costs": 0, "simulationMode": [null, null, null, null, null], "rewards": [-1, 1, 3, -11, 68], "path": ["0", "0", "1", "2", "3", "8", "11"], "rt": [695, 30, 133, 24, 158], "actions": ["up", "up", "up", "left", "left"], "actionTimes": [3875, 4397, 5050, 5590, 6257], "queries": {"click": {"state": {"target": [], "time": []}, "edge": {"target": [], "time": []}}, "mouseover": {"state": {"target": [], "time": []}, "edge": {"target": [], "time": []}}, "mouseout": {"state": {"target": [], "time": []}, "edge": {"target": [], "time": []}}}, "displayed_time": "17.18", "trialTime": 19593, "trial_type": "mouselab-mdp", "trial_index": 35, "time_elapsed": 807518, "internal_node_id": "0.0-4.0-1.0-14.0"}}, {"uniqueid": "w50449936:a78419395", "current_trial": 36, "dateTime": 1691073622854, "trialdata": {"revealed_states": [], "clicked_states": [], "num_clicks_accrued": [0, 0, 0, 0, 0, 0, 0, 0, 0, 0, 0, 0, 0], "stateRewards": ["", 1, 4, 7, -16, -84, -6, -46, -12, -7, -49, -26, -1, 2, -4, 2, 22, 37, -64, 1, 88, -13, -10, 1, -4, -2, 5, 2, -10, -34, 9, 66, 55, 38], "withholdReward": false, "trial_id": "mdp_trial_16", "block": "test", "trialIndex": 21, "score": -15, "costs": 0, "simulationMode": [null, null, null, null, null], "rewards": [-1, 2, -4, 1, -13], "path": ["0", "0", "12", "13", "14", "19", "21"], "rt": [941, 33, 134, 69, 341], "actions": ["right", "right", "right", "down", "down"], "actionTimes": [9166, 9704, 10355, 10945, 11779], "queries": {"click": {"state": {"target": [], "time": []}, "edge": {"target": [], "time": []}}, "mouseover": {"state": {"target": [], "time": []}, "edge": {"target": [], "time": []}}, "mouseout": {"state": {"target": ["0"], "time": [7705]}, "edge": {"target": [], "time": []}}}, "displayed_time": "22.23", "trialTime": 29640, "trial_type": "mouselab-mdp", "trial_index": 36, "time_elapsed": 837544, "internal_node_id": "0.0-4.0-1.0-15.0"}}, {"uniqueid": "w50449936:a78419395", "current_trial": 37, "dateTime": 1691073647363, "trialdata": {"revealed_states": [], "clicked_states": [], "num_clicks_accrued": [0, 0, 0, 0, 0, 0, 0, 0, 0, 0, 0, 0, 0], "stateRewards": ["", -1, 3, 1, -11, -22, -36, 19, -5, -70, -52, 50, -2, -4, 4, -2, -41, -83, 29, -2, 22, 10, -6, -2, 3, -2, 14, 54, 44, 77, -9, -65, -37, -40], "withholdReward": false, "trial_id": "mdp_trial_17", "block": "test", "trialIndex": 22, "score": -47, "costs": 0, "simulationMode": [null, null, null, null, null], "rewards": [-2, 3, -2, -9, -37], "path": ["0", "0", "23", "24", "25", "30", "32"], "rt": [522, 117, 85, 393, 105], "actions": ["left", "left", "left", "down", "down"], "actionTimes": [2568, 3179, 3781, 4673, 5281], "queries": {"click": {"state": {"target": [], "time": []}, "edge": {"target": [], "time": []}}, "mouseover": {"state": {"target": [], "time": []}, "edge": {"target": [], "time": []}}, "mouseout": {"state": {"target": ["0"], "time": [1759]}, "edge": {"target": [], "time": []}}}, "displayed_time": "16.05", "trialTime": 24108, "trial_type": "mouselab-mdp", "trial_index": 37, "time_elapsed": 862053, "internal_node_id": "0.0-4.0-1.0-16.0"}}, {"uniqueid": "w50449936:a78419395", "current_trial": 38, "dateTime": 1691073666817, "trialdata": {"revealed_states": [], "clicked_states": [], "num_clicks_accrued": [0, 0, 0, 0, 0, 0, 0, 0, 0, 0, 0, 0, 0], "stateRewards": ["", -1, -3, 3, 5, 56, 39, 50, -1, -80, 33, -46, 1, -2, -6, -8, 87, 48, 54, -11, -20, -64, -54, -2, 3, -7, -3, 12, 88, 35, -16, -46, -70, -3], "withholdReward": false, "trial_id": "mdp_trial_18", "block": "test", "trialIndex": 23, "score": -82, "costs": 0, "simulationMode": [null, null, null, null, null], "rewards": [1, -2, -6, -11, -64], "path": ["0", "0", "12", "13", "14", "19", "21"], "rt": [856, 41, 94, 141, 34], "actions": ["right", "right", "right", "down", "down"], "actionTimes": [1711, 2270, 2894, 3537, 4064], "queries": {"click": {"state": {"target": [], "time": []}, "edge": {"target": [], "time": []}}, "mouseover": {"state": {"target": [], "time": []}, "edge": {"target": [], "time": []}}, "mouseout": {"state": {"target": ["0"], "time": [525]}, "edge": {"target": [], "time": []}}}, "displayed_time": "14.86", "trialTime": 19049, "trial_type": "mouselab-mdp", "trial_index": 38, "time_elapsed": 881508, "internal_node_id": "0.0-4.0-1.0-17.0"}}, {"uniqueid": "w50449936:a78419395", "current_trial": 39, "dateTime": 1691073683637, "trialdata": {"revealed_states": [], "clicked_states": [], "num_clicks_accrued": [0, 0, 0, 0, 0, 0, 0, 0, 0, 0, 0, 0, 0], "stateRewards": ["", -2, -3, 7, -13, 60, 9, 37, -6, 37, 20, 1, 2, -2, -8, 6, -80, -31, -10, -7, 70, -65, -44, -1, 1, 7, 6, -11, 73, -85, 16, -21, 47, 34], "withholdReward": false, "trial_id": "mdp_trial_19", "block": "test", "trialIndex": 24, "score": 70, "costs": 0, "simulationMode": [null, null, null, null, null], "rewards": [-1, 1, 7, 16, 47], "path": ["0", "0", "23", "24", "25", "30", "32"], "rt": [669, 107, 87, 343, 94], "actions": ["left", "left", "left", "down", "down"], "actionTimes": [2762, 3360, 3958, 4813, 5413], "queries": {"click": {"state": {"target": [], "time": []}, "edge": {"target": [], "time": []}}, "mouseover": {"state": {"target": [], "time": []}, "edge": {"target": [], "time": []}}, "mouseout": {"state": {"target": ["0"], "time": [1853]}, "edge": {"target": [], "time": []}}}, "displayed_time": "16.10", "trialTime": 16392, "trial_type": "mouselab-mdp", "trial_index": 39, "time_elapsed": 898327, "internal_node_id": "0.0-4.0-1.0-18.0"}}, {"uniqueid": "w50449936:a78419395", "current_trial": 40, "dateTime": 1691073709322, "trialdata": {"revealed_states": [], "clicked_states": [], "num_clicks_accrued": [0, 0, 0, 0, 0, 0, 0, 0, 0, 0, 0, 0, 0], "stateRewards": ["", 1, -3, -1, 9, -34, -40, 22, -7, 45, 53, -11, 2, 4, 5, 15, 21, 37, -49, -3, 80, -28, -34, 1, -3, 1, 1, -40, -6, -5, -16, -85, -86, 59], "withholdReward": false, "trial_id": "mdp_trial_20", "block": "test", "trialIndex": 25, "score": -21, "costs": 0, "simulationMode": [null, null, null, null, null], "rewards": [1, -3, -1, -7, -11], "path": ["0", "0", "1", "2", "3", "8", "11"], "rt": [837, 91, 111, 70, 3], "actions": ["up", "up", "up", "left", "left"], "actionTimes": [2019, 2609, 3229, 3820, 4337], "queries": {"click": {"state": {"target": [], "time": []}, "edge": {"target": [], "time": []}}, "mouseover": {"state": {"target": [], "time": []}, "edge": {"target": [], "time": []}}, "mouseout": {"state": {"target": ["0"], "time": [941]}, "edge": {"target": [], "time": []}}}, "displayed_time": "15.18", "trialTime": 25291, "trial_type": "mouselab-mdp", "trial_index": 40, "time_elapsed": 924012, "internal_node_id": "0.0-4.0-1.0-19.0"}}, {"uniqueid": "w50449936:a78419395", "current_trial": 41, "dateTime": 1691073750076, "trialdata": {"revealed_states": [], "clicked_states": [], "num_clicks_accrued": [0, 0, 0, 0, 0, 0, 0, 0, 0, 0, 0, 0, 0], "stateRewards": ["", -2, 4, -5, -12, 85, -24, -18, -15, -78, -22, 26, -1, -1, 2, 14, -45, 52, -23, 7, -33, 24, -6, -2, -4, 5, -7, -16, 36, -39, 5, 71, -87, -23], "withholdReward": false, "trial_id": "mdp_trial_21", "block": "test", "trialIndex": 26, "score": -19, "costs": 0, "simulationMode": [null, null, null, null, null], "rewards": [-2, -4, 5, 5, -23], "path": ["0", "0", "23", "24", "25", "30", "33"], "rt": [594, 112, 122, 168, 93], "actions": ["left", "left", "left", "down", "left"], "actionTimes": [1865, 2477, 3089, 3767, 4358], "queries": {"click": {"state": {"target": [], "time": []}, "edge": {"target": [], "time": []}}, "mouseover": {"state": {"target": [], "time": []}, "edge": {"target": [], "time": []}}, "mouseout": {"state": {"target": ["0"], "time": [998]}, "edge": {"target": [], "time": []}}}, "displayed_time": "15.27", "trialTime": 40347, "trial_type": "mouselab-mdp", "trial_index": 41, "time_elapsed": 964766, "internal_node_id": "0.0-4.0-1.0-20.0"}}, {"uniqueid": "w50449936:a78419395", "current_trial": 42, "dateTime": 1691073791233, "trialdata": {"revealed_states": [], "clicked_states": [], "num_clicks_accrued": [0, 0, 0, 0, 0, 0, 0, 0, 0, 0, 0, 0, 0], "stateRewards": ["", -1, -4, -6, -15, 21, -67, -63, 9, 51, 69, -14, -1, 3, 8, -8, 39, 72, 63, 15, 19, 47, 15, 1, 4, 5, 16, -18, 34, 35, -14, -80, 40, 1], "withholdReward": false, "trial_id": "mdp_trial_22", "block": "test", "trialIndex": 27, "score": 36, "costs": 0, "simulationMode": [null, null, null, null, null], "rewards": [1, 4, 5, -14, 40], "path": ["0", "0", "23", "24", "25", "30", "32"], "rt": [594, 665, 173, 138, 137], "actions": ["left", "left", "left", "down", "down"], "actionTimes": [2665, 3821, 4495, 5128, 5777], "queries": {"click": {"state": {"target": [], "time": []}, "edge": {"target": [], "time": []}}, "mouseover": {"state": {"target": [], "time": []}, "edge": {"target": [], "time": []}}, "mouseout": {"state": {"target": ["0"], "time": [1791]}, "edge": {"target": [], "time": []}}}, "displayed_time": "16.07", "trialTime": 40744, "trial_type": "mouselab-mdp", "trial_index": 42, "time_elapsed": 1005922, "internal_node_id": "0.0-4.0-1.0-21.0"}}, {"uniqueid": "w50449936:a78419395", "current_trial": 43, "dateTime": 1691073807551, "trialdata": {"revealed_states": [], "clicked_states": [], "num_clicks_accrued": [0, 0, 0, 0, 0, 0, 0, 0, 0, 0, 0, 0, 0], "stateRewards": ["", 1, 1, 7, -11, 80, -20, -53, -14, 3, 31, 27, 2, -1, -8, -10, 33, 41, 86, 9, 78, -37, -13, -1, -2, -6, -8, -80, 75, 4, -16, -49, -74, 24], "withholdReward": false, "trial_id": "mdp_trial_23", "block": "test", "trialIndex": 28, "score": -22, "costs": 0, "simulationMode": [null, null, null, null, null], "rewards": [1, 1, 7, -11, -20], "path": ["0", "0", "1", "2", "3", "4", "6"], "rt": [622, 532, 581, 103, 43], "actions": ["up", "up", "up", "right", "right"], "actionTimes": [1415, 2447, 3530, 4152, 4693], "queries": {"click": {"state": {"target": [], "time": []}, "edge": {"target": [], "time": []}}, "mouseover": {"state": {"target": [], "time": []}, "edge": {"target": [], "time": []}}, "mouseout": {"state": {"target": ["0"], "time": [514]}, "edge": {"target": [], "time": []}}}, "displayed_time": "14.79", "trialTime": 15891, "trial_type": "mouselab-mdp", "trial_index": 43, "time_elapsed": 1022240, "internal_node_id": "0.0-4.0-1.0-22.0"}}, {"uniqueid": "w50449936:a78419395", "current_trial": 44, "dateTime": 1691073837602, "trialdata": {"revealed_states": [], "clicked_states": [], "num_clicks_accrued": [0, 0, 0, 0, 0, 0, 0, 0, 0, 0, 0, 0, 0], "stateRewards": ["", -2, 3, -1, -9, 44, 48, -37, -3, 71, -39, 87, -1, 3, -4, 4, -21, 59, -15, -8, -1, 28, -38, 2, 4, 4, 8, -85, -72, -63, 14, 58, 63, -46], "withholdReward": false, "trial_id": "mdp_trial_24", "block": "test", "trialIndex": 29, "score": -46, "costs": 0, "simulationMode": [null, null, null, null, null], "rewards": [-2, 3, -1, -9, -37], "path": ["0", "0", "1", "2", "3", "4", "7"], "rt": [646, 38, 69, 349, 31], "actions": ["up", "up", "up", "right", "down"], "actionTimes": [3631, 4170, 4768, 5632, 6181], "queries": {"click": {"state": {"target": [], "time": []}, "edge": {"target": [], "time": []}}, "mouseover": {"state": {"target": [], "time": []}, "edge": {"target": [], "time": []}}, "mouseout": {"state": {"target": ["0", "23", "0"], "time": [1513, 1766, 1814]}, "edge": {"target": [], "time": []}}}, "displayed_time": "16.99", "trialTime": 29627, "trial_type": "mouselab-mdp", "trial_index": 44, "time_elapsed": 1052292, "internal_node_id": "0.0-4.0-1.0-23.0"}}, {"uniqueid": "w50449936:a78419395", "current_trial": 45, "dateTime": 1691073857310, "trialdata": {"revealed_states": [], "clicked_states": [], "num_clicks_accrued": [0, 0, 0, 0, 0, 0, 0, 0, 0, 0, 0, 0, 0], "stateRewards": ["", 2, -3, -5, 5, 11, -9, -33, 6, 67, 6, -30, -1, -2, -6, 13, 55, 13, 72, -14, 75, 21, -66, -2, -4, 6, 15, -1, -35, 60, 2, 51, -73, 12], "withholdReward": false, "trial_id": "mdp_trial_25", "block": "test", "trialIndex": 30, "score": 10, "costs": 0, "simulationMode": [null, null, null, null, null], "rewards": [2, -3, -5, 5, 11], "path": ["0", "0", "1", "2", "3", "4", "5"], "rt": [939, 358, 21, 416, 383], "actions": ["up", "up", "up", "right", "up"], "actionTimes": [1963, 2816, 3346, 4290, 5174], "queries": {"click": {"state": {"target": [], "time": []}, "edge": {"target": [], "time": []}}, "mouseover": {"state": {"target": [], "time": []}, "edge": {"target": [], "time": []}}, "mouseout": {"state": {"target": [], "time": []}, "edge": {"target": [], "time": []}}}, "displayed_time": "15.03", "trialTime": 19277, "trial_type": "mouselab-mdp", "trial_index": 45, "time_elapsed": 1071999, "internal_node_id": "0.0-4.0-1.0-24.0"}}, {"uniqueid": "w50449936:a78419395", "current_trial": 46, "dateTime": 1691073876125, "trialdata": {"revealed_states": [], "clicked_states": [], "num_clicks_accrued": [0, 0, 0, 0, 0, 0, 0, 0, 0, 0, 0, 0, 0], "stateRewards": ["", -1, -3, -3, 1, -38, 2, -53, -2, -1, -81, 70, -1, 1, -5, -9, 46, 15, 35, -1, -22, 38, 59, -2, 4, -8, 13, 1, -83, -43, 4, 76, 13, 48], "withholdReward": false, "trial_id": "mdp_trial_26", "block": "test", "trialIndex": 31, "score": -90, "costs": 0, "simulationMode": [null, null, null, null, null], "rewards": [-1, -3, -3, -2, -81], "path": ["0", "0", "1", "2", "3", "8", "10"], "rt": [388, 427, 442, 82, 92], "actions": ["up", "up", "up", "left", "down"], "actionTimes": [1558, 2480, 3460, 4051, 4643], "queries": {"click": {"state": {"target": [], "time": []}, "edge": {"target": [], "time": []}}, "mouseover": {"state": {"target": [], "time": []}, "edge": {"target": [], "time": []}}, "mouseout": {"state": {"target": [], "time": []}, "edge": {"target": [], "time": []}}}, "displayed_time": "15.17", "trialTime": 18387, "trial_type": "mouselab-mdp", "trial_index": 46, "time_elapsed": 1090815, "internal_node_id": "0.0-4.0-1.0-25.0"}}, {"uniqueid": "w50449936:a78419395", "current_trial": 47, "dateTime": 1691073892548, "trialdata": {"revealed_states": [], "clicked_states": [], "num_clicks_accrued": [0, 0, 0, 0, 0, 0, 0, 0, 0, 0, 0, 0, 0], "stateRewards": ["", -1, 3, 8, 10, -86, 61, -36, 10, 17, -60, 24, -1, -3, 3, 11, 50, 60, 33, -3, -20, 58, -6, 1, -4, -4, 13, -70, -71, 43, 14, 52, 82, -11], "withholdReward": false, "trial_id": "mdp_trial_27", "block": "test", "trialIndex": 32, "score": 89, "costs": 0, "simulationMode": [null, null, null, null, null], "rewards": [1, -4, -4, 14, 82], "path": ["0", "0", "23", "24", "25", "30", "32"], "rt": [472, 393, 97, 15, 67], "actions": ["left", "left", "left", "down", "down"], "actionTimes": [2222, 3116, 3706, 4224, 4806], "queries": {"click": {"state": {"target": [], "time": []}, "edge": {"target": [], "time": []}}, "mouseover": {"state": {"target": [], "time": []}, "edge": {"target": [], "time": []}}, "mouseout": {"state": {"target": [], "time": []}, "edge": {"target": [], "time": []}}}, "displayed_time": "15.75", "trialTime": 16000, "trial_type": "mouselab-mdp", "trial_index": 47, "time_elapsed": 1107238, "internal_node_id": "0.0-4.0-1.0-26.0"}}, {"uniqueid": "w50449936:a78419395", "current_trial": 48, "dateTime": 1691073910857, "trialdata": {"revealed_states": [], "clicked_states": [], "num_clicks_accrued": [0, 0, 0, 0, 0, 0, 0, 0, 0, 0, 0, 0, 0], "stateRewards": ["", 1, 2, -8, 9, 18, -83, -11, 6, -64, -48, 17, -2, -2, -5, -3, -24, -3, -86, -2, 48, -41, -22, -2, 4, 7, 8, 81, 13, -48, 10, 61, 19, 57], "withholdReward": false, "trial_id": "mdp_trial_28", "block": "test", "trialIndex": 33, "score": 30, "costs": 0, "simulationMode": [null, null, null, null, null], "rewards": [-2, 4, 7, 8, 13], "path": ["0", "0", "23", "24", "25", "26", "28"], "rt": [248, 286, 41, 446, 512], "actions": ["left", "left", "left", "up", "right"], "actionTimes": [1502, 2285, 2823, 3778, 4809], "queries": {"click": {"state": {"target": [], "time": []}, "edge": {"target": [], "time": []}}, "mouseover": {"state": {"target": [], "time": []}, "edge": {"target": [], "time": []}}, "mouseout": {"state": {"target": [], "time": []}, "edge": {"target": [], "time": []}}}, "displayed_time": "15.26", "trialTime": 17884, "trial_type": "mouselab-mdp", "trial_index": 48, "time_elapsed": 1125547, "internal_node_id": "0.0-4.0-1.0-27.0"}}, {"uniqueid": "w50449936:a78419395", "current_trial": 49, "dateTime": 1691073937464, "trialdata": {"revealed_states": [], "clicked_states": [], "num_clicks_accrued": [0, 0, 0, 0, 0, 0, 0, 0, 0, 0, 0, 0, 0], "stateRewards": ["", 2, -4, -4, 13, -80, 62, 13, -11, 57, -13, -44, 1, 4, 3, -4, -29, -88, 15, 16, -58, 68, -45, -1, -3, -1, -9, -44, -86, -19, -7, -36, 59, 66], "withholdReward": false, "trial_id": "mdp_trial_29", "block": "test", "trialIndex": 34, "score": -21, "costs": 0, "simulationMode": [null, null, null, null, null], "rewards": [1, 4, 3, 16, -45], "path": ["0", "0", "12", "13", "14", "19", "22"], "rt": [6351, 475, 344, 86, 63], "actions": ["right", "right", "right", "down", "left"], "actionTimes": [7884, 8861, 9698, 10305, 10885], "queries": {"click": {"state": {"target": [], "time": []}, "edge": {"target": [], "time": []}}, "mouseover": {"state": {"target": [], "time": []}, "edge": {"target": [], "time": []}}, "mouseout": {"state": {"target": [], "time": []}, "edge": {"target": [], "time": []}}}, "displayed_time": "15.53", "trialTime": 26164, "trial_type": "mouselab-mdp", "trial_index": 49, "time_elapsed": 1152154, "internal_node_id": "0.0-4.0-1.0-28.0"}}, {"uniqueid": "w50449936:a78419395", "current_trial": 50, "dateTime": 1691073954056, "trialdata": {"revealed_states": [], "clicked_states": [], "num_clicks_accrued": [0, 0, 0, 0, 0, 0, 0, 0, 0, 0, 0, 0, 0], "stateRewards": ["", 1, 4, 5, -5, 58, -80, 75, 6, 25, -39, 46, 2, -2, 4, 2, 59, 31, -22, -12, -61, 15, 72, 1, -2, -7, 8, 77, 76, -23, -7, 71, -15, -3], "withholdReward": false, "trial_id": "mdp_trial_30", "block": "test", "trialIndex": 35, "score": -23, "costs": 0, "simulationMode": [null, null, null, null, null], "rewards": [1, -2, -7, 8, -23], "path": ["0", "0", "23", "24", "25", "26", "29"], "rt": [979, 3, 104, 54, 146], "actions": ["left", "left", "left", "up", "left"], "actionTimes": [2322, 2829, 3464, 4013, 4688], "queries": {"click": {"state": {"target": [], "time": []}, "edge": {"target": [], "time": []}}, "mouseover": {"state": {"target": [], "time": []}, "edge": {"target": [], "time": []}}, "mouseout": {"state": {"target": [], "time": []}, "edge": {"target": [], "time": []}}}, "displayed_time": "15.35", "trialTime": 16162, "trial_type": "mouselab-mdp", "trial_index": 50, "time_elapsed": 1168746, "internal_node_id": "0.0-4.0-1.0-29.0"}}, {"uniqueid": "w50449936:a78419395", "current_trial": 51, "dateTime": 1691073986060, "trialdata": {"revealed_states": [], "clicked_states": [], "num_clicks_accrued": [0, 0, 0, 0, 0, 0, 0, 0, 0, 0, 0, 0, 0], "stateRewards": ["", -2, 2, 3, -7, -31, -33, 29, -8, -57, 50, -83, -1, -1, 5, 13, -23, -62, 25, 5, -66, -85, 14, 1, -2, -1, 16, 71, 33, -19, -14, 5, -43, 79], "withholdReward": false, "trial_id": "mdp_trial_31", "block": "test", "trialIndex": 36, "score": -59, "costs": 0, "simulationMode": [null, null, null, null, null], "rewards": [1, -2, -1, -14, -43], "path": ["0", "0", "23", "24", "25", "30", "32"], "rt": [423, 40, 178, 238, 229], "actions": ["left", "left", "left", "down", "down"], "actionTimes": [2694, 3225, 3914, 4656, 5398], "queries": {"click": {"state": {"target": [], "time": []}, "edge": {"target": [], "time": []}}, "mouseover": {"state": {"target": [], "time": []}, "edge": {"target": [], "time": []}}, "mouseout": {"state": {"target": [], "time": []}, "edge": {"target": [], "time": []}}}, "displayed_time": "16.28", "trialTime": 31576, "trial_type": "mouselab-mdp", "trial_index": 51, "time_elapsed": 1200750, "internal_node_id": "0.0-4.0-1.0-30.0"}}, {"uniqueid": "w50449936:a78419395", "current_trial": 52, "dateTime": 1691074018190, "trialdata": {"revealed_states": [], "clicked_states": [], "num_clicks_accrued": [0, 0, 0, 0, 0, 0, 0, 0, 0, 0, 0, 0, 0], "stateRewards": ["", -2, 3, 8, -9, 59, 41, -50, -1, 82, 66, 33, 2, -2, 7, 8, 1, -38, 12, -16, 24, -37, 67, 1, 4, -2, 5, 35, -83, 28, 8, -27, 69, -64], "withholdReward": false, "trial_id": "mdp_trial_32", "block": "test", "trialIndex": 37, "score": -53, "costs": 0, "simulationMode": [null, null, null, null, null], "rewards": [1, 4, -2, 8, -64], "path": ["0", "0", "23", "24", "25", "30", "33"], "rt": [634, 617, 42, 73, 56], "actions": ["left", "left", "left", "down", "left"], "actionTimes": [2584, 3723, 4265, 4845, 5396], "queries": {"click": {"state": {"target": [], "time": []}, "edge": {"target": [], "time": []}}, "mouseover": {"state": {"target": [], "time": []}, "edge": {"target": [], "time": []}}, "mouseout": {"state": {"target": [], "time": []}, "edge": {"target": [], "time": []}}}, "displayed_time": "15.95", "trialTime": 31697, "trial_type": "mouselab-mdp", "trial_index": 52, "time_elapsed": 1232880, "internal_node_id": "0.0-4.0-1.0-31.0"}}, {"uniqueid": "w50449936:a78419395", "current_trial": 53, "dateTime": 1691074040342, "trialdata": {"revealed_states": [], "clicked_states": [], "num_clicks_accrued": [0, 0, 0, 0, 0, 0, 0, 0, 0, 0, 0, 0, 0], "stateRewards": ["", 1, 1, -5, 8, -6, 45, 16, -6, -7, -22, -38, -1, -4, 8, -11, -16, 21, -45, -15, -59, -32, 42, -1, 3, 6, 11, -7, 34, -27, -8, 85, 43, -9], "withholdReward": false, "trial_id": "mdp_trial_33", "block": "test", "trialIndex": 38, "score": -31, "costs": 0, "simulationMode": [null, null, null, null, null], "rewards": [1, 1, -5, -6, -22], "path": ["0", "0", "1", "2", "3", "8", "10"], "rt": [351, 390, 89, 4, 49], "actions": ["up", "up", "up", "left", "down"], "actionTimes": [2175, 3059, 3641, 4159, 4718], "queries": {"click": {"state": {"target": [], "time": []}, "edge": {"target": [], "time": []}}, "mouseover": {"state": {"target": [], "time": []}, "edge": {"target": [], "time": []}}, "mouseout": {"state": {"target": [], "time": []}, "edge": {"target": [], "time": []}}}, "displayed_time": "15.83", "trialTime": 21694, "trial_type": "mouselab-mdp", "trial_index": 53, "time_elapsed": 1255031, "internal_node_id": "0.0-4.0-1.0-32.0"}}, {"uniqueid": "w50449936:a78419395", "current_trial": 54, "dateTime": 1691074069768, "trialdata": {"revealed_states": [], "clicked_states": [], "num_clicks_accrued": [0, 0, 0, 0, 0, 0, 0, 0, 0, 0, 0, 0, 0], "stateRewards": ["", 1, 2, -3, 6, -88, 74, -45, 7, -46, 40, -77, 1, -4, 4, 3, 22, -25, -59, 8, -83, 19, -60, -1, -1, -1, -8, 26, -29, 64, -7, -88, -51, -55], "withholdReward": false, "trial_id": "mdp_trial_34", "block": "test", "trialIndex": 39, "score": 47, "costs": 0, "simulationMode": [null, null, null, null, null], "rewards": [1, 2, -3, 7, 40], "path": ["0", "0", "1", "2", "3", "8", "10"], "rt": [430, 466, 76, 37, 369], "actions": ["up", "up", "up", "left", "down"], "actionTimes": [2982, 3942, 4535, 5064, 5946], "queries": {"click": {"state": {"target": [], "time": []}, "edge": {"target": [], "time": []}}, "mouseover": {"state": {"target": [], "time": []}, "edge": {"target": [], "time": []}}, "mouseout": {"state": {"target": [], "time": []}, "edge": {"target": [], "time": []}}}, "displayed_time": "16.55", "trialTime": 28980, "trial_type": "mouselab-mdp", "trial_index": 54, "time_elapsed": 1284458, "internal_node_id": "0.0-4.0-1.0-33.0"}}, {"uniqueid": "w50449936:a78419395", "current_trial": 55, "dateTime": 1691074085881, "trialdata": {"revealed_states": [], "clicked_states": [], "num_clicks_accrued": [0, 0, 0, 0, 0, 0, 0, 0, 0, 0, 0, 0, 0], "stateRewards": ["", -1, -2, -1, -10, -57, 73, -72, -16, 75, -14, -46, -2, -3, -7, -1, -61, -60, 76, -4, 50, 4, 14, 2, 2, -7, 12, -65, -32, 15, -8, -76, -25, -61], "withholdReward": false, "trial_id": "mdp_trial_35", "block": "test", "trialIndex": 40, "score": -73, "costs": 0, "simulationMode": [null, null, null, null, null], "rewards": [-2, -3, -7, -1, -60], "path": ["0", "0", "12", "13", "14", "15", "17"], "rt": [505, 571, 33, 84, 431], "actions": ["right", "right", "right", "up", "right"], "actionTimes": [1782, 2854, 3384, 3967, 4916], "queries": {"click": {"state": {"target": [], "time": []}, "edge": {"target": [], "time": []}}, "mouseover": {"state": {"target": [], "time": []}, "edge": {"target": [], "time": []}}, "mouseout": {"state": {"target": [], "time": []}, "edge": {"target": [], "time": []}}}, "displayed_time": "15.28", "trialTime": 15686, "trial_type": "mouselab-mdp", "trial_index": 55, "time_elapsed": 1300571, "internal_node_id": "0.0-4.0-1.0-34.0"}}, {"uniqueid": "w50449936:a78419395", "current_trial": 56, "dateTime": 1691074109395, "trialdata": {"revealed_states": [], "clicked_states": [], "num_clicks_accrued": [0, 0, 0, 0, 0, 0, 0, 0, 0, 0, 0, 0, 0], "stateRewards": ["", 2, 4, -6, -13, -75, -81, 30, 7, 5, 59, -65, -1, -1, 7, 14, -38, 36, -41, 1, -54, -5, 64, 2, -1, 5, 6, -19, 79, 11, 16, -33, -50, 58], "withholdReward": false, "trial_id": "mdp_trial_36", "block": "test", "trialIndex": 41, "score": -7, "costs": 0, "simulationMode": [null, null, null, null, null], "rewards": [2, -1, 5, 6, -19], "path": ["0", "0", "23", "24", "25", "26", "27"], "rt": [484, 4, 46, 11, 22], "actions": ["left", "left", "left", "up", "up"], "actionTimes": [1340, 1840, 2399, 2929, 3463], "queries": {"click": {"state": {"target": [], "time": []}, "edge": {"target": [], "time": []}}, "mouseover": {"state": {"target": [], "time": []}, "edge": {"target": [], "time": []}}, "mouseout": {"state": {"target": [], "time": []}, "edge": {"target": [], "time": []}}}, "displayed_time": "14.86", "trialTime": 23086, "trial_type": "mouselab-mdp", "trial_index": 56, "time_elapsed": 1324085, "internal_node_id": "0.0-4.0-1.0-35.0"}}, {"uniqueid": "w50449936:a78419395", "current_trial": 57, "dateTime": 1691074132329, "trialdata": {"revealed_states": [], "clicked_states": [], "num_clicks_accrued": [0, 0, 0, 0, 0, 0, 0, 0, 0, 0, 0, 0, 0], "stateRewards": ["", -1, -2, 4, 9, 10, -75, 39, 16, -43, 88, -19, -1, 1, 2, 4, -31, 10, 73, 12, 41, -64, -81, -2, 2, -6, 1, -81, -1, -26, 3, -59, -3, -20], "withholdReward": false, "trial_id": "mdp_trial_37", "block": "test", "trialIndex": 42, "score": -6, "costs": 0, "simulationMode": [null, null, null, null, null], "rewards": [-2, 2, -6, 3, -3], "path": ["0", "0", "23", "24", "25", "30", "32"], "rt": [837, 17, 452, 248, 45], "actions": ["left", "left", "left", "down", "down"], "actionTimes": [1557, 2076, 3030, 3797, 4339], "queries": {"click": {"state": {"target": [], "time": []}, "edge": {"target": [], "time": []}}, "mouseover": {"state": {"target": [], "time": []}, "edge": {"target": [], "time": []}}, "mouseout": {"state": {"target": [], "time": []}, "edge": {"target": [], "time": []}}}, "displayed_time": "14.72", "trialTime": 22482, "trial_type": "mouselab-mdp", "trial_index": 57, "time_elapsed": 1347020, "internal_node_id": "0.0-4.0-1.0-36.0"}}, {"uniqueid": "w50449936:a78419395", "current_trial": 58, "dateTime": 1691074158780, "trialdata": {"revealed_states": [], "clicked_states": [], "num_clicks_accrued": [0, 0, 0, 0, 0, 0, 0, 0, 0, 0, 0, 0, 0], "stateRewards": ["", 1, 2, -3, -6, 50, -7, 7, -7, -80, 21, -1, 2, 2, 4, -1, 33, 84, 1, 14, -53, 81, 6, -2, -2, -3, -9, -87, -38, -59, -5, -74, -3, -71], "withholdReward": false, "trial_id": "mdp_trial_38", "block": "test", "trialIndex": 43, "score": -15, "costs": 0, "simulationMode": [null, null, null, null, null], "rewards": [-2, -2, -3, -5, -3], "path": ["0", "0", "23", "24", "25", "30", "32"], "rt": [304, 45, 117, 839, 160], "actions": ["left", "left", "left", "down", "down"], "actionTimes": [1044, 1584, 2237, 3577, 4249], "queries": {"click": {"state": {"target": [], "time": []}, "edge": {"target": [], "time": []}}, "mouseover": {"state": {"target": [], "time": []}, "edge": {"target": [], "time": []}}, "mouseout": {"state": {"target": [], "time": []}, "edge": {"target": [], "time": []}}}, "displayed_time": "14.74", "trialTime": 26010, "trial_type": "mouselab-mdp", "trial_index": 58, "time_elapsed": 1373471, "internal_node_id": "0.0-4.0-1.0-37.0"}}, {"uniqueid": "w50449936:a78419395", "current_trial": 59, "dateTime": 1691074175515, "trialdata": {"revealed_states": [], "clicked_states": [], "num_clicks_accrued": [0, 0, 0, 0, 0, 0, 0, 0, 0, 0, 0, 0, 0], "stateRewards": ["", 1, 1, 1, 15, -76, 52, -32, 14, -57, 37, 49, 1, -4, -3, 6, 83, -76, 25, 9, 36, -1, -17, -1, 4, 4, -2, -22, -21, 58, -15, -57, 49, -24], "withholdReward": false, "trial_id": "mdp_trial_39", "block": "test", "trialIndex": 44, "score": 41, "costs": 0, "simulationMode": [null, null, null, null, null], "rewards": [-1, 4, 4, -15, 49], "path": ["0", "0", "23", "24", "25", "30", "32"], "rt": [288, 457, 14, 405, 71], "actions": ["left", "left", "left", "down", "down"], "actionTimes": [1864, 2825, 3332, 4274, 4856], "queries": {"click": {"state": {"target": [], "time": []}, "edge": {"target": [], "time": []}}, "mouseover": {"state": {"target": [], "time": []}, "edge": {"target": [], "time": []}}, "mouseout": {"state": {"target": [], "time": []}, "edge": {"target": [], "time": []}}}, "displayed_time": "15.58", "trialTime": 16291, "trial_type": "mouselab-mdp", "trial_index": 59, "time_elapsed": 1390206, "internal_node_id": "0.0-4.0-1.0-38.0"}}, {"uniqueid": "w50449936:a78419395", "current_trial": 60, "dateTime": 1691074192065, "trialdata": {"revealed_states": [], "clicked_states": [], "num_clicks_accrued": [0, 0, 0, 0, 0, 0, 0, 0, 0, 0, 0, 0, 0], "stateRewards": ["", 1, 2, -5, 14, 54, -14, -25, 16, -5, -87, 78, -1, 1, 3, -3, 52, 53, 53, -10, 73, -69, -48, 2, 3, 1, 8, -62, -7, 85, 7, 82, 52, -28], "withholdReward": false, "trial_id": "mdp_trial_40", "block": "test", "trialIndex": 45, "score": -48, "costs": 0, "simulationMode": [null, null, null, null, null], "rewards": [2, 3, 1, 8, -62], "path": ["0", "0", "23", "24", "25", "26", "27"], "rt": [450, 76, 66, 16, 8], "actions": ["left", "left", "left", "up", "up"], "actionTimes": [1249, 1828, 2401, 2951, 3460], "queries": {"click": {"state": {"target": [], "time": []}, "edge": {"target": [], "time": []}}, "mouseover": {"state": {"target": [], "time": []}, "edge": {"target": [], "time": []}}, "mouseout": {"state": {"target": [], "time": []}, "edge": {"target": [], "time": []}}}, "displayed_time": "14.80", "trialTime": 16108, "trial_type": "mouselab-mdp", "trial_index": 60, "time_elapsed": 1406755, "internal_node_id": "0.0-4.0-1.0-39.0"}}, {"uniqueid": "w50449936:a78419395", "current_trial": 61, "dateTime": 1691074233318, "trialdata": {"rt": 41245, "response": {"Q0": "$-2 to $2", "Q1": "$-4 to $4", "Q2": "$-16 to $16", "Q3": "The cost for clicking on nodes varied between nodes.", "Q4": "Very unmotivated"}, "question_order": [0, 1, 2, 3, 4], "trial_id": "final_quiz_control", "trial_type": "survey-multi-choice", "trial_index": 61, "time_elapsed": 1448008, "internal_node_id": "0.0-4.0-2.0"}}, {"uniqueid": "w50449936:a78419395", "current_trial": 62, "dateTime": 1691074291821, "trialdata": {"rt": 58482, "response": {"Q0": "Used the same path", "Q1": "no", "Q2": "bit difficult"}, "trial_id": "self_report_control", "trial_type": "survey-text", "trial_index": 62, "time_elapsed": 1506512, "internal_node_id": "0.0-4.0-3.0"}}, {"uniqueid": "w50449936:a78419395", "current_trial": 63, "dateTime": 1691074349363, "trialdata": {"rt": 57534, "response": {"Q0": "Agree", "Q1": "Agree", "Q2": "Agree", "Q3": "Agree", "Q4": "Agree", "Q5": "Disagree", "Q6": "Agree"}, "question_order": [0, 1, 2, 3, 4, 5, 6], "trial_id": "self_report_2", "trial_type": "survey-multi-choice", "trial_index": 63, "time_elapsed": 1564054, "internal_node_id": "0.0-4.0-4.0"}}, {"uniqueid": "w50449936:a78419395", "current_trial": 64, "dateTime": 1691074375539, "trialdata": {"rt": 26168, "response": {"gender": "female", "age": "56", "colorblind": "0", "effort": "3"}, "trial_type": "survey-html-form", "trial_index": 64, "time_elapsed": 1590230, "internal_node_id": "0.0-4.0-5.0"}}, {"uniqueid": "w50449936:a78419395", "current_trial": 65, "dateTime": 1691074390808, "trialdata": {"rt": 15256, "response": {"Q0": "no", "Q1": "no", "Q2": ""}, "trial_type": "survey-text", "trial_index": 65, "time_elapsed": 1605499, "internal_node_id": "0.0-4.0-6.0"}}, {"uniqueid": "w50449936:a78419395", "current_trial": 66, "dateTime": 1691074413892, "trialdata": {"rt": 23069, "stimulus": "Press 'Finish HIT' in order to reach the completion code. Once the data has been saved, you will receive the code either in this window or in the original browser window where you started the experiment.\n", "response": 0, "trial_type": "html-button-response", "trial_index": 66, "time_elapsed": 1628583, "internal_node_id": "0.0-5.0"}}, {"uniqueid": "w50449936:a78419395", "current_trial": 67, "dateTime": 1691074414901, "trialdata": {"success": true, "trial_type": "fullscreen", "trial_index": 67, "time_elapsed": 1629592, "internal_node_id": "0.0-6.0"}}], "questiondata": {"params": {"CODE": "C6DMOQA6", "MIN_TIME": 14, "inspectCost": 1, "startTime": "Thu Aug 03 2023 15:26:24 GMT+0100 (British Summer Time)", "bonusRate": 0.002, "variance": "1_2_4_8_44", "branching": "31123"}, "final_score": -280.5}, "eventdata": [{"eventtype": "initialized", "value": null, "timestamp": 1691072784120, "interval": 0}, {"eventtype": "window_resize", "value": [1366, 670], "timestamp": 1691072784121, "interval": 1}, {"eventtype": "window_resize", "value": [1366, 670], "timestamp": 1691072784439, "interval": 318}, {"eventtype": "window_resize", "value": [1366, 768], "timestamp": 1691072791428, "interval": 6989}, {"eventtype": "focus", "value": "off", "timestamp": 1691072936978, "interval": 145550}, {"eventtype": "focus", "value": "on", "timestamp": 1691072936979, "interval": 1}, {"eventtype": "window_resize", "value": [1366, 670], "timestamp": 1691072937192, "interval": 213}, {"eventtype": "window_resize", "value": [1366, 768], "timestamp": 1691072938968, "interval": 1776}, {"eventtype": "focus", "value": "off", "timestamp": 1691073128670, "interval": 189702}, {"eventtype": "focus", "value": "on", "timestamp": 1691073128670, "interval": 0}, {"eventtype": "window_resize", "value": [1366, 670], "timestamp": 1691073128884, "interval": 214}, {"eventtype": "window_resize", "value": [1366, 768], "timestamp": 1691073130194, "interval": 1310}, {"eventtype": "window_resize", "value": [1366, 670], "timestamp": 1691074352828, "interval": 1222634}, {"eventtype": "focus", "value": "off", "timestamp": 1691074354997, "interval": 2169}, {"eventtype": "focus", "value": "on", "timestamp": 1691074356996, "interval": 1999}, {"eventtype": "focus", "value": "off", "timestamp": 1691074358000, "interval": 1004}, {"eventtype": "focus", "value": "on", "timestamp": 1691074361534, "interval": 3534}], "useragent": "Mozilla/5.0 (Windows NT 10.0; Win64; x64) AppleWebKit/537.36 (KHTML, like Gecko) Chrome/115.0.0.0 Safari/537.36", "mode": "live", "id": "w50449936:a78419395", "status": "user data saved", "Beginhit": "2023-08-03 14:26:22.459622", "Beginexp": "2023-08-03 14:26:32.453866", "Endhit": "2023-08-03 14:53:35.611308", "psiturkStatus": 3, "browser": "<redacted>", "platform": "windows", "language": "en-US", "excludeReason": "noeffort"}