{"condition": 0, "counterbalance": 0, "assignmentId": "a90031415", "workerId": "w32696540", "hitId": "h50624294", "currenttrial": 61, "bonus": 0, "data": [{"uniqueid": "w32696540:a90031415", "current_trial": 0, "dateTime": 1693480669751, "trialdata": {"success": true, "trial_type": "fullscreen", "trial_index": 0, "time_elapsed": 9179, "internal_node_id": "0.0-0.0"}}, {"uniqueid": "w32696540:a90031415", "current_trial": 1, "dateTime": 1693480698963, "trialdata": {"view_history": [{"page_index": 0, "viewing_time": 29202}], "rt": 29203, "trial_id": "exp_instructions_control", "trial_type": "instructions", "trial_index": 1, "time_elapsed": 38391, "internal_node_id": "0.0-1.0"}}, {"uniqueid": "w32696540:a90031415", "current_trial": 2, "dateTime": 1693481076858, "trialdata": {"view_history": [{"page_index": 0, "viewing_time": 109533}, {"page_index": 1, "viewing_time": 49393}, {"page_index": 0, "viewing_time": 184663}, {"page_index": 1, "viewing_time": 11345}, {"page_index": 2, "viewing_time": 17200}, {"page_index": 3, "viewing_time": 5760}], "rt": 377893, "trial_id": "mouselab_instructions_1_control", "trial_type": "instructions", "trial_index": 2, "time_elapsed": 416286, "internal_node_id": "0.0-2.0-1.0"}}, {"uniqueid": "w32696540:a90031415", "current_trial": 3, "dateTime": 1693481161610, "trialdata": {"revealed_states": [], "clicked_states": ["1", "12", "23", "24", "25", "30", "31", "33", "3", "2", "8", "5", "4", "7", "6", "13", "18", "15", "16", "17", "14"], "num_clicks_accrued": [0, 0, 0, 0, 0, 0, 0, 0, 0, 0, 0, 0, 0], "stateRewards": ["", 10, 10, 10, 10, -10, 10, 10, -10, -10, 10, 10, 10, -10, 10, -10, 10, -10, -10, 10, -10, 10, 10, 10, 10, 10, 10, 10, -10, -10, -10, 10, 10, 10], "withholdReward": false, "trial_id": "practice_1", "block": "test", "trialIndex": 0, "score": 3, "costs": -10.5, "simulationMode": [null, null, null, null, null], "rewards": [10, -10, 10, -10, 10], "path": ["0", "0", "12", "13", "14", "15", "16"], "rt": [68923, 1212, 478, 1709, 215], "actions": ["right", "right", "right", "up", "up"], "actionTimes": [71010, 72723, 73722, 75953, 76678], "queries": {"click": {"state": {"target": ["1", "12", "23", "24", "25", "30", "31", "33", "3", "2", "8", "5", "4", "7", "6", "13", "18", "15", "16", "17", "14"], "time": [3401, 8271, 12434, 15455, 18401, 22481, 25278, 28093, 30686, 34370, 36549, 39423, 41511, 43445, 46231, 49216, 50480, 51856, 53088, 54367, 62927]}, "edge": {"target": [], "time": []}}, "mouseover": {"state": {"target": ["1", "12", "12", "23", "24", "23", "25", "24", "30", "31", "30", "33", "30", "24", "10", "2", "3", "2", "2", "10", "8", "3", "4", "4", "5", "4", "7", "6", "12", "13", "18", "15", "15", "16", "17", "0", "12", "15", "16", "15", "14", "19", "14", "19", "12", "12", "12"], "time": [2572, 6663, 7979, 11930, 15095, 17112, 17879, 19729, 22128, 24194, 27394, 27745, 29031, 29961, 30113, 30194, 30545, 33145, 34211, 35677, 35911, 38095, 38328, 38777, 39219, 41027, 43177, 46060, 48626, 48960, 50127, 51393, 51677, 52512, 54011, 56275, 56743, 60378, 60892, 61893, 61993, 62176, 62592, 64793, 66425, 68392, 68626]}, "edge": {"target": [], "time": []}}, "mouseout": {"state": {"target": ["3", "1", "1", "1", "12", "12", "12", "23", "23", "24", "23", "24", "25", "24", "25", "30", "31", "30", "33", "30", "24", "10", "2", "3", "2", "2", "10", "8", "3", "4", "4", "5", "4", "7", "4", "6", "12", "13", "18", "15", "15", "16", "17", "0", "12", "15", "16", "15", "14", "19", "14", "19", "12", "12", "12", "0", "0"], "time": [1113, 4231, 6097, 6579, 7429, 9395, 10512, 13763, 14829, 16862, 17529, 17762, 19363, 21345, 21761, 23994, 27361, 27427, 28830, 29795, 29977, 30128, 30211, 31778, 33627, 35427, 35744, 37961, 38227, 38643, 38895, 40627, 43044, 43546, 45944, 47777, 48877, 49793, 51244, 51543, 52362, 53678, 55078, 56426, 58960, 60425, 61826, 61943, 62076, 62510, 64042, 66360, 66477, 68542, 68794, 82241, 82474]}, "edge": {"target": [], "time": []}}}, "displayed_time": "77.18", "trialTime": 84156, "trial_type": "mouselab-mdp", "trial_index": 3, "time_elapsed": 501037, "internal_node_id": "0.0-2.0-2.0-0.0"}}, {"uniqueid": "w32696540:a90031415", "current_trial": 4, "dateTime": 1693481193638, "trialdata": {"revealed_states": [], "clicked_states": ["1", "2", "3", "4", "7", "5", "6", "8"], "num_clicks_accrued": [0, 0, 0, 0, 0, 0, 0, 0, 0, 0, 0, 0, 0], "stateRewards": ["", -10, 10, 10, 10, 10, 10, -10, -10, 10, -10, -10, -10, 10, 10, 10, 10, -10, 10, -10, -10, 10, 10, 10, 10, 10, -10, -10, 10, -10, -10, -10, 10, 10], "withholdReward": false, "trial_id": "practice_2", "block": "test", "trialIndex": 1, "score": 29.5, "costs": -4, "simulationMode": [null, null, null, null, null], "rewards": [-10, 10, 10, 10, 10], "path": ["0", "0", "1", "2", "3", "4", "5"], "rt": [19367, 302, 195, 206, 117], "actions": ["up", "up", "up", "right", "up"], "actionTimes": [22999, 23808, 24516, 25228, 25839], "queries": {"click": {"state": {"target": ["1", "2", "3", "4", "7", "5", "6", "8"], "time": [4713, 6418, 8126, 9667, 11155, 12982, 14448, 16546]}, "edge": {"target": [], "time": []}}, "mouseover": {"state": {"target": ["1", "2", "10", "3", "4", "7", "5", "6", "4", "3", "8", "2", "12"], "time": [4254, 6072, 7057, 7656, 8623, 10156, 12854, 13421, 15257, 15356, 15971, 18321, 20670]}, "edge": {"target": [], "time": []}}, "mouseout": {"state": {"target": ["12", "28", "26", "29", "11", "10", "1", "1", "2", "10", "3", "4", "7", "7", "4", "5", "6", "6", "4", "3", "8", "2", "12", "18", "1", "0"], "time": [1220, 1287, 1321, 1354, 1820, 1971, 3203, 5357, 6874, 7139, 8539, 10073, 11259, 11572, 12722, 13356, 14555, 15188, 15323, 15587, 17937, 18504, 21139, 28387, 28886, 29003]}, "edge": {"target": [], "time": []}}}, "displayed_time": "26.34", "trialTime": 31714, "trial_type": "mouselab-mdp", "trial_index": 4, "time_elapsed": 533065, "internal_node_id": "0.0-2.0-2.0-1.0"}}, {"uniqueid": "w32696540:a90031415", "current_trial": 5, "dateTime": 1693481256753, "trialdata": {"view_history": [{"page_index": 0, "viewing_time": 47319}, {"page_index": 1, "viewing_time": 15791}], "rt": 63110, "trial_id": "mouselab_instructions_2_control", "trial_type": "instructions", "trial_index": 5, "time_elapsed": 596181, "internal_node_id": "0.0-2.0-3.0"}}, {"uniqueid": "w32696540:a90031415", "current_trial": 6, "dateTime": 1693481320571, "trialdata": {"rt": 63811, "response": {"Q0": "The cost for clicking on nodes may vary between nodes.", "Q1": "The better I perform the higher my bonus will be.", "Q2": "No, the amount of cash at each node of the web may be different each time.", "Q3": "To get the highest total score.", "Q4": "Only after moving the spider.", "Q5": "3 seconds"}, "question_order": [0, 1, 2, 3, 4, 5], "correct": {"Q0": "The cost for clicking on nodes may vary between nodes.", "Q1": "The better I perform the higher my bonus will be.", "Q2": "No, the amount of cash at each node of the web may be different each time.", "Q3": "To get the highest total score.", "Q4": "Only before moving the spider.", "Q5": "3 seconds"}, "trial_id": "mouselab_quiz_control", "trial_type": "survey-multi-choice", "trial_index": 6, "time_elapsed": 659998, "internal_node_id": "0.0-2.0-4.0"}}, {"uniqueid": "w32696540:a90031415", "current_trial": 7, "dateTime": 1693481335099, "trialdata": {"success": true, "trial_type": "fullscreen", "trial_index": 7, "time_elapsed": 674527, "internal_node_id": "0.0-2.1-0.1-0.1"}}, {"uniqueid": "w32696540:a90031415", "current_trial": 8, "dateTime": 1693481484457, "trialdata": {"view_history": [{"page_index": 0, "viewing_time": 55140}, {"page_index": 1, "viewing_time": 47224}, {"page_index": 2, "viewing_time": 14800}, {"page_index": 3, "viewing_time": 32192}], "rt": 149356, "trial_id": "mouselab_instructions_1_control", "trial_type": "instructions", "trial_index": 8, "time_elapsed": 823885, "internal_node_id": "0.0-2.1-1.1"}}, {"uniqueid": "w32696540:a90031415", "current_trial": 9, "dateTime": 1693481506776, "trialdata": {"revealed_states": [], "clicked_states": ["1", "2", "3", "8", "4", "5", "6"], "num_clicks_accrued": [0, 0, 0, 0, 0, 0, 0, 0, 0, 0, 0, 0, 0], "stateRewards": ["", 10, 10, 10, 10, -10, 10, 10, -10, -10, 10, 10, 10, -10, 10, -10, 10, -10, -10, 10, -10, 10, 10, 10, 10, 10, 10, 10, -10, -10, -10, 10, 10, 10], "withholdReward": false, "trial_id": "practice_1", "block": "test", "trialIndex": 2, "score": 50, "costs": -3.5, "simulationMode": [null, null, null, null, null], "rewards": [10, 10, 10, 10, 10], "path": ["0", "0", "1", "2", "3", "4", "6"], "rt": [12864, 141, 83, 47, 53], "actions": ["up", "up", "up", "right", "right"], "actionTimes": [14828, 15465, 16076, 16620, 17208], "queries": {"click": {"state": {"target": ["1", "2", "3", "8", "4", "5", "6"], "time": [2598, 4308, 5759, 7197, 9608, 11044, 13320]}, "edge": {"target": [], "time": []}}, "mouseover": {"state": {"target": ["1", "2", "10", "2", "3", "8", "9", "4", "5", "3", "6", "4"], "time": [2390, 3088, 3606, 4155, 4788, 6342, 8788, 9354, 10390, 11839, 13221, 13788]}, "edge": {"target": [], "time": []}}, "mouseout": {"state": {"target": ["0", "1", "1", "2", "10", "2", "3", "8", "9", "4", "5", "3", "5", "6", "4", "4", "6", "16", "6", "4", "7", "12"], "time": [687, 1436, 2693, 3589, 3904, 4722, 6189, 8637, 9171, 9716, 11478, 11893, 12987, 13755, 13904, 15804, 15988, 17004, 18335, 18820, 18903, 19069]}, "edge": {"target": [], "time": []}}}, "displayed_time": "17.71", "trialTime": 22039, "trial_type": "mouselab-mdp", "trial_index": 9, "time_elapsed": 846203, "internal_node_id": "0.0-2.1-2.1-0.1"}}, {"uniqueid": "w32696540:a90031415", "current_trial": 10, "dateTime": 1693481537382, "trialdata": {"revealed_states": [], "clicked_states": ["12", "13", "23", "24", "25", "26", "30", "1", "2", "31", "32", "33"], "num_clicks_accrued": [0, 0, 0, 0, 0, 0, 0, 0, 0, 0, 0, 0, 0], "stateRewards": ["", -10, 10, 10, 10, 10, 10, -10, -10, 10, -10, -10, -10, 10, 10, 10, 10, -10, 10, -10, -10, 10, 10, 10, 10, 10, -10, -10, 10, -10, -10, -10, 10, 10], "withholdReward": false, "trial_id": "practice_2", "block": "test", "trialIndex": 3, "score": 27.5, "costs": -6, "simulationMode": [null, null, null, null, null], "rewards": [10, 10, 10, -10, 10], "path": ["0", "0", "23", "24", "25", "30", "33"], "rt": [23383, 254, 101, 74, 167], "actions": ["left", "left", "left", "down", "left"], "actionTimes": [25459, 26219, 26832, 27406, 28082], "queries": {"click": {"state": {"target": ["12", "13", "23", "24", "25", "26", "30", "1", "2", "31", "32", "33"], "time": [3603, 4954, 6658, 8112, 9583, 10984, 13177, 15559, 16875, 19192, 21117, 22566]}, "edge": {"target": [], "time": []}}, "mouseover": {"state": {"target": ["12", "13", "0", "23", "24", "24", "25", "26", "27", "30", "31", "2", "1", "2", "12", "0", "23", "25", "30", "31", "30", "32", "33", "30"], "time": [3413, 4115, 6013, 6380, 7181, 8045, 9050, 10331, 12180, 13030, 14795, 14913, 15429, 15931, 17747, 17865, 17915, 18412, 18946, 19028, 19579, 20882, 21715, 23262]}, "edge": {"target": [], "time": []}}, "mouseout": {"state": {"target": ["1", "12", "13", "13", "12", "0", "23", "24", "24", "25", "26", "27", "26", "25", "30", "30", "31", "2", "1", "2", "12", "0", "23", "25", "30", "31", "30", "32", "33", "30"], "time": [1129, 3948, 5448, 5914, 5980, 6064, 6746, 7779, 8665, 9999, 11748, 12480, 12697, 12779, 13274, 13697, 14812, 15196, 15642, 17414, 17831, 17884, 18046, 18729, 18962, 19547, 20530, 21147, 22996, 24196]}, "edge": {"target": [], "time": []}}}, "displayed_time": "28.60", "trialTime": 30339, "trial_type": "mouselab-mdp", "trial_index": 10, "time_elapsed": 876809, "internal_node_id": "0.0-2.1-2.1-1.1"}}, {"uniqueid": "w32696540:a90031415", "current_trial": 11, "dateTime": 1693481563729, "trialdata": {"view_history": [{"page_index": 0, "viewing_time": 23158}, {"page_index": 1, "viewing_time": 3184}], "rt": 26342, "trial_id": "mouselab_instructions_2_control", "trial_type": "instructions", "trial_index": 11, "time_elapsed": 903156, "internal_node_id": "0.0-2.1-3.1"}}, {"uniqueid": "w32696540:a90031415", "current_trial": 12, "dateTime": 1693481604657, "trialdata": {"rt": 40925, "response": {"Q0": "The cost for clicking on nodes may vary between nodes.", "Q1": "The better I perform the higher my bonus will be.", "Q2": "No, the amount of cash at each node of the web may be different each time.", "Q3": "To get the highest total score.", "Q4": "Only before moving the spider.", "Q5": "3 seconds"}, "question_order": [0, 1, 2, 3, 4, 5], "correct": {"Q0": "The cost for clicking on nodes may vary between nodes.", "Q1": "The better I perform the higher my bonus will be.", "Q2": "No, the amount of cash at each node of the web may be different each time.", "Q3": "To get the highest total score.", "Q4": "Only before moving the spider.", "Q5": "3 seconds"}, "trial_id": "mouselab_quiz_control", "trial_type": "survey-multi-choice", "trial_index": 12, "time_elapsed": 944085, "internal_node_id": "0.0-2.1-4.1"}}, {"uniqueid": "w32696540:a90031415", "current_trial": 13, "dateTime": 1693481612192, "trialdata": {"rt": 7526, "response": {"Q0": "No"}, "question_order": [0], "trial_id": "repeat_check", "trial_type": "survey-multi-choice", "trial_index": 13, "time_elapsed": 951620, "internal_node_id": "0.0-4.0-0.0"}}, {"uniqueid": "w32696540:a90031415", "current_trial": 14, "dateTime": 1693481627526, "trialdata": {"rt": 15327, "stimulus": "\n<h1> Get ready to start the game! </h1>\n\nThank you for reading the instructions. Get ready start with the 40 rounds of this game.\n<br><br>\nIf you need to take a break, feel free to take one after the end of a round, before continuing to the next one.\n<br><br>\nRemember, the more money the spider gets, the bigger your bonus will be!\n<br><br>\n<div style='text-align: center;'>Press <code>space</code> to begin.</div>\n\n<br><br>\n(If, at any point, the <code>space</code> key does not take you to the next page, click once on the text and try again.)", "response": " ", "trial_id": "mdp_ready", "trial_type": "html-keyboard-response", "trial_index": 14, "time_elapsed": 966954, "internal_node_id": "0.0-6.0-0.0"}}, {"uniqueid": "w32696540:a90031415", "current_trial": 15, "dateTime": 1693481679928, "trialdata": {"revealed_states": [], "clicked_states": ["12", "13", "14", "15", "18", "19", "23", "24", "25"], "num_clicks_accrued": [0, 0, 0, 0, 0, 0, 0, 0, 0, 0, 0, 0, 0], "stateRewards": ["", 2, -1, -3, 16, -3, -16, -62, -1, 13, -26, 43, -1, 4, 3, -9, -54, -37, -3, -12, -71, -68, -57, 1, -3, 2, -9, 2, -2, -9, -11, 84, -52, 55], "withholdReward": false, "trial_id": "mdp_trial_1", "block": "test", "trialIndex": 4, "score": -69.6, "costs": -12.600000000000001, "simulationMode": [null, null, null, null, null], "rewards": [-1, 4, 3, -9, -54], "path": ["0", "0", "12", "13", "14", "15", "16"], "rt": [23413, 179, 61, 19817, 3], "actions": ["right", "right", "right", "up", "up"], "actionTimes": [25900, 26595, 27160, 47483, 48001], "queries": {"click": {"state": {"target": ["12", "13", "14", "15", "18", "19", "23", "24", "25"], "time": [3610, 5827, 8050, 10270, 12886, 15084, 18369, 20353, 22320]}, "edge": {"target": [], "time": []}}, "mouseover": {"state": {"target": ["12", "13", "14", "15", "18", "14", "19", "22", "23", "24", "24", "25", "23"], "time": [3181, 4167, 7699, 9854, 12597, 14050, 14874, 15514, 18080, 18947, 19681, 20665, 24546]}, "edge": {"target": [], "time": []}}, "mouseout": {"state": {"target": ["10", "12", "12", "13", "14", "15", "18", "15", "14", "19", "22", "23", "23", "24", "24", "25", "24", "23", "0", "22", "14", "14", "13", "14", "22", "22", "13", "15", "16", "18", "24", "24", "24", "31"], "time": [1597, 3688, 3934, 6517, 8583, 10749, 13216, 13982, 14870, 15167, 17348, 18467, 18848, 19282, 20616, 22883, 24463, 24780, 29996, 35280, 35929, 36480, 38780, 40530, 40580, 42646, 42846, 44596, 45695, 45829, 46829, 50362, 50678, 51213]}, "edge": {"target": [], "time": []}}}, "displayed_time": "48.53", "trialTime": 52111, "trial_type": "mouselab-mdp", "trial_index": 15, "time_elapsed": 1019355, "internal_node_id": "0.0-6.0-1.0-0.0"}}, {"uniqueid": "w32696540:a90031415", "current_trial": 16, "dateTime": 1693481760780, "trialdata": {"revealed_states": [], "clicked_states": ["1", "2", "3", "4", "8", "23", "24", "25", "7", "5", "6", "26", "30"], "num_clicks_accrued": [0, 0, 0, 0, 0, 0, 0, 0, 0, 0, 0, 0, 0], "stateRewards": ["", 1, 1, 1, -3, -7, -1, -41, -10, 20, -72, -63, 1, -4, -2, 2, -66, 30, -84, -2, 49, 23, 71, -1, -4, 4, -12, 67, 5, 18, -16, 88, 56, -5], "withholdReward": false, "trial_id": "mdp_trial_2", "block": "test", "trialIndex": 5, "score": -19.2, "costs": -18.2, "simulationMode": [null, null, null, null, null], "rewards": [1, 1, 1, -3, -1], "path": ["0", "0", "1", "2", "3", "4", "6"], "rt": [39796, 124, 54, 32587, 459], "actions": ["up", "up", "up", "right", "right"], "actionTimes": [41627, 42266, 42829, 75945, 76916], "queries": {"click": {"state": {"target": ["1", "2", "3", "4", "8", "23", "24", "25", "7", "5", "6", "26", "30"], "time": [2686, 5014, 7276, 9374, 12340, 15760, 17759, 19679, 22455, 25126, 27416, 30981, 33906]}, "edge": {"target": [], "time": []}}, "mouseover": {"state": {"target": ["1", "2", "7", "3", "4", "7", "3", "8", "2", "1", "23", "24", "25", "28", "10", "7", "4", "5", "6", "6", "2", "26", "28", "24", "30", "31", "24", "12", "12"], "time": [2526, 3945, 6360, 7025, 8711, 11725, 11942, 12175, 15141, 15325, 15457, 17575, 19210, 20758, 21124, 21940, 24591, 24924, 25759, 27224, 29557, 30824, 33040, 33340, 33773, 36523, 37390, 38306, 38823]}, "edge": {"target": [], "time": []}}, "mouseout": {"state": {"target": ["0", "1", "2", "7", "3", "4", "4", "7", "3", "8", "8", "8", "2", "1", "23", "24", "25", "28", "10", "7", "4", "5", "6", "6", "6", "2", "26", "28", "24", "30", "30", "31", "24", "12", "12", "12", "1", "2", "8", "3", "4", "13", "31"], "time": [1375, 3250, 6275, 6725, 7694, 10043, 11575, 11858, 12008, 12456, 12825, 14674, 15241, 15392, 17208, 18110, 20408, 20775, 21490, 24507, 24623, 25508, 26142, 27498, 29369, 29607, 32958, 33256, 33356, 33992, 36139, 37256, 37806, 38439, 40423, 47006, 47122, 47339, 47856, 48006, 50089, 69405, 78671]}, "edge": {"target": [], "time": []}}}, "displayed_time": "77.41", "trialTime": 80544, "trial_type": "mouselab-mdp", "trial_index": 16, "time_elapsed": 1100208, "internal_node_id": "0.0-6.0-1.0-1.0"}}, {"uniqueid": "w32696540:a90031415", "current_trial": 17, "dateTime": 1693481787002, "trialdata": {"revealed_states": [], "clicked_states": ["23", "24", "25", "26", "28", "29", "27"], "num_clicks_accrued": [0, 0, 0, 0, 0, 0, 0, 0, 0, 0, 0, 0, 0], "stateRewards": ["", -1, 2, -2, 13, -56, -28, 10, 14, 53, -80, -29, 1, -3, -3, -14, 14, 9, -40, -9, 18, 18, 48, 1, 1, 1, -9, 64, -39, -9, 7, -52, -78, 7], "withholdReward": false, "trial_id": "mdp_trial_3", "block": "test", "trialIndex": 6, "score": 48.2, "costs": -9.8, "simulationMode": [null, null, null, null, null], "rewards": [1, 1, 1, -9, 64], "path": ["0", "0", "23", "24", "25", "26", "27"], "rt": [18743, 228, 122, 144, 53], "actions": ["left", "left", "left", "up", "up"], "actionTimes": [20237, 20964, 21621, 22278, 22853], "queries": {"click": {"state": {"target": ["23", "24", "25", "26", "28", "29", "27"], "time": [2975, 5051, 7036, 8992, 11176, 13975, 16652]}, "edge": {"target": [], "time": []}}, "mouseover": {"state": {"target": ["23", "24", "25", "25", "26", "28", "29", "26", "27", "26", "25"], "time": [2715, 3400, 5437, 5966, 7681, 10883, 13616, 15183, 16451, 16965, 19231]}, "edge": {"target": [], "time": []}}, "mouseout": {"state": {"target": ["0", "0", "23", "23", "24", "25", "25", "26", "28", "26", "29", "29", "26", "27", "26", "25", "28", "0"], "time": [1048, 2331, 3049, 3351, 5367, 5550, 7515, 9717, 11634, 13547, 14034, 14533, 16248, 16914, 16999, 19431, 22248, 24746]}, "edge": {"target": [], "time": []}}}, "displayed_time": "23.39", "trialTime": 25910, "trial_type": "mouselab-mdp", "trial_index": 17, "time_elapsed": 1126429, "internal_node_id": "0.0-6.0-1.0-2.0"}}, {"uniqueid": "w32696540:a90031415", "current_trial": 18, "dateTime": 1693481813096, "trialdata": {"revealed_states": [], "clicked_states": ["12", "23", "24", "25", "30", "32", "31"], "num_clicks_accrued": [0, 0, 0, 0, 0, 0, 0, 0, 0, 0, 0, 0, 0], "stateRewards": ["", -1, -3, 4, -10, -5, 79, -87, -2, 53, 29, -20, -2, -1, -5, 10, 27, 86, 46, -16, -29, 40, 3, 2, 4, -1, -6, 37, 79, -29, 7, 86, -62, 29], "withholdReward": false, "trial_id": "mdp_trial_4", "block": "test", "trialIndex": 7, "score": 88.2, "costs": -9.8, "simulationMode": [null, null, null, null, null], "rewards": [2, 4, -1, 7, 86], "path": ["0", "0", "23", "24", "25", "30", "31"], "rt": [19811, 141, 77, 77, 74], "actions": ["left", "left", "left", "down", "right"], "actionTimes": [20926, 21579, 22162, 22745, 23325], "queries": {"click": {"state": {"target": ["12", "23", "24", "25", "30", "32", "31"], "time": [2431, 4904, 7199, 9208, 11984, 15282, 17697]}, "edge": {"target": [], "time": []}}, "mouseover": {"state": {"target": ["12", "0", "23", "24", "25", "30", "32", "31"], "time": [2267, 4484, 4634, 7050, 7853, 11733, 14784, 17499]}, "edge": {"target": [], "time": []}}, "mouseout": {"state": {"target": ["0", "12", "12", "0", "23", "24", "25", "30", "30", "32", "30", "31"], "time": [833, 3102, 4467, 4533, 7017, 7819, 11019, 12059, 14433, 15364, 16836, 20139]}, "edge": {"target": [], "time": []}}}, "displayed_time": "23.82", "trialTime": 25759, "trial_type": "mouselab-mdp", "trial_index": 18, "time_elapsed": 1152523, "internal_node_id": "0.0-6.0-1.0-3.0"}}, {"uniqueid": "w32696540:a90031415", "current_trial": 19, "dateTime": 1693481848838, "trialdata": {"revealed_states": [], "clicked_states": ["1", "2", "3", "8", "10", "9", "11", "4", "7", "5", "6"], "num_clicks_accrued": [0, 0, 0, 0, 0, 0, 0, 0, 0, 0, 0, 0, 0], "stateRewards": ["", 2, -1, 8, -2, -16, 69, -39, -7, -13, -27, -86, 2, -2, 2, 13, -34, -16, -20, -5, 19, 81, 32, -2, -1, 2, -14, 20, 80, 58, 4, 70, 12, 73], "withholdReward": false, "trial_id": "mdp_trial_5", "block": "test", "trialIndex": 8, "score": 60.599999999999994, "costs": -15.400000000000002, "simulationMode": [null, null, null, null, null], "rewards": [2, -1, 8, -2, 69], "path": ["0", "0", "1", "2", "3", "4", "6"], "rt": [28786, 135, 38, 166, 32], "actions": ["up", "up", "up", "right", "right"], "actionTimes": [30637, 31268, 31819, 32481, 33013], "queries": {"click": {"state": {"target": ["1", "2", "3", "8", "10", "9", "11", "4", "7", "5", "6"], "time": [3477, 6105, 8533, 11149, 13646, 16219, 18802, 20793, 23053, 25354, 27534]}, "edge": {"target": [], "time": []}}, "mouseover": {"state": {"target": ["1", "2", "3", "8", "10", "8", "9", "3", "8", "11", "8", "3", "4", "7", "5", "6", "4", "7", "7"], "time": [3299, 5896, 8230, 10830, 13430, 15746, 16013, 16883, 18296, 18679, 19180, 19297, 19747, 22862, 25129, 27412, 28047, 28280, 30206]}, "edge": {"target": [], "time": []}}, "mouseout": {"state": {"target": ["23", "1", "1", "2", "3", "8", "10", "8", "9", "3", "8", "11", "8", "3", "4", "7", "4", "5", "5", "6", "4", "7", "7", "7", "0"], "time": [1313, 4032, 5714, 7099, 10780, 13380, 13743, 15796, 16664, 18246, 18429, 19131, 19247, 19598, 22746, 23151, 25078, 25438, 25863, 27621, 28097, 28398, 31495, 33661, 34711]}, "edge": {"target": [], "time": []}}}, "displayed_time": "33.55", "trialTime": 35416, "trial_type": "mouselab-mdp", "trial_index": 19, "time_elapsed": 1188265, "internal_node_id": "0.0-6.0-1.0-4.0"}}, {"uniqueid": "w32696540:a90031415", "current_trial": 20, "dateTime": 1693481874199, "trialdata": {"revealed_states": [], "clicked_states": ["23", "1", "2", "3", "4", "5", "6", "7"], "num_clicks_accrued": [0, 0, 0, 0, 0, 0, 0, 0, 0, 0, 0, 0, 0], "stateRewards": ["", 1, 2, -3, 6, -88, 74, -45, 7, -46, 40, -77, 1, -4, 4, 3, 22, -25, -59, 8, -83, 19, -60, -1, -1, -1, -8, 26, -29, 64, -7, -88, -51, -55], "withholdReward": false, "trial_id": "mdp_trial_6", "block": "test", "trialIndex": 9, "score": 68.8, "costs": -11.200000000000001, "simulationMode": [null, null, null, null, null], "rewards": [1, 2, -3, 6, 74], "path": ["0", "0", "1", "2", "3", "4", "6"], "rt": [19340, 145, 102, 99, 86], "actions": ["up", "up", "up", "right", "right"], "actionTimes": [20368, 21013, 21618, 22232, 22819], "queries": {"click": {"state": {"target": ["23", "1", "2", "3", "4", "5", "6", "7"], "time": [1836, 4435, 7242, 9371, 11479, 13523, 15994, 18207]}, "edge": {"target": [], "time": []}}, "mouseover": {"state": {"target": ["23", "1", "2", "3", "4", "5", "6", "7"], "time": [1382, 4198, 6932, 9164, 11182, 13197, 15780, 17612]}, "edge": {"target": [], "time": []}}, "mouseout": {"state": {"target": ["0", "23", "1", "1", "2", "3", "4", "5", "6", "7", "7"], "time": [637, 2516, 4516, 6732, 8881, 10632, 12533, 15498, 16732, 18283, 23813]}, "edge": {"target": [], "time": []}}}, "displayed_time": "23.32", "trialTime": 25030, "trial_type": "mouselab-mdp", "trial_index": 20, "time_elapsed": 1213626, "internal_node_id": "0.0-6.0-1.0-5.0"}}, {"uniqueid": "w32696540:a90031415", "current_trial": 21, "dateTime": 1693481901287, "trialdata": {"revealed_states": [], "clicked_states": ["23", "24", "1", "12", "13", "14", "15", "18"], "num_clicks_accrued": [0, 0, 0, 0, 0, 0, 0, 0, 0, 0, 0, 0, 0], "stateRewards": ["", -2, 2, 3, -7, 76, 63, 21, 15, 35, -8, -44, 1, 1, -2, -12, 23, 24, 76, -9, 46, 66, -49, -2, -1, 7, 12, 40, -71, -45, -6, 38, -49, 46], "withholdReward": false, "trial_id": "mdp_trial_7", "block": "test", "trialIndex": 10, "score": 52.8, "costs": -11.200000000000001, "simulationMode": [null, null, null, null, null], "rewards": [1, 1, -2, -12, 76], "path": ["0", "0", "12", "13", "14", "15", "18"], "rt": [21868, 3, 51, 31, 24], "actions": ["right", "right", "right", "up", "left"], "actionTimes": [22931, 23448, 24029, 24592, 25135], "queries": {"click": {"state": {"target": ["23", "24", "1", "12", "13", "14", "15", "18"], "time": [2253, 4737, 7663, 10960, 13134, 15229, 17360, 19781]}, "edge": {"target": [], "time": []}}, "mouseover": {"state": {"target": ["23", "24", "25", "1", "1", "2", "12", "12", "13", "14", "15", "18"], "time": [2027, 4477, 5695, 7328, 7530, 9227, 10144, 10777, 12977, 15026, 17177, 19526]}, "edge": {"target": [], "time": []}}, "mouseout": {"state": {"target": ["23", "23", "24", "24", "25", "1", "1", "2", "12", "12", "13", "14", "15", "18", "15", "18"], "time": [3427, 4260, 4810, 5480, 6927, 7443, 7737, 10010, 10178, 12312, 14528, 17011, 19492, 20528, 25875, 26126]}, "edge": {"target": [], "time": []}}}, "displayed_time": "25.64", "trialTime": 26765, "trial_type": "mouselab-mdp", "trial_index": 21, "time_elapsed": 1240714, "internal_node_id": "0.0-6.0-1.0-6.0"}}, {"uniqueid": "w32696540:a90031415", "current_trial": 22, "dateTime": 1693481936582, "trialdata": {"revealed_states": [], "clicked_states": ["23", "24", "1", "2", "12", "13", "14", "15", "18", "16", "17"], "num_clicks_accrued": [0, 0, 0, 0, 0, 0, 0, 0, 0, 0, 0, 0, 0], "stateRewards": ["", -1, -3, 1, -4, -48, -63, -49, -2, -84, -19, 65, 2, -2, -2, -12, -4, 59, 9, 6, 75, 69, -13, -1, -3, -3, -2, -37, -68, -36, 13, 32, 18, -14], "withholdReward": false, "trial_id": "mdp_trial_8", "block": "test", "trialIndex": 11, "score": 29.599999999999998, "costs": -15.400000000000002, "simulationMode": [null, null, null, null, null], "rewards": [2, -2, -2, -12, 59], "path": ["0", "0", "12", "13", "14", "15", "17"], "rt": [29821, 77, 68, 108, 22], "actions": ["right", "right", "right", "up", "right"], "actionTimes": [30897, 31477, 32051, 32657, 33187], "queries": {"click": {"state": {"target": ["23", "24", "1", "2", "12", "13", "14", "15", "18", "16", "17"], "time": [2004, 4220, 7324, 10556, 13804, 16010, 18217, 20756, 23459, 25776, 27791]}, "edge": {"target": [], "time": []}}, "mouseover": {"state": {"target": ["23", "24", "23", "1", "2", "12", "13", "14", "15", "18", "16", "17", "14", "14"], "time": [1749, 3998, 6648, 6964, 9515, 12964, 15749, 17698, 20397, 23331, 25647, 27266, 28431, 30280]}, "edge": {"target": [], "time": []}}, "mouseout": {"state": {"target": ["1", "23", "24", "23", "1", "2", "12", "13", "14", "15", "15", "18", "15", "16", "17", "14", "14", "14", "13", "12"], "time": [597, 2684, 6615, 6748, 9465, 12083, 15265, 16867, 20164, 22948, 23197, 23567, 25495, 26316, 28248, 28652, 30347, 33830, 34029, 34263]}, "edge": {"target": [], "time": []}}}, "displayed_time": "33.72", "trialTime": 34968, "trial_type": "mouselab-mdp", "trial_index": 22, "time_elapsed": 1276010, "internal_node_id": "0.0-6.0-1.0-7.0"}}, {"uniqueid": "w32696540:a90031415", "current_trial": 23, "dateTime": 1693481955027, "trialdata": {"revealed_states": [], "clicked_states": ["23", "24", "25", "30", "31"], "num_clicks_accrued": [0, 0, 0, 0, 0, 0, 0, 0, 0, 0, 0, 0, 0], "stateRewards": ["", -2, -4, 4, -11, -63, -60, -7, 2, -14, 81, -43, -1, -1, -5, 7, 10, 69, 40, 8, -83, 52, 60, 1, 2, 5, -5, 16, 64, 14, -3, 29, 7, -51], "withholdReward": false, "trial_id": "mdp_trial_9", "block": "test", "trialIndex": 12, "score": 27, "costs": -7, "simulationMode": [null, null, null, null, null], "rewards": [1, 2, 5, -3, 29], "path": ["0", "0", "23", "24", "25", "30", "31"], "rt": [12756, 33, 32, 35, 28], "actions": ["left", "left", "left", "down", "right"], "actionTimes": [13929, 14473, 15038, 15605, 16165], "queries": {"click": {"state": {"target": ["23", "24", "25", "30", "31"], "time": [2070, 4131, 6014, 8610, 10825]}, "edge": {"target": [], "time": []}}, "mouseover": {"state": {"target": ["23", "24", "25", "25", "30", "31", "33"], "time": [1603, 4005, 5305, 5521, 8286, 10653, 11320]}, "edge": {"target": [], "time": []}}, "mouseout": {"state": {"target": ["23", "23", "23", "24", "25", "25", "30", "30", "30", "31", "30", "33", "30", "30", "24"], "time": [2174, 2936, 3919, 5238, 5504, 7222, 8695, 10021, 10537, 11173, 11288, 11671, 12305, 13502, 17286]}, "edge": {"target": [], "time": []}}}, "displayed_time": "16.66", "trialTime": 18102, "trial_type": "mouselab-mdp", "trial_index": 23, "time_elapsed": 1294454, "internal_node_id": "0.0-6.0-1.0-8.0"}}, {"uniqueid": "w32696540:a90031415", "current_trial": 24, "dateTime": 1693481974420, "trialdata": {"revealed_states": [], "clicked_states": ["23", "24", "25", "26", "28", "27"], "num_clicks_accrued": [0, 0, 0, 0, 0, 0, 0, 0, 0, 0, 0, 0, 0], "stateRewards": ["", 1, 3, 1, -13, 52, -28, 67, -14, 3, 63, -70, -1, -4, 7, -11, -10, 47, -18, 6, 69, -9, -61, 2, 3, -6, 10, 63, -34, 40, -6, -79, -35, -32], "withholdReward": false, "trial_id": "mdp_trial_10", "block": "test", "trialIndex": 13, "score": 63.6, "costs": -8.4, "simulationMode": [null, null, null, null, null], "rewards": [2, 3, -6, 10, 63], "path": ["0", "0", "23", "24", "25", "26", "27"], "rt": [14290, 104, 22, 37, 80], "actions": ["left", "left", "left", "up", "up"], "actionTimes": [15244, 15859, 16396, 16957, 17566], "queries": {"click": {"state": {"target": ["23", "24", "25", "26", "28", "27"], "time": [1999, 4351, 6233, 8195, 10251, 12248]}, "edge": {"target": [], "time": []}}, "mouseover": {"state": {"target": ["23", "23", "24", "25", "26", "28", "27", "29"], "time": [1202, 1970, 4084, 5103, 7388, 9421, 11721, 13153]}, "edge": {"target": [], "time": []}}, "mouseout": {"state": {"target": ["0", "23", "23", "23", "24", "25", "26", "28", "27", "29", "27", "26", "24"], "time": [517, 1268, 3379, 4051, 5054, 6737, 9321, 11238, 12687, 14452, 18517, 18700, 18835]}, "edge": {"target": [], "time": []}}}, "displayed_time": "18.09", "trialTime": 19046, "trial_type": "mouselab-mdp", "trial_index": 24, "time_elapsed": 1313848, "internal_node_id": "0.0-6.0-1.0-9.0"}}, {"uniqueid": "w32696540:a90031415", "current_trial": 25, "dateTime": 1693481990759, "trialdata": {"revealed_states": [], "clicked_states": ["1", "2", "3", "4", "5"], "num_clicks_accrued": [0, 0, 0, 0, 0, 0, 0, 0, 0, 0, 0, 0, 0], "stateRewards": ["", -1, 1, -6, -1, 80, 23, 2, -11, 73, -81, 59, 1, 3, 5, -1, -26, 28, -3, 16, -59, -13, -50, -2, -2, 2, 15, -50, 86, 17, -4, 37, 35, 44], "withholdReward": false, "trial_id": "mdp_trial_11", "block": "test", "trialIndex": 14, "score": 66, "costs": -7, "simulationMode": [null, null, null, null, null], "rewards": [-1, 1, -6, -1, 80], "path": ["0", "0", "1", "2", "3", "4", "5"], "rt": [11539, 16, 18, 19, 81], "actions": ["up", "up", "up", "right", "up"], "actionTimes": [12371, 12900, 13451, 13984, 14563], "queries": {"click": {"state": {"target": ["1", "2", "3", "4", "5"], "time": [1509, 3552, 5441, 7404, 9302]}, "edge": {"target": [], "time": []}}, "mouseover": {"state": {"target": ["1", "2", "3", "4", "5", "6"], "time": [1415, 3347, 5031, 6600, 8833, 10482]}, "edge": {"target": [], "time": []}}, "mouseout": {"state": {"target": ["23", "1", "2", "3", "4", "5", "6", "4"], "time": [363, 3049, 4797, 6516, 8681, 9731, 15063, 15313]}, "edge": {"target": [], "time": []}}}, "displayed_time": "15.08", "trialTime": 15999, "trial_type": "mouselab-mdp", "trial_index": 25, "time_elapsed": 1330187, "internal_node_id": "0.0-6.0-1.0-10.0"}}, {"uniqueid": "w32696540:a90031415", "current_trial": 26, "dateTime": 1693482008010, "trialdata": {"revealed_states": [], "clicked_states": ["1", "2", "3", "8", "9"], "num_clicks_accrued": [0, 0, 0, 0, 0, 0, 0, 0, 0, 0, 0, 0, 0], "stateRewards": ["", -1, 2, 6, 11, 21, -21, -21, -6, 48, -71, 88, -1, -3, 3, 7, 64, 2, 9, -4, 37, -67, 72, 2, 2, -8, -8, -10, 71, -40, -3, 73, 80, 47], "withholdReward": false, "trial_id": "mdp_trial_12", "block": "test", "trialIndex": 15, "score": 42, "costs": -7, "simulationMode": [null, null, null, null, null], "rewards": [-1, 2, 6, -6, 48], "path": ["0", "0", "1", "2", "3", "8", "9"], "rt": [11211, 380, 138, 102, 68], "actions": ["up", "up", "up", "left", "up"], "actionTimes": [12112, 12998, 13660, 14253, 14818], "queries": {"click": {"state": {"target": ["1", "2", "3", "8", "9"], "time": [1515, 3372, 5261, 7149, 9075]}, "edge": {"target": [], "time": []}}, "mouseover": {"state": {"target": ["1", "2", "10", "3", "8", "9"], "time": [1366, 3133, 4016, 4632, 5701, 8782]}, "edge": {"target": [], "time": []}}, "mouseout": {"state": {"target": ["1", "1", "2", "10", "3", "8", "9", "8", "8", "2", "1"], "time": [6, 2868, 3782, 4101, 5646, 8182, 9750, 11325, 15365, 15848, 16165]}, "edge": {"target": [], "time": []}}}, "displayed_time": "15.34", "trialTime": 16884, "trial_type": "mouselab-mdp", "trial_index": 26, "time_elapsed": 1347438, "internal_node_id": "0.0-6.0-1.0-11.0"}}, {"uniqueid": "w32696540:a90031415", "current_trial": 27, "dateTime": 1693482025341, "trialdata": {"revealed_states": [], "clicked_states": ["23", "24", "25", "30", "31"], "num_clicks_accrued": [0, 0, 0, 0, 0, 0, 0, 0, 0, 0, 0, 0, 0], "stateRewards": ["", -1, 2, -7, -12, -62, 12, -13, 5, 77, -71, 83, 1, -4, 7, 15, -42, -87, -4, 5, -25, 44, 88, -1, 4, -5, -8, 14, 51, 8, -5, 83, -24, -19], "withholdReward": false, "trial_id": "mdp_trial_13", "block": "test", "trialIndex": 16, "score": 69, "costs": -7, "simulationMode": [null, null, null, null, null], "rewards": [-1, 4, -5, -5, 83], "path": ["0", "0", "23", "24", "25", "30", "31"], "rt": [11740, 60, 81, 55, 76], "actions": ["left", "left", "left", "down", "right"], "actionTimes": [12964, 13538, 14138, 14697, 15299], "queries": {"click": {"state": {"target": ["23", "24", "25", "30", "31"], "time": [2210, 4123, 6034, 7900, 10064]}, "edge": {"target": [], "time": []}}, "mouseover": {"state": {"target": ["23", "24", "25", "30", "31"], "time": [1990, 2708, 5308, 6895, 9739]}, "edge": {"target": [], "time": []}}, "mouseout": {"state": {"target": ["1", "1", "23", "24", "25", "30", "31", "30", "24", "23", "1"], "time": [355, 739, 2642, 5191, 6809, 9358, 10762, 12372, 13490, 16105, 16404]}, "edge": {"target": [], "time": []}}}, "displayed_time": "15.81", "trialTime": 16957, "trial_type": "mouselab-mdp", "trial_index": 27, "time_elapsed": 1364768, "internal_node_id": "0.0-6.0-1.0-12.0"}}, {"uniqueid": "w32696540:a90031415", "current_trial": 28, "dateTime": 1693482042309, "trialdata": {"revealed_states": [], "clicked_states": ["12", "13", "14", "19", "22"], "num_clicks_accrued": [0, 0, 0, 0, 0, 0, 0, 0, 0, 0, 0, 0, 0], "stateRewards": ["", 1, -1, -7, -7, -22, 15, -13, 13, 26, -32, 38, -1, 1, -7, -4, 16, -62, 86, 12, -54, 56, 64, -2, -1, 6, 14, -57, 37, 62, -6, -25, 50, -70], "withholdReward": false, "trial_id": "mdp_trial_14", "block": "test", "trialIndex": 17, "score": 62, "costs": -7, "simulationMode": [null, null, null, null, null], "rewards": [-1, 1, -7, 12, 64], "path": ["0", "0", "12", "13", "14", "19", "22"], "rt": [11906, 18, 109, 67, 48], "actions": ["right", "right", "right", "down", "left"], "actionTimes": [12769, 13318, 13941, 14502, 15083], "queries": {"click": {"state": {"target": ["12", "13", "14", "19", "22"], "time": [2636, 4450, 6319, 8222, 9923]}, "edge": {"target": [], "time": []}}, "mouseover": {"state": {"target": ["28", "12", "13", "14", "19", "22", "21"], "time": [1731, 2497, 3470, 6113, 7316, 8866, 11399]}, "edge": {"target": [], "time": []}}, "mouseout": {"state": {"target": ["1", "28", "12", "13", "13", "14", "19", "22", "19", "21", "19", "13"], "time": [431, 1815, 3200, 4545, 5833, 7211, 8296, 10319, 10467, 12097, 15679, 16430]}, "edge": {"target": [], "time": []}}}, "displayed_time": "15.60", "trialTime": 16618, "trial_type": "mouselab-mdp", "trial_index": 28, "time_elapsed": 1381737, "internal_node_id": "0.0-6.0-1.0-13.0"}}, {"uniqueid": "w32696540:a90031415", "current_trial": 29, "dateTime": 1693482058886, "trialdata": {"revealed_states": [], "clicked_states": ["12", "13", "14", "15", "16"], "num_clicks_accrued": [0, 0, 0, 0, 0, 0, 0, 0, 0, 0, 0, 0, 0], "stateRewards": ["", -1, -2, -8, 8, -27, -82, 19, -14, -62, 4, 1, -2, 2, 6, 10, 73, -51, -2, 2, 73, -48, 54, -1, 2, -4, 11, -25, 47, 86, 15, 33, 43, -42], "withholdReward": false, "trial_id": "mdp_trial_15", "block": "test", "trialIndex": 18, "score": 82, "costs": -7, "simulationMode": [null, null, null, null, null], "rewards": [-2, 2, 6, 10, 73], "path": ["0", "0", "12", "13", "14", "15", "16"], "rt": [11713, 48, 120, 78, 35], "actions": ["right", "right", "right", "up", "up"], "actionTimes": [12504, 13067, 13719, 14310, 14868], "queries": {"click": {"state": {"target": ["12", "13", "14", "15", "16"], "time": [1476, 3297, 5647, 7547, 9676]}, "edge": {"target": [], "time": []}}, "mouseover": {"state": {"target": ["12", "13", "14", "14", "15", "16", "17"], "time": [1321, 2100, 4615, 5449, 6335, 9497, 10766]}, "edge": {"target": [], "time": []}}, "mouseout": {"state": {"target": ["13", "12", "0", "12", "13", "14", "13", "14", "15", "16", "17", "18"], "time": [10, 113, 1182, 1899, 3698, 5264, 5398, 6233, 9347, 10333, 15346, 15546]}, "edge": {"target": [], "time": []}}}, "displayed_time": "15.40", "trialTime": 16213, "trial_type": "mouselab-mdp", "trial_index": 29, "time_elapsed": 1398313, "internal_node_id": "0.0-6.0-1.0-14.0"}}, {"uniqueid": "w32696540:a90031415", "current_trial": 30, "dateTime": 1693482079856, "trialdata": {"revealed_states": [], "clicked_states": ["23", "24", "25", "30", "32", "33", "31"], "num_clicks_accrued": [0, 0, 0, 0, 0, 0, 0, 0, 0, 0, 0, 0, 0], "stateRewards": ["", 1, -2, -2, 10, -31, -77, 35, 9, -47, 8, 48, -2, 1, -4, -3, -26, -50, 43, -11, 76, -38, 17, 1, -1, 6, 10, 15, -9, 12, -8, 85, 11, -55], "withholdReward": false, "trial_id": "mdp_trial_16", "block": "test", "trialIndex": 19, "score": 73.2, "costs": -9.8, "simulationMode": [null, null, null, null, null], "rewards": [1, -1, 6, -8, 85], "path": ["0", "0", "23", "24", "25", "30", "31"], "rt": [15630, 103, 103, 89, 103], "actions": ["left", "left", "left", "down", "right"], "actionTimes": [16589, 17194, 17793, 18397, 18994], "queries": {"click": {"state": {"target": ["23", "24", "25", "30", "32", "33", "31"], "time": [2114, 4041, 5857, 7735, 9618, 11590, 13583]}, "edge": {"target": [], "time": []}}, "mouseover": {"state": {"target": ["1", "23", "23", "24", "25", "30", "32", "33", "31"], "time": [1338, 1488, 1922, 3838, 5241, 6990, 9389, 10673, 12038]}, "edge": {"target": [], "time": []}}, "mouseout": {"state": {"target": ["1", "23", "23", "24", "25", "30", "30", "32", "30", "33", "30", "31"], "time": [1439, 1522, 3457, 5074, 6640, 7821, 9006, 9690, 10601, 11906, 12004, 14139]}, "edge": {"target": [], "time": []}}}, "displayed_time": "19.51", "trialTime": 20608, "trial_type": "mouselab-mdp", "trial_index": 30, "time_elapsed": 1419284, "internal_node_id": "0.0-6.0-1.0-15.0"}}, {"uniqueid": "w32696540:a90031415", "current_trial": 31, "dateTime": 1693482098254, "trialdata": {"revealed_states": [], "clicked_states": ["12", "13", "14", "19", "20", "21"], "num_clicks_accrued": [0, 0, 0, 0, 0, 0, 0, 0, 0, 0, 0, 0, 0], "stateRewards": ["", 1, 2, -3, -6, 50, -7, 7, -7, -80, 21, -1, 2, 2, 4, -1, 33, 84, 1, 14, -53, 81, 6, -2, -2, -3, -9, -87, -38, -59, -5, -74, -3, -71], "withholdReward": false, "trial_id": "mdp_trial_17", "block": "test", "trialIndex": 20, "score": 94.6, "costs": -8.4, "simulationMode": [null, null, null, null, null], "rewards": [2, 2, 4, 14, 81], "path": ["0", "0", "12", "13", "14", "19", "21"], "rt": [13171, 80, 189, 158, 133], "actions": ["right", "right", "right", "down", "down"], "actionTimes": [14069, 14656, 15381, 16049, 16674], "queries": {"click": {"state": {"target": ["12", "13", "14", "19", "20", "21"], "time": [1706, 3574, 5250, 7106, 8850, 11273]}, "edge": {"target": [], "time": []}}, "mouseover": {"state": {"target": ["12", "12", "13", "14", "19", "20", "21", "22", "19"], "time": [1173, 1491, 2824, 4474, 6287, 8344, 11188, 12108, 13472]}, "edge": {"target": [], "time": []}}, "mouseout": {"state": {"target": ["0", "12", "12", "13", "14", "19", "19", "20", "19", "21", "22", "19", "19", "22"], "time": [522, 1355, 2792, 4258, 5942, 7203, 7674, 10258, 10989, 11284, 13421, 13706, 17289, 17339]}, "edge": {"target": [], "time": []}}}, "displayed_time": "17.19", "trialTime": 17959, "trial_type": "mouselab-mdp", "trial_index": 31, "time_elapsed": 1437682, "internal_node_id": "0.0-6.0-1.0-16.0"}}, {"uniqueid": "w32696540:a90031415", "current_trial": 32, "dateTime": 1693482114973, "trialdata": {"revealed_states": [], "clicked_states": ["1", "2", "3", "8", "9"], "num_clicks_accrued": [0, 0, 0, 0, 0, 0, 0, 0, 0, 0, 0, 0, 0], "stateRewards": ["", 1, 1, -3, 2, 22, -25, -11, -5, 50, 49, 3, 1, -1, 8, 14, -85, -30, 57, -6, -39, -16, 59, -2, -1, 5, 5, 59, -16, 8, 4, 67, 56, -9], "withholdReward": false, "trial_id": "mdp_trial_18", "block": "test", "trialIndex": 21, "score": 37, "costs": -7, "simulationMode": [null, null, null, null, null], "rewards": [1, 1, -3, -5, 50], "path": ["0", "0", "1", "2", "3", "8", "9"], "rt": [10770, 58, 195, 71, 39], "actions": ["up", "up", "up", "left", "up"], "actionTimes": [11625, 12200, 12918, 13498, 14047], "queries": {"click": {"state": {"target": ["1", "2", "3", "8", "9"], "time": [1490, 3355, 5080, 6812, 8709]}, "edge": {"target": [], "time": []}}, "mouseover": {"state": {"target": ["1", "2", "3", "8", "9", "10"], "time": [1255, 2990, 4474, 5675, 8107, 10206]}, "edge": {"target": [], "time": []}}, "mouseout": {"state": {"target": ["0", "1", "2", "3", "8", "9", "8", "10"], "time": [288, 1582, 4172, 5640, 6901, 9856, 10075, 10838]}, "edge": {"target": [], "time": []}}}, "displayed_time": "14.86", "trialTime": 16343, "trial_type": "mouselab-mdp", "trial_index": 32, "time_elapsed": 1454400, "internal_node_id": "0.0-6.0-1.0-17.0"}}, {"uniqueid": "w32696540:a90031415", "current_trial": 33, "dateTime": 1693482134584, "trialdata": {"revealed_states": [], "clicked_states": ["23", "24", "25", "30", "33", "32", "31"], "num_clicks_accrued": [0, 0, 0, 0, 0, 0, 0, 0, 0, 0, 0, 0, 0], "stateRewards": ["", 2, -2, -8, 9, -20, 55, -58, 14, 42, 2, 36, 1, -3, -5, 5, -58, 57, 60, 16, 57, 30, -70, -2, 1, 3, 10, 59, 23, 77, -13, -26, 88, -72], "withholdReward": false, "trial_id": "mdp_trial_19", "block": "test", "trialIndex": 22, "score": 67.2, "costs": -9.8, "simulationMode": [null, null, null, null, null], "rewards": [-2, 1, 3, -13, 88], "path": ["0", "0", "23", "24", "25", "30", "32"], "rt": [13779, 124, 127, 66, 82], "actions": ["left", "left", "left", "down", "down"], "actionTimes": [15436, 16076, 16712, 17283, 17882], "queries": {"click": {"state": {"target": ["23", "24", "25", "30", "33", "32", "31"], "time": [2266, 4114, 5883, 7902, 9659, 11667, 13587]}, "edge": {"target": [], "time": []}}, "mouseover": {"state": {"target": ["23", "24", "25", "30", "33", "32", "31"], "time": [1816, 2834, 4401, 7765, 8751, 10733, 12117]}, "edge": {"target": [], "time": []}}, "mouseout": {"state": {"target": ["23", "24", "25", "30", "30", "33", "32", "31"], "time": [2355, 4367, 7548, 7988, 8699, 9934, 11948, 14434]}, "edge": {"target": [], "time": []}}}, "displayed_time": "18.41", "trialTime": 19233, "trial_type": "mouselab-mdp", "trial_index": 33, "time_elapsed": 1474012, "internal_node_id": "0.0-6.0-1.0-18.0"}}, {"uniqueid": "w32696540:a90031415", "current_trial": 34, "dateTime": 1693482150707, "trialdata": {"revealed_states": [], "clicked_states": ["1", "2", "3", "4", "7"], "num_clicks_accrued": [0, 0, 0, 0, 0, 0, 0, 0, 0, 0, 0, 0, 0], "stateRewards": ["", 2, 3, 6, -12, -29, 12, 87, 4, 35, -30, 67, 2, 3, -5, -9, 44, 69, -8, 1, 45, -8, 28, -2, -1, -8, 11, -12, -5, 81, 9, 87, 82, 88], "withholdReward": false, "trial_id": "mdp_trial_20", "block": "test", "trialIndex": 23, "score": 79, "costs": -7, "simulationMode": [null, null, null, null, null], "rewards": [2, 3, 6, -12, 87], "path": ["0", "0", "1", "2", "3", "4", "7"], "rt": [10616, 7, 104, 34, 59], "actions": ["up", "up", "up", "right", "down"], "actionTimes": [11537, 12038, 12669, 13213, 13788], "queries": {"click": {"state": {"target": ["1", "2", "3", "4", "7"], "time": [1546, 3367, 5127, 6821, 8702]}, "edge": {"target": [], "time": []}}, "mouseover": {"state": {"target": ["1", "2", "3", "4", "7", "6"], "time": [1361, 2996, 4078, 5546, 7813, 9728]}, "edge": {"target": [], "time": []}}, "mouseout": {"state": {"target": ["0", "1", "2", "3", "3", "4", "7", "6"], "time": [1146, 2847, 3946, 5198, 5479, 7512, 8771, 14327]}, "edge": {"target": [], "time": []}}}, "displayed_time": "14.92", "trialTime": 15717, "trial_type": "mouselab-mdp", "trial_index": 34, "time_elapsed": 1490134, "internal_node_id": "0.0-6.0-1.0-19.0"}}, {"uniqueid": "w32696540:a90031415", "current_trial": 35, "dateTime": 1693482168672, "trialdata": {"revealed_states": [], "clicked_states": ["1", "2", "3", "8", "9", "11"], "num_clicks_accrued": [0, 0, 0, 0, 0, 0, 0, 0, 0, 0, 0, 0, 0], "stateRewards": ["", -1, 1, -2, 5, 73, 15, 61, 8, 7, 38, 76, 2, 2, -4, -6, -6, -26, 43, -5, -45, -85, -35, -2, 1, -4, 15, -10, 69, 72, -11, 84, -49, -38], "withholdReward": false, "trial_id": "mdp_trial_21", "block": "test", "trialIndex": 24, "score": 73.6, "costs": -8.4, "simulationMode": [null, null, null, null, null], "rewards": [-1, 1, -2, 8, 76], "path": ["0", "0", "1", "2", "3", "8", "11"], "rt": [13076, 19, 63, 18, 94], "actions": ["up", "up", "up", "left", "left"], "actionTimes": [14144, 14695, 15255, 15781, 16369], "queries": {"click": {"state": {"target": ["1", "2", "3", "8", "9", "11"], "time": [1795, 3494, 5212, 6803, 8635, 11338]}, "edge": {"target": [], "time": []}}, "mouseover": {"state": {"target": ["1", "2", "3", "8", "9", "11", "10", "8"], "time": [1524, 3025, 4258, 5540, 7591, 11140, 11839, 13690]}, "edge": {"target": [], "time": []}}, "mouseout": {"state": {"target": ["2", "1", "1", "2", "3", "8", "9", "8", "11", "10", "8", "3"], "time": [340, 590, 2492, 4076, 5507, 7440, 9024, 10690, 11707, 13556, 16573, 16786]}, "edge": {"target": [], "time": []}}}, "displayed_time": "16.89", "trialTime": 17565, "trial_type": "mouselab-mdp", "trial_index": 35, "time_elapsed": 1508099, "internal_node_id": "0.0-6.0-1.0-20.0"}}, {"uniqueid": "w32696540:a90031415", "current_trial": 36, "dateTime": 1693482185884, "trialdata": {"revealed_states": [], "clicked_states": ["23", "24", "25", "26", "28", "27"], "num_clicks_accrued": [0, 0, 0, 0, 0, 0, 0, 0, 0, 0, 0, 0, 0], "stateRewards": ["", -2, -1, -2, -15, 87, 57, 29, -10, 77, -80, -7, 1, -3, 6, 14, -11, 87, -59, 4, -71, 16, -11, 2, 2, -7, 2, -47, 61, 50, 14, -20, 17, 81], "withholdReward": false, "trial_id": "mdp_trial_22", "block": "test", "trialIndex": 25, "score": 51.6, "costs": -8.4, "simulationMode": [null, null, null, null, null], "rewards": [2, 2, -7, 2, 61], "path": ["0", "0", "23", "24", "25", "26", "28"], "rt": [11372, 61, 99, 59, 459], "actions": ["left", "left", "left", "up", "right"], "actionTimes": [12606, 13177, 13776, 14352, 15330], "queries": {"click": {"state": {"target": ["23", "24", "25", "26", "28", "27"], "time": [1822, 3564, 5375, 7086, 8919, 10791]}, "edge": {"target": [], "time": []}}, "mouseover": {"state": {"target": ["23", "24", "25", "26", "28", "27"], "time": [1524, 2694, 3927, 5910, 8242, 9826]}, "edge": {"target": [], "time": []}}, "mouseout": {"state": {"target": ["1", "23", "24", "25", "26", "28", "27"], "time": [457, 2226, 3876, 5744, 8060, 9343, 11360]}, "edge": {"target": [], "time": []}}}, "displayed_time": "15.84", "trialTime": 16746, "trial_type": "mouselab-mdp", "trial_index": 36, "time_elapsed": 1525311, "internal_node_id": "0.0-6.0-1.0-21.0"}}, {"uniqueid": "w32696540:a90031415", "current_trial": 37, "dateTime": 1693482202721, "trialdata": {"revealed_states": [], "clicked_states": ["12", "13", "14", "19", "22"], "num_clicks_accrued": [0, 0, 0, 0, 0, 0, 0, 0, 0, 0, 0, 0, 0], "stateRewards": ["", 1, 4, 5, -5, 58, -80, 75, 6, 25, -39, 46, 2, -2, 4, 2, 59, 31, -22, -12, -61, 15, 72, 1, -2, -7, 8, 77, 76, -23, -7, 71, -15, -3], "withholdReward": false, "trial_id": "mdp_trial_23", "block": "test", "trialIndex": 26, "score": 57, "costs": -7, "simulationMode": [null, null, null, null, null], "rewards": [2, -2, 4, -12, 72], "path": ["0", "0", "12", "13", "14", "19", "22"], "rt": [11303, 54, 90, 92, 95], "actions": ["right", "right", "right", "down", "left"], "actionTimes": [12597, 13165, 13783, 14386, 14989], "queries": {"click": {"state": {"target": ["12", "13", "14", "19", "22"], "time": [2125, 4148, 5948, 7908, 9694]}, "edge": {"target": [], "time": []}}, "mouseover": {"state": {"target": ["12", "13", "14", "19", "22"], "time": [1943, 3266, 4911, 7675, 8925]}, "edge": {"target": [], "time": []}}, "mouseout": {"state": {"target": ["12", "12", "13", "14", "19", "19", "22", "19", "19"], "time": [642, 3027, 4660, 7426, 7983, 8725, 10160, 11591, 15374]}, "edge": {"target": [], "time": []}}}, "displayed_time": "15.52", "trialTime": 16315, "trial_type": "mouselab-mdp", "trial_index": 37, "time_elapsed": 1542148, "internal_node_id": "0.0-6.0-1.0-22.0"}}, {"uniqueid": "w32696540:a90031415", "current_trial": 38, "dateTime": 1693482223014, "trialdata": {"revealed_states": [], "clicked_states": ["12", "13", "14", "15", "18", "17", "16"], "num_clicks_accrued": [0, 0, 0, 0, 0, 0, 0, 0, 0, 0, 0, 0, 0], "stateRewards": ["", -2, 2, 2, -6, 9, 37, 50, -13, -7, -18, -75, -2, -4, 4, 7, 23, -57, -66, -7, -81, -48, -76, 1, 1, -8, 1, 51, -2, 70, 14, 59, 71, -37], "withholdReward": false, "trial_id": "mdp_trial_24", "block": "test", "trialIndex": 27, "score": 18.2, "costs": -9.8, "simulationMode": [null, null, null, null, null], "rewards": [-2, -4, 4, 7, 23], "path": ["0", "0", "12", "13", "14", "15", "16"], "rt": [15323, 82, 59, 74, 114], "actions": ["right", "right", "right", "up", "up"], "actionTimes": [16167, 16741, 17317, 17914, 18522], "queries": {"click": {"state": {"target": ["12", "13", "14", "15", "18", "17", "16"], "time": [1954, 3567, 5402, 7361, 9192, 11279, 13241]}, "edge": {"target": [], "time": []}}, "mouseover": {"state": {"target": ["0", "12", "13", "14", "15", "18", "17", "16", "15"], "time": [1490, 1882, 3076, 5008, 7123, 8661, 10709, 12008, 14068]}, "edge": {"target": [], "time": []}}, "mouseout": {"state": {"target": ["0", "0", "12", "13", "13", "14", "15", "18", "15", "17", "16", "15"], "time": [489, 1523, 2591, 3650, 4908, 6972, 8624, 9608, 10164, 11366, 13925, 14173]}, "edge": {"target": [], "time": []}}}, "displayed_time": "19.03", "trialTime": 19727, "trial_type": "mouselab-mdp", "trial_index": 38, "time_elapsed": 1562441, "internal_node_id": "0.0-6.0-1.0-23.0"}}, {"uniqueid": "w32696540:a90031415", "current_trial": 39, "dateTime": 1693482250776, "trialdata": {"revealed_states": [], "clicked_states": ["1", "2", "3", "4", "7", "6", "5", "8", "9", "10"], "num_clicks_accrued": [0, 0, 0, 0, 0, 0, 0, 0, 0, 0, 0, 0, 0], "stateRewards": ["", 1, -4, -6, 11, -20, 8, -30, 1, -38, 88, 42, 2, 3, 5, -12, -8, -74, 30, -8, 67, -19, 42, 2, -1, 4, 13, 50, -68, 2, -8, -15, 87, -46], "withholdReward": false, "trial_id": "mdp_trial_25", "block": "test", "trialIndex": 28, "score": 66, "costs": -14.000000000000002, "simulationMode": [null, null, null, null, null], "rewards": [1, -4, -6, 1, 88], "path": ["0", "0", "1", "2", "3", "8", "10"], "rt": [22203, 186, 140, 115, 43], "actions": ["up", "up", "up", "left", "down"], "actionTimes": [23432, 24113, 24766, 25390, 25934], "queries": {"click": {"state": {"target": ["1", "2", "3", "4", "7", "6", "5", "8", "9", "10"], "time": [2439, 4264, 6011, 7939, 9858, 11815, 13755, 16455, 18333, 20539]}, "edge": {"target": [], "time": []}}, "mouseover": {"state": {"target": ["1", "1", "2", "3", "4", "7", "6", "5", "8", "9", "10", "11"], "time": [1874, 2323, 3932, 5374, 7814, 9673, 10942, 12411, 16090, 17756, 20389, 21208]}, "edge": {"target": [], "time": []}}, "mouseout": {"state": {"target": ["1", "1", "2", "3", "4", "7", "6", "5", "8", "9", "8", "10", "11", "10"], "time": [1941, 2531, 4358, 7310, 9025, 9947, 12358, 15874, 17540, 19923, 20323, 20645, 22722, 27172]}, "edge": {"target": [], "time": []}}}, "displayed_time": "26.46", "trialTime": 27290, "trial_type": "mouselab-mdp", "trial_index": 39, "time_elapsed": 1590203, "internal_node_id": "0.0-6.0-1.0-24.0"}}, {"uniqueid": "w32696540:a90031415", "current_trial": 40, "dateTime": 1693482269512, "trialdata": {"revealed_states": [], "clicked_states": ["23", "24", "25", "30", "31"], "num_clicks_accrued": [0, 0, 0, 0, 0, 0, 0, 0, 0, 0, 0, 0, 0], "stateRewards": ["", 2, 4, 4, -8, -36, -33, 38, 16, -51, 57, 57, 1, 3, 4, -6, 45, 68, 87, 1, 63, 24, -55, -2, 2, -6, -13, -63, -50, 8, 2, 80, 6, 60], "withholdReward": false, "trial_id": "mdp_trial_26", "block": "test", "trialIndex": 29, "score": 69, "costs": -7, "simulationMode": [null, null, null, null, null], "rewards": [-2, 2, -6, 2, 80], "path": ["0", "0", "23", "24", "25", "30", "31"], "rt": [12999, 223, 272, 142, 132], "actions": ["left", "left", "left", "down", "right"], "actionTimes": [14029, 14765, 15532, 16201, 16855], "queries": {"click": {"state": {"target": ["23", "24", "25", "30", "31"], "time": [2736, 4623, 6920, 8728, 10745]}, "edge": {"target": [], "time": []}}, "mouseover": {"state": {"target": ["23", "23", "24", "25", "25", "30", "31", "32"], "time": [1640, 2606, 4292, 5309, 6779, 8505, 9491, 12107]}, "edge": {"target": [], "time": []}}, "mouseout": {"state": {"target": ["1", "23", "23", "24", "25", "25", "30", "31", "30", "32", "31", "24", "23"], "time": [475, 1839, 3991, 5225, 6354, 8258, 8800, 11123, 11290, 12811, 12888, 17438, 17738]}, "edge": {"target": [], "time": []}}}, "displayed_time": "17.39", "trialTime": 18143, "trial_type": "mouselab-mdp", "trial_index": 40, "time_elapsed": 1608939, "internal_node_id": "0.0-6.0-1.0-25.0"}}, {"uniqueid": "w32696540:a90031415", "current_trial": 41, "dateTime": 1693482290474, "trialdata": {"revealed_states": [], "clicked_states": ["1", "2", "3", "8", "9", "10", "11"], "num_clicks_accrued": [0, 0, 0, 0, 0, 0, 0, 0, 0, 0, 0, 0, 0], "stateRewards": ["", 2, -4, -8, -15, 71, -43, -41, 7, -17, 20, 67, -1, -1, -4, 6, 37, -24, -47, 9, 34, 57, 45, 1, 2, -4, -5, -23, 88, -5, 13, -40, 43, 44], "withholdReward": false, "trial_id": "mdp_trial_27", "block": "test", "trialIndex": 30, "score": 54.2, "costs": -9.8, "simulationMode": [null, null, null, null, null], "rewards": [2, -4, -8, 7, 67], "path": ["0", "0", "1", "2", "3", "8", "11"], "rt": [14813, 35, 91, 11, 35], "actions": ["up", "up", "up", "left", "left"], "actionTimes": [15606, 16138, 16727, 17234, 17803], "queries": {"click": {"state": {"target": ["1", "2", "3", "8", "9", "10", "11"], "time": [1609, 3299, 5171, 6875, 8620, 10587, 12658]}, "edge": {"target": [], "time": []}}, "mouseover": {"state": {"target": ["1", "2", "3", "8", "9", "10", "11", "8", "3", "4"], "time": [1367, 2502, 4916, 5786, 7985, 10250, 11256, 13501, 13653, 13850]}, "edge": {"target": [], "time": []}}, "mouseout": {"state": {"target": ["23", "0", "1", "2", "3", "8", "9", "8", "10", "11", "8", "3", "4", "7"], "time": [100, 1201, 1692, 4852, 5685, 6979, 9468, 9703, 10675, 13469, 13602, 13733, 19999, 20183]}, "edge": {"target": [], "time": []}}}, "displayed_time": "18.34", "trialTime": 20469, "trial_type": "mouselab-mdp", "trial_index": 41, "time_elapsed": 1629902, "internal_node_id": "0.0-6.0-1.0-26.0"}}, {"uniqueid": "w32696540:a90031415", "current_trial": 42, "dateTime": 1693482308238, "trialdata": {"revealed_states": [], "clicked_states": ["23", "24", "25", "30", "31"], "num_clicks_accrued": [0, 0, 0, 0, 0, 0, 0, 0, 0, 0, 0, 0, 0], "stateRewards": ["", -2, -1, -6, -14, -55, 78, -13, 11, 14, -71, 59, 2, 2, 6, -6, 9, 38, 14, 7, 85, 11, 68, 1, -4, -1, -3, -63, -85, 9, -2, 63, -86, -10], "withholdReward": false, "trial_id": "mdp_trial_28", "block": "test", "trialIndex": 31, "score": 50, "costs": -7, "simulationMode": [null, null, null, null, null], "rewards": [1, -4, -1, -2, 63], "path": ["0", "0", "23", "24", "25", "30", "31"], "rt": [12138, 238, 34, 70, 65], "actions": ["left", "left", "left", "down", "right"], "actionTimes": [13394, 14132, 14674, 15259, 15854], "queries": {"click": {"state": {"target": ["23", "24", "25", "30", "31"], "time": [2009, 4048, 6021, 7748, 10548]}, "edge": {"target": [], "time": []}}, "mouseover": {"state": {"target": ["23", "24", "25", "30", "31", "33", "30"], "time": [1787, 3307, 4990, 7156, 10270, 11656, 12720]}, "edge": {"target": [], "time": []}}, "mouseout": {"state": {"target": ["2", "1", "23", "23", "24", "24", "25", "30", "30", "31", "30", "33", "30", "31", "23"], "time": [404, 520, 2088, 3056, 4169, 4939, 7039, 9273, 9770, 11040, 11205, 12687, 12786, 12970, 16703]}, "edge": {"target": [], "time": []}}}, "displayed_time": "16.37", "trialTime": 17236, "trial_type": "mouselab-mdp", "trial_index": 42, "time_elapsed": 1647665, "internal_node_id": "0.0-6.0-1.0-27.0"}}, {"uniqueid": "w32696540:a90031415", "current_trial": 43, "dateTime": 1693482346021, "trialdata": {"revealed_states": [], "clicked_states": ["1", "2", "3", "8", "10", "11", "9", "4", "5", "7", "6", "16", "18", "17"], "num_clicks_accrued": [0, 0, 0, 0, 0, 0, 0, 0, 0, 0, 0, 0, 0], "stateRewards": ["", -1, -1, 7, -15, -43, -21, -84, -9, -45, -66, 2, 1, -2, 2, 8, -27, 44, -52, -5, -84, 11, 53, 1, 4, -4, 16, 83, -82, -15, -16, 68, -43, 81], "withholdReward": false, "trial_id": "mdp_trial_29", "block": "test", "trialIndex": 32, "score": 33.400000000000006, "costs": -19.599999999999998, "simulationMode": [null, null, null, null, null], "rewards": [1, -2, 2, 8, 44], "path": ["0", "0", "12", "13", "14", "15", "17"], "rt": [31711, 100, 92, 79, 24], "actions": ["right", "right", "right", "up", "right"], "actionTimes": [32550, 33182, 33773, 34364, 34904], "queries": {"click": {"state": {"target": ["1", "2", "3", "8", "10", "11", "9", "4", "5", "7", "6", "16", "18", "17"], "time": [2282, 4650, 6484, 8286, 10059, 11983, 13882, 15841, 17693, 19675, 21579, 24702, 27132, 29135]}, "edge": {"target": [], "time": []}}, "mouseover": {"state": {"target": ["0", "1", "2", "3", "8", "10", "11", "9", "4", "5", "7", "6", "16", "18", "15", "17"], "time": [1580, 2197, 4498, 5783, 7816, 9614, 10698, 12497, 14849, 16648, 19347, 20431, 23929, 26780, 27915, 28980]}, "edge": {"target": [], "time": []}}, "mouseout": {"state": {"target": ["23", "0", "0", "1", "2", "3", "8", "10", "8", "11", "9", "4", "5", "4", "7", "6", "16", "18", "15", "17", "14", "13"], "time": [163, 1397, 2097, 4097, 5483, 6583, 9398, 10449, 10665, 12347, 14332, 15932, 18815, 19064, 19787, 22848, 25549, 27798, 28429, 30980, 35495, 35546]}, "edge": {"target": [], "time": []}}}, "displayed_time": "35.42", "trialTime": 37264, "trial_type": "mouselab-mdp", "trial_index": 43, "time_elapsed": 1685449, "internal_node_id": "0.0-6.0-1.0-28.0"}}, {"uniqueid": "w32696540:a90031415", "current_trial": 44, "dateTime": 1693482379743, "trialdata": {"revealed_states": [], "clicked_states": ["10", "11", "9", "5", "7", "6", "16", "18", "17", "21", "22", "20"], "num_clicks_accrued": [0, 0, 0, 0, 0, 0, 0, 0, 0, 0, 0, 0, 0], "stateRewards": ["", -2, -4, 6, 14, -34, 49, 36, -8, -3, 32, -4, 1, -2, 1, -8, -20, -71, -57, -7, -86, -62, -16, -2, -3, -5, 11, 23, -21, 53, 5, -5, 85, 73], "withholdReward": false, "trial_id": "mdp_trial_30", "block": "test", "trialIndex": 33, "score": 46.2, "costs": -16.8, "simulationMode": [null, null, null, null, null], "rewards": [-2, -4, 6, 14, 49], "path": ["0", "0", "1", "2", "3", "4", "6"], "rt": [27185, 93, 197, 20, 78], "actions": ["up", "up", "up", "right", "right"], "actionTimes": [28722, 29345, 30048, 30579, 31179], "queries": {"click": {"state": {"target": ["10", "11", "9", "5", "7", "6", "16", "18", "17", "21", "22", "20"], "time": [2890, 4780, 6575, 8376, 10332, 12388, 14959, 16844, 18732, 21336, 23270, 25188]}, "edge": {"target": [], "time": []}}, "mouseover": {"state": {"target": ["8", "10", "11", "9", "5", "4", "7", "6", "18", "18", "16", "18", "15", "17", "14", "21", "22", "19", "20", "19", "0", "23", "23"], "time": [2517, 2651, 3435, 5285, 7069, 8774, 9634, 10952, 13068, 14316, 14850, 15935, 17286, 17735, 19419, 21217, 22318, 23634, 23902, 25818, 27532, 27599, 27916]}, "edge": {"target": [], "time": []}}, "mouseout": {"state": {"target": ["0", "1", "0", "8", "10", "11", "9", "5", "5", "4", "7", "6", "18", "18", "16", "18", "15", "17", "14", "21", "22", "19", "20", "19", "22", "0", "23", "23", "0"], "time": [484, 1000, 1651, 2534, 3253, 5134, 6870, 8451, 8738, 8982, 10404, 12919, 13153, 14517, 15518, 16934, 17568, 19286, 19701, 21427, 23583, 23750, 25686, 25868, 25914, 27582, 27649, 31565, 32895]}, "edge": {"target": [], "time": []}}}, "displayed_time": "31.70", "trialTime": 33226, "trial_type": "mouselab-mdp", "trial_index": 44, "time_elapsed": 1719170, "internal_node_id": "0.0-6.0-1.0-29.0"}}, {"uniqueid": "w32696540:a90031415", "current_trial": 45, "dateTime": 1693482397452, "trialdata": {"revealed_states": [], "clicked_states": ["28"], "num_clicks_accrued": [0, 0, 0, 0, 0, 0, 0, 0, 0, 0, 0, 0, 0], "stateRewards": ["", -2, -1, -1, 5, -54, -87, 35, 2, -8, 20, -22, 1, 3, 6, 13, -75, -32, -55, -3, 56, 62, -22, -1, -4, -1, -7, -51, 84, 70, 7, -15, 5, 55], "withholdReward": false, "trial_id": "mdp_trial_31", "block": "test", "trialIndex": 34, "score": 69.6, "costs": -1.4, "simulationMode": [null, null, null, null, null], "rewards": [-1, -4, -1, -7, 84], "path": ["0", "0", "23", "24", "25", "26", "28"], "rt": [4483, 132, 94, 90, 77], "actions": ["left", "left", "left", "up", "right"], "actionTimes": [6134, 6788, 7384, 7973, 8566], "queries": {"click": {"state": {"target": ["28"], "time": [3109]}, "edge": {"target": [], "time": []}}, "mouseover": {"state": {"target": ["1", "28", "27"], "time": [1754, 2905, 4073]}, "edge": {"target": [], "time": []}}, "mouseout": {"state": {"target": ["1", "1", "28", "27", "28", "23", "23"], "time": [936, 1804, 3523, 7104, 9803, 9954, 11521]}, "edge": {"target": [], "time": []}}}, "displayed_time": "15.65", "trialTime": 17157, "trial_type": "mouselab-mdp", "trial_index": 45, "time_elapsed": 1736880, "internal_node_id": "0.0-6.0-1.0-30.0"}}, {"uniqueid": "w32696540:a90031415", "current_trial": 46, "dateTime": 1693482414535, "trialdata": {"revealed_states": [], "clicked_states": ["31", "32"], "num_clicks_accrued": [0, 0, 0, 0, 0, 0, 0, 0, 0, 0, 0, 0, 0], "stateRewards": ["", 1, -2, -8, -13, 4, 34, -84, -4, -49, 88, -70, -1, 3, -4, 10, -77, 13, -34, 15, -21, -16, 27, 1, -2, 8, -8, -6, 38, -26, 6, -15, 66, -3], "withholdReward": false, "trial_id": "mdp_trial_32", "block": "test", "trialIndex": 35, "score": 76.2, "costs": -2.8, "simulationMode": [null, null, null, null, null], "rewards": [1, -2, 8, 6, 66], "path": ["0", "0", "23", "24", "25", "30", "32"], "rt": [5636, 72, 28, 7, 163], "actions": ["left", "left", "left", "down", "down"], "actionTimes": [6969, 7557, 8111, 8657, 9345], "queries": {"click": {"state": {"target": ["31", "32"], "time": [2085, 4011]}, "edge": {"target": [], "time": []}}, "mouseover": {"state": {"target": ["23", "24", "31", "32", "33"], "time": [1530, 1680, 1829, 3082, 4564]}, "edge": {"target": [], "time": []}}, "mouseout": {"state": {"target": ["23", "24", "31", "31", "32", "33", "25"], "time": [1597, 1713, 2185, 2632, 4109, 6412, 9896]}, "edge": {"target": [], "time": []}}}, "displayed_time": "15.33", "trialTime": 16465, "trial_type": "mouselab-mdp", "trial_index": 46, "time_elapsed": 1753962, "internal_node_id": "0.0-6.0-1.0-31.0"}}, {"uniqueid": "w32696540:a90031415", "current_trial": 47, "dateTime": 1693482434193, "trialdata": {"revealed_states": [], "clicked_states": ["11", "10"], "num_clicks_accrued": [0, 0, 0, 0, 0, 0, 0, 0, 0, 0, 0, 0, 0], "stateRewards": ["", 1, 2, 3, 16, 63, -25, 16, -4, -14, 82, -66, -1, -3, -3, -11, -14, 19, 46, 3, -34, -82, 66, -2, -3, 4, -5, -63, 77, -37, -1, -45, -41, 84], "withholdReward": false, "trial_id": "mdp_trial_33", "block": "test", "trialIndex": 36, "score": 81.2, "costs": -2.8, "simulationMode": [null, null, null, null, null], "rewards": [1, 2, 3, -4, 82], "path": ["0", "0", "1", "2", "3", "8", "10"], "rt": [6414, 103, 35, 46, 543], "actions": ["up", "up", "up", "left", "down"], "actionTimes": [9141, 9739, 10288, 10834, 11898], "queries": {"click": {"state": {"target": ["11", "10"], "time": [4362, 6298]}, "edge": {"target": [], "time": []}}, "mouseover": {"state": {"target": ["10", "2", "3", "8", "11", "10", "8", "9", "9", "9"], "time": [2901, 3484, 3551, 3817, 4101, 6239, 6902, 7000, 7384, 8600]}, "edge": {"target": [], "time": []}}, "mouseout": {"state": {"target": ["23", "23", "10", "2", "3", "8", "11", "11", "10", "8", "9", "9", "9", "8", "10"], "time": [250, 550, 3285, 3500, 3783, 3833, 4446, 4786, 6383, 6951, 7268, 8400, 8634, 13134, 16583]}, "edge": {"target": [], "time": []}}}, "displayed_time": "16.73", "trialTime": 19045, "trial_type": "mouselab-mdp", "trial_index": 47, "time_elapsed": 1773620, "internal_node_id": "0.0-6.0-1.0-32.0"}}, {"uniqueid": "w32696540:a90031415", "current_trial": 48, "dateTime": 1693482452185, "trialdata": {"revealed_states": [], "clicked_states": ["7", "10", "11", "9", "5", "6"], "num_clicks_accrued": [0, 0, 0, 0, 0, 0, 0, 0, 0, 0, 0, 0, 0], "stateRewards": ["", 2, -1, 5, 8, 75, -35, -77, 1, -9, -81, -58, 1, 2, -7, 5, 77, -16, 19, 16, -10, -18, 40, -2, 3, 7, -5, 64, 1, -62, 10, 27, 10, 65], "withholdReward": false, "trial_id": "mdp_trial_34", "block": "test", "trialIndex": 37, "score": 80.6, "costs": -8.4, "simulationMode": [null, null, null, null, null], "rewards": [2, -1, 5, 8, 75], "path": ["0", "0", "1", "2", "3", "4", "5"], "rt": [12170, 9, 139, 46, 94], "actions": ["up", "up", "up", "right", "up"], "actionTimes": [13544, 14073, 14735, 15292, 15922], "queries": {"click": {"state": {"target": ["7", "10", "11", "9", "5", "6"], "time": [2199, 4121, 6014, 7913, 9839, 11694]}, "edge": {"target": [], "time": []}}, "mouseover": {"state": {"target": ["1", "2", "7", "2", "10", "11", "9", "5", "5", "4", "6", "4", "3"], "time": [1677, 1778, 2010, 2730, 2912, 4796, 6529, 8428, 9146, 10329, 10628, 12161, 12444]}, "edge": {"target": [], "time": []}}, "mouseout": {"state": {"target": ["10", "1", "2", "7", "2", "10", "11", "9", "5", "5", "4", "6", "4", "3"], "time": [593, 1745, 1828, 2696, 2795, 4579, 6089, 8196, 8512, 10295, 10592, 12127, 12227, 17193]}, "edge": {"target": [], "time": []}}}, "displayed_time": "16.43", "trialTime": 17449, "trial_type": "mouselab-mdp", "trial_index": 48, "time_elapsed": 1791613, "internal_node_id": "0.0-6.0-1.0-33.0"}}, {"uniqueid": "w32696540:a90031415", "current_trial": 49, "dateTime": 1693482471476, "trialdata": {"revealed_states": [], "clicked_states": ["31", "32"], "num_clicks_accrued": [0, 0, 0, 0, 0, 0, 0, 0, 0, 0, 0, 0, 0], "stateRewards": ["", -1, 3, -4, -14, 78, 67, 2, 13, -32, 28, 39, -2, 1, -4, -4, -4, -42, -86, 11, 64, -29, -32, -1, -4, 2, -7, 5, 68, -61, 2, -21, 85, 50], "withholdReward": false, "trial_id": "mdp_trial_35", "block": "test", "trialIndex": 38, "score": 81.2, "costs": -2.8, "simulationMode": [null, null, null, null, null], "rewards": [-1, -4, 2, 2, 85], "path": ["0", "0", "23", "24", "25", "30", "32"], "rt": [5656, 60, 107, 79, 87], "actions": ["left", "left", "left", "down", "down"], "actionTimes": [8543, 9109, 9739, 10313, 10923], "queries": {"click": {"state": {"target": ["31", "32"], "time": [3805, 5828]}, "edge": {"target": [], "time": []}}, "mouseover": {"state": {"target": ["0", "23", "31", "31", "32", "30", "33"], "time": [3024, 3180, 3332, 3681, 5698, 7049, 7357]}, "edge": {"target": [], "time": []}}, "mouseout": {"state": {"target": ["3", "2", "1", "23", "0", "23", "31", "31", "32", "30", "33", "33", "30", "31", "22"], "time": [764, 881, 1180, 2180, 3098, 3197, 3397, 4133, 5929, 7288, 7864, 15765, 15880, 16330, 17896]}, "edge": {"target": [], "time": []}}}, "displayed_time": "16.89", "trialTime": 18694, "trial_type": "mouselab-mdp", "trial_index": 49, "time_elapsed": 1810903, "internal_node_id": "0.0-6.0-1.0-34.0"}}, {"uniqueid": "w32696540:a90031415", "current_trial": 50, "dateTime": 1693482487964, "trialdata": {"revealed_states": [], "clicked_states": ["21", "22"], "num_clicks_accrued": [0, 0, 0, 0, 0, 0, 0, 0, 0, 0, 0, 0, 0], "stateRewards": ["", 2, -3, -2, 14, -4, 85, 46, 15, -28, 41, 31, -1, -1, -1, 5, 62, 79, 57, 12, -73, -64, 86, -1, 1, -3, -5, 68, 11, -32, 8, -80, -21, -56], "withholdReward": false, "trial_id": "mdp_trial_36", "block": "test", "trialIndex": 39, "score": 92.2, "costs": -2.8, "simulationMode": [null, null, null, null, null], "rewards": [-1, -1, -1, 12, 86], "path": ["0", "0", "12", "13", "14", "19", "22"], "rt": [6658, 174, 149, 137, 5], "actions": ["right", "right", "right", "down", "left"], "actionTimes": [8171, 8847, 9504, 10143, 10661], "queries": {"click": {"state": {"target": ["21", "22"], "time": [3476, 5374]}, "edge": {"target": [], "time": []}}, "mouseover": {"state": {"target": ["22", "21", "22", "19", "20"], "time": [1786, 2820, 4087, 5721, 6087]}, "edge": {"target": [], "time": []}}, "mouseout": {"state": {"target": ["22", "22", "12", "0", "22", "21", "22", "19", "20", "19"], "time": [94, 602, 985, 1529, 1919, 3601, 5638, 5855, 11335, 11435]}, "edge": {"target": [], "time": []}}}, "displayed_time": "15.52", "trialTime": 15888, "trial_type": "mouselab-mdp", "trial_index": 50, "time_elapsed": 1827391, "internal_node_id": "0.0-6.0-1.0-35.0"}}, {"uniqueid": "w32696540:a90031415", "current_trial": 51, "dateTime": 1693482518487, "trialdata": {"revealed_states": [], "clicked_states": ["10", "7", "9", "5", "11", "6", "28", "31", "33", "29", "18"], "num_clicks_accrued": [0, 0, 0, 0, 0, 0, 0, 0, 0, 0, 0, 0, 0], "stateRewards": ["", -2, -1, -3, -1, -78, -6, 2, -1, 22, -88, 32, 2, 2, -7, -8, -51, -17, 54, 2, -44, 54, 75, 2, -2, -8, -15, -29, 12, -67, 15, -1, -47, -47], "withholdReward": false, "trial_id": "mdp_trial_37", "block": "test", "trialIndex": 40, "score": 27.599999999999998, "costs": -15.400000000000002, "simulationMode": [null, null, null, null, null], "rewards": [2, 2, -7, -8, 54], "path": ["0", "0", "12", "13", "14", "15", "18"], "rt": [23655, 554, 169, 144, 80], "actions": ["right", "right", "right", "up", "left"], "actionTimes": [25276, 26326, 26989, 27632, 28216], "queries": {"click": {"state": {"target": ["10", "7", "9", "5", "11", "6", "28", "31", "33", "29", "18"], "time": [2959, 4836, 6740, 8771, 10826, 12846, 14760, 16649, 18537, 20475, 22419]}, "edge": {"target": [], "time": []}}, "mouseover": {"state": {"target": ["10", "2", "7", "3", "9", "5", "8", "11", "8", "3", "4", "6", "2", "10", "28", "24", "31", "30", "33", "33", "29", "26", "28", "18", "13", "22"], "time": [2852, 3503, 4136, 5236, 5388, 7420, 9321, 9720, 11137, 11187, 11258, 11587, 13322, 13396, 13887, 15053, 15347, 17070, 17121, 17620, 19087, 20872, 21068, 21918, 22803, 23269]}, "edge": {"target": [], "time": []}}, "mouseout": {"state": {"target": ["12", "0", "10", "2", "7", "3", "9", "5", "8", "11", "8", "3", "4", "6", "2", "10", "28", "24", "31", "30", "33", "33", "29", "26", "28", "18", "13", "22", "12"], "time": [969, 1018, 3471, 3559, 5171, 5309, 7055, 9237, 9527, 11105, 11155, 11220, 11316, 13249, 13366, 13520, 15004, 15136, 17037, 17103, 17270, 18870, 20567, 21002, 21118, 22734, 23020, 24684, 28951]}, "edge": {"target": [], "time": []}}}, "displayed_time": "28.72", "trialTime": 29911, "trial_type": "mouselab-mdp", "trial_index": 51, "time_elapsed": 1857914, "internal_node_id": "0.0-6.0-1.0-36.0"}}, {"uniqueid": "w32696540:a90031415", "current_trial": 52, "dateTime": 1693482534396, "trialdata": {"revealed_states": [], "clicked_states": ["31", "22"], "num_clicks_accrued": [0, 0, 0, 0, 0, 0, 0, 0, 0, 0, 0, 0, 0], "stateRewards": ["", 1, 2, 8, -2, 23, -69, -18, -16, 54, -21, 71, -1, -4, 7, 11, 43, -6, 88, 6, -55, 72, 43, 1, -3, -2, -1, 68, -31, -54, 4, -8, 25, -2], "withholdReward": false, "trial_id": "mdp_trial_38", "block": "test", "trialIndex": 41, "score": 48.2, "costs": -2.8, "simulationMode": [null, null, null, null, null], "rewards": [-1, -4, 7, 6, 43], "path": ["0", "0", "12", "13", "14", "19", "22"], "rt": [5959, 37, 39, 120, 57], "actions": ["right", "right", "right", "down", "left"], "actionTimes": [6981, 7511, 8063, 8678, 9256], "queries": {"click": {"state": {"target": ["31", "22"], "time": [2115, 4067]}, "edge": {"target": [], "time": []}}, "mouseover": {"state": {"target": ["23", "24", "31", "22", "22", "24", "26", "28"], "time": [1188, 1572, 1938, 2739, 3263, 5249, 5505, 5838]}, "edge": {"target": [], "time": []}}, "mouseout": {"state": {"target": ["0", "23", "24", "31", "22", "22", "24", "26", "28", "23"], "time": [139, 1288, 1822, 2197, 2890, 4165, 5391, 5704, 6589, 13555]}, "edge": {"target": [], "time": []}}}, "displayed_time": "15.02", "trialTime": 15360, "trial_type": "mouselab-mdp", "trial_index": 52, "time_elapsed": 1873823, "internal_node_id": "0.0-6.0-1.0-37.0"}}, {"uniqueid": "w32696540:a90031415", "current_trial": 53, "dateTime": 1693482551222, "trialdata": {"revealed_states": [], "clicked_states": ["18", "28", "31"], "num_clicks_accrued": [0, 0, 0, 0, 0, 0, 0, 0, 0, 0, 0, 0, 0], "stateRewards": ["", -1, -4, -3, 1, -45, -67, -24, 14, 32, 22, 22, -1, 1, -5, -7, 72, 84, -79, -5, 19, -40, -2, -1, -2, 8, -3, 84, -25, -28, 11, 64, -66, 77], "withholdReward": false, "trial_id": "mdp_trial_39", "block": "test", "trialIndex": 42, "score": 75.8, "costs": -4.199999999999999, "simulationMode": [null, null, null, null, null], "rewards": [-1, -2, 8, 11, 64], "path": ["0", "0", "23", "24", "25", "30", "31"], "rt": [8426, 151, 186, 19, 8], "actions": ["left", "left", "left", "down", "right"], "actionTimes": [9411, 10100, 10785, 11319, 11865], "queries": {"click": {"state": {"target": ["18", "28", "31"], "time": [1765, 3699, 6403]}, "edge": {"target": [], "time": []}}, "mouseover": {"state": {"target": ["1", "18", "1", "28", "24", "31", "23", "1", "2", "10"], "time": [1131, 1565, 2500, 2999, 5915, 6182, 6915, 6983, 7231, 7766]}, "edge": {"target": [], "time": []}}, "mouseout": {"state": {"target": ["0", "1", "18", "1", "28", "24", "31", "23", "1", "2", "10", "2"], "time": [1016, 1365, 2341, 2567, 5497, 6014, 6481, 6965, 7016, 7449, 8581, 12964]}, "edge": {"target": [], "time": []}}}, "displayed_time": "14.99", "trialTime": 16179, "trial_type": "mouselab-mdp", "trial_index": 53, "time_elapsed": 1890649, "internal_node_id": "0.0-6.0-1.0-38.0"}}, {"uniqueid": "w32696540:a90031415", "current_trial": 54, "dateTime": 1693482568670, "trialdata": {"revealed_states": [], "clicked_states": ["18", "22"], "num_clicks_accrued": [0, 0, 0, 0, 0, 0, 0, 0, 0, 0, 0, 0, 0], "stateRewards": ["", -2, 3, 8, -9, 59, 41, -50, -1, 82, 66, 33, 2, -2, 7, 8, 1, -38, 12, -16, 24, -37, 67, 1, 4, -2, 5, 35, -83, 28, 8, -27, 69, -64], "withholdReward": false, "trial_id": "mdp_trial_40", "block": "test", "trialIndex": 43, "score": 55.2, "costs": -2.8, "simulationMode": [null, null, null, null, null], "rewards": [2, -2, 7, -16, 67], "path": ["0", "0", "12", "13", "14", "19", "22"], "rt": [5418, 307, 21, 582, 69], "actions": ["right", "right", "right", "down", "left"], "actionTimes": [7224, 8033, 8563, 9679, 10262], "queries": {"click": {"state": {"target": ["18", "22"], "time": [2565, 4501]}, "edge": {"target": [], "time": []}}, "mouseover": {"state": {"target": ["18", "13", "22", "19", "20"], "time": [2241, 3459, 3712, 4793, 5193]}, "edge": {"target": [], "time": []}}, "mouseout": {"state": {"target": ["2", "1", "18", "13", "22", "19", "20", "20", "20", "19", "22"], "time": [1076, 1257, 3198, 3653, 4759, 4860, 6858, 10475, 10807, 10857, 11773]}, "edge": {"target": [], "time": []}}}, "displayed_time": "15.81", "trialTime": 16921, "trial_type": "mouselab-mdp", "trial_index": 54, "time_elapsed": 1908097, "internal_node_id": "0.0-6.0-1.0-39.0"}}, {"uniqueid": "w32696540:a90031415", "current_trial": 55, "dateTime": 1693482644190, "trialdata": {"rt": 75511, "response": {"Q0": "$-2 to $2", "Q1": "$-16 to $16", "Q2": "$-32 to $32", "Q3": "The cost for clicking on nodes varied between nodes.", "Q4": "Very motivated"}, "question_order": [0, 1, 2, 3, 4], "trial_id": "final_quiz_control", "trial_type": "survey-multi-choice", "trial_index": 55, "time_elapsed": 1983617, "internal_node_id": "0.0-6.0-2.0"}}, {"uniqueid": "w32696540:a90031415", "current_trial": 56, "dateTime": 1693482732798, "trialdata": {"rt": 88597, "response": {"Q0": "Initially, I just looked for the best amount by following a line. Eventually, I realized I could check the end points instead.", "Q1": "I did by clicking on the end points instead of the whole streak.", "Q2": "Not at all difficult. It is an easy game."}, "trial_id": "self_report_control", "trial_type": "survey-text", "trial_index": 56, "time_elapsed": 2072225, "internal_node_id": "0.0-6.0-3.0"}}, {"uniqueid": "w32696540:a90031415", "current_trial": 57, "dateTime": 1693482761333, "trialdata": {"rt": 28532, "response": {"gender": "male", "age": "35", "colorblind": "0", "effort": "0"}, "trial_type": "survey-html-form", "trial_index": 57, "time_elapsed": 2100761, "internal_node_id": "0.0-6.0-4.0"}}, {"uniqueid": "w32696540:a90031415", "current_trial": 58, "dateTime": 1693482786741, "trialdata": {"rt": 25399, "response": {"Q0": "none.", "Q1": "no.", "Q2": "none."}, "trial_type": "survey-text", "trial_index": 58, "time_elapsed": 2126169, "internal_node_id": "0.0-6.0-5.0"}}, {"uniqueid": "w32696540:a90031415", "current_trial": 59, "dateTime": 1693482823349, "trialdata": {"rt": 36603, "stimulus": "<h1>Completion Code Instructions (1/2)</h1>\n<br><br><br><br>\nYou have reached the end of the experiment! The completion code consists of two parts: (1) a code with 2 characters (2) a code with 6 characters. On this page, you will receive the second part of the code. The first part of the completion code will be on the next page.\n<br><br>\nThe second part of your completion code is: <b>EWEK22</b>\n<br><br>\nPlease note this down. Then, press 'Finish HIT' in order to find the first part of your completion code. Once the data has been saved, you will receive this code either in this window or in the original browser window where you started the experiment.\n", "response": 0, "trial_type": "html-button-response", "trial_index": 59, "time_elapsed": 2162777, "internal_node_id": "0.0-6.0-6.0"}}, {"uniqueid": "w32696540:a90031415", "current_trial": 60, "dateTime": 1693482824354, "trialdata": {"success": true, "trial_type": "fullscreen", "trial_index": 60, "time_elapsed": 2163782, "internal_node_id": "0.0-7.0"}}], "questiondata": {"params": {"CODE": "C6DMOQA6", "MIN_TIME": 14, "inspectCost": 1, "startTime": "Thu Aug 31 2023 13:17:37 GMT+0200 (South Africa Standard Time)", "bonusRate": 0.002, "variance": "1_2_4_8_44", "branching": "31123"}, "final_score": 2229}, "eventdata": [{"eventtype": "initialized", "value": null, "timestamp": 1693480657355, "interval": 0}, {"eventtype": "window_resize", "value": [1024, 598], "timestamp": 1693480657355, "interval": 0}, {"eventtype": "window_resize", "value": [1024, 598], "timestamp": 1693480657845, "interval": 490}, {"eventtype": "window_resize", "value": [1280, 614], "timestamp": 1693480662286, "interval": 4441}, {"eventtype": "window_resize", "value": [1280, 720], "timestamp": 1693480668972, "interval": 6686}, {"eventtype": "focus", "value": "off", "timestamp": 1693481331867, "interval": 662895}, {"eventtype": "focus", "value": "on", "timestamp": 1693481331867, "interval": 0}, {"eventtype": "window_resize", "value": [1280, 614], "timestamp": 1693481332081, "interval": 214}, {"eventtype": "window_resize", "value": [1280, 720], "timestamp": 1693481334317, "interval": 2236}, {"eventtype": "window_resize", "value": [1280, 614], "timestamp": 1693482809014, "interval": 1474697}, {"eventtype": "focus", "value": "off", "timestamp": 1693482811258, "interval": 2244}, {"eventtype": "focus", "value": "on", "timestamp": 1693482817966, "interval": 6708}], "useragent": "Mozilla/5.0 (Windows NT 10.0; Win64; x64) AppleWebKit/537.36 (KHTML, like Gecko) Chrome/116.0.0.0 Safari/537.36", "mode": "live", "id": "w32696540:a90031415", "status": "user data saved", "Beginhit": "2023-08-31 11:17:35.66632", "Beginexp": "2023-08-31 11:17:51.830859", "Endhit": "2023-08-31 11:53:48.269233", "psiturkStatus": 3, "browser": "<redacted>", "platform": "windows", "language": "en-US"}