{"condition": 1, "counterbalance": 0, "assignmentId": "a29564287", "workerId": "w51864687", "hitId": "h12801462", "currenttrial": 56, "bonus": 0, "data": [{"uniqueid": "w51864687:a29564287", "current_trial": 0, "dateTime": 1691143708985, "trialdata": {"success": true, "trial_type": "fullscreen", "trial_index": 0, "time_elapsed": 4349, "internal_node_id": "0.0-0.0"}}, {"uniqueid": "w51864687:a29564287", "current_trial": 1, "dateTime": 1691143716798, "trialdata": {"view_history": [{"page_index": 0, "viewing_time": 7806}], "rt": 7806, "trial_id": "exp_instructions_misaligned", "trial_type": "instructions", "trial_index": 1, "time_elapsed": 12162, "internal_node_id": "0.0-1.0"}}, {"uniqueid": "w51864687:a29564287", "current_trial": 2, "dateTime": 1691143721149, "trialdata": {"success": true, "trial_type": "fullscreen", "trial_index": 2, "time_elapsed": 16513, "internal_node_id": "0.0-2.0-0.0"}}, {"uniqueid": "w51864687:a29564287", "current_trial": 3, "dateTime": 1691143801765, "trialdata": {"view_history": [{"page_index": 0, "viewing_time": 30638}, {"page_index": 1, "viewing_time": 16416}, {"page_index": 2, "viewing_time": 12984}, {"page_index": 3, "viewing_time": 20576}], "rt": 80614, "trial_id": "mouselab_instructions_1_misaligned", "trial_type": "instructions", "trial_index": 3, "time_elapsed": 97129, "internal_node_id": "0.0-2.0-1.0"}}, {"uniqueid": "w51864687:a29564287", "current_trial": 4, "dateTime": 1691143830916, "trialdata": {"revealed_states": [], "clicked_states": ["1"], "num_clicks_accrued": [0, 0, 0, 0, 0, 0, 0, 0, 0, 0, 0, 0, 0], "stateRewards": ["", 10, 10, -10, 10, 10, -10, 10, 10, 10, 10, -10, -10, -10, -10, 10, 10, 10, -10, 10, -10, -10, 10, -10, 10, -10, 10, 10, 10, 10, -10, 10, 10, 10], "withholdReward": false, "trial_id": "practice_1", "block": "test", "trialIndex": 0, "score": -7, "costs": -0.5, "simulationMode": [null, null, null, null, null], "rewards": [-10, -10, -10, 10, 10], "path": ["0", "0", "12", "13", "14", "19", "22"], "rt": [2906, 3929, 1687, 375, 1945], "actions": ["right", "right", "right", "down", "left"], "actionTimes": [8880, 13307, 15493, 16357, 18800], "queries": {"click": {"state": {"target": ["1"], "time": [7574]}, "edge": {"target": [], "time": []}}, "mouseover": {"state": {"target": ["1"], "time": [6997]}, "edge": {"target": [], "time": []}}, "mouseout": {"state": {"target": ["23", "28", "26", "23", "0", "1", "12", "12", "12", "22", "21"], "time": [441, 488, 716, 817, 3166, 11398, 11598, 11947, 24028, 24078, 24108]}, "edge": {"target": [], "time": []}}}, "displayed_time": "19.30", "trialTime": 28339, "trial_type": "mouselab-mdp", "trial_index": 4, "time_elapsed": 126279, "internal_node_id": "0.0-2.0-2.0-0.0"}}, {"uniqueid": "w51864687:a29564287", "current_trial": 5, "dateTime": 1691143853832, "trialdata": {"revealed_states": [], "clicked_states": [], "num_clicks_accrued": [0, 0, 0, 0, 0, 0, 0, 0, 0, 0, 0, 0, 0], "stateRewards": ["", 10, -10, -10, -10, 10, 10, 10, 10, 10, 10, -10, 10, -10, -10, 10, 10, 10, -10, 10, -10, 10, 10, 10, 10, 10, 10, 10, -10, -10, -10, -10, 10, -10], "withholdReward": false, "trial_id": "practice_2", "block": "test", "trialIndex": 1, "score": -6.5, "costs": 0, "simulationMode": [null, null, null, null, null], "rewards": [10, -10, -10, -10, 10], "path": ["0", "0", "1", "2", "3", "4", "5"], "rt": [637, 1882, 4724, 893, 863], "actions": ["up", "up", "up", "right", "up"], "actionTimes": [4428, 6815, 12037, 13431, 14803], "queries": {"click": {"state": {"target": [], "time": []}, "edge": {"target": [], "time": []}}, "mouseover": {"state": {"target": [], "time": []}, "edge": {"target": [], "time": []}}, "mouseout": {"state": {"target": ["32", "0"], "time": [1203, 2903]}, "edge": {"target": [], "time": []}}}, "displayed_time": "15.29", "trialTime": 22423, "trial_type": "mouselab-mdp", "trial_index": 5, "time_elapsed": 149195, "internal_node_id": "0.0-2.0-2.0-1.0"}}, {"uniqueid": "w51864687:a29564287", "current_trial": 6, "dateTime": 1691143947337, "trialdata": {"view_history": [{"page_index": 0, "viewing_time": 11776}, {"page_index": 1, "viewing_time": 40220}, {"page_index": 0, "viewing_time": 37531}, {"page_index": 1, "viewing_time": 3973}], "rt": 93501, "trial_id": "mouselab_instructions_2_misaligned", "trial_type": "instructions", "trial_index": 6, "time_elapsed": 242701, "internal_node_id": "0.0-2.0-3.0"}}, {"uniqueid": "w51864687:a29564287", "current_trial": 7, "dateTime": 1691144002224, "trialdata": {"rt": 54880, "response": {"Q0": "The cost for clicking on nodes may vary between nodes.", "Q1": "The better I perform the higher my bonus will be.", "Q2": "No, the amount of cash at each node of the web may be different each time.", "Q3": "To get the highest total score.", "Q4": "Only before moving the spider.", "Q5": "3 seconds"}, "question_order": [0, 1, 2, 3, 4, 5], "correct": {"Q0": "The cost for clicking on nodes may vary between nodes.", "Q1": "The better I perform the higher my bonus will be.", "Q2": "No, the amount of cash at each node of the web may be different each time.", "Q3": "To get the highest total score.", "Q4": "Only before moving the spider.", "Q5": "3 seconds"}, "trial_id": "mouselab_quiz_misaligned", "trial_type": "survey-multi-choice", "trial_index": 7, "time_elapsed": 297588, "internal_node_id": "0.0-2.0-4.0"}}, {"uniqueid": "w51864687:a29564287", "current_trial": 8, "dateTime": 1691144013785, "trialdata": {"rt": 11551, "stimulus": "\n<h1> Get ready to start the game! </h1>\n\nThank you for reading the instructions. Get ready start with the 40 rounds of this game.\n<br><br>\nIf you need to take a break, feel free to take one after the end of a round, before continuing to the next one.\n<br><br>\nRemember, the more money the spider gets, the bigger your bonus will be!\n<br><br>\n<div style='text-align: center;'>Press <code>space</code> to begin.</div>\n\n<br><br>\n(If, at any point, the <code>space</code> key does not take you to the next page, click once on the text and try again.)", "response": " ", "trial_id": "mdp_ready", "trial_type": "html-keyboard-response", "trial_index": 8, "time_elapsed": 309149, "internal_node_id": "0.0-4.0-0.0"}}, {"uniqueid": "w51864687:a29564287", "current_trial": 9, "dateTime": 1691144037069, "trialdata": {"revealed_states": [], "clicked_states": [], "num_clicks_accrued": [0, 0, 0, 0, 0, 0, 0, 0, 0, 0, 0, 0, 0], "stateRewards": ["", 1, 1, 5, 6, -29, -7, 3, -16, 9, -46, 65, -1, 4, -1, -16, -63, -77, -87, 8, 80, -50, 43, -1, -1, -5, 5, -38, -71, -62, 9, 81, -50, -52], "withholdReward": false, "trial_id": "mdp_trial_1", "block": "test", "trialIndex": 2, "score": -48, "costs": 0, "simulationMode": [null, null, null, null, null], "rewards": [-1, -1, -5, 9, -50], "path": ["0", "0", "23", "24", "25", "30", "32"], "rt": [875, 1242, 469, 385, 3201], "actions": ["left", "left", "left", "down", "down"], "actionTimes": [4494, 6237, 7219, 8106, 11800], "queries": {"click": {"state": {"target": [], "time": []}, "edge": {"target": [], "time": []}}, "mouseover": {"state": {"target": [], "time": []}, "edge": {"target": [], "time": []}}, "mouseout": {"state": {"target": ["21", "20", "22", "18", "7", "1", "0", "0"], "time": [1861, 2088, 2215, 2314, 2463, 2613, 2765, 3637]}, "edge": {"target": [], "time": []}}}, "displayed_time": "17.62", "trialTime": 22801, "trial_type": "mouselab-mdp", "trial_index": 9, "time_elapsed": 332432, "internal_node_id": "0.0-4.0-1.0-0.0"}}, {"uniqueid": "w51864687:a29564287", "current_trial": 10, "dateTime": 1691144059743, "trialdata": {"revealed_states": [], "clicked_states": [], "num_clicks_accrued": [0, 0, 0, 0, 0, 0, 0, 0, 0, 0, 0, 0, 0], "stateRewards": ["", -1, 3, 8, 9, -53, 20, -84, 2, -28, -62, -31, -1, -2, -7, 2, 51, 58, 45, -4, -17, -41, 36, 2, -2, -7, -15, 29, -54, -37, -16, -43, 65, -17], "withholdReward": false, "trial_id": "mdp_trial_2", "block": "test", "trialIndex": 3, "score": -16, "costs": 0, "simulationMode": [null, null, null, null, null], "rewards": [-1, 3, 8, 2, -28], "path": ["0", "0", "1", "2", "3", "8", "9"], "rt": [1918, 2585, 3442, 2736, 312], "actions": ["up", "up", "up", "left", "up"], "actionTimes": [5320, 8397, 12332, 15583, 16406], "queries": {"click": {"state": {"target": [], "time": []}, "edge": {"target": [], "time": []}}, "mouseover": {"state": {"target": [], "time": []}, "edge": {"target": [], "time": []}}, "mouseout": {"state": {"target": [], "time": []}, "edge": {"target": [], "time": []}}}, "displayed_time": "17.41", "trialTime": 22176, "trial_type": "mouselab-mdp", "trial_index": 10, "time_elapsed": 355107, "internal_node_id": "0.0-4.0-1.0-1.0"}}, {"uniqueid": "w51864687:a29564287", "current_trial": 11, "dateTime": 1691144079377, "trialdata": {"revealed_states": [], "clicked_states": [], "num_clicks_accrued": [0, 0, 0, 0, 0, 0, 0, 0, 0, 0, 0, 0, 0], "stateRewards": ["", -1, -2, -8, 8, -27, -82, 19, -14, -62, 4, 1, -2, 2, 6, 10, 73, -51, -2, 2, 73, -48, 54, -1, 2, -4, 11, -25, 47, 86, 15, 33, 43, -42], "withholdReward": false, "trial_id": "mdp_trial_3", "block": "test", "trialIndex": 4, "score": 14, "costs": 0, "simulationMode": [null, null, null, null, null], "rewards": [-2, 2, 6, 10, -2], "path": ["0", "0", "12", "13", "14", "15", "18"], "rt": [655, 1952, 1050, 736, 460], "actions": ["right", "right", "right", "up", "left"], "actionTimes": [2542, 4984, 6529, 7766, 8717], "queries": {"click": {"state": {"target": [], "time": []}, "edge": {"target": [], "time": []}}, "mouseover": {"state": {"target": [], "time": []}, "edge": {"target": [], "time": []}}, "mouseout": {"state": {"target": ["0", "0"], "time": [998, 17657]}, "edge": {"target": [], "time": []}}}, "displayed_time": "15.89", "trialTime": 19112, "trial_type": "mouselab-mdp", "trial_index": 11, "time_elapsed": 374740, "internal_node_id": "0.0-4.0-1.0-2.0"}}, {"uniqueid": "w51864687:a29564287", "current_trial": 12, "dateTime": 1691144098949, "trialdata": {"revealed_states": [], "clicked_states": [], "num_clicks_accrued": [0, 0, 0, 0, 0, 0, 0, 0, 0, 0, 0, 0, 0], "stateRewards": ["", -1, 2, -2, 5, 80, -61, -27, 12, 44, -26, -75, -2, -4, 1, -16, 42, -49, -50, 4, -44, 2, 80, -2, -2, 5, -2, 59, 10, 24, 7, -48, -86, -44], "withholdReward": false, "trial_id": "mdp_trial_4", "block": "test", "trialIndex": 5, "score": -45, "costs": 0, "simulationMode": [null, null, null, null, null], "rewards": [-2, -4, 1, 4, -44], "path": ["0", "0", "12", "13", "14", "19", "20"], "rt": [1388, 597, 704, 235, 460], "actions": ["right", "right", "right", "down", "right"], "actionTimes": [4783, 5876, 7088, 7817, 8767], "queries": {"click": {"state": {"target": [], "time": []}, "edge": {"target": [], "time": []}}, "mouseover": {"state": {"target": [], "time": []}, "edge": {"target": [], "time": []}}, "mouseout": {"state": {"target": [], "time": []}, "edge": {"target": [], "time": []}}}, "displayed_time": "17.40", "trialTime": 19072, "trial_type": "mouselab-mdp", "trial_index": 12, "time_elapsed": 394312, "internal_node_id": "0.0-4.0-1.0-3.0"}}, {"uniqueid": "w51864687:a29564287", "current_trial": 13, "dateTime": 1691144129396, "trialdata": {"revealed_states": [], "clicked_states": [], "num_clicks_accrued": [0, 0, 0, 0, 0, 0, 0, 0, 0, 0, 0, 0, 0], "stateRewards": ["", 2, 3, -2, -8, -8, -41, 74, 15, -23, -80, 1, 1, 3, 3, -15, -63, -78, 67, 13, 75, -41, 86, 2, -2, 6, -3, -8, -49, 50, -6, 83, 74, 80], "withholdReward": false, "trial_id": "mdp_trial_5", "block": "test", "trialIndex": 6, "score": -5, "costs": 0, "simulationMode": [null, null, null, null, null], "rewards": [2, -2, 6, -3, -8], "path": ["0", "0", "23", "24", "25", "26", "27"], "rt": [1001, 300, 284, 256, 220], "actions": ["left", "left", "left", "up", "up"], "actionTimes": [3409, 4216, 5000, 5752, 6465], "queries": {"click": {"state": {"target": [], "time": []}, "edge": {"target": [], "time": []}}, "mouseover": {"state": {"target": [], "time": []}, "edge": {"target": [], "time": []}}, "mouseout": {"state": {"target": ["0"], "time": [1659]}, "edge": {"target": [], "time": []}}}, "displayed_time": "16.41", "trialTime": 29919, "trial_type": "mouselab-mdp", "trial_index": 13, "time_elapsed": 424760, "internal_node_id": "0.0-4.0-1.0-4.0"}}, {"uniqueid": "w51864687:a29564287", "current_trial": 14, "dateTime": 1691144147295, "trialdata": {"revealed_states": [], "clicked_states": [], "num_clicks_accrued": [0, 0, 0, 0, 0, 0, 0, 0, 0, 0, 0, 0, 0], "stateRewards": ["", -2, 3, -1, 2, -72, 63, 20, -1, 62, -66, 39, -2, 3, -6, 14, 22, 47, 1, 8, -49, -1, -41, 2, 2, -6, -16, -64, -60, -34, 16, 54, 22, -7], "withholdReward": false, "trial_id": "mdp_trial_6", "block": "test", "trialIndex": 7, "score": -70, "costs": 0, "simulationMode": [null, null, null, null, null], "rewards": [-2, 3, -1, 2, -72], "path": ["0", "0", "1", "2", "3", "4", "5"], "rt": [1450, 509, 499, 237, 844], "actions": ["up", "up", "up", "right", "up"], "actionTimes": [3371, 4384, 5374, 6117, 7473], "queries": {"click": {"state": {"target": [], "time": []}, "edge": {"target": [], "time": []}}, "mouseover": {"state": {"target": [], "time": []}, "edge": {"target": [], "time": []}}, "mouseout": {"state": {"target": ["0"], "time": [1534]}, "edge": {"target": [], "time": []}}}, "displayed_time": "15.92", "trialTime": 17356, "trial_type": "mouselab-mdp", "trial_index": 14, "time_elapsed": 442658, "internal_node_id": "0.0-4.0-1.0-5.0"}}, {"uniqueid": "w51864687:a29564287", "current_trial": 15, "dateTime": 1691144165447, "trialdata": {"revealed_states": [], "clicked_states": [], "num_clicks_accrued": [0, 0, 0, 0, 0, 0, 0, 0, 0, 0, 0, 0, 0], "stateRewards": ["", 2, -1, 8, -2, -16, 69, -39, -7, -13, -27, -86, 2, -2, 2, 13, -34, -16, -20, -5, 19, 81, 32, -2, -1, 2, -14, 20, 80, 58, 4, 70, 12, 73], "withholdReward": false, "trial_id": "mdp_trial_7", "block": "test", "trialIndex": 8, "score": -1, "costs": 0, "simulationMode": [null, null, null, null, null], "rewards": [2, -2, 2, 13, -16], "path": ["0", "0", "12", "13", "14", "15", "17"], "rt": [591, 335, 337, 326, 277], "actions": ["right", "right", "right", "up", "right"], "actionTimes": [2257, 3089, 3920, 4738, 5511], "queries": {"click": {"state": {"target": [], "time": []}, "edge": {"target": [], "time": []}}, "mouseover": {"state": {"target": [], "time": []}, "edge": {"target": [], "time": []}}, "mouseout": {"state": {"target": ["0"], "time": [1274]}, "edge": {"target": [], "time": []}}}, "displayed_time": "15.67", "trialTime": 17577, "trial_type": "mouselab-mdp", "trial_index": 15, "time_elapsed": 460810, "internal_node_id": "0.0-4.0-1.0-6.0"}}, {"uniqueid": "w51864687:a29564287", "current_trial": 16, "dateTime": 1691144182876, "trialdata": {"revealed_states": [], "clicked_states": [], "num_clicks_accrued": [0, 0, 0, 0, 0, 0, 0, 0, 0, 0, 0, 0, 0], "stateRewards": ["", 1, 1, -3, 2, 22, -25, -11, -5, 50, 49, 3, 1, -1, 8, 14, -85, -30, 57, -6, -39, -16, 59, -2, -1, 5, 5, 59, -16, 8, 4, 67, 56, -9], "withholdReward": false, "trial_id": "mdp_trial_8", "block": "test", "trialIndex": 9, "score": -37, "costs": 0, "simulationMode": [null, null, null, null, null], "rewards": [1, -1, 8, -6, -39], "path": ["0", "0", "12", "13", "14", "19", "20"], "rt": [682, 437, 311, 940, 633], "actions": ["right", "right", "right", "down", "right"], "actionTimes": [1991, 2925, 3725, 5152, 6276], "queries": {"click": {"state": {"target": [], "time": []}, "edge": {"target": [], "time": []}}, "mouseover": {"state": {"target": [], "time": []}, "edge": {"target": [], "time": []}}, "mouseout": {"state": {"target": ["0"], "time": [934]}, "edge": {"target": [], "time": []}}}, "displayed_time": "15.31", "trialTime": 16851, "trial_type": "mouselab-mdp", "trial_index": 16, "time_elapsed": 478240, "internal_node_id": "0.0-4.0-1.0-7.0"}}, {"uniqueid": "w51864687:a29564287", "current_trial": 17, "dateTime": 1691144200605, "trialdata": {"revealed_states": [], "clicked_states": [], "num_clicks_accrued": [0, 0, 0, 0, 0, 0, 0, 0, 0, 0, 0, 0, 0], "stateRewards": ["", -2, 2, 3, -7, -31, -33, 29, -8, -57, 50, -83, -1, -1, 5, 13, -23, -62, 25, 5, -66, -85, 14, 1, -2, -1, 16, 71, 33, -19, -14, 5, -43, 79], "withholdReward": false, "trial_id": "mdp_trial_9", "block": "test", "trialIndex": 10, "score": -35, "costs": 0, "simulationMode": [null, null, null, null, null], "rewards": [-2, 2, 3, -7, -31], "path": ["0", "0", "1", "2", "3", "4", "5"], "rt": [2233, 366, 344, 333, 303], "actions": ["up", "up", "up", "right", "up"], "actionTimes": [3760, 4630, 5461, 6299, 7100], "queries": {"click": {"state": {"target": [], "time": []}, "edge": {"target": [], "time": []}}, "mouseover": {"state": {"target": [], "time": []}, "edge": {"target": [], "time": []}}, "mouseout": {"state": {"target": ["0"], "time": [1146]}, "edge": {"target": [], "time": []}}}, "displayed_time": "15.53", "trialTime": 17172, "trial_type": "mouselab-mdp", "trial_index": 17, "time_elapsed": 495969, "internal_node_id": "0.0-4.0-1.0-8.0"}}, {"uniqueid": "w51864687:a29564287", "current_trial": 18, "dateTime": 1691144217828, "trialdata": {"revealed_states": [], "clicked_states": [], "num_clicks_accrued": [0, 0, 0, 0, 0, 0, 0, 0, 0, 0, 0, 0, 0], "stateRewards": ["", -2, -3, 1, -14, 48, -49, 67, -1, -35, -48, 3, -2, 1, -4, -5, 86, -84, 39, 1, 48, 41, -42, -1, -4, 2, -7, 18, -86, 17, 7, -9, 57, -69], "withholdReward": false, "trial_id": "mdp_trial_10", "block": "test", "trialIndex": 11, "score": -5, "costs": 0, "simulationMode": [null, null, null, null, null], "rewards": [-1, -4, 2, 7, -9], "path": ["0", "0", "23", "24", "25", "30", "31"], "rt": [705, 376, 328, 403, 593], "actions": ["left", "left", "left", "down", "right"], "actionTimes": [1881, 2751, 3575, 4477, 5569], "queries": {"click": {"state": {"target": [], "time": []}, "edge": {"target": [], "time": []}}, "mouseover": {"state": {"target": [], "time": []}, "edge": {"target": [], "time": []}}, "mouseout": {"state": {"target": ["0"], "time": [697]}, "edge": {"target": [], "time": []}}}, "displayed_time": "15.18", "trialTime": 16667, "trial_type": "mouselab-mdp", "trial_index": 18, "time_elapsed": 513191, "internal_node_id": "0.0-4.0-1.0-9.0"}}, {"uniqueid": "w51864687:a29564287", "current_trial": 19, "dateTime": 1691144241207, "trialdata": {"revealed_states": [], "clicked_states": [], "num_clicks_accrued": [0, 0, 0, 0, 0, 0, 0, 0, 0, 0, 0, 0, 0], "stateRewards": ["", -1, 1, 6, -6, 70, 66, 67, -16, -75, -35, 37, -1, 4, 4, -6, 47, -9, 63, 15, 21, -63, 13, 1, 3, -6, 10, 79, -29, 18, -15, 9, -67, -19], "withholdReward": false, "trial_id": "mdp_trial_11", "block": "test", "trialIndex": 12, "score": 35, "costs": 0, "simulationMode": [null, null, null, null, null], "rewards": [-1, 4, 4, 15, 13], "path": ["0", "0", "12", "13", "14", "19", "22"], "rt": [692, 1776, 235, 1600, 1206], "actions": ["right", "right", "right", "down", "left"], "actionTimes": [4705, 6969, 7705, 9797, 11500], "queries": {"click": {"state": {"target": [], "time": []}, "edge": {"target": [], "time": []}}, "mouseover": {"state": {"target": [], "time": []}, "edge": {"target": [], "time": []}}, "mouseout": {"state": {"target": [], "time": []}, "edge": {"target": [], "time": []}}}, "displayed_time": "18.02", "trialTime": 22827, "trial_type": "mouselab-mdp", "trial_index": 19, "time_elapsed": 536571, "internal_node_id": "0.0-4.0-1.0-10.0"}}, {"uniqueid": "w51864687:a29564287", "current_trial": 20, "dateTime": 1691144267239, "trialdata": {"revealed_states": [], "clicked_states": [], "num_clicks_accrued": [0, 0, 0, 0, 0, 0, 0, 0, 0, 0, 0, 0, 0], "stateRewards": ["", 1, -3, -4, -11, -56, 61, -47, -16, -28, -9, 69, -2, -3, -4, -8, 40, -86, 59, -4, 80, 27, 54, -1, 3, -1, 8, 67, 23, 50, 6, 83, -43, -29], "withholdReward": false, "trial_id": "mdp_trial_12", "block": "test", "trialIndex": 13, "score": 67, "costs": 0, "simulationMode": [null, null, null, null, null], "rewards": [-2, -3, -4, -4, 80], "path": ["0", "0", "12", "13", "14", "19", "20"], "rt": [2445, 500, 956, 299, 425], "actions": ["right", "right", "right", "down", "right"], "actionTimes": [5365, 6371, 7830, 8622, 9548], "queries": {"click": {"state": {"target": [], "time": []}, "edge": {"target": [], "time": []}}, "mouseover": {"state": {"target": [], "time": []}, "edge": {"target": [], "time": []}}, "mouseout": {"state": {"target": ["0"], "time": [2466]}, "edge": {"target": [], "time": []}}}, "displayed_time": "16.92", "trialTime": 25423, "trial_type": "mouselab-mdp", "trial_index": 20, "time_elapsed": 562602, "internal_node_id": "0.0-4.0-1.0-11.0"}}, {"uniqueid": "w51864687:a29564287", "current_trial": 21, "dateTime": 1691144286207, "trialdata": {"revealed_states": [], "clicked_states": [], "num_clicks_accrued": [0, 0, 0, 0, 0, 0, 0, 0, 0, 0, 0, 0, 0], "stateRewards": ["", -2, 1, -3, -16, -39, -52, 30, -7, -41, -59, 11, 2, 1, 8, 2, -11, -26, -42, -13, 87, -59, -48, -1, -1, -1, 16, -79, 31, 50, -1, -84, 34, -82], "withholdReward": false, "trial_id": "mdp_trial_13", "block": "test", "trialIndex": 14, "score": 85, "costs": 0, "simulationMode": [null, null, null, null, null], "rewards": [2, 1, 8, -13, 87], "path": ["0", "0", "12", "13", "14", "19", "20"], "rt": [528, 372, 173, 654, 301], "actions": ["right", "right", "right", "down", "right"], "actionTimes": [1867, 2746, 3419, 4576, 5375], "queries": {"click": {"state": {"target": [], "time": []}, "edge": {"target": [], "time": []}}, "mouseover": {"state": {"target": [], "time": []}, "edge": {"target": [], "time": []}}, "mouseout": {"state": {"target": ["0", "0"], "time": [901, 10675]}, "edge": {"target": [], "time": []}}}, "displayed_time": "15.34", "trialTime": 18401, "trial_type": "mouselab-mdp", "trial_index": 21, "time_elapsed": 581571, "internal_node_id": "0.0-4.0-1.0-12.0"}}, {"uniqueid": "w51864687:a29564287", "current_trial": 22, "dateTime": 1691144304176, "trialdata": {"revealed_states": [], "clicked_states": [], "num_clicks_accrued": [0, 0, 0, 0, 0, 0, 0, 0, 0, 0, 0, 0, 0], "stateRewards": ["", 1, -3, -6, -5, 47, 80, -29, 11, -71, 10, -29, -2, 3, -6, 12, 2, -78, -6, 8, 34, -16, -5, -1, 3, 3, -13, 84, -36, -62, -3, -27, 66, 15], "withholdReward": false, "trial_id": "mdp_trial_14", "block": "test", "trialIndex": 15, "score": 37, "costs": 0, "simulationMode": [null, null, null, null, null], "rewards": [-2, 3, -6, 8, 34], "path": ["0", "0", "12", "13", "14", "19", "20"], "rt": [506, 449, 252, 193, 257], "actions": ["right", "right", "right", "down", "right"], "actionTimes": [2415, 3357, 4117, 4806, 5573], "queries": {"click": {"state": {"target": [], "time": []}, "edge": {"target": [], "time": []}}, "mouseover": {"state": {"target": [], "time": []}, "edge": {"target": [], "time": []}}, "mouseout": {"state": {"target": ["1"], "time": [928]}, "edge": {"target": [], "time": []}}}, "displayed_time": "15.91", "trialTime": 17394, "trial_type": "mouselab-mdp", "trial_index": 22, "time_elapsed": 599540, "internal_node_id": "0.0-4.0-1.0-13.0"}}, {"uniqueid": "w51864687:a29564287", "current_trial": 23, "dateTime": 1691144324217, "trialdata": {"revealed_states": [], "clicked_states": [], "num_clicks_accrued": [0, 0, 0, 0, 0, 0, 0, 0, 0, 0, 0, 0, 0], "stateRewards": ["", 1, -2, 7, -14, 88, -56, -44, -14, 64, -51, -57, -2, 3, -4, -9, -11, 19, -77, -1, 68, 75, -67, -1, 1, -2, 5, -37, 70, -34, -10, -72, 63, -41], "withholdReward": false, "trial_id": "mdp_trial_15", "block": "test", "trialIndex": 16, "score": 64, "costs": 0, "simulationMode": [null, null, null, null, null], "rewards": [-2, 3, -4, -1, 68], "path": ["0", "0", "12", "13", "14", "19", "20"], "rt": [681, 113, 171, 171, 180], "actions": ["right", "right", "right", "down", "right"], "actionTimes": [4896, 5505, 6170, 6843, 7531], "queries": {"click": {"state": {"target": [], "time": []}, "edge": {"target": [], "time": []}}, "mouseover": {"state": {"target": [], "time": []}, "edge": {"target": [], "time": []}}, "mouseout": {"state": {"target": ["0"], "time": [3703]}, "edge": {"target": [], "time": []}}}, "displayed_time": "18.22", "trialTime": 19455, "trial_type": "mouselab-mdp", "trial_index": 23, "time_elapsed": 619580, "internal_node_id": "0.0-4.0-1.0-14.0"}}, {"uniqueid": "w51864687:a29564287", "current_trial": 24, "dateTime": 1691144342582, "trialdata": {"revealed_states": [], "clicked_states": [], "num_clicks_accrued": [0, 0, 0, 0, 0, 0, 0, 0, 0, 0, 0, 0, 0], "stateRewards": ["", -1, 1, -6, -1, 80, 23, 2, -11, 73, -81, 59, 1, 3, 5, -1, -26, 28, -3, 16, -59, -13, -50, -2, -2, 2, 15, -50, 86, 17, -4, 37, 35, 44], "withholdReward": false, "trial_id": "mdp_trial_16", "block": "test", "trialIndex": 17, "score": -34, "costs": 0, "simulationMode": [null, null, null, null, null], "rewards": [1, 3, 5, 16, -59], "path": ["0", "0", "12", "13", "14", "19", "20"], "rt": [525, 153, 162, 166, 229], "actions": ["right", "right", "right", "down", "right"], "actionTimes": [2223, 2871, 3528, 4185, 4936], "queries": {"click": {"state": {"target": [], "time": []}, "edge": {"target": [], "time": []}}, "mouseover": {"state": {"target": [], "time": []}, "edge": {"target": [], "time": []}}, "mouseout": {"state": {"target": ["0"], "time": [1227]}, "edge": {"target": [], "time": []}}}, "displayed_time": "15.70", "trialTime": 17755, "trial_type": "mouselab-mdp", "trial_index": 24, "time_elapsed": 637945, "internal_node_id": "0.0-4.0-1.0-15.0"}}, {"uniqueid": "w51864687:a29564287", "current_trial": 25, "dateTime": 1691144367225, "trialdata": {"revealed_states": [], "clicked_states": [], "num_clicks_accrued": [0, 0, 0, 0, 0, 0, 0, 0, 0, 0, 0, 0, 0], "stateRewards": ["", -1, 3, -5, -2, -13, -9, -34, -7, -81, 32, 35, -2, -2, 1, -14, -32, 81, 7, 4, 82, 56, -8, -1, 3, -8, 6, -24, -24, -53, 2, 38, 61, 54], "withholdReward": false, "trial_id": "mdp_trial_17", "block": "test", "trialIndex": 18, "score": -39, "costs": 0, "simulationMode": [null, null, null, null, null], "rewards": [-1, 3, -5, -2, -34], "path": ["0", "0", "1", "2", "3", "4", "7"], "rt": [4751, 186, 261, 178, 499], "actions": ["up", "up", "up", "right", "down"], "actionTimes": [9691, 10378, 11130, 11802, 12792], "queries": {"click": {"state": {"target": [], "time": []}, "edge": {"target": [], "time": []}}, "mouseover": {"state": {"target": [], "time": []}, "edge": {"target": [], "time": []}}, "mouseout": {"state": {"target": ["0"], "time": [3922]}, "edge": {"target": [], "time": []}}}, "displayed_time": "18.94", "trialTime": 24010, "trial_type": "mouselab-mdp", "trial_index": 25, "time_elapsed": 662589, "internal_node_id": "0.0-4.0-1.0-16.0"}}, {"uniqueid": "w51864687:a29564287", "current_trial": 26, "dateTime": 1691144408891, "trialdata": {"revealed_states": [], "clicked_states": [], "num_clicks_accrued": [0, 0, 0, 0, 0, 0, 0, 0, 0, 0, 0, 0, 0], "stateRewards": ["", -2, -2, -7, -13, -10, 49, -68, -1, 84, 70, 88, 1, 4, 4, 12, -57, 25, 30, 8, -1, -77, 57, 2, 3, 2, 3, -18, -80, 23, -15, -41, 70, 11], "withholdReward": false, "trial_id": "mdp_trial_18", "block": "test", "trialIndex": 19, "score": 16, "costs": 0, "simulationMode": [null, null, null, null, null], "rewards": [1, 4, 4, 8, -1], "path": ["0", "0", "12", "13", "14", "19", "20"], "rt": [1063, 999, 431, 147, 301], "actions": ["right", "right", "right", "down", "right"], "actionTimes": [26057, 27586, 28521, 29162, 29969], "queries": {"click": {"state": {"target": [], "time": []}, "edge": {"target": [], "time": []}}, "mouseover": {"state": {"target": [], "time": []}, "edge": {"target": [], "time": []}}, "mouseout": {"state": {"target": [], "time": []}, "edge": {"target": [], "time": []}}}, "displayed_time": "38.99", "trialTime": 40995, "trial_type": "mouselab-mdp", "trial_index": 26, "time_elapsed": 704255, "internal_node_id": "0.0-4.0-1.0-17.0"}}, {"uniqueid": "w51864687:a29564287", "current_trial": 27, "dateTime": 1691144451495, "trialdata": {"revealed_states": [], "clicked_states": [], "num_clicks_accrued": [0, 0, 0, 0, 0, 0, 0, 0, 0, 0, 0, 0, 0], "stateRewards": ["", -1, 2, 5, -6, 13, -64, -47, 8, -79, -80, -33, 1, 2, -2, -16, 56, -71, -10, 3, 29, 44, 85, -1, 4, 5, 4, -36, -56, 19, 8, 52, -13, -2], "withholdReward": false, "trial_id": "mdp_trial_19", "block": "test", "trialIndex": 20, "score": 33, "costs": 0, "simulationMode": [null, null, null, null, null], "rewards": [1, 2, -2, 3, 29], "path": ["0", "0", "12", "13", "14", "19", "20"], "rt": [751, 364, 293, 164, 238], "actions": ["right", "right", "right", "down", "right"], "actionTimes": [2977, 3840, 4639, 5312, 6040], "queries": {"click": {"state": {"target": [], "time": []}, "edge": {"target": [], "time": []}}, "mouseover": {"state": {"target": [], "time": []}, "edge": {"target": [], "time": []}}, "mouseout": {"state": {"target": [], "time": []}, "edge": {"target": [], "time": []}}}, "displayed_time": "16.23", "trialTime": 41971, "trial_type": "mouselab-mdp", "trial_index": 27, "time_elapsed": 746858, "internal_node_id": "0.0-4.0-1.0-18.0"}}, {"uniqueid": "w51864687:a29564287", "current_trial": 28, "dateTime": 1691144469561, "trialdata": {"revealed_states": [], "clicked_states": [], "num_clicks_accrued": [0, 0, 0, 0, 0, 0, 0, 0, 0, 0, 0, 0, 0], "stateRewards": ["", -2, -2, -3, -6, -15, -11, 41, -12, -63, -76, 2, -2, -3, 8, 9, -36, -2, -18, -16, -32, -85, -17, -2, 1, 5, -16, 82, 35, -88, -1, 80, -82, -20], "withholdReward": false, "trial_id": "mdp_trial_20", "block": "test", "trialIndex": 21, "score": -30, "costs": 0, "simulationMode": [null, null, null, null, null], "rewards": [-2, -3, 8, -16, -17], "path": ["0", "0", "12", "13", "14", "19", "22"], "rt": [1490, 224, 224, 88, 680], "actions": ["right", "right", "right", "down", "left"], "actionTimes": [3886, 4606, 5327, 5920, 7118], "queries": {"click": {"state": {"target": [], "time": []}, "edge": {"target": [], "time": []}}, "mouseover": {"state": {"target": [], "time": []}, "edge": {"target": [], "time": []}}, "mouseout": {"state": {"target": [], "time": []}, "edge": {"target": [], "time": []}}}, "displayed_time": "16.40", "trialTime": 17413, "trial_type": "mouselab-mdp", "trial_index": 28, "time_elapsed": 764924, "internal_node_id": "0.0-4.0-1.0-19.0"}}, {"uniqueid": "w51864687:a29564287", "current_trial": 29, "dateTime": 1691144489749, "trialdata": {"revealed_states": [], "clicked_states": [], "num_clicks_accrued": [0, 0, 0, 0, 0, 0, 0, 0, 0, 0, 0, 0, 0], "stateRewards": ["", -2, 2, -4, -4, -59, 88, 62, -3, 69, -15, -34, 1, -2, -5, 7, -54, -20, 78, -16, -74, -53, -21, 2, -4, 2, 13, -8, -44, 26, 9, 72, 4, 17], "withholdReward": false, "trial_id": "mdp_trial_21", "block": "test", "trialIndex": 22, "score": -96, "costs": 0, "simulationMode": [null, null, null, null, null], "rewards": [1, -2, -5, -16, -74], "path": ["0", "0", "12", "13", "14", "19", "20"], "rt": [648, 142, 138, 225, 246], "actions": ["right", "right", "right", "down", "right"], "actionTimes": [4651, 5299, 5948, 6661, 7404], "queries": {"click": {"state": {"target": [], "time": []}, "edge": {"target": [], "time": []}}, "mouseover": {"state": {"target": [], "time": []}, "edge": {"target": [], "time": []}}, "mouseout": {"state": {"target": [], "time": []}, "edge": {"target": [], "time": []}}}, "displayed_time": "18.00", "trialTime": 19493, "trial_type": "mouselab-mdp", "trial_index": 29, "time_elapsed": 785112, "internal_node_id": "0.0-4.0-1.0-20.0"}}, {"uniqueid": "w51864687:a29564287", "current_trial": 30, "dateTime": 1691144507192, "trialdata": {"revealed_states": [], "clicked_states": [], "num_clicks_accrued": [0, 0, 0, 0, 0, 0, 0, 0, 0, 0, 0, 0, 0], "stateRewards": ["", -2, -3, 8, -4, -30, 31, 69, 9, 66, 87, 64, -2, 2, 8, 5, 47, 16, -39, -8, -54, 51, -19, 1, -2, -2, -11, -25, -26, 43, -9, 19, -84, 86], "withholdReward": false, "trial_id": "mdp_trial_22", "block": "test", "trialIndex": 23, "score": 7, "costs": 0, "simulationMode": [null, null, null, null, null], "rewards": [1, -2, -2, -9, 19], "path": ["0", "0", "23", "24", "25", "30", "31"], "rt": [705, 204, 164, 118, 231], "actions": ["left", "left", "left", "down", "right"], "actionTimes": [2279, 2983, 3664, 4272, 5007], "queries": {"click": {"state": {"target": [], "time": []}, "edge": {"target": [], "time": []}}, "mouseover": {"state": {"target": [], "time": []}, "edge": {"target": [], "time": []}}, "mouseout": {"state": {"target": [], "time": []}, "edge": {"target": [], "time": []}}}, "displayed_time": "15.58", "trialTime": 16770, "trial_type": "mouselab-mdp", "trial_index": 30, "time_elapsed": 802556, "internal_node_id": "0.0-4.0-1.0-21.0"}}, {"uniqueid": "w51864687:a29564287", "current_trial": 31, "dateTime": 1691144525244, "trialdata": {"revealed_states": [], "clicked_states": [], "num_clicks_accrued": [0, 0, 0, 0, 0, 0, 0, 0, 0, 0, 0, 0, 0], "stateRewards": ["", -1, -3, 1, -4, -48, -63, -49, -2, -84, -19, 65, 2, -2, -2, -12, -4, 59, 9, 6, 75, 69, -13, -1, -3, -3, -2, -37, -68, -36, 13, 32, 18, -14], "withholdReward": false, "trial_id": "mdp_trial_23", "block": "test", "trialIndex": 24, "score": -24, "costs": 0, "simulationMode": [null, null, null, null, null], "rewards": [-1, -3, 1, -2, -19], "path": ["0", "0", "1", "2", "3", "8", "10"], "rt": [1065, 207, 224, 83, 143], "actions": ["up", "up", "up", "left", "down"], "actionTimes": [3044, 3764, 4484, 5069, 5749], "queries": {"click": {"state": {"target": [], "time": []}, "edge": {"target": [], "time": []}}, "mouseover": {"state": {"target": [], "time": []}, "edge": {"target": [], "time": []}}, "mouseout": {"state": {"target": [], "time": []}, "edge": {"target": [], "time": []}}}, "displayed_time": "15.98", "trialTime": 17366, "trial_type": "mouselab-mdp", "trial_index": 31, "time_elapsed": 820608, "internal_node_id": "0.0-4.0-1.0-22.0"}}, {"uniqueid": "w51864687:a29564287", "current_trial": 32, "dateTime": 1691144553434, "trialdata": {"revealed_states": [], "clicked_states": [], "num_clicks_accrued": [0, 0, 0, 0, 0, 0, 0, 0, 0, 0, 0, 0, 0], "stateRewards": ["", -2, -4, -2, 10, -8, -15, -47, 7, -84, 53, 5, -1, 2, -7, 3, 83, 31, 47, -1, 30, -8, 69, 2, -4, -1, 8, -7, 12, -8, -8, -13, 30, -84], "withholdReward": false, "trial_id": "mdp_trial_24", "block": "test", "trialIndex": 25, "score": 23, "costs": 0, "simulationMode": [null, null, null, null, null], "rewards": [-1, 2, -7, -1, 30], "path": ["0", "0", "12", "13", "14", "19", "20"], "rt": [458, 156, 336, 117, 199], "actions": ["right", "right", "right", "down", "right"], "actionTimes": [2227, 2875, 3707, 4332, 5044], "queries": {"click": {"state": {"target": [], "time": []}, "edge": {"target": [], "time": []}}, "mouseover": {"state": {"target": [], "time": []}, "edge": {"target": [], "time": []}}, "mouseout": {"state": {"target": [], "time": []}, "edge": {"target": [], "time": []}}}, "displayed_time": "15.77", "trialTime": 27425, "trial_type": "mouselab-mdp", "trial_index": 32, "time_elapsed": 848797, "internal_node_id": "0.0-4.0-1.0-23.0"}}, {"uniqueid": "w51864687:a29564287", "current_trial": 33, "dateTime": 1691144580920, "trialdata": {"revealed_states": [], "clicked_states": [], "num_clicks_accrued": [0, 0, 0, 0, 0, 0, 0, 0, 0, 0, 0, 0, 0], "stateRewards": ["", 2, -3, -5, 5, 11, -9, -33, 6, 67, 6, -30, -1, -2, -6, 13, 55, 13, 72, -14, 75, 21, -66, -2, -4, 6, 15, -1, -35, 60, 2, 51, -73, 12], "withholdReward": false, "trial_id": "mdp_trial_25", "block": "test", "trialIndex": 26, "score": 52, "costs": 0, "simulationMode": [null, null, null, null, null], "rewards": [-1, -2, -6, -14, 75], "path": ["0", "0", "12", "13", "14", "19", "20"], "rt": [12695, 494, 244, 132, 232], "actions": ["right", "right", "right", "down", "right"], "actionTimes": [14905, 15924, 16676, 17310, 18038], "queries": {"click": {"state": {"target": [], "time": []}, "edge": {"target": [], "time": []}}, "mouseover": {"state": {"target": [], "time": []}, "edge": {"target": [], "time": []}}, "mouseout": {"state": {"target": ["0"], "time": [3487]}, "edge": {"target": [], "time": []}}}, "displayed_time": "25.20", "trialTime": 26773, "trial_type": "mouselab-mdp", "trial_index": 33, "time_elapsed": 876283, "internal_node_id": "0.0-4.0-1.0-24.0"}}, {"uniqueid": "w51864687:a29564287", "current_trial": 34, "dateTime": 1691144600646, "trialdata": {"revealed_states": [], "clicked_states": [], "num_clicks_accrued": [0, 0, 0, 0, 0, 0, 0, 0, 0, 0, 0, 0, 0], "stateRewards": ["", 2, -1, -4, -13, 74, 77, 3, 2, -43, -2, -11, 2, 3, 7, 11, -26, -29, -33, -3, -3, -13, -3, 1, 3, -7, 14, -59, 33, 9, -5, 34, 79, 68], "withholdReward": false, "trial_id": "mdp_trial_26", "block": "test", "trialIndex": 27, "score": 44, "costs": 0, "simulationMode": [null, null, null, null, null], "rewards": [1, 3, -7, 14, 33], "path": ["0", "0", "23", "24", "25", "26", "28"], "rt": [909, 258, 259, 395, 111], "actions": ["left", "left", "left", "up", "right"], "actionTimes": [4312, 5072, 5824, 6711, 7327], "queries": {"click": {"state": {"target": [], "time": []}, "edge": {"target": [], "time": []}}, "mouseover": {"state": {"target": [], "time": []}, "edge": {"target": [], "time": []}}, "mouseout": {"state": {"target": ["31", "24", "24", "23"], "time": [2031, 2058, 2234, 2309]}, "edge": {"target": [], "time": []}}}, "displayed_time": "17.41", "trialTime": 18975, "trial_type": "mouselab-mdp", "trial_index": 34, "time_elapsed": 896010, "internal_node_id": "0.0-4.0-1.0-25.0"}}, {"uniqueid": "w51864687:a29564287", "current_trial": 35, "dateTime": 1691144618355, "trialdata": {"revealed_states": [], "clicked_states": [], "num_clicks_accrued": [0, 0, 0, 0, 0, 0, 0, 0, 0, 0, 0, 0, 0], "stateRewards": ["", 1, -1, -7, -7, -22, 15, -13, 13, 26, -32, 38, -1, 1, -7, -4, 16, -62, 86, 12, -54, 56, 64, -2, -1, 6, 14, -57, 37, 62, -6, -25, 50, -70], "withholdReward": false, "trial_id": "mdp_trial_27", "block": "test", "trialIndex": 28, "score": 54, "costs": 0, "simulationMode": [null, null, null, null, null], "rewards": [-2, -1, 6, 14, 37], "path": ["0", "0", "23", "24", "25", "26", "28"], "rt": [573, 260, 206, 382, 163], "actions": ["left", "left", "left", "up", "right"], "actionTimes": [2173, 2925, 3621, 4501, 5156], "queries": {"click": {"state": {"target": [], "time": []}, "edge": {"target": [], "time": []}}, "mouseover": {"state": {"target": [], "time": []}, "edge": {"target": [], "time": []}}, "mouseout": {"state": {"target": ["0"], "time": [510]}, "edge": {"target": [], "time": []}}}, "displayed_time": "15.60", "trialTime": 16945, "trial_type": "mouselab-mdp", "trial_index": 35, "time_elapsed": 913718, "internal_node_id": "0.0-4.0-1.0-26.0"}}, {"uniqueid": "w51864687:a29564287", "current_trial": 36, "dateTime": 1691144636407, "trialdata": {"revealed_states": [], "clicked_states": [], "num_clicks_accrued": [0, 0, 0, 0, 0, 0, 0, 0, 0, 0, 0, 0, 0], "stateRewards": ["", 1, 2, -3, -5, 66, -50, -47, -5, 1, 28, -27, 1, 1, -1, -6, 37, -25, 56, 1, -82, -66, -40, -1, -4, -7, 15, -61, -23, 26, 10, 14, -56, 29], "withholdReward": false, "trial_id": "mdp_trial_28", "block": "test", "trialIndex": 29, "score": -80, "costs": 0, "simulationMode": [null, null, null, null, null], "rewards": [1, 1, -1, 1, -82], "path": ["0", "0", "12", "13", "14", "19", "20"], "rt": [1126, 389, 301, 138, 543], "actions": ["right", "right", "right", "down", "right"], "actionTimes": [3136, 4023, 4831, 5512, 6549], "queries": {"click": {"state": {"target": [], "time": []}, "edge": {"target": [], "time": []}}, "mouseover": {"state": {"target": [], "time": []}, "edge": {"target": [], "time": []}}, "mouseout": {"state": {"target": ["0"], "time": [1556]}, "edge": {"target": [], "time": []}}}, "displayed_time": "16.01", "trialTime": 17302, "trial_type": "mouselab-mdp", "trial_index": 36, "time_elapsed": 931770, "internal_node_id": "0.0-4.0-1.0-27.0"}}, {"uniqueid": "w51864687:a29564287", "current_trial": 37, "dateTime": 1691144654332, "trialdata": {"revealed_states": [], "clicked_states": [], "num_clicks_accrued": [0, 0, 0, 0, 0, 0, 0, 0, 0, 0, 0, 0, 0], "stateRewards": ["", 1, 4, 5, 8, -55, -11, 8, 16, -37, 77, -22, -2, 3, -8, -10, 45, 87, -67, 4, 17, -33, -22, -1, -3, 7, 6, -39, -85, 75, -1, 7, -48, 45], "withholdReward": false, "trial_id": "mdp_trial_29", "block": "test", "trialIndex": 30, "score": -76, "costs": 0, "simulationMode": [null, null, null, null, null], "rewards": [-1, -3, 7, 6, -85], "path": ["0", "0", "23", "24", "25", "26", "28"], "rt": [655, 320, 192, 144, 139], "actions": ["left", "left", "left", "up", "right"], "actionTimes": [2109, 2932, 3621, 4278, 4917], "queries": {"click": {"state": {"target": [], "time": []}, "edge": {"target": [], "time": []}}, "mouseover": {"state": {"target": [], "time": []}, "edge": {"target": [], "time": []}}, "mouseout": {"state": {"target": ["0"], "time": [135]}, "edge": {"target": [], "time": []}}}, "displayed_time": "15.46", "trialTime": 16915, "trial_type": "mouselab-mdp", "trial_index": 37, "time_elapsed": 949696, "internal_node_id": "0.0-4.0-1.0-28.0"}}, {"uniqueid": "w51864687:a29564287", "current_trial": 38, "dateTime": 1691144671350, "trialdata": {"revealed_states": [], "clicked_states": [], "num_clicks_accrued": [0, 0, 0, 0, 0, 0, 0, 0, 0, 0, 0, 0, 0], "stateRewards": ["", 1, 1, 1, -3, -7, -1, -41, -10, 20, -72, -63, 1, -4, -2, 2, -66, 30, -84, -2, 49, 23, 71, -1, -4, 4, -12, 67, 5, 18, -16, 88, 56, -5], "withholdReward": false, "trial_id": "mdp_trial_30", "block": "test", "trialIndex": 31, "score": 16, "costs": 0, "simulationMode": [null, null, null, null, null], "rewards": [1, -4, -2, -2, 23], "path": ["0", "0", "12", "13", "14", "19", "21"], "rt": [996, 60, 172, 166, 434], "actions": ["right", "right", "right", "down", "down"], "actionTimes": [2263, 2816, 3481, 4146, 5073], "queries": {"click": {"state": {"target": [], "time": []}, "edge": {"target": [], "time": []}}, "mouseover": {"state": {"target": [], "time": []}, "edge": {"target": [], "time": []}}, "mouseout": {"state": {"target": ["0"], "time": [802]}, "edge": {"target": [], "time": []}}}, "displayed_time": "15.27", "trialTime": 16298, "trial_type": "mouselab-mdp", "trial_index": 38, "time_elapsed": 966714, "internal_node_id": "0.0-4.0-1.0-29.0"}}, {"uniqueid": "w51864687:a29564287", "current_trial": 39, "dateTime": 1691144690594, "trialdata": {"revealed_states": [], "clicked_states": [], "num_clicks_accrued": [0, 0, 0, 0, 0, 0, 0, 0, 0, 0, 0, 0, 0], "stateRewards": ["", -1, 4, -8, 12, 14, 69, -8, 5, -72, -14, 56, -1, -1, -1, 9, 67, 19, 11, -9, -88, -58, 3, 2, -4, -8, 4, 62, 77, -74, 5, -31, 65, 88], "withholdReward": false, "trial_id": "mdp_trial_31", "block": "test", "trialIndex": 32, "score": -100, "costs": 0, "simulationMode": [null, null, null, null, null], "rewards": [-1, -1, -1, -9, -88], "path": ["0", "0", "12", "13", "14", "19", "20"], "rt": [472, 279, 281, 173, 257], "actions": ["right", "right", "right", "down", "right"], "actionTimes": [1928, 2704, 3480, 4145, 4905], "queries": {"click": {"state": {"target": [], "time": []}, "edge": {"target": [], "time": []}}, "mouseover": {"state": {"target": [], "time": []}, "edge": {"target": [], "time": []}}, "mouseout": {"state": {"target": ["0"], "time": [1014]}, "edge": {"target": [], "time": []}}}, "displayed_time": "15.46", "trialTime": 18498, "trial_type": "mouselab-mdp", "trial_index": 39, "time_elapsed": 985957, "internal_node_id": "0.0-4.0-1.0-30.0"}}, {"uniqueid": "w51864687:a29564287", "current_trial": 40, "dateTime": 1691144708708, "trialdata": {"revealed_states": [], "clicked_states": [], "num_clicks_accrued": [0, 0, 0, 0, 0, 0, 0, 0, 0, 0, 0, 0, 0], "stateRewards": ["", -1, -2, 8, -6, -79, -6, 87, 9, -5, -66, -38, 2, 2, 5, -6, -82, 74, 85, -8, 67, -30, -15, 1, -2, -2, -2, 87, 64, 49, 7, 2, -38, -9], "withholdReward": false, "trial_id": "mdp_trial_32", "block": "test", "trialIndex": 33, "score": 59, "costs": 0, "simulationMode": [null, null, null, null, null], "rewards": [1, -2, -2, -2, 64], "path": ["0", "0", "23", "24", "25", "26", "28"], "rt": [793, 199, 157, 90, 78], "actions": ["left", "left", "left", "up", "right"], "actionTimes": [2824, 3512, 4169, 4762, 5338], "queries": {"click": {"state": {"target": [], "time": []}, "edge": {"target": [], "time": []}}, "mouseover": {"state": {"target": [], "time": []}, "edge": {"target": [], "time": []}}, "mouseout": {"state": {"target": ["0"], "time": [1556]}, "edge": {"target": [], "time": []}}}, "displayed_time": "16.03", "trialTime": 17438, "trial_type": "mouselab-mdp", "trial_index": 40, "time_elapsed": 1004072, "internal_node_id": "0.0-4.0-1.0-31.0"}}, {"uniqueid": "w51864687:a29564287", "current_trial": 41, "dateTime": 1691144726394, "trialdata": {"revealed_states": [], "clicked_states": [], "num_clicks_accrued": [0, 0, 0, 0, 0, 0, 0, 0, 0, 0, 0, 0, 0], "stateRewards": ["", 1, 2, 2, -15, -84, 28, -26, 13, 31, 86, 30, -2, 1, -1, -8, 66, -40, -1, -10, -32, 57, -17, 1, 2, -2, 9, -23, 77, 85, 12, -32, -62, -35], "withholdReward": false, "trial_id": "mdp_trial_33", "block": "test", "trialIndex": 34, "score": -44, "costs": 0, "simulationMode": [null, null, null, null, null], "rewards": [-2, 1, -1, -10, -32], "path": ["0", "0", "12", "13", "14", "19", "20"], "rt": [404, 213, 173, 65, 226], "actions": ["right", "right", "right", "down", "right"], "actionTimes": [2241, 2961, 3626, 4196, 4947], "queries": {"click": {"state": {"target": [], "time": []}, "edge": {"target": [], "time": []}}, "mouseover": {"state": {"target": [], "time": []}, "edge": {"target": [], "time": []}}, "mouseout": {"state": {"target": [], "time": []}, "edge": {"target": [], "time": []}}}, "displayed_time": "15.84", "trialTime": 16872, "trial_type": "mouselab-mdp", "trial_index": 41, "time_elapsed": 1021757, "internal_node_id": "0.0-4.0-1.0-32.0"}}, {"uniqueid": "w51864687:a29564287", "current_trial": 42, "dateTime": 1691144744027, "trialdata": {"revealed_states": [], "clicked_states": [], "num_clicks_accrued": [0, 0, 0, 0, 0, 0, 0, 0, 0, 0, 0, 0, 0], "stateRewards": ["", 1, 1, 6, -14, -40, 37, 16, -13, 33, -68, 49, 2, 4, 3, 6, 55, 27, 32, 10, -65, 20, -87, 2, 1, -6, -5, -42, 12, 29, -8, 16, 76, -33], "withholdReward": false, "trial_id": "mdp_trial_34", "block": "test", "trialIndex": 35, "score": 21, "costs": 0, "simulationMode": [null, null, null, null, null], "rewards": [2, 1, -6, -5, 29], "path": ["0", "0", "23", "24", "25", "26", "29"], "rt": [553, 143, 183, 294, 520], "actions": ["left", "left", "left", "up", "left"], "actionTimes": [2128, 2777, 3465, 4289, 5319], "queries": {"click": {"state": {"target": [], "time": []}, "edge": {"target": [], "time": []}}, "mouseover": {"state": {"target": [], "time": []}, "edge": {"target": [], "time": []}}, "mouseout": {"state": {"target": ["0"], "time": [1122]}, "edge": {"target": [], "time": []}}}, "displayed_time": "15.58", "trialTime": 16895, "trial_type": "mouselab-mdp", "trial_index": 42, "time_elapsed": 1039391, "internal_node_id": "0.0-4.0-1.0-33.0"}}, {"uniqueid": "w51864687:a29564287", "current_trial": 43, "dateTime": 1691144761722, "trialdata": {"revealed_states": [], "clicked_states": [], "num_clicks_accrued": [0, 0, 0, 0, 0, 0, 0, 0, 0, 0, 0, 0, 0], "stateRewards": ["", 1, 1, -3, 7, 49, 78, 26, -5, 26, 48, -43, -1, -3, 2, -5, 4, -1, -60, 10, -35, 51, 81, -2, 1, -7, -5, -39, -86, -54, 4, -3, 74, 77], "withholdReward": false, "trial_id": "mdp_trial_35", "block": "test", "trialIndex": 36, "score": -49, "costs": 0, "simulationMode": [null, null, null, null, null], "rewards": [1, 1, -3, -5, -43], "path": ["0", "0", "1", "2", "3", "8", "11"], "rt": [1062, 182, 235, 487, 110], "actions": ["up", "up", "up", "left", "left"], "actionTimes": [2938, 3643, 4371, 5353, 5970], "queries": {"click": {"state": {"target": [], "time": []}, "edge": {"target": [], "time": []}}, "mouseover": {"state": {"target": [], "time": []}, "edge": {"target": [], "time": []}}, "mouseout": {"state": {"target": ["0"], "time": [1401]}, "edge": {"target": [], "time": []}}}, "displayed_time": "15.88", "trialTime": 16966, "trial_type": "mouselab-mdp", "trial_index": 43, "time_elapsed": 1057086, "internal_node_id": "0.0-4.0-1.0-34.0"}}, {"uniqueid": "w51864687:a29564287", "current_trial": 44, "dateTime": 1691144791330, "trialdata": {"revealed_states": [], "clicked_states": [], "num_clicks_accrued": [0, 0, 0, 0, 0, 0, 0, 0, 0, 0, 0, 0, 0], "stateRewards": ["", -1, -1, 7, -15, -43, -21, -84, -9, -45, -66, 2, 1, -2, 2, 8, -27, 44, -52, -5, -84, 11, 53, 1, 4, -4, 16, 83, -82, -15, -16, 68, -43, 81], "withholdReward": false, "trial_id": "mdp_trial_36", "block": "test", "trialIndex": 37, "score": -88, "costs": 0, "simulationMode": [null, null, null, null, null], "rewards": [1, -2, 2, -5, -84], "path": ["0", "0", "12", "13", "14", "19", "20"], "rt": [485, 102, 70, 71, 93], "actions": ["right", "right", "right", "down", "right"], "actionTimes": [2130, 2731, 3300, 3902, 4527], "queries": {"click": {"state": {"target": [], "time": []}, "edge": {"target": [], "time": []}}, "mouseover": {"state": {"target": [], "time": []}, "edge": {"target": [], "time": []}}, "mouseout": {"state": {"target": ["0"], "time": [685]}, "edge": {"target": [], "time": []}}}, "displayed_time": "15.65", "trialTime": 28856, "trial_type": "mouselab-mdp", "trial_index": 44, "time_elapsed": 1086693, "internal_node_id": "0.0-4.0-1.0-35.0"}}, {"uniqueid": "w51864687:a29564287", "current_trial": 45, "dateTime": 1691144808660, "trialdata": {"revealed_states": [], "clicked_states": [], "num_clicks_accrued": [0, 0, 0, 0, 0, 0, 0, 0, 0, 0, 0, 0, 0], "stateRewards": ["", 1, -2, -8, -3, 31, -84, -55, -14, 15, -58, 17, -2, -3, 7, 7, -12, 48, 67, 4, -44, -68, 46, 2, 3, -5, -7, 76, 27, 5, 11, 57, 52, 59], "withholdReward": false, "trial_id": "mdp_trial_37", "block": "test", "trialIndex": 38, "score": 20, "costs": 0, "simulationMode": [null, null, null, null, null], "rewards": [2, 3, -5, -7, 27], "path": ["0", "0", "23", "24", "25", "26", "28"], "rt": [622, 124, 196, 152, 70], "actions": ["left", "left", "left", "up", "right"], "actionTimes": [1981, 2606, 3302, 3959, 4527], "queries": {"click": {"state": {"target": [], "time": []}, "edge": {"target": [], "time": []}}, "mouseover": {"state": {"target": [], "time": []}, "edge": {"target": [], "time": []}}, "mouseout": {"state": {"target": ["0"], "time": [873]}, "edge": {"target": [], "time": []}}}, "displayed_time": "15.36", "trialTime": 16517, "trial_type": "mouselab-mdp", "trial_index": 45, "time_elapsed": 1104023, "internal_node_id": "0.0-4.0-1.0-36.0"}}, {"uniqueid": "w51864687:a29564287", "current_trial": 46, "dateTime": 1691144826031, "trialdata": {"revealed_states": [], "clicked_states": [], "num_clicks_accrued": [0, 0, 0, 0, 0, 0, 0, 0, 0, 0, 0, 0, 0], "stateRewards": ["", -2, 2, -5, -6, 10, -66, -58, -10, -11, -63, -70, -1, -4, -5, 7, 66, -64, -43, -3, 45, -37, 4, -2, -2, -6, -4, -30, 33, 43, 15, -32, -65, -59], "withholdReward": false, "trial_id": "mdp_trial_38", "block": "test", "trialIndex": 39, "score": -1, "costs": 0, "simulationMode": [null, null, null, null, null], "rewards": [-2, 2, -5, -6, 10], "path": ["0", "0", "1", "2", "3", "4", "5"], "rt": [995, 242, 221, 135, 156], "actions": ["up", "up", "up", "right", "up"], "actionTimes": [2429, 3181, 3909, 4548, 5199], "queries": {"click": {"state": {"target": [], "time": []}, "edge": {"target": [], "time": []}}, "mouseover": {"state": {"target": [], "time": []}, "edge": {"target": [], "time": []}}, "mouseout": {"state": {"target": ["0"], "time": [849]}, "edge": {"target": [], "time": []}}}, "displayed_time": "15.44", "trialTime": 16584, "trial_type": "mouselab-mdp", "trial_index": 46, "time_elapsed": 1121394, "internal_node_id": "0.0-4.0-1.0-37.0"}}, {"uniqueid": "w51864687:a29564287", "current_trial": 47, "dateTime": 1691144848855, "trialdata": {"revealed_states": [], "clicked_states": [], "num_clicks_accrued": [0, 0, 0, 0, 0, 0, 0, 0, 0, 0, 0, 0, 0], "stateRewards": ["", -1, -3, -7, -7, -76, 30, -49, 11, -70, 56, 2, 1, 4, -3, -14, -59, -83, -25, -9, -21, -67, -73, -2, 4, 4, -9, -11, -32, 60, 9, -87, 22, -64], "withholdReward": false, "trial_id": "mdp_trial_39", "block": "test", "trialIndex": 40, "score": -28, "costs": 0, "simulationMode": [null, null, null, null, null], "rewards": [1, 4, -3, -9, -21], "path": ["0", "0", "12", "13", "14", "19", "20"], "rt": [414, 114, 154, 137, 218], "actions": ["right", "right", "right", "down", "right"], "actionTimes": [2044, 2653, 3294, 3927, 4640], "queries": {"click": {"state": {"target": [], "time": []}, "edge": {"target": [], "time": []}}, "mouseover": {"state": {"target": [], "time": []}, "edge": {"target": [], "time": []}}, "mouseout": {"state": {"target": ["0"], "time": [1137]}, "edge": {"target": [], "time": []}}}, "displayed_time": "15.63", "trialTime": 22075, "trial_type": "mouselab-mdp", "trial_index": 47, "time_elapsed": 1144218, "internal_node_id": "0.0-4.0-1.0-38.0"}}, {"uniqueid": "w51864687:a29564287", "current_trial": 48, "dateTime": 1691144866391, "trialdata": {"revealed_states": [], "clicked_states": [], "num_clicks_accrued": [0, 0, 0, 0, 0, 0, 0, 0, 0, 0, 0, 0, 0], "stateRewards": ["", -1, 2, -6, 6, -82, -19, -39, -16, -83, 11, -33, -2, -2, 4, -6, -82, -1, -19, -6, -10, -67, -41, -2, 1, -7, 16, -23, -78, -52, 14, 31, -71, 74], "withholdReward": false, "trial_id": "mdp_trial_40", "block": "test", "trialIndex": 41, "score": -70, "costs": 0, "simulationMode": [null, null, null, null, null], "rewards": [-2, 1, -7, 16, -78], "path": ["0", "0", "23", "24", "25", "26", "28"], "rt": [707, 186, 290, 345, 104], "actions": ["left", "left", "left", "up", "right"], "actionTimes": [1952, 2649, 3425, 4256, 4864], "queries": {"click": {"state": {"target": [], "time": []}, "edge": {"target": [], "time": []}}, "mouseover": {"state": {"target": [], "time": []}, "edge": {"target": [], "time": []}}, "mouseout": {"state": {"target": ["0"], "time": [681]}, "edge": {"target": [], "time": []}}}, "displayed_time": "15.25", "trialTime": 16740, "trial_type": "mouselab-mdp", "trial_index": 48, "time_elapsed": 1161754, "internal_node_id": "0.0-4.0-1.0-39.0"}}, {"uniqueid": "w51864687:a29564287", "current_trial": 49, "dateTime": 1691144935046, "trialdata": {"rt": 68631, "response": {"Q0": "$-88 to $88", "Q1": "$-16 to $16", "Q2": "$-32 to $32", "Q3": "There was no cost for clicking on nodes.", "Q4": "Neither motivated nor unmotivated"}, "question_order": [0, 1, 2, 3, 4], "trial_id": "final_quiz_control", "trial_type": "survey-multi-choice", "trial_index": 49, "time_elapsed": 1230410, "internal_node_id": "0.0-4.0-2.0"}}, {"uniqueid": "w51864687:a29564287", "current_trial": 50, "dateTime": 1691145059745, "trialdata": {"rt": 124659, "response": {"Q0": "I realised that right side was working for me instead of going all the way up.", "Q1": "Yes, I did when I realised that the bottom right side and upper left was a better option for me ", "Q2": "It was difficult at the beginning when I started due to the fact that I didn't realised that I had to work in a strategic way."}, "trial_id": "self_report_control", "trial_type": "survey-text", "trial_index": 50, "time_elapsed": 1355109, "internal_node_id": "0.0-4.0-3.0"}}, {"uniqueid": "w51864687:a29564287", "current_trial": 51, "dateTime": 1691145125985, "trialdata": {"rt": 66234, "response": {"Q0": "Agree", "Q1": "Disagree", "Q2": "Agree", "Q3": "Neither disagree nor agree", "Q4": "Strongly agree", "Q5": "Agree", "Q6": "Neither disagree nor agree"}, "question_order": [0, 1, 2, 3, 4, 5, 6], "trial_id": "self_report_2", "trial_type": "survey-multi-choice", "trial_index": 51, "time_elapsed": 1421349, "internal_node_id": "0.0-4.0-4.0"}}, {"uniqueid": "w51864687:a29564287", "current_trial": 52, "dateTime": 1691145147159, "trialdata": {"rt": 21163, "response": {"gender": "female", "age": "20", "colorblind": "1", "effort": "0"}, "trial_type": "survey-html-form", "trial_index": 52, "time_elapsed": 1442523, "internal_node_id": "0.0-4.0-5.0"}}, {"uniqueid": "w51864687:a29564287", "current_trial": 53, "dateTime": 1691145220710, "trialdata": {"rt": 73539, "response": {"Q0": "The instructions were confusing at first including the practise question but I got the hang of it when I begin doing it on my own. ", "Q1": "I do not remember at all", "Q2": ""}, "trial_type": "survey-text", "trial_index": 53, "time_elapsed": 1516074, "internal_node_id": "0.0-4.0-6.0"}}, {"uniqueid": "w51864687:a29564287", "current_trial": 54, "dateTime": 1691145223869, "trialdata": {"rt": 3149, "stimulus": "Press 'Finish HIT' in order to reach the completion code. Once the data has been saved, you will receive the code either in this window or in the original browser window where you started the experiment.\n", "response": 0, "trial_type": "html-button-response", "trial_index": 54, "time_elapsed": 1519233, "internal_node_id": "0.0-5.0"}}, {"uniqueid": "w51864687:a29564287", "current_trial": 55, "dateTime": 1691145224878, "trialdata": {"success": true, "trial_type": "fullscreen", "trial_index": 55, "time_elapsed": 1520241, "internal_node_id": "0.0-6.0"}}], "questiondata": {"params": {"CODE": "C6DMOQA6", "MIN_TIME": 14, "inspectCost": 1, "startTime": "Fri Aug 04 2023 12:08:22 GMT+0200 (South Africa Standard Time)", "bonusRate": 0.002, "variance": "1_2_4_8_44", "branching": "31123"}, "final_score": -374}, "eventdata": [{"eventtype": "initialized", "value": null, "timestamp": 1691143702132, "interval": 0}, {"eventtype": "window_resize", "value": [1024, 660], "timestamp": 1691143702132, "interval": 0}, {"eventtype": "window_resize", "value": [1024, 660], "timestamp": 1691143702645, "interval": 513}, {"eventtype": "window_resize", "value": [1366, 676], "timestamp": 1691143704896, "interval": 2251}, {"eventtype": "window_resize", "value": [1366, 768], "timestamp": 1691143708218, "interval": 3322}, {"eventtype": "focus", "value": "off", "timestamp": 1691144556740, "interval": 848522}, {"eventtype": "window_resize", "value": [1366, 767], "timestamp": 1691144556961, "interval": 221}, {"eventtype": "focus", "value": "on", "timestamp": 1691144569002, "interval": 12041}, {"eventtype": "window_resize", "value": [1366, 768], "timestamp": 1691144569322, "interval": 320}, {"eventtype": "window_resize", "value": [1366, 676], "timestamp": 1691145224148, "interval": 654826}], "useragent": "Mozilla/5.0 (Windows NT 10.0; Win64; x64) AppleWebKit/537.36 (KHTML, like Gecko) Chrome/115.0.0.0 Safari/537.36", "mode": "live", "id": "w51864687:a29564287", "status": "user data saved", "Beginhit": "2023-08-04 10:08:18.837086", "Beginexp": "2023-08-04 10:08:29.137904", "Endhit": "2023-08-04 10:33:47.311203", "psiturkStatus": 3, "browser": "<redacted>", "platform": "windows", "language": "en-ZA"}