{"condition": 1, "counterbalance": 0, "assignmentId": "a89453224", "workerId": "w93382793", "hitId": "h56025798", "currenttrial": 74, "bonus": 0, "data": [{"uniqueid": "w93382793:a89453224", "current_trial": 0, "dateTime": 1691142267388, "trialdata": {"success": true, "trial_type": "fullscreen", "trial_index": 0, "time_elapsed": 34281, "internal_node_id": "0.0-0.0"}}, {"uniqueid": "w93382793:a89453224", "current_trial": 1, "dateTime": 1691142311438, "trialdata": {"view_history": [{"page_index": 0, "viewing_time": 44040}], "rt": 44041, "trial_id": "exp_instructions_misaligned", "trial_type": "instructions", "trial_index": 1, "time_elapsed": 78332, "internal_node_id": "0.0-1.0"}}, {"uniqueid": "w93382793:a89453224", "current_trial": 2, "dateTime": 1691142318278, "trialdata": {"success": true, "trial_type": "fullscreen", "trial_index": 2, "time_elapsed": 85172, "internal_node_id": "0.0-2.0-0.0"}}, {"uniqueid": "w93382793:a89453224", "current_trial": 3, "dateTime": 1691142803368, "trialdata": {"view_history": [{"page_index": 0, "viewing_time": 153115}, {"page_index": 1, "viewing_time": 178911}, {"page_index": 2, "viewing_time": 53371}, {"page_index": 3, "viewing_time": 99687}], "rt": 485085, "trial_id": "mouselab_instructions_1_misaligned", "trial_type": "instructions", "trial_index": 3, "time_elapsed": 570262, "internal_node_id": "0.0-2.0-1.0"}}, {"uniqueid": "w93382793:a89453224", "current_trial": 4, "dateTime": 1691142901797, "trialdata": {"revealed_states": [], "clicked_states": ["12", "13", "14", "15", "26", "27", "11", "8", "3", "2", "1"], "num_clicks_accrued": [0, 0, 0, 0, 0, 0, 0, 0, 0, 0, 0, 0, 0], "stateRewards": ["", -10, -10, -10, 10, 10, -10, -10, -10, -10, 10, 10, 10, 10, -10, -10, -10, -10, -10, 10, -10, 10, -10, 10, -10, -10, -10, 10, -10, -10, -10, -10, -10, -10], "withholdReward": false, "trial_id": "practice_1", "block": "test", "trialIndex": 0, "score": -12, "costs": -5.5, "simulationMode": [null, null, null, null, null], "rewards": [10, 10, -10, -10, -10], "path": ["0", "0", "12", "13", "14", "15", "16"], "rt": [62373, 3679, 415, 765, 3585], "actions": ["right", "right", "right", "up", "up"], "actionTimes": [74405, 78575, 79493, 80759, 84862], "queries": {"click": {"state": {"target": ["12", "13", "14", "15", "26", "27", "11", "8", "3", "2", "1"], "time": [17451, 22161, 26111, 28795, 33952, 36381, 43488, 45369, 47216, 48808, 49910]}, "edge": {"target": [], "time": []}}, "mouseover": {"state": {"target": ["12", "13", "14", "15", "18", "0", "23", "24", "24", "26", "27", "10", "11", "8", "3", "2", "1", "16", "17", "14", "19"], "time": [16729, 20162, 24840, 27078, 31367, 31530, 31564, 32092, 32351, 33143, 35895, 41576, 43032, 44277, 46711, 48292, 49444, 62775, 63076, 64797, 65548]}, "edge": {"target": [], "time": []}}, "mouseout": {"state": {"target": ["0", "0", "12", "13", "14", "15", "18", "0", "23", "24", "24", "26", "27", "10", "11", "8", "3", "2", "1", "16", "17", "14", "19"], "time": [8984, 16490, 20066, 24402, 26944, 31133, 31412, 31548, 32049, 32216, 32908, 35744, 41466, 41662, 44226, 46566, 47894, 49376, 62631, 62793, 63176, 64926, 70443]}, "edge": {"target": [], "time": []}}}, "displayed_time": "85.38", "trialTime": 97384, "trial_type": "mouselab-mdp", "trial_index": 4, "time_elapsed": 668690, "internal_node_id": "0.0-2.0-2.0-0.0"}}, {"uniqueid": "w93382793:a89453224", "current_trial": 5, "dateTime": 1691143059815, "trialdata": {"revealed_states": [], "clicked_states": ["23", "24", "31", "30", "32", "33", "28", "26", "29", "25", "1", "2", "10", "8", "11", "9", "3", "4", "5", "6", "7", "12", "13", "14", "15", "19", "22", "20"], "num_clicks_accrued": [0, 0, 0, 0, 0, 0, 0, 0, 0, 0, 0, 0, 0], "stateRewards": ["", -10, -10, -10, 10, -10, 10, 10, -10, -10, 10, -10, -10, -10, 10, 10, 10, 10, -10, -10, -10, -10, -10, 10, 10, -10, -10, 10, -10, -10, 10, 10, -10, -10], "withholdReward": false, "trial_id": "practice_2", "block": "test", "trialIndex": 1, "score": -60.5, "costs": -14, "simulationMode": [null, null, null, null, null], "rewards": [-10, -10, -10, -10, -10], "path": ["0", "0", "1", "2", "3", "8", "11"], "rt": [102111, 64, 33000, 577, 91], "actions": ["up", "up", "up", "left", "left"], "actionTimes": [116144, 116707, 150241, 151318, 151932], "queries": {"click": {"state": {"target": ["23", "24", "31", "30", "32", "33", "28", "26", "29", "25", "1", "2", "10", "8", "11", "9", "3", "4", "5", "6", "7", "12", "13", "14", "15", "19", "22", "20"], "time": [18600, 20007, 21768, 26178, 27377, 28639, 31612, 33715, 34919, 36828, 40977, 42171, 44293, 46440, 48631, 50634, 55107, 56356, 58622, 60770, 62807, 65468, 68684, 69754, 71613, 75181, 76502, 80365]}, "edge": {"target": [], "time": []}}, "mouseover": {"state": {"target": ["0", "23", "24", "31", "30", "32", "33", "25", "28", "26", "29", "25", "10", "2", "1", "2", "10", "8", "11", "9", "3", "4", "5", "6", "7", "12", "0", "13", "14", "15", "19", "19", "22", "20", "19", "20", "17", "1", "2"], "time": [16200, 18033, 19146, 20995, 24011, 26846, 28113, 29279, 29595, 33212, 34417, 36109, 38976, 39093, 39593, 41580, 43242, 44762, 46998, 49494, 54532, 55877, 56927, 60041, 62347, 64860, 65910, 68114, 69310, 71110, 72779, 74731, 76093, 77193, 79307, 79615, 111229, 113643, 113739]}, "edge": {"target": [], "time": []}}, "mouseout": {"state": {"target": ["14", "13", "0", "0", "23", "24", "31", "30", "32", "33", "25", "28", "26", "29", "26", "25", "10", "2", "1", "2", "10", "8", "11", "9", "3", "4", "5", "6", "7", "12", "0", "12", "13", "14", "15", "15", "14", "19", "19", "22", "20", "19", "20", "17", "1", "2", "10", "1", "16"], "time": [12697, 12716, 13365, 16295, 19013, 20864, 23618, 26813, 28012, 28771, 29362, 33021, 34363, 35479, 36009, 37629, 39011, 39192, 41495, 42301, 44695, 46944, 49228, 54248, 55744, 56860, 59743, 61411, 64264, 65827, 67100, 67405, 69227, 71071, 71731, 72228, 72293, 72975, 75298, 77093, 77276, 79375, 110781, 111255, 113672, 127279, 133828, 134122, 134944]}, "edge": {"target": [], "time": []}}}, "displayed_time": "152.47", "trialTime": 157624, "trial_type": "mouselab-mdp", "trial_index": 5, "time_elapsed": 826707, "internal_node_id": "0.0-2.0-2.0-1.0"}}, {"uniqueid": "w93382793:a89453224", "current_trial": 6, "dateTime": 1691143200343, "trialdata": {"view_history": [{"page_index": 0, "viewing_time": 114289}, {"page_index": 1, "viewing_time": 26230}], "rt": 140520, "trial_id": "mouselab_instructions_2_misaligned", "trial_type": "instructions", "trial_index": 6, "time_elapsed": 967237, "internal_node_id": "0.0-2.0-3.0"}}, {"uniqueid": "w93382793:a89453224", "current_trial": 7, "dateTime": 1691143340178, "trialdata": {"rt": 139771, "response": {"Q0": "There is no cost for clicking on nodes.", "Q1": "The better I perform the higher my bonus will be.", "Q2": "No, the structure of the web will be different each time.", "Q3": "To get the highest total score.", "Q4": "Only before moving the spider.", "Q5": "3 seconds"}, "question_order": [0, 1, 2, 3, 4, 5], "correct": {"Q0": "The cost for clicking on nodes may vary between nodes.", "Q1": "The better I perform the higher my bonus will be.", "Q2": "No, the amount of cash at each node of the web may be different each time.", "Q3": "To get the highest total score.", "Q4": "Only before moving the spider.", "Q5": "3 seconds"}, "trial_id": "mouselab_quiz_misaligned", "trial_type": "survey-multi-choice", "trial_index": 7, "time_elapsed": 1107072, "internal_node_id": "0.0-2.0-4.0"}}, {"uniqueid": "w93382793:a89453224", "current_trial": 8, "dateTime": 1691143360079, "trialdata": {"success": true, "trial_type": "fullscreen", "trial_index": 8, "time_elapsed": 1126973, "internal_node_id": "0.0-2.1-0.1"}}, {"uniqueid": "w93382793:a89453224", "current_trial": 9, "dateTime": 1691143759431, "trialdata": {"view_history": [{"page_index": 0, "viewing_time": 55250}, {"page_index": 1, "viewing_time": 162962}, {"page_index": 2, "viewing_time": 52363}, {"page_index": 3, "viewing_time": 128774}], "rt": 399349, "trial_id": "mouselab_instructions_1_misaligned", "trial_type": "instructions", "trial_index": 9, "time_elapsed": 1526325, "internal_node_id": "0.0-2.1-1.1"}}, {"uniqueid": "w93382793:a89453224", "current_trial": 10, "dateTime": 1691143842706, "trialdata": {"revealed_states": [], "clicked_states": ["1", "2", "8", "9", "11", "10", "24", "23", "31", "30", "32", "33", "12", "13", "14", "26"], "num_clicks_accrued": [0, 0, 0, 0, 0, 0, 0, 0, 0, 0, 0, 0, 0], "stateRewards": ["", -10, -10, -10, 10, 10, -10, -10, -10, -10, 10, 10, 10, 10, -10, -10, -10, -10, -10, 10, -10, 10, -10, 10, -10, -10, -10, 10, -10, -10, -10, -10, -10, -10], "withholdReward": false, "trial_id": "practice_1", "block": "test", "trialIndex": 2, "score": -34.5, "costs": -8, "simulationMode": [null, null, null, null, null], "rewards": [10, -10, -10, -10, -10], "path": ["0", "0", "23", "24", "25", "30", "32"], "rt": [53743, 70, 16902, 402, 457], "actions": ["left", "left", "left", "down", "down"], "actionTimes": [59219, 59783, 77196, 78097, 79052], "queries": {"click": {"state": {"target": ["1", "2", "8", "9", "11", "10", "24", "23", "31", "30", "32", "33", "12", "13", "14", "26"], "time": [8093, 9907, 11754, 13759, 15293, 16633, 17951, 21155, 22581, 24623, 26220, 27972, 29916, 31901, 33210, 43078]}, "edge": {"target": [], "time": []}}, "mouseover": {"state": {"target": ["1", "2", "2", "10", "8", "9", "9", "11", "10", "24", "23", "23", "23", "31", "31", "30", "32", "33", "12", "13", "13", "14", "12", "0", "23", "26", "26", "24"], "time": [7667, 8862, 9381, 10313, 11126, 12380, 13249, 14810, 16129, 17196, 18412, 19797, 20332, 21713, 22211, 23179, 25379, 27495, 29495, 30729, 31433, 32844, 41660, 41682, 41700, 42244, 42667, 45409]}, "edge": {"target": [], "time": []}}, "mouseout": {"state": {"target": ["0", "1", "1", "2", "2", "10", "8", "9", "9", "11", "10", "10", "24", "23", "23", "23", "31", "31", "30", "32", "33", "12", "13", "13", "14", "12", "0", "23", "26", "26", "24"], "time": [4216, 4588, 8780, 8912, 10279, 11077, 11871, 12429, 14178, 15695, 16751, 17079, 18380, 19327, 19827, 21646, 21796, 23129, 25331, 27418, 28083, 30645, 30811, 32695, 41615, 41678, 41695, 41726, 42262, 45376, 45442]}, "edge": {"target": [], "time": []}}}, "displayed_time": "79.56", "trialTime": 82789, "trial_type": "mouselab-mdp", "trial_index": 10, "time_elapsed": 1609599, "internal_node_id": "0.0-2.1-2.1-0.1"}}, {"uniqueid": "w93382793:a89453224", "current_trial": 11, "dateTime": 1691143873948, "trialdata": {"revealed_states": [], "clicked_states": [], "num_clicks_accrued": [0, 0, 0, 0, 0, 0, 0, 0, 0, 0, 0, 0, 0], "stateRewards": ["", -10, -10, -10, 10, -10, 10, 10, -10, -10, 10, -10, -10, -10, 10, 10, 10, 10, -10, -10, -10, -10, -10, 10, 10, -10, -10, 10, -10, -10, 10, 10, -10, -10], "withholdReward": false, "trial_id": "practice_2", "block": "test", "trialIndex": 3, "score": -26.5, "costs": 0, "simulationMode": [null, null, null, null, null], "rewards": [-10, -10, -10, -10, 10], "path": ["0", "0", "1", "2", "3", "8", "10"], "rt": [5961, 281, 2171, 59, 13371], "actions": ["up", "up", "up", "left", "down"], "actionTimes": [9115, 9907, 12581, 13151, 27044], "queries": {"click": {"state": {"target": [], "time": []}, "edge": {"target": [], "time": []}}, "mouseover": {"state": {"target": ["1"], "time": [6029]}, "edge": {"target": [], "time": []}}, "mouseout": {"state": {"target": ["0", "1", "10", "8", "8", "10", "28", "23"], "time": [3845, 14595, 14906, 14988, 16277, 17261, 19678, 19840]}, "edge": {"target": [], "time": []}}}, "displayed_time": "27.56", "trialTime": 30796, "trial_type": "mouselab-mdp", "trial_index": 11, "time_elapsed": 1640840, "internal_node_id": "0.0-2.1-2.1-1.1"}}, {"uniqueid": "w93382793:a89453224", "current_trial": 12, "dateTime": 1691143931343, "trialdata": {"view_history": [{"page_index": 0, "viewing_time": 49098}, {"page_index": 1, "viewing_time": 8288}], "rt": 57386, "trial_id": "mouselab_instructions_2_misaligned", "trial_type": "instructions", "trial_index": 12, "time_elapsed": 1698237, "internal_node_id": "0.0-2.1-3.1"}}, {"uniqueid": "w93382793:a89453224", "current_trial": 13, "dateTime": 1691144102759, "trialdata": {"rt": 171410, "response": {"Q0": "The cost for clicking on nodes may vary between nodes.", "Q1": "The better I perform the higher my bonus will be.", "Q2": "No, the structure of the web will be different each time.", "Q3": "To get the highest total score.", "Q4": "Any time during the round.", "Q5": "3 seconds"}, "question_order": [0, 1, 2, 3, 4, 5], "correct": {"Q0": "The cost for clicking on nodes may vary between nodes.", "Q1": "The better I perform the higher my bonus will be.", "Q2": "No, the amount of cash at each node of the web may be different each time.", "Q3": "To get the highest total score.", "Q4": "Only before moving the spider.", "Q5": "3 seconds"}, "trial_id": "mouselab_quiz_misaligned", "trial_type": "survey-multi-choice", "trial_index": 13, "time_elapsed": 1869652, "internal_node_id": "0.0-2.1-4.1"}}, {"uniqueid": "w93382793:a89453224", "current_trial": 14, "dateTime": 1691144121139, "trialdata": {"success": true, "trial_type": "fullscreen", "trial_index": 14, "time_elapsed": 1888033, "internal_node_id": "0.0-2.2-0.2"}}, {"uniqueid": "w93382793:a89453224", "current_trial": 15, "dateTime": 1691144316111, "trialdata": {"view_history": [{"page_index": 0, "viewing_time": 4976}, {"page_index": 1, "viewing_time": 97093}, {"page_index": 2, "viewing_time": 52295}, {"page_index": 3, "viewing_time": 40606}], "rt": 194970, "trial_id": "mouselab_instructions_1_misaligned", "trial_type": "instructions", "trial_index": 15, "time_elapsed": 2083005, "internal_node_id": "0.0-2.2-1.2"}}, {"uniqueid": "w93382793:a89453224", "current_trial": 16, "dateTime": 1691144378282, "trialdata": {"revealed_states": [], "clicked_states": ["23", "25", "24", "30", "32", "12", "13", "19", "21", "1", "2", "10", "8", "3", "11", "9", "4", "6", "7"], "num_clicks_accrued": [0, 0, 0, 0, 0, 0, 0, 0, 0, 0, 0, 0, 0], "stateRewards": ["", -10, -10, -10, 10, 10, -10, -10, -10, -10, 10, 10, 10, 10, -10, -10, -10, -10, -10, 10, -10, 10, -10, 10, -10, -10, -10, 10, -10, -10, -10, -10, -10, -10], "withholdReward": false, "trial_id": "practice_1", "block": "test", "trialIndex": 4, "score": -36, "costs": -9.5, "simulationMode": [null, null, null, null, null], "rewards": [-10, -10, -10, -10, 10], "path": ["0", "0", "1", "2", "3", "8", "10"], "rt": [52102, 47, 476, 203, 450], "actions": ["up", "up", "up", "left", "down"], "actionTimes": [55935, 56483, 57492, 58188, 59152], "queries": {"click": {"state": {"target": ["23", "25", "24", "30", "32", "12", "13", "19", "21", "1", "2", "10", "8", "3", "11", "9", "4", "6", "7"], "time": [8543, 11054, 12360, 14953, 16576, 18998, 21240, 23074, 24399, 27509, 28847, 31032, 32460, 34467, 41310, 43575, 45269, 47454, 49329]}, "edge": {"target": [], "time": []}}, "mouseover": {"state": {"target": ["18", "16", "16", "24", "23", "24", "25", "24", "30", "32", "13", "12", "13", "13", "14", "19", "21", "1", "2", "2", "10", "8", "10", "8", "8", "3", "11", "9", "3", "4", "5", "6", "7", "4", "5", "5", "4", "18", "12"], "time": [6002, 6052, 7239, 7752, 8119, 9086, 9859, 11869, 13852, 16150, 17733, 18610, 19452, 20825, 21759, 22684, 24005, 26733, 27935, 28436, 29236, 30401, 30634, 31537, 32055, 33734, 40716, 42267, 44401, 44632, 45784, 46967, 48615, 50099, 50166, 50754, 50814, 51765, 52382]}, "edge": {"target": [], "time": []}}, "mouseout": {"state": {"target": ["0", "0", "18", "16", "16", "24", "23", "24", "25", "24", "30", "32", "13", "12", "13", "13", "14", "19", "21", "1", "2", "2", "10", "8", "10", "8", "8", "8", "3", "8", "11", "9", "3", "4", "5", "6", "7", "4", "5", "5", "4", "18", "12"], "time": [2650, 5089, 6021, 6071, 7260, 8086, 9036, 9825, 11801, 13789, 15869, 16690, 17983, 19403, 20456, 21671, 22599, 23954, 25616, 27622, 27984, 29185, 30134, 30533, 31140, 31609, 32573, 33706, 35987, 40090, 42019, 44318, 44551, 45717, 46818, 48034, 49454, 50132, 50184, 50783, 50848, 51831, 52400]}, "edge": {"target": [], "time": []}}}, "displayed_time": "59.67", "trialTime": 61715, "trial_type": "mouselab-mdp", "trial_index": 16, "time_elapsed": 2145174, "internal_node_id": "0.0-2.2-2.2-0.2"}}, {"uniqueid": "w93382793:a89453224", "current_trial": 17, "dateTime": 1691144410863, "trialdata": {"revealed_states": [], "clicked_states": ["1", "2", "3", "8", "11", "9", "10", "5", "4"], "num_clicks_accrued": [0, 0, 0, 0, 0, 0, 0, 0, 0, 0, 0, 0, 0], "stateRewards": ["", -10, -10, -10, 10, -10, 10, 10, -10, -10, 10, -10, -10, -10, 10, 10, 10, 10, -10, -10, -10, -10, -10, 10, 10, -10, -10, 10, -10, -10, 10, 10, -10, -10], "withholdReward": false, "trial_id": "practice_2", "block": "test", "trialIndex": 5, "score": -51, "costs": -4.5, "simulationMode": [null, null, null, null, null], "rewards": [-10, -10, -10, -10, -10], "path": ["0", "0", "1", "2", "3", "8", "9"], "rt": [22801, 181, 2, 21, 233], "actions": ["up", "up", "up", "left", "up"], "actionTimes": [25097, 25776, 26297, 26833, 27576], "queries": {"click": {"state": {"target": ["1", "2", "3", "8", "11", "9", "10", "5", "4"], "time": [6184, 8430, 9922, 12596, 13948, 15556, 17739, 19249, 22303]}, "edge": {"target": [], "time": []}}, "mouseover": {"state": {"target": ["1", "2", "3", "8", "11", "9", "8", "10", "3", "5", "4", "7"], "time": [3898, 8010, 9508, 12085, 13547, 14877, 17007, 17291, 18360, 18612, 21625, 23491]}, "edge": {"target": [], "time": []}}, "mouseout": {"state": {"target": ["0", "1", "2", "3", "8", "11", "9", "9", "8", "10", "3", "5", "4", "7"], "time": [2843, 7449, 9449, 12063, 13494, 14678, 15665, 16691, 17124, 17848, 18393, 21444, 23374, 23508]}, "edge": {"target": [], "time": []}}}, "displayed_time": "28.09", "trialTime": 32108, "trial_type": "mouselab-mdp", "trial_index": 17, "time_elapsed": 2177756, "internal_node_id": "0.0-2.2-2.2-1.2"}}, {"uniqueid": "w93382793:a89453224", "current_trial": 18, "dateTime": 1691144450434, "trialdata": {"view_history": [{"page_index": 0, "viewing_time": 35980}, {"page_index": 1, "viewing_time": 3580}], "rt": 39561, "trial_id": "mouselab_instructions_2_misaligned", "trial_type": "instructions", "trial_index": 18, "time_elapsed": 2217328, "internal_node_id": "0.0-2.2-3.2"}}, {"uniqueid": "w93382793:a89453224", "current_trial": 19, "dateTime": 1691144536551, "trialdata": {"rt": 86112, "response": {"Q0": "The cost for clicking on nodes may vary between nodes.", "Q1": "The better I perform the higher my bonus will be.", "Q2": "No, the amount of cash at each node of the web may be different each time.", "Q3": "To get the highest total score.", "Q4": "Any time during the round.", "Q5": "3 seconds"}, "question_order": [0, 1, 2, 3, 4, 5], "correct": {"Q0": "The cost for clicking on nodes may vary between nodes.", "Q1": "The better I perform the higher my bonus will be.", "Q2": "No, the amount of cash at each node of the web may be different each time.", "Q3": "To get the highest total score.", "Q4": "Only before moving the spider.", "Q5": "3 seconds"}, "trial_id": "mouselab_quiz_misaligned", "trial_type": "survey-multi-choice", "trial_index": 19, "time_elapsed": 2303445, "internal_node_id": "0.0-2.2-4.2"}}, {"uniqueid": "w93382793:a89453224", "current_trial": 20, "dateTime": 1691144543073, "trialdata": {"success": true, "trial_type": "fullscreen", "trial_index": 20, "time_elapsed": 2309967, "internal_node_id": "0.0-2.3-0.3"}}, {"uniqueid": "w93382793:a89453224", "current_trial": 21, "dateTime": 1691144644845, "trialdata": {"view_history": [{"page_index": 0, "viewing_time": 31171}, {"page_index": 1, "viewing_time": 53182}, {"page_index": 2, "viewing_time": 13770}, {"page_index": 3, "viewing_time": 3643}], "rt": 101766, "trial_id": "mouselab_instructions_1_misaligned", "trial_type": "instructions", "trial_index": 21, "time_elapsed": 2411739, "internal_node_id": "0.0-2.3-1.3"}}, {"uniqueid": "w93382793:a89453224", "current_trial": 22, "dateTime": 1691144671562, "trialdata": {"revealed_states": [], "clicked_states": ["23", "24", "25", "26", "27"], "num_clicks_accrued": [0, 0, 0, 0, 0, 0, 0, 0, 0, 0, 0, 0, 0], "stateRewards": ["", -10, -10, -10, 10, 10, -10, -10, -10, -10, 10, 10, 10, 10, -10, -10, -10, -10, -10, 10, -10, 10, -10, 10, -10, -10, -10, 10, -10, -10, -10, -10, -10, -10], "withholdReward": false, "trial_id": "practice_1", "block": "test", "trialIndex": 6, "score": -9, "costs": -2.5, "simulationMode": [null, null, null, null, null], "rewards": [10, -10, -10, -10, 10], "path": ["0", "0", "23", "24", "25", "26", "27"], "rt": [16103, 144, 100, 350, 46], "actions": ["left", "left", "left", "up", "up"], "actionTimes": [17712, 18362, 18967, 19833, 20396], "queries": {"click": {"state": {"target": ["23", "24", "25", "26", "27"], "time": [3394, 4968, 7073, 8569, 11807]}, "edge": {"target": [], "time": []}}, "mouseover": {"state": {"target": ["23", "24", "25", "26", "27", "26", "28"], "time": [2483, 4531, 5904, 8066, 11279, 12784, 13313]}, "edge": {"target": [], "time": []}}, "mouseout": {"state": {"target": ["0", "23", "24", "25", "26", "27", "26", "28", "13", "14"], "time": [912, 4049, 5079, 7932, 11231, 12704, 12864, 14888, 23904, 23939]}, "edge": {"target": [], "time": []}}}, "displayed_time": "20.93", "trialTime": 26174, "trial_type": "mouselab-mdp", "trial_index": 22, "time_elapsed": 2438455, "internal_node_id": "0.0-2.3-2.3-0.3"}}, {"uniqueid": "w93382793:a89453224", "current_trial": 23, "dateTime": 1691144694513, "trialdata": {"revealed_states": [], "clicked_states": ["1", "2", "3", "4", "6"], "num_clicks_accrued": [0, 0, 0, 0, 0, 0, 0, 0, 0, 0, 0, 0, 0], "stateRewards": ["", -10, -10, -10, 10, -10, 10, 10, -10, -10, 10, -10, -10, -10, 10, 10, 10, 10, -10, -10, -10, -10, -10, 10, 10, -10, -10, 10, -10, -10, 10, 10, -10, -10], "withholdReward": false, "trial_id": "practice_2", "block": "test", "trialIndex": 7, "score": -9, "costs": -2.5, "simulationMode": [null, null, null, null, null], "rewards": [-10, -10, -10, 10, 10], "path": ["0", "0", "1", "2", "3", "4", "6"], "rt": [15229, 251, 623, 60, 2], "actions": ["up", "up", "up", "right", "right"], "actionTimes": [17563, 18335, 19474, 20027, 20569], "queries": {"click": {"state": {"target": ["1", "2", "3", "4", "6"], "time": [4983, 6897, 8553, 10507, 12617]}, "edge": {"target": [], "time": []}}, "mouseover": {"state": {"target": ["1", "1", "2", "3", "4", "6", "5", "4"], "time": [3982, 4583, 5433, 7771, 10080, 12063, 13931, 15213]}, "edge": {"target": [], "time": []}}, "mouseout": {"state": {"target": ["12", "0", "1", "1", "2", "3", "4", "6", "5", "4"], "time": [1366, 3268, 4148, 5091, 7433, 10003, 11964, 13779, 15131, 15314]}, "edge": {"target": [], "time": []}}}, "displayed_time": "21.10", "trialTime": 22494, "trial_type": "mouselab-mdp", "trial_index": 23, "time_elapsed": 2461405, "internal_node_id": "0.0-2.3-2.3-1.3"}}, {"uniqueid": "w93382793:a89453224", "current_trial": 24, "dateTime": 1691144746656, "trialdata": {"view_history": [{"page_index": 0, "viewing_time": 49508}, {"page_index": 1, "viewing_time": 2626}], "rt": 52135, "trial_id": "mouselab_instructions_2_misaligned", "trial_type": "instructions", "trial_index": 24, "time_elapsed": 2513550, "internal_node_id": "0.0-2.3-3.3"}}, {"uniqueid": "w93382793:a89453224", "current_trial": 25, "dateTime": 1691144912392, "trialdata": {"rt": 165730, "response": {"Q0": "The cost for clicking on nodes may vary between nodes.", "Q1": "The better I perform the higher my bonus will be.", "Q2": "No, the structure of the web will be different each time.", "Q3": "To get the highest total score.", "Q4": "Only before moving the spider.", "Q5": "3 seconds"}, "question_order": [0, 1, 2, 3, 4, 5], "correct": {"Q0": "The cost for clicking on nodes may vary between nodes.", "Q1": "The better I perform the higher my bonus will be.", "Q2": "No, the amount of cash at each node of the web may be different each time.", "Q3": "To get the highest total score.", "Q4": "Only before moving the spider.", "Q5": "3 seconds"}, "trial_id": "mouselab_quiz_misaligned", "trial_type": "survey-multi-choice", "trial_index": 25, "time_elapsed": 2679286, "internal_node_id": "0.0-2.3-4.3"}}, {"uniqueid": "w93382793:a89453224", "current_trial": 26, "dateTime": 1691144927637, "trialdata": {"rt": 15233, "stimulus": "\n<h1> Get ready to start the game! </h1>\n\nThank you for reading the instructions. Get ready start with the 40 rounds of this game.\n<br><br>\nIf you need to take a break, feel free to take one after the end of a round, before continuing to the next one.\n<br><br>\nRemember, the more money the spider gets, the bigger your bonus will be!\n<br><br>\n<div style='text-align: center;'>Press <code>space</code> to begin.</div>\n\n<br><br>\n(If, at any point, the <code>space</code> key does not take you to the next page, click once on the text and try again.)", "response": " ", "trial_id": "mdp_ready", "trial_type": "html-keyboard-response", "trial_index": 26, "time_elapsed": 2694531, "internal_node_id": "0.0-4.0-0.0"}}, {"uniqueid": "w93382793:a89453224", "current_trial": 27, "dateTime": 1691145015927, "trialdata": {"revealed_states": [], "clicked_states": ["1", "2", "3", "8", "9", "11", "10", "4", "5", "6", "7", "12", "13", "14", "15", "16", "18", "17", "19", "20", "21", "22", "23", "24", "25", "30", "32", "31", "33", "26", "27", "28"], "num_clicks_accrued": [0, 0, 0, 0, 0, 0, 0, 0, 0, 0, 0, 0, 0], "stateRewards": ["", -2, -4, -8, 8, 63, -50, -19, -7, -17, -31, 31, 1, 3, -5, 12, -35, -63, -29, -4, -17, -75, -79, -2, -3, -2, 8, -3, -85, 10, -2, -82, -82, 56], "withholdReward": false, "trial_id": "mdp_trial_1", "block": "test", "trialIndex": 8, "score": 8.000000000000014, "costs": -48.999999999999986, "simulationMode": [null, null, null, null, null], "rewards": [-2, -4, -8, 8, 63], "path": ["0", "0", "1", "2", "3", "4", "5"], "rt": [78750, 310, 26, 62, 128], "actions": ["up", "up", "up", "right", "up"], "actionTimes": [82589, 83396, 83944, 84512, 85163], "queries": {"click": {"state": {"target": ["1", "2", "3", "8", "9", "11", "10", "4", "5", "6", "7", "12", "13", "14", "15", "16", "18", "17", "19", "20", "21", "22", "23", "24", "25", "30", "32", "31", "33", "26", "27", "28"], "time": [5088, 6453, 8049, 9654, 11002, 14683, 17459, 20416, 21617, 25513, 28389, 32006, 33510, 34666, 36196, 37375, 40393, 43195, 47486, 48921, 52091, 55007, 57935, 60650, 62358, 63736, 65613, 68539, 71338, 74395, 76339, 79108]}, "edge": {"target": [], "time": []}}, "mouseover": {"state": {"target": ["1", "2", "3", "8", "9", "11", "10", "4", "5", "6", "7", "12", "13", "14", "15", "16", "18", "15", "17", "17", "14", "19", "20", "21", "22", "22", "23", "23", "24", "25", "30", "32", "31", "30", "33", "25", "26", "27", "28", "26", "29", "26"], "time": [4707, 5888, 7485, 8688, 10488, 12257, 15427, 18675, 21203, 22886, 26369, 30535, 32806, 34236, 35494, 36986, 38069, 40988, 41035, 41468, 45549, 46964, 48185, 49921, 52802, 53369, 56351, 56751, 60242, 61652, 63250, 64865, 67233, 69334, 69401, 72817, 72984, 75531, 77068, 79701, 80021, 81459]}, "edge": {"target": [], "time": []}}, "mouseout": {"state": {"target": ["32", "30", "24", "23", "1", "2", "3", "8", "9", "11", "10", "4", "5", "6", "6", "7", "12", "13", "14", "15", "16", "18", "15", "17", "17", "14", "19", "20", "21", "22", "22", "23", "23", "24", "25", "30", "32", "30", "31", "30", "33", "25", "26", "27", "28", "26", "29", "26", "28"], "time": [1952, 2018, 2086, 2119, 5570, 7287, 8638, 10305, 11673, 15206, 18156, 21137, 22619, 25628, 26169, 29769, 32752, 34170, 35369, 36308, 37969, 40972, 41020, 41083, 44869, 46067, 48134, 49702, 52201, 52956, 55768, 56417, 59050, 61568, 63201, 64752, 66384, 66769, 69317, 69368, 72334, 72866, 75300, 77035, 79650, 79784, 81384, 81503, 81617]}, "edge": {"target": [], "time": []}}}, "displayed_time": "85.67", "trialTime": 87774, "trial_type": "mouselab-mdp", "trial_index": 27, "time_elapsed": 2782820, "internal_node_id": "0.0-4.0-1.0-0.0"}}, {"uniqueid": "w93382793:a89453224", "current_trial": 28, "dateTime": 1691145072333, "trialdata": {"revealed_states": [], "clicked_states": ["1", "2", "3", "8", "11", "9", "10", "5", "4", "7", "6", "23"], "num_clicks_accrued": [0, 0, 0, 0, 0, 0, 0, 0, 0, 0, 0, 0, 0], "stateRewards": ["", -1, 1, -2, 5, 73, 15, 61, 8, 7, 38, 76, 2, 2, -4, -6, -6, -26, 43, -5, -45, -85, -35, -2, 1, -4, 15, -10, 69, 72, -11, 84, -49, -38], "withholdReward": false, "trial_id": "mdp_trial_2", "block": "test", "trialIndex": 9, "score": 59.2, "costs": -16.8, "simulationMode": [null, null, null, null, null], "rewards": [-1, 1, -2, 5, 73], "path": ["0", "0", "1", "2", "3", "4", "5"], "rt": [37929, 131, 17, 659, 472], "actions": ["up", "up", "up", "right", "up"], "actionTimes": [43872, 44504, 45022, 46213, 47226], "queries": {"click": {"state": {"target": ["1", "2", "3", "8", "11", "9", "10", "5", "4", "7", "6", "23"], "time": [7099, 8491, 9470, 11090, 12274, 15191, 18540, 22323, 26925, 29576, 32733, 37501]}, "edge": {"target": [], "time": []}}, "mouseover": {"state": {"target": ["1", "2", "2", "3", "4", "8", "11", "9", "8", "10", "2", "4", "5", "4", "7", "6", "2", "1", "23", "24"], "time": [6669, 7571, 8055, 9072, 10123, 10586, 11789, 13255, 16021, 17722, 19455, 20305, 20471, 23504, 29054, 30491, 36003, 36538, 37120, 38652]}, "edge": {"target": [], "time": []}}, "mouseout": {"state": {"target": ["13", "15", "13", "12", "0", "0", "1", "2", "2", "3", "4", "3", "8", "11", "9", "8", "10", "10", "2", "4", "5", "5", "4", "7", "6", "2", "1", "23", "23", "24", "23"], "time": [1458, 1503, 4369, 4721, 4803, 6592, 7212, 7638, 8956, 10055, 10456, 10521, 11721, 12772, 15854, 16204, 18646, 19356, 19671, 20403, 22466, 23371, 28520, 30318, 35958, 36036, 36669, 37625, 38536, 51575, 51652]}, "edge": {"target": [], "time": []}}}, "displayed_time": "47.74", "trialTime": 55918, "trial_type": "mouselab-mdp", "trial_index": 28, "time_elapsed": 2839225, "internal_node_id": "0.0-4.0-1.0-1.0"}}, {"uniqueid": "w93382793:a89453224", "current_trial": 29, "dateTime": 1691145108271, "trialdata": {"revealed_states": [], "clicked_states": ["23", "24", "25", "30", "32", "31", "33", "26"], "num_clicks_accrued": [0, 0, 0, 0, 0, 0, 0, 0, 0, 0, 0, 0, 0], "stateRewards": ["", 2, -4, 7, 3, 23, -42, 4, 7, -81, -33, 7, -2, -4, 5, -1, 50, -57, -14, -13, -14, 44, 55, -2, -2, 5, -2, 33, 1, 57, -13, -7, 58, 87], "withholdReward": false, "trial_id": "mdp_trial_3", "block": "test", "trialIndex": 10, "score": 64.4, "costs": -10.600000000000001, "simulationMode": [null, null, null, null, null], "rewards": [-2, -2, 5, -13, 87], "path": ["0", "0", "23", "24", "25", "30", "33"], "rt": [19128, 44, 616, 89, 274], "actions": ["left", "left", "left", "down", "left"], "actionTimes": [27089, 27643, 28780, 29371, 30156], "queries": {"click": {"state": {"target": ["23", "24", "25", "30", "32", "31", "33", "26"], "time": [9413, 10536, 12632, 13928, 15430, 18426, 21475, 25544]}, "edge": {"target": [], "time": []}}, "mouseover": {"state": {"target": ["23", "24", "25", "30", "32", "31", "30", "33", "30", "25", "26"], "time": [8912, 10031, 11678, 13447, 14761, 16114, 19647, 20263, 22497, 23797, 24712]}, "edge": {"target": [], "time": []}}, "mouseout": {"state": {"target": ["7", "0", "1", "0", "23", "24", "25", "30", "32", "31", "30", "33", "30", "25", "26", "28", "7"], "time": [3280, 3861, 6983, 8862, 9964, 11397, 13364, 14648, 15946, 19509, 20196, 22398, 23263, 24328, 31884, 31927, 32000]}, "edge": {"target": [], "time": []}}}, "displayed_time": "30.66", "trialTime": 35468, "trial_type": "mouselab-mdp", "trial_index": 29, "time_elapsed": 2875163, "internal_node_id": "0.0-4.0-1.0-2.0"}}, {"uniqueid": "w93382793:a89453224", "current_trial": 30, "dateTime": 1691145143755, "trialdata": {"revealed_states": [], "clicked_states": ["33", "32", "31", "29", "27", "28", "11"], "num_clicks_accrued": [0, 0, 0, 0, 0, 0, 0, 0, 0, 0, 0, 0, 0], "stateRewards": ["", -2, -4, 4, -11, -63, -60, -7, 2, -14, 81, -43, -1, -1, -5, 7, 10, 69, 40, 8, -83, 52, 60, 1, 2, 5, -5, 16, 64, 14, -3, 29, 7, -51], "withholdReward": false, "trial_id": "mdp_trial_4", "block": "test", "trialIndex": 11, "score": 51.95, "costs": -15.05, "simulationMode": [null, null, null, null, null], "rewards": [1, 2, 5, -5, 64], "path": ["0", "0", "23", "24", "25", "26", "28"], "rt": [26816, 120, 313, 155, 709], "actions": ["left", "left", "left", "up", "right"], "actionTimes": [29814, 30438, 31263, 31922, 33125], "queries": {"click": {"state": {"target": ["33", "32", "31", "29", "27", "28", "11"], "time": [4483, 7907, 12219, 16302, 19942, 23443, 26782]}, "edge": {"target": [], "time": []}}, "mouseover": {"state": {"target": ["23", "33", "32", "31", "25", "29", "27", "28", "8", "11"], "time": [3615, 3980, 5983, 11599, 13688, 15880, 17376, 20848, 24447, 25577]}, "edge": {"target": [], "time": []}}, "mouseout": {"state": {"target": ["17", "12", "0", "23", "33", "33", "32", "31", "25", "29", "27", "28", "8", "11", "11"], "time": [1847, 2242, 3587, 3648, 4591, 5265, 11215, 13465, 14132, 17083, 20765, 24247, 24531, 26900, 28515]}, "edge": {"target": [], "time": []}}}, "displayed_time": "33.65", "trialTime": 35006, "trial_type": "mouselab-mdp", "trial_index": 30, "time_elapsed": 2910648, "internal_node_id": "0.0-4.0-1.0-3.0"}}, {"uniqueid": "w93382793:a89453224", "current_trial": 31, "dateTime": 1691145165036, "trialdata": {"revealed_states": [], "clicked_states": [], "num_clicks_accrued": [0, 0, 0, 0, 0, 0, 0, 0, 0, 0, 0, 0, 0], "stateRewards": ["", -1, 1, -6, -1, 80, 23, 2, -11, 73, -81, 59, 1, 3, 5, -1, -26, 28, -3, 16, -59, -13, -50, -2, -2, 2, 15, -50, 86, 17, -4, 37, 35, 44], "withholdReward": false, "trial_id": "mdp_trial_5", "block": "test", "trialIndex": 12, "score": 16, "costs": 0, "simulationMode": [null, null, null, null, null], "rewards": [-1, 1, -6, -1, 23], "path": ["0", "0", "1", "2", "3", "4", "6"], "rt": [6402, 759, 154, 515, 109], "actions": ["up", "up", "up", "right", "right"], "actionTimes": [9382, 10658, 11324, 12345, 12972], "queries": {"click": {"state": {"target": [], "time": []}, "edge": {"target": [], "time": []}}, "mouseover": {"state": {"target": ["1", "10"], "time": [5061, 5210]}, "edge": {"target": [], "time": []}}, "mouseout": {"state": {"target": ["0", "1"], "time": [1710, 5080]}, "edge": {"target": [], "time": []}}}, "displayed_time": "16.98", "trialTime": 20835, "trial_type": "mouselab-mdp", "trial_index": 31, "time_elapsed": 2931929, "internal_node_id": "0.0-4.0-1.0-4.0"}}, {"uniqueid": "w93382793:a89453224", "current_trial": 32, "dateTime": 1691145185221, "trialdata": {"revealed_states": [], "clicked_states": ["1", "2", "3", "8", "9", "11"], "num_clicks_accrued": [0, 0, 0, 0, 0, 0, 0, 0, 0, 0, 0, 0, 0], "stateRewards": ["", -2, 4, -3, -13, 63, -36, 62, 11, 78, 34, -51, 2, -2, 8, -6, -40, -18, 31, 9, 64, 39, 79, 1, 4, -4, 15, -12, 76, 73, -10, -77, 86, -4], "withholdReward": false, "trial_id": "mdp_trial_6", "block": "test", "trialIndex": 13, "score": 81.1, "costs": -6.9, "simulationMode": [null, null, null, null, null], "rewards": [-2, 4, -3, 11, 78], "path": ["0", "0", "1", "2", "3", "8", "9"], "rt": [11479, 154, 2, 191, 1641], "actions": ["up", "up", "up", "left", "up"], "actionTimes": [13142, 13829, 14328, 15035, 17204], "queries": {"click": {"state": {"target": ["1", "2", "3", "8", "9", "11"], "time": [2781, 3962, 4951, 5971, 7326, 10225]}, "edge": {"target": [], "time": []}}, "mouseover": {"state": {"target": ["1", "2", "3", "8", "9", "11", "10"], "time": [2155, 3491, 4492, 5541, 6525, 8208, 11106]}, "edge": {"target": [], "time": []}}, "mouseout": {"state": {"target": ["10", "0", "0", "1", "2", "3", "8", "9", "11"], "time": [339, 556, 1677, 3414, 4083, 5425, 6424, 7958, 10890]}, "edge": {"target": [], "time": []}}}, "displayed_time": "17.73", "trialTime": 19666, "trial_type": "mouselab-mdp", "trial_index": 32, "time_elapsed": 2952114, "internal_node_id": "0.0-4.0-1.0-5.0"}}, {"uniqueid": "w93382793:a89453224", "current_trial": 33, "dateTime": 1691145253771, "trialdata": {"revealed_states": [], "clicked_states": ["1", "2", "3", "4", "6", "7", "5", "11", "9", "10", "28", "27", "29", "33", "32", "31", "22", "21", "20"], "num_clicks_accrued": [0, 0, 0, 0, 0, 0, 0, 0, 0, 0, 0, 0, 0], "stateRewards": ["", 1, 1, 1, 15, -76, 52, -32, 14, -57, 37, 49, 1, -4, -3, 6, 83, -76, 25, 9, 36, -1, -17, -1, 4, 4, -2, -22, -21, 58, -15, -57, 49, -24], "withholdReward": false, "trial_id": "mdp_trial_7", "block": "test", "trialIndex": 14, "score": 28.150000000000006, "costs": -34.849999999999994, "simulationMode": [null, null, null, null, null, null], "rewards": [-1, 4, 4, -2, 58], "path": ["0", "0", "23", "24", "25", "26", "29"], "rt": [53256, 267, 142, 578, 508, 636], "actions": ["left", "left", "left", "left", "up", "left"], "actionTimes": [59183, 59455, 60109, 61212, 62228, 63368], "queries": {"click": {"state": {"target": ["1", "2", "3", "4", "6", "7", "5", "11", "9", "10", "28", "27", "29", "33", "32", "31", "22", "21", "20"], "time": [7141, 8517, 9453, 10707, 11997, 14967, 17864, 21095, 24488, 27601, 30481, 33310, 36475, 39721, 42879, 46063, 50018, 53298, 56984]}, "edge": {"target": [], "time": []}}, "mouseover": {"state": {"target": ["1", "2", "3", "4", "6", "7", "4", "5", "8", "11", "11", "9", "8", "10", "28", "28", "27", "29", "33", "32", "31", "12", "13", "22", "21", "20"], "time": [6535, 7749, 9002, 10104, 11537, 12866, 15799, 15982, 19353, 20115, 20665, 23148, 25249, 25649, 29665, 30032, 31917, 34167, 38081, 41116, 43781, 49081, 49214, 49496, 51275, 54030]}, "edge": {"target": [], "time": []}}, "mouseout": {"state": {"target": ["10", "2", "1", "1", "2", "3", "4", "6", "7", "4", "5", "8", "11", "11", "9", "8", "10", "28", "28", "27", "29", "29", "33", "32", "31", "12", "13", "22", "21", "20"], "time": [732, 799, 915, 7257, 8967, 9580, 11401, 12598, 15716, 15866, 18734, 19450, 20166, 21832, 25199, 25382, 29466, 29749, 30584, 33996, 36590, 37531, 40482, 42993, 46181, 49112, 49329, 50932, 53403, 57104]}, "edge": {"target": [], "time": []}}}, "displayed_time": "63.88", "trialTime": 67993, "trial_type": "mouselab-mdp", "trial_index": 33, "time_elapsed": 3020664, "internal_node_id": "0.0-4.0-1.0-6.0"}}, {"uniqueid": "w93382793:a89453224", "current_trial": 34, "dateTime": 1691145326792, "trialdata": {"revealed_states": [], "clicked_states": ["23", "24", "25", "26", "27", "28", "29", "33", "32", "31", "22", "21", "20", "17", "16", "18", "7", "6", "5", "9", "11", "10"], "num_clicks_accrued": [0, 0, 0, 0, 0, 0, 0, 0, 0, 0, 0, 0, 0], "stateRewards": ["", -1, 4, -5, 9, 29, -75, -42, -16, 24, -28, -41, 2, -3, 1, 10, 60, 47, 55, -1, -53, 22, -40, 2, -3, -6, 4, -26, 44, 54, 15, -76, 42, 14], "withholdReward": false, "trial_id": "mdp_trial_8", "block": "test", "trialIndex": 15, "score": 28.70000000000001, "costs": -41.29999999999999, "simulationMode": [null, null, null, null, null, null], "rewards": [2, -3, 1, 10, 60], "path": ["0", "0", "12", "13", "14", "15", "16"], "rt": [64706, 229, 7, 2, 334, 113], "actions": ["right", "right", "right", "right", "up", "up"], "actionTimes": [67617, 67852, 68368, 68881, 69729, 70360], "queries": {"click": {"state": {"target": ["23", "24", "25", "26", "27", "28", "29", "33", "32", "31", "22", "21", "20", "17", "16", "18", "7", "6", "5", "9", "11", "10"], "time": [4496, 5261, 6290, 7294, 8322, 11542, 14604, 17725, 20913, 25002, 27801, 30818, 36002, 38899, 41784, 44577, 48867, 51984, 56527, 59335, 62329, 65238]}, "edge": {"target": [], "time": []}}, "mouseover": {"state": {"target": ["23", "24", "25", "26", "27", "28", "26", "29", "33", "30", "32", "31", "31", "22", "21", "20", "20", "17", "16", "18", "7", "6", "4", "5", "5", "9", "11", "8", "10", "3"], "time": [3678, 4936, 5865, 6797, 7881, 9166, 12216, 12283, 16147, 18497, 18630, 22131, 24579, 26247, 29146, 31977, 32345, 37779, 39913, 43012, 45746, 50696, 52878, 53029, 56076, 58045, 60528, 63262, 63411, 66194]}, "edge": {"target": [], "time": []}}, "mouseout": {"state": {"target": ["0", "23", "24", "25", "26", "27", "28", "26", "29", "33", "30", "32", "31", "31", "22", "21", "20", "20", "17", "16", "18", "7", "6", "4", "5", "5", "9", "11", "11", "8", "10"], "time": [3649, 4849, 5780, 6698, 7797, 9049, 12198, 12250, 15431, 18430, 18516, 21513, 23779, 25119, 28980, 31862, 32077, 37328, 39795, 42712, 45346, 49928, 52795, 52897, 55595, 57412, 60044, 62485, 63228, 63278, 65367]}, "edge": {"target": [], "time": []}}}, "displayed_time": "70.86", "trialTime": 72548, "trial_type": "mouselab-mdp", "trial_index": 34, "time_elapsed": 3093684, "internal_node_id": "0.0-4.0-1.0-7.0"}}, {"uniqueid": "w93382793:a89453224", "current_trial": 35, "dateTime": 1691145349036, "trialdata": {"revealed_states": [], "clicked_states": ["23", "24", "28", "27", "29", "33"], "num_clicks_accrued": [0, 0, 0, 0, 0, 0, 0, 0, 0, 0, 0, 0, 0], "stateRewards": ["", 1, 3, 3, -10, 52, 68, 59, 12, 7, 49, 21, -2, -3, -4, -2, -2, 63, 63, -4, 44, 43, -76, -2, -3, -6, 13, 48, 36, 12, -5, -36, -33, -11], "withholdReward": false, "trial_id": "mdp_trial_9", "block": "test", "trialIndex": 16, "score": 41.3, "costs": -8.700000000000001, "simulationMode": [null, null, null, null, null, null], "rewards": [-2, -3, -6, 13, 48], "path": ["0", "0", "23", "24", "25", "26", "27"], "rt": [15298, 228, 76, 104, 211, 166], "actions": ["left", "left", "left", "left", "up", "up"], "actionTimes": [17666, 17898, 18508, 19153, 19859, 20549], "queries": {"click": {"state": {"target": ["23", "24", "28", "27", "29", "33"], "time": [3790, 5287, 6434, 9219, 12195, 15533]}, "edge": {"target": [], "time": []}}, "mouseover": {"state": {"target": ["23", "24", "28", "27", "29", "33", "32"], "time": [3248, 4931, 5695, 7263, 10746, 14212, 16564]}, "edge": {"target": [], "time": []}}, "mouseout": {"state": {"target": ["3", "2", "1", "23", "24", "28", "27", "29", "33", "33"], "time": [1531, 1578, 1644, 4231, 5613, 7080, 10163, 13030, 15694, 16280]}, "edge": {"target": [], "time": []}}}, "displayed_time": "21.05", "trialTime": 21727, "trial_type": "mouselab-mdp", "trial_index": 35, "time_elapsed": 3115928, "internal_node_id": "0.0-4.0-1.0-8.0"}}, {"uniqueid": "w93382793:a89453224", "current_trial": 36, "dateTime": 1691145370834, "trialdata": {"revealed_states": [], "clicked_states": ["1", "2", "3", "9", "11", "10"], "num_clicks_accrued": [0, 0, 0, 0, 0, 0, 0, 0, 0, 0, 0, 0, 0], "stateRewards": ["", 2, -3, 5, -14, -63, -9, -24, -11, -54, -43, 68, 2, -2, -4, 7, -64, 30, 47, 12, -74, 11, 86, 1, -3, 3, 10, -71, -42, -52, -1, -29, -16, 69], "withholdReward": false, "trial_id": "mdp_trial_10", "block": "test", "trialIndex": 17, "score": 53.5, "costs": -7.5, "simulationMode": [null, null, null, null, null, null], "rewards": [2, -3, 5, -11, 68], "path": ["0", "0", "1", "2", "3", "8", "11"], "rt": [13767, 178, 4, 12, 202, 66], "actions": ["up", "up", "up", "up", "left", "left"], "actionTimes": [17776, 17959, 18483, 19027, 19745, 20326], "queries": {"click": {"state": {"target": ["1", "2", "3", "9", "11", "10"], "time": [5982, 6854, 8350, 9898, 13094, 16435]}, "edge": {"target": [], "time": []}}, "mouseover": {"state": {"target": ["1", "1", "2", "3", "3", "8", "9", "11", "10"], "time": [4873, 5456, 6509, 7325, 7956, 8794, 9158, 10494, 13942]}, "edge": {"target": [], "time": []}}, "mouseout": {"state": {"target": ["32", "31", "0", "1", "1", "2", "3", "3", "8", "9", "11", "10"], "time": [2872, 2939, 4292, 5139, 6449, 7275, 7376, 8759, 8925, 10325, 13859, 16566]}, "edge": {"target": [], "time": []}}}, "displayed_time": "20.83", "trialTime": 21253, "trial_type": "mouselab-mdp", "trial_index": 36, "time_elapsed": 3137726, "internal_node_id": "0.0-4.0-1.0-9.0"}}, {"uniqueid": "w93382793:a89453224", "current_trial": 37, "dateTime": 1691145404355, "trialdata": {"revealed_states": [], "clicked_states": ["11", "6", "5"], "num_clicks_accrued": [0, 0, 0, 0, 0, 0, 0, 0, 0, 0, 0, 0, 0], "stateRewards": ["", 2, 3, 3, 10, 19, -21, 6, 9, 54, 68, 16, 2, 2, -6, -8, 40, -2, -75, -2, -42, 55, 59, -1, 2, 4, -14, 11, -34, -30, -6, 61, -53, 13], "withholdReward": false, "trial_id": "mdp_trial_11", "block": "test", "trialIndex": 18, "score": 30.55, "costs": -6.449999999999999, "simulationMode": [null, null, null, null, null], "rewards": [2, 3, 3, 10, 19], "path": ["0", "0", "1", "2", "3", "4", "5"], "rt": [14812, 157, 590, 466, 821], "actions": ["up", "up", "up", "right", "up"], "actionTimes": [21599, 22273, 23388, 24346, 25685], "queries": {"click": {"state": {"target": ["11", "6", "5"], "time": [9353, 13748, 16945]}, "edge": {"target": [], "time": []}}, "mouseover": {"state": {"target": ["10", "11", "11", "10", "3", "4", "6", "6", "5", "4", "7"], "time": [7630, 8028, 8930, 10180, 11280, 12029, 12294, 13261, 15512, 18470, 20225]}, "edge": {"target": [], "time": []}}, "mouseout": {"state": {"target": ["10", "1", "10", "11", "11", "11", "10", "3", "4", "6", "6", "5", "5", "4", "7", "1"], "time": [5798, 5944, 7648, 8446, 9468, 10046, 10764, 11396, 12227, 12866, 13862, 17068, 18397, 18617, 29095, 29296]}, "edge": {"target": [], "time": []}}}, "displayed_time": "26.20", "trialTime": 32947, "trial_type": "mouselab-mdp", "trial_index": 37, "time_elapsed": 3171247, "internal_node_id": "0.0-4.0-1.0-10.0"}}, {"uniqueid": "w93382793:a89453224", "current_trial": 38, "dateTime": 1691145443277, "trialdata": {"revealed_states": [], "clicked_states": ["27", "6", "9", "10", "5", "3", "2"], "num_clicks_accrued": [0, 0, 0, 0, 0, 0, 0, 0, 0, 0, 0, 0, 0], "stateRewards": ["", 2, 4, 7, -6, -76, -81, 2, 5, -66, -3, 36, -2, -4, 6, -2, -69, 4, -49, -6, 67, 38, -67, 2, 1, 1, 6, -68, -21, 52, -16, -16, 6, -70], "withholdReward": false, "trial_id": "mdp_trial_12", "block": "test", "trialIndex": 19, "score": -86.05, "costs": -12.049999999999999, "simulationMode": [null, null, null, null, null], "rewards": [2, 4, 7, -6, -81], "path": ["0", "0", "1", "2", "3", "4", "6"], "rt": [26319, 56, 390, 3754, 146], "actions": ["up", "up", "up", "right", "right"], "actionTimes": [30876, 31450, 32375, 36640, 37283], "queries": {"click": {"state": {"target": ["27", "6", "9", "10", "5", "3", "2"], "time": [6408, 10938, 14801, 18437, 21848, 25167, 28082]}, "edge": {"target": [], "time": []}}, "mouseover": {"state": {"target": ["23", "24", "26", "27", "28", "1", "7", "6", "4", "8", "9", "8", "10", "2", "4", "5", "3", "1", "2", "1", "12"], "time": [5135, 5285, 5785, 5850, 7421, 8089, 8204, 8991, 13286, 14034, 14402, 17286, 17936, 19337, 19372, 20987, 22952, 27535, 27649, 28918, 29003]}, "edge": {"target": [], "time": []}}, "mouseout": {"state": {"target": ["23", "0", "23", "24", "26", "27", "28", "1", "7", "6", "4", "8", "9", "9", "8", "10", "2", "4", "5", "3", "1", "2", "2", "1", "12"], "time": [3620, 5004, 5218, 5687, 5802, 7371, 7440, 8153, 8221, 11059, 13305, 14359, 14913, 17253, 17387, 19303, 19355, 19390, 22804, 26817, 27600, 28198, 28902, 28952, 29087]}, "edge": {"target": [], "time": []}}}, "displayed_time": "37.79", "trialTime": 38345, "trial_type": "mouselab-mdp", "trial_index": 38, "time_elapsed": 3210169, "internal_node_id": "0.0-4.0-1.0-11.0"}}, {"uniqueid": "w93382793:a89453224", "current_trial": 39, "dateTime": 1691145464646, "trialdata": {"revealed_states": [], "clicked_states": ["22", "21"], "num_clicks_accrued": [0, 0, 0, 0, 0, 0, 0, 0, 0, 0, 0, 0, 0], "stateRewards": ["", -1, 1, 3, -8, -23, -15, -14, -11, -23, 58, 68, 1, 3, 5, 12, -17, -41, -7, -10, -4, 82, 10, 1, 4, -4, 11, 73, 55, -55, -1, -86, -86, 54], "withholdReward": false, "trial_id": "mdp_trial_13", "block": "test", "trialIndex": 20, "score": 76.7, "costs": -4.3, "simulationMode": [null, null, null, null, null], "rewards": [1, 3, 5, -10, 82], "path": ["0", "0", "12", "13", "14", "19", "21"], "rt": [10757, 53, 384, 181, 162], "actions": ["right", "right", "right", "down", "down"], "actionTimes": [15863, 16437, 17343, 18043, 18722], "queries": {"click": {"state": {"target": ["22", "21"], "time": [7099, 9900]}, "edge": {"target": [], "time": []}}, "mouseover": {"state": {"target": ["0", "12", "22", "19", "22", "21", "21", "20"], "time": [6013, 6047, 6142, 6190, 6591, 7995, 8226, 11608]}, "edge": {"target": [], "time": []}}, "mouseout": {"state": {"target": ["19", "20", "14", "12", "0", "12", "22", "19", "22", "21", "21"], "time": [357, 377, 3973, 4007, 6041, 6076, 6158, 6240, 7694, 8127, 11042]}, "edge": {"target": [], "time": []}}}, "displayed_time": "19.25", "trialTime": 20806, "trial_type": "mouselab-mdp", "trial_index": 39, "time_elapsed": 3231539, "internal_node_id": "0.0-4.0-1.0-12.0"}}, {"uniqueid": "w93382793:a89453224", "current_trial": 40, "dateTime": 1691145485566, "trialdata": {"revealed_states": [], "clicked_states": [], "num_clicks_accrued": [0, 0, 0, 0, 0, 0, 0, 0, 0, 0, 0, 0, 0], "stateRewards": ["", -2, 2, 3, -7, -31, -33, 29, -8, -57, 50, -83, -1, -1, 5, 13, -23, -62, 25, 5, -66, -85, 14, 1, -2, -1, 16, 71, 33, -19, -14, 5, -43, 79], "withholdReward": false, "trial_id": "mdp_trial_14", "block": "test", "trialIndex": 21, "score": -59, "costs": 0, "simulationMode": [null, null, null, null, null], "rewards": [1, -2, -1, -14, -43], "path": ["0", "0", "23", "24", "25", "30", "32"], "rt": [6468, 26, 107, 109, 54], "actions": ["left", "left", "left", "down", "down"], "actionTimes": [10956, 11489, 12117, 12737, 13298], "queries": {"click": {"state": {"target": [], "time": []}, "edge": {"target": [], "time": []}}, "mouseover": {"state": {"target": ["1", "10", "27"], "time": [6841, 6908, 7641]}, "edge": {"target": [], "time": []}}, "mouseout": {"state": {"target": ["20", "19", "23", "1", "10", "27", "29"], "time": [825, 907, 3263, 6862, 6927, 17191, 17344]}, "edge": {"target": [], "time": []}}}, "displayed_time": "18.49", "trialTime": 20328, "trial_type": "mouselab-mdp", "trial_index": 40, "time_elapsed": 3252458, "internal_node_id": "0.0-4.0-1.0-13.0"}}, {"uniqueid": "w93382793:a89453224", "current_trial": 41, "dateTime": 1691145506754, "trialdata": {"revealed_states": [], "clicked_states": ["32"], "num_clicks_accrued": [0, 0, 0, 0, 0, 0, 0, 0, 0, 0, 0, 0, 0], "stateRewards": ["", -1, 1, -1, 2, 19, 85, -18, 2, -3, -26, 36, 2, 4, 7, -9, -18, 70, 72, -5, 35, -20, -28, 1, -2, -4, -3, -59, -11, -63, -2, -72, 59, -69], "withholdReward": false, "trial_id": "mdp_trial_15", "block": "test", "trialIndex": 22, "score": 49.85, "costs": -2.15, "simulationMode": [null, null, null, null, null], "rewards": [1, -2, -4, -2, 59], "path": ["0", "0", "23", "24", "25", "30", "32"], "rt": [5985, 3, 3, 152, 26], "actions": ["left", "left", "left", "down", "down"], "actionTimes": [9004, 9516, 10035, 10715, 11270], "queries": {"click": {"state": {"target": ["32"], "time": [4466]}, "edge": {"target": [], "time": []}}, "mouseover": {"state": {"target": ["0", "23", "31", "30", "32", "33"], "time": [3547, 3585, 3676, 3777, 3961, 5764]}, "edge": {"target": [], "time": []}}, "mouseout": {"state": {"target": ["30", "31", "22", "13", "12", "0", "23", "31", "30", "32", "33"], "time": [761, 782, 893, 1244, 1762, 3566, 3599, 3709, 3826, 4587, 8295]}, "edge": {"target": [], "time": []}}}, "displayed_time": "17.02", "trialTime": 20569, "trial_type": "mouselab-mdp", "trial_index": 41, "time_elapsed": 3273647, "internal_node_id": "0.0-4.0-1.0-14.0"}}, {"uniqueid": "w93382793:a89453224", "current_trial": 42, "dateTime": 1691145528593, "trialdata": {"revealed_states": [], "clicked_states": ["16", "14"], "num_clicks_accrued": [0, 0, 0, 0, 0, 0, 0, 0, 0, 0, 0, 0, 0], "stateRewards": ["", 1, 1, 6, -14, -40, 37, 16, -13, 33, -68, 49, 2, 4, 3, 6, 55, 27, 32, 10, -65, 20, -87, 2, 1, -6, -5, -42, 12, 29, -8, 16, 76, -33], "withholdReward": false, "trial_id": "mdp_trial_16", "block": "test", "trialIndex": 23, "score": 66.9, "costs": -3.0999999999999996, "simulationMode": [null, null, null, null, null], "rewards": [2, 4, 3, 6, 55], "path": ["0", "0", "12", "13", "14", "15", "16"], "rt": [5708, 37, 66, 170, 22], "actions": ["right", "right", "right", "up", "up"], "actionTimes": [9523, 10075, 10636, 11322, 11842], "queries": {"click": {"state": {"target": ["16", "14"], "time": [5332, 8928]}, "edge": {"target": [], "time": []}}, "mouseover": {"state": {"target": ["7", "6", "16", "18", "13", "22", "19", "14"], "time": [4251, 4299, 4800, 6451, 7150, 7172, 7937, 8051]}, "edge": {"target": [], "time": []}}, "mouseout": {"state": {"target": ["32", "31", "23", "7", "6", "16", "18", "13", "22", "19"], "time": [2483, 2549, 2600, 4270, 4683, 6086, 7106, 7168, 7189, 7985]}, "edge": {"target": [], "time": []}}}, "displayed_time": "17.82", "trialTime": 21231, "trial_type": "mouselab-mdp", "trial_index": 42, "time_elapsed": 3295486, "internal_node_id": "0.0-4.0-1.0-15.0"}}, {"uniqueid": "w93382793:a89453224", "current_trial": 43, "dateTime": 1691145547415, "trialdata": {"revealed_states": [], "clicked_states": [], "num_clicks_accrued": [0, 0, 0, 0, 0, 0, 0, 0, 0, 0, 0, 0, 0], "stateRewards": ["", -2, -3, 1, -14, 48, -49, 67, -1, -35, -48, 3, -2, 1, -4, -5, 86, -84, 39, 1, 48, 41, -42, -1, -4, 2, -7, 18, -86, 17, 7, -9, 57, -69], "withholdReward": false, "trial_id": "mdp_trial_17", "block": "test", "trialIndex": 24, "score": -67, "costs": 0, "simulationMode": [null, null, null, null, null], "rewards": [-2, -3, 1, -14, -49], "path": ["0", "0", "1", "2", "3", "4", "6"], "rt": [6139, 333, 141, 38, 59], "actions": ["up", "up", "up", "right", "right"], "actionTimes": [8036, 8879, 9538, 10104, 10673], "queries": {"click": {"state": {"target": [], "time": []}, "edge": {"target": [], "time": []}}, "mouseover": {"state": {"target": ["12", "18", "16", "16", "6"], "time": [3952, 4009, 4108, 4250, 4843]}, "edge": {"target": [], "time": []}}, "mouseout": {"state": {"target": ["14", "0", "12", "18", "16", "16", "6", "19"], "time": [945, 3932, 3968, 4043, 4143, 4275, 16376, 17258]}, "edge": {"target": [], "time": []}}}, "displayed_time": "15.90", "trialTime": 18230, "trial_type": "mouselab-mdp", "trial_index": 43, "time_elapsed": 3314307, "internal_node_id": "0.0-4.0-1.0-16.0"}}, {"uniqueid": "w93382793:a89453224", "current_trial": 44, "dateTime": 1691145595749, "trialdata": {"revealed_states": [], "clicked_states": ["17", "18", "21", "20", "22", "32", "31", "33", "29"], "num_clicks_accrued": [0, 0, 0, 0, 0, 0, 0, 0, 0, 0, 0, 0, 0], "stateRewards": ["", 1, 4, -8, -5, -15, -7, 21, 13, -30, 40, -65, 1, 1, 5, -14, 35, 27, -38, -11, 36, -58, -47, -2, 4, -3, 13, -16, -49, 22, 15, -56, -44, -10], "withholdReward": false, "trial_id": "mdp_trial_18", "block": "test", "trialIndex": 25, "score": 14.650000000000002, "costs": -19.349999999999998, "simulationMode": [null, null, null, null, null], "rewards": [-2, 4, -3, 13, 22], "path": ["0", "0", "23", "24", "25", "26", "29"], "rt": [36508, 132, 85, 347, 2394], "actions": ["left", "left", "left", "up", "left"], "actionTimes": [40648, 41287, 41889, 42751, 45647], "queries": {"click": {"state": {"target": ["17", "18", "21", "20", "22", "32", "31", "33", "29"], "time": [6143, 9509, 12924, 16706, 20745, 25324, 28756, 32662, 36076]}, "edge": {"target": [], "time": []}}, "mouseover": {"state": {"target": ["12", "18", "15", "17", "15", "18", "15", "14", "19", "21", "19", "20", "19", "22", "32", "31", "30", "33", "29", "27"], "time": [4654, 5037, 5343, 5389, 6755, 6839, 10495, 10938, 11105, 12334, 14087, 15303, 18035, 18368, 24789, 27219, 31734, 32190, 34258, 37068]}, "edge": {"target": [], "time": []}}, "mouseout": {"state": {"target": ["12", "13", "14", "14", "13", "12", "0", "12", "18", "15", "17", "15", "18", "15", "14", "19", "21", "19", "20", "19", "22", "32", "31", "30", "33", "29"], "time": [1707, 1730, 1769, 2905, 2953, 3018, 4592, 4674, 5320, 5373, 6262, 6805, 10458, 10528, 10990, 11837, 13043, 14593, 18004, 18203, 24136, 27052, 31683, 31801, 33370, 36183]}, "edge": {"target": [], "time": []}}}, "displayed_time": "46.15", "trialTime": 47725, "trial_type": "mouselab-mdp", "trial_index": 44, "time_elapsed": 3362641, "internal_node_id": "0.0-4.0-1.0-17.0"}}, {"uniqueid": "w93382793:a89453224", "current_trial": 45, "dateTime": 1691145613748, "trialdata": {"revealed_states": [], "clicked_states": ["5"], "num_clicks_accrued": [0, 0, 0, 0, 0, 0, 0, 0, 0, 0, 0, 0, 0], "stateRewards": ["", -2, -1, -2, -15, 87, 57, 29, -10, 77, -80, -7, 1, -3, 6, 14, -11, 87, -59, 4, -71, 16, -11, 2, 2, -7, 2, -47, 61, 50, 14, -20, 17, 81], "withholdReward": false, "trial_id": "mdp_trial_19", "block": "test", "trialIndex": 26, "score": 64.85, "costs": -2.15, "simulationMode": [null, null, null, null, null], "rewards": [-2, -1, -2, -15, 87], "path": ["0", "0", "1", "2", "3", "4", "5"], "rt": [5702, 17, 54, 759, 872], "actions": ["up", "up", "up", "right", "up"], "actionTimes": [8744, 9270, 9854, 11131, 12507], "queries": {"click": {"state": {"target": ["5"], "time": [4547]}, "edge": {"target": [], "time": []}}, "mouseover": {"state": {"target": ["1", "2", "3", "5", "4", "7"], "time": [3567, 3621, 3640, 4183, 5599, 6251]}, "edge": {"target": [], "time": []}}, "mouseout": {"state": {"target": ["27", "12", "1", "2", "3", "5", "4"], "time": [882, 1932, 3600, 3637, 3696, 5418, 5835]}, "edge": {"target": [], "time": []}}}, "displayed_time": "17.05", "trialTime": 17423, "trial_type": "mouselab-mdp", "trial_index": 45, "time_elapsed": 3380640, "internal_node_id": "0.0-4.0-1.0-18.0"}}, {"uniqueid": "w93382793:a89453224", "current_trial": 46, "dateTime": 1691145634608, "trialdata": {"revealed_states": [], "clicked_states": ["11"], "num_clicks_accrued": [0, 0, 0, 0, 0, 0, 0, 0, 0, 0, 0, 0, 0], "stateRewards": ["", 1, 2, -5, 14, 54, -14, -25, 16, -5, -87, 78, -1, 1, 3, -3, 52, 53, 53, -10, 73, -69, -48, 2, 3, 1, 8, -62, -7, 85, 7, 82, 52, -28], "withholdReward": false, "trial_id": "mdp_trial_20", "block": "test", "trialIndex": 27, "score": 89.85, "costs": -2.15, "simulationMode": [null, null, null, null, null], "rewards": [1, 2, -5, 16, 78], "path": ["0", "0", "1", "2", "3", "8", "11"], "rt": [6249, 60, 325, 43, 3], "actions": ["up", "up", "up", "left", "left"], "actionTimes": [9021, 9606, 10471, 11039, 11564], "queries": {"click": {"state": {"target": ["11"], "time": [4602]}, "edge": {"target": [], "time": []}}, "mouseover": {"state": {"target": ["1", "10", "11", "11", "9", "5"], "time": [3511, 3591, 3725, 4188, 5445, 6981]}, "edge": {"target": [], "time": []}}, "mouseout": {"state": {"target": ["7", "0", "1", "10", "11", "11", "9"], "time": [1416, 2092, 3531, 3642, 3777, 5079, 6678]}, "edge": {"target": [], "time": []}}}, "displayed_time": "16.77", "trialTime": 20327, "trial_type": "mouselab-mdp", "trial_index": 46, "time_elapsed": 3401501, "internal_node_id": "0.0-4.0-1.0-19.0"}}, {"uniqueid": "w93382793:a89453224", "current_trial": 47, "dateTime": 1691145652297, "trialdata": {"revealed_states": [], "clicked_states": ["6"], "num_clicks_accrued": [0, 0, 0, 0, 0, 0, 0, 0, 0, 0, 0, 0, 0], "stateRewards": ["", 1, -1, 1, -14, -10, 67, -28, -11, 72, 40, -65, -1, 1, 1, -2, 8, -55, 34, -10, 61, 33, -15, 2, -4, 7, 4, -75, 63, -21, -16, 61, 19, 21], "withholdReward": false, "trial_id": "mdp_trial_21", "block": "test", "trialIndex": 28, "score": 51.85, "costs": -2.15, "simulationMode": [null, null, null, null, null], "rewards": [1, -1, 1, -14, 67], "path": ["0", "0", "1", "2", "3", "4", "6"], "rt": [6846, 77, 381, 502, 158], "actions": ["up", "up", "up", "right", "right"], "actionTimes": [9093, 9674, 10578, 11599, 12271], "queries": {"click": {"state": {"target": ["6"], "time": [4858]}, "edge": {"target": [], "time": []}}, "mouseover": {"state": {"target": ["1", "1", "7", "6", "6", "7"], "time": [2844, 3448, 3710, 3811, 4360, 5948]}, "edge": {"target": [], "time": []}}, "mouseout": {"state": {"target": ["5", "4", "7", "1", "0", "1", "1", "7", "6", "6"], "time": [677, 811, 830, 1225, 2644, 3026, 3677, 3759, 3843, 5663]}, "edge": {"target": [], "time": []}}}, "displayed_time": "16.25", "trialTime": 17118, "trial_type": "mouselab-mdp", "trial_index": 47, "time_elapsed": 3419190, "internal_node_id": "0.0-4.0-1.0-20.0"}}, {"uniqueid": "w93382793:a89453224", "current_trial": 48, "dateTime": 1691145675871, "trialdata": {"revealed_states": [], "clicked_states": ["17", "18"], "num_clicks_accrued": [0, 0, 0, 0, 0, 0, 0, 0, 0, 0, 0, 0, 0], "stateRewards": ["", 1, 3, -2, 15, 51, 15, -19, 11, 67, -45, -73, 2, 4, -2, -13, 36, 9, -28, 10, -30, 31, 16, 1, 2, -1, -16, 14, -22, 36, -1, 88, -5, 45], "withholdReward": false, "trial_id": "mdp_trial_22", "block": "test", "trialIndex": 29, "score": -64.3, "costs": -4.3, "simulationMode": [null, null, null, null, null], "rewards": [1, 3, -2, 11, -73], "path": ["0", "0", "1", "2", "3", "8", "11"], "rt": [15763, 129, 152, 135, 130], "actions": ["up", "up", "up", "left", "left"], "actionTimes": [17994, 18647, 19320, 19971, 20615], "queries": {"click": {"state": {"target": ["17", "18"], "time": [4180, 7807]}, "edge": {"target": [], "time": []}}, "mouseover": {"state": {"target": ["12", "13", "14", "17", "15", "18", "16", "16"], "time": [3026, 3073, 3115, 3564, 6268, 7334, 9101, 15227]}, "edge": {"target": [], "time": []}}, "mouseout": {"state": {"target": ["7", "1", "0", "12", "13", "14", "17", "15", "18", "16"], "time": [919, 1081, 2993, 3058, 3088, 3454, 6201, 6368, 8618, 14181]}, "edge": {"target": [], "time": []}}}, "displayed_time": "21.12", "trialTime": 22998, "trial_type": "mouselab-mdp", "trial_index": 48, "time_elapsed": 3442763, "internal_node_id": "0.0-4.0-1.0-21.0"}}, {"uniqueid": "w93382793:a89453224", "current_trial": 49, "dateTime": 1691145693938, "trialdata": {"revealed_states": [], "clicked_states": ["31", "32"], "num_clicks_accrued": [0, 0, 0, 0, 0, 0, 0, 0, 0, 0, 0, 0, 0], "stateRewards": ["", 1, -4, -6, -1, -21, 17, -72, 10, 77, 67, -46, -1, 4, -2, 14, -66, -49, -45, -15, -52, 23, -67, 2, -2, -2, 15, -3, 45, -64, 5, -44, 83, 61], "withholdReward": false, "trial_id": "mdp_trial_23", "block": "test", "trialIndex": 30, "score": 81.7, "costs": -4.3, "simulationMode": [null, null, null, null, null], "rewards": [2, -2, -2, 5, 83], "path": ["0", "0", "23", "24", "25", "30", "32"], "rt": [8892, 162, 31, 332, 84], "actions": ["left", "left", "left", "down", "down"], "actionTimes": [11246, 11926, 12461, 13319, 13897], "queries": {"click": {"state": {"target": ["31", "32"], "time": [3571, 6913]}, "edge": {"target": [], "time": []}}, "mouseover": {"state": {"target": ["0", "31", "32", "33"], "time": [2894, 3092, 4879, 7829]}, "edge": {"target": [], "time": []}}, "mouseout": {"state": {"target": ["16", "0", "31", "32"], "time": [1030, 2916, 4530, 7529]}, "edge": {"target": [], "time": []}}}, "displayed_time": "16.35", "trialTime": 17461, "trial_type": "mouselab-mdp", "trial_index": 49, "time_elapsed": 3460830, "internal_node_id": "0.0-4.0-1.0-22.0"}}, {"uniqueid": "w93382793:a89453224", "current_trial": 50, "dateTime": 1691145722375, "trialdata": {"revealed_states": [], "clicked_states": ["29", "27", "28", "31", "33"], "num_clicks_accrued": [0, 0, 0, 0, 0, 0, 0, 0, 0, 0, 0, 0, 0], "stateRewards": ["", -1, -3, -5, -14, -13, -47, 79, 8, -60, -64, 41, -1, 2, 3, 13, -46, 61, -79, -11, -64, -65, 23, 1, -2, 6, -14, 46, 32, 21, 7, 75, -66, 15], "withholdReward": false, "trial_id": "mdp_trial_24", "block": "test", "trialIndex": 31, "score": 76.25, "costs": -10.75, "simulationMode": [null, null, null, null, null, null], "rewards": [1, -2, 6, 7, 75], "path": ["0", "0", "23", "24", "25", "30", "31"], "rt": [18357, 589, 25, 1017, 227, 812], "actions": ["left", "left", "left", "left", "down", "right"], "actionTimes": [21478, 22075, 22617, 24144, 24870, 26189], "queries": {"click": {"state": {"target": ["29", "27", "28", "31", "33"], "time": [5120, 8643, 12605, 16258, 19202]}, "edge": {"target": [], "time": []}}, "mouseover": {"state": {"target": ["23", "26", "29", "27", "28", "24", "31", "30", "33"], "time": [3992, 4426, 4609, 6226, 9693, 13530, 14183, 17342, 17440]}, "edge": {"target": [], "time": []}}, "mouseout": {"state": {"target": ["33", "30", "23", "0", "23", "26", "29", "27", "28", "28", "24", "31", "30", "33"], "time": [972, 1006, 1407, 3973, 4012, 4575, 5894, 9559, 12715, 13477, 13627, 17210, 17399, 19316]}, "edge": {"target": [], "time": []}}}, "displayed_time": "26.71", "trialTime": 27829, "trial_type": "mouselab-mdp", "trial_index": 50, "time_elapsed": 3489267, "internal_node_id": "0.0-4.0-1.0-23.0"}}, {"uniqueid": "w93382793:a89453224", "current_trial": 51, "dateTime": 1691145766043, "trialdata": {"revealed_states": [], "clicked_states": ["17", "21", "5", "11", "27", "6"], "num_clicks_accrued": [0, 0, 0, 0, 0, 0, 0, 0, 0, 0, 0, 0, 0], "stateRewards": ["", -1, -2, -1, -10, -57, 73, -72, -16, 75, -14, -46, -2, -3, -7, -1, -61, -60, 76, -4, 50, 4, 14, 2, 2, -7, 12, -65, -32, 15, -8, -76, -25, -61], "withholdReward": false, "trial_id": "mdp_trial_25", "block": "test", "trialIndex": 32, "score": 46.1, "costs": -12.9, "simulationMode": [null, null, null, null, null], "rewards": [-1, -2, -1, -10, 73], "path": ["0", "0", "1", "2", "3", "4", "6"], "rt": [25985, 136, 16, 1106, 67], "actions": ["up", "up", "up", "right", "right"], "actionTimes": [34509, 35154, 35666, 37287, 37868], "queries": {"click": {"state": {"target": ["17", "21", "5", "11", "27", "6"], "time": [10497, 14275, 18428, 21866, 25675, 30163]}, "edge": {"target": [], "time": []}}, "mouseover": {"state": {"target": ["13", "14", "17", "20", "20", "21", "22", "13", "7", "4", "5", "9", "11", "27", "3", "4", "6"], "time": [9273, 9302, 9982, 11285, 11799, 13469, 15549, 16265, 16718, 16833, 17045, 19699, 19984, 23183, 28680, 29085, 29214]}, "edge": {"target": [], "time": []}}, "mouseout": {"state": {"target": ["33", "1", "0", "13", "14", "17", "20", "20", "21", "22", "13", "7", "4", "5", "9", "11", "11", "27", "3", "4"], "time": [3698, 6183, 9237, 9296, 9316, 10983, 11315, 13380, 14413, 16233, 16634, 16750, 16935, 19234, 19818, 21973, 22803, 25791, 28697, 29148]}, "edge": {"target": [], "time": []}}}, "displayed_time": "38.38", "trialTime": 43091, "trial_type": "mouselab-mdp", "trial_index": 51, "time_elapsed": 3532936, "internal_node_id": "0.0-4.0-1.0-24.0"}}, {"uniqueid": "w93382793:a89453224", "current_trial": 52, "dateTime": 1691145783506, "trialdata": {"revealed_states": [], "clicked_states": ["32"], "num_clicks_accrued": [0, 0, 0, 0, 0, 0, 0, 0, 0, 0, 0, 0, 0], "stateRewards": ["", 2, -4, 1, -12, -59, -53, -74, 16, -88, -66, 66, 1, -2, 8, -9, -14, 22, 25, -1, -39, 47, -14, -1, -1, -2, 1, -4, 52, -26, 15, -7, 46, 43], "withholdReward": false, "trial_id": "mdp_trial_26", "block": "test", "trialIndex": 33, "score": 54.85, "costs": -2.15, "simulationMode": [null, null, null, null, null], "rewards": [-1, -1, -2, 15, 46], "path": ["0", "0", "23", "24", "25", "30", "32"], "rt": [6115, 55, 110, 277, 88], "actions": ["left", "left", "left", "down", "down"], "actionTimes": [8235, 8799, 9435, 10236, 10832], "queries": {"click": {"state": {"target": ["32"], "time": [3925]}, "edge": {"target": [], "time": []}}, "mouseover": {"state": {"target": ["32", "31", "24", "27"], "time": [3443, 5041, 5216, 5707]}, "edge": {"target": [], "time": []}}, "mouseout": {"state": {"target": ["6", "7", "0", "32", "31", "24"], "time": [407, 938, 2863, 4040, 5145, 5610]}, "edge": {"target": [], "time": []}}}, "displayed_time": "16.12", "trialTime": 16911, "trial_type": "mouselab-mdp", "trial_index": 52, "time_elapsed": 3550398, "internal_node_id": "0.0-4.0-1.0-25.0"}}, {"uniqueid": "w93382793:a89453224", "current_trial": 53, "dateTime": 1691145807717, "trialdata": {"revealed_states": [], "clicked_states": ["32", "16"], "num_clicks_accrued": [0, 0, 0, 0, 0, 0, 0, 0, 0, 0, 0, 0, 0], "stateRewards": ["", 2, -1, -2, -5, -47, -57, -33, -11, 31, -18, -72, -2, 1, -4, -8, -46, -53, -50, 15, -85, -9, 39, -2, -2, 1, 14, -1, -8, 53, -12, -41, -74, 62], "withholdReward": false, "trial_id": "mdp_trial_27", "block": "test", "trialIndex": 34, "score": -3.3000000000000007, "costs": -4.3, "simulationMode": [null, null, null, null, null], "rewards": [-2, 1, -4, 15, -9], "path": ["0", "0", "12", "13", "14", "19", "21"], "rt": [16155, 86, 44, 45, 81], "actions": ["right", "right", "right", "down", "down"], "actionTimes": [18923, 19507, 20048, 20630, 21251], "queries": {"click": {"state": {"target": ["32", "16"], "time": [5360, 9652]}, "edge": {"target": [], "time": []}}, "mouseover": {"state": {"target": ["23", "30", "32", "31", "12", "18", "16", "15", "21"], "time": [3901, 4067, 4984, 8433, 8533, 8967, 9100, 11972, 13993]}, "edge": {"target": [], "time": []}}, "mouseout": {"state": {"target": ["27", "0", "23", "30", "32", "31", "12", "18", "16", "15"], "time": [1433, 3884, 3933, 4401, 5478, 8452, 8566, 9051, 11969, 13986]}, "edge": {"target": [], "time": []}}}, "displayed_time": "21.75", "trialTime": 23566, "trial_type": "mouselab-mdp", "trial_index": 53, "time_elapsed": 3574608, "internal_node_id": "0.0-4.0-1.0-26.0"}}, {"uniqueid": "w93382793:a89453224", "current_trial": 54, "dateTime": 1691145826763, "trialdata": {"revealed_states": [], "clicked_states": ["11", "27"], "num_clicks_accrued": [0, 0, 0, 0, 0, 0, 0, 0, 0, 0, 0, 0, 0], "stateRewards": ["", 1, 4, 5, -5, 58, -80, 75, 6, 25, -39, 46, 2, -2, 4, 2, 59, 31, -22, -12, -61, 15, 72, 1, -2, -7, 8, 77, 76, -23, -7, 71, -15, -3], "withholdReward": false, "trial_id": "mdp_trial_28", "block": "test", "trialIndex": 35, "score": 72.7, "costs": -4.3, "simulationMode": [null, null, null, null, null], "rewards": [1, -2, -7, 8, 77], "path": ["0", "0", "23", "24", "25", "26", "27"], "rt": [10165, 141, 64, 696, 25], "actions": ["left", "left", "left", "up", "up"], "actionTimes": [12831, 13506, 14078, 15309, 15877], "queries": {"click": {"state": {"target": ["11", "27"], "time": [4856, 7979]}, "edge": {"target": [], "time": []}}, "mouseover": {"state": {"target": ["10", "8", "11", "27", "26", "25", "30", "32"], "time": [3847, 4296, 4445, 5889, 8804, 8943, 9533, 11014]}, "edge": {"target": [], "time": []}}, "mouseout": {"state": {"target": ["21", "22", "12", "10", "8", "11", "27", "26", "25", "30"], "time": [1211, 1278, 1811, 3879, 4313, 5664, 8718, 8889, 9497, 10481]}, "edge": {"target": [], "time": []}}}, "displayed_time": "16.67", "trialTime": 18244, "trial_type": "mouselab-mdp", "trial_index": 54, "time_elapsed": 3593656, "internal_node_id": "0.0-4.0-1.0-27.0"}}, {"uniqueid": "w93382793:a89453224", "current_trial": 55, "dateTime": 1691145854943, "trialdata": {"revealed_states": [], "clicked_states": ["32", "27", "11"], "num_clicks_accrued": [0, 0, 0, 0, 0, 0, 0, 0, 0, 0, 0, 0, 0], "stateRewards": ["", -2, 4, -7, -3, -76, 39, -28, 10, 14, 12, 60, 2, -3, 6, -10, 88, -34, -41, -3, 72, -13, -56, 1, 3, 2, 8, -51, 23, -57, 1, 14, -46, -16], "withholdReward": false, "trial_id": "mdp_trial_29", "block": "test", "trialIndex": 36, "score": 58.55, "costs": -6.449999999999999, "simulationMode": [null, null, null, null, null], "rewards": [-2, 4, -7, 10, 60], "path": ["0", "0", "1", "2", "3", "8", "11"], "rt": [13770, 77, 33, 586, 57], "actions": ["up", "up", "up", "left", "left"], "actionTimes": [15975, 16556, 17105, 18209, 18762], "queries": {"click": {"state": {"target": ["32", "27", "11"], "time": [4634, 8375, 11400]}, "edge": {"target": [], "time": []}}, "mouseover": {"state": {"target": ["23", "29", "32", "30", "25", "26", "27", "11", "9", "5", "6"], "time": [3022, 3521, 4221, 5373, 5431, 5498, 6487, 9172, 12239, 12663, 13171]}, "edge": {"target": [], "time": []}}, "mouseout": {"state": {"target": ["32", "0", "23", "29", "32", "30", "25", "26", "27", "11", "9", "5", "6", "13", "14"], "time": [956, 1403, 3045, 3703, 5339, 5412, 5475, 5961, 8911, 11503, 12506, 12683, 15271, 24186, 24219]}, "edge": {"target": [], "time": []}}}, "displayed_time": "19.29", "trialTime": 27566, "trial_type": "mouselab-mdp", "trial_index": 55, "time_elapsed": 3621835, "internal_node_id": "0.0-4.0-1.0-28.0"}}, {"uniqueid": "w93382793:a89453224", "current_trial": 56, "dateTime": 1691145875477, "trialdata": {"revealed_states": [], "clicked_states": ["6", "16"], "num_clicks_accrued": [0, 0, 0, 0, 0, 0, 0, 0, 0, 0, 0, 0, 0], "stateRewards": ["", 2, -3, -2, 14, -4, 85, 46, 15, -28, 41, 31, -1, -1, -1, 5, 62, 79, 57, 12, -73, -64, 86, -1, 1, -3, -5, 68, 11, -32, 8, -80, -21, -56], "withholdReward": false, "trial_id": "mdp_trial_30", "block": "test", "trialIndex": 37, "score": 91.7, "costs": -4.3, "simulationMode": [null, null, null, null, null, null], "rewards": [2, -3, -2, 14, 85], "path": ["0", "0", "1", "2", "3", "4", "6"], "rt": [6167, 222, 4, 992, 822, 93], "actions": ["up", "up", "up", "up", "right", "right"], "actionTimes": [8738, 8965, 9487, 11010, 12352, 12941], "queries": {"click": {"state": {"target": ["6", "16"], "time": [4179, 7503]}, "edge": {"target": [], "time": []}}, "mouseover": {"state": {"target": ["1", "2", "4", "6", "16"], "time": [3145, 3209, 3711, 3756, 4802]}, "edge": {"target": [], "time": []}}, "mouseout": {"state": {"target": ["1", "0", "0", "1", "2", "4", "6", "16", "6"], "time": [1328, 1392, 3061, 3177, 3244, 3738, 4294, 17046, 17127]}, "edge": {"target": [], "time": []}}}, "displayed_time": "16.57", "trialTime": 19892, "trial_type": "mouselab-mdp", "trial_index": 56, "time_elapsed": 3642370, "internal_node_id": "0.0-4.0-1.0-29.0"}}, {"uniqueid": "w93382793:a89453224", "current_trial": 57, "dateTime": 1691145893594, "trialdata": {"revealed_states": [], "clicked_states": [], "num_clicks_accrued": [0, 0, 0, 0, 0, 0, 0, 0, 0, 0, 0, 0, 0], "stateRewards": ["", 2, 4, -3, 16, -58, 30, -35, 11, -60, 47, 27, -2, -1, -7, -16, 23, -70, 68, -10, -65, -43, -34, -2, 1, 7, 9, -63, 34, -31, -8, -12, -86, 59], "withholdReward": false, "trial_id": "mdp_trial_31", "block": "test", "trialIndex": 38, "score": -85, "costs": 0, "simulationMode": [null, null, null, null, null], "rewards": [-2, -1, -7, -10, -65], "path": ["0", "0", "12", "13", "14", "19", "20"], "rt": [6441, 161, 40, 72, 185], "actions": ["right", "right", "right", "down", "right"], "actionTimes": [8959, 9640, 10202, 10784, 11481], "queries": {"click": {"state": {"target": [], "time": []}, "edge": {"target": [], "time": []}}, "mouseover": {"state": {"target": ["12", "19", "21", "20", "19", "22"], "time": [3496, 3542, 4541, 5477, 6716, 7725]}, "edge": {"target": [], "time": []}}, "mouseout": {"state": {"target": ["6", "18", "12", "19", "21", "20", "19"], "time": [758, 1309, 3519, 3557, 4993, 6681, 6793]}, "edge": {"target": [], "time": []}}}, "displayed_time": "16.52", "trialTime": 17442, "trial_type": "mouselab-mdp", "trial_index": 57, "time_elapsed": 3660486, "internal_node_id": "0.0-4.0-1.0-30.0"}}, {"uniqueid": "w93382793:a89453224", "current_trial": 58, "dateTime": 1691145926250, "trialdata": {"revealed_states": [], "clicked_states": ["17", "16", "6", "5", "9"], "num_clicks_accrued": [0, 0, 0, 0, 0, 0, 0, 0, 0, 0, 0, 0, 0], "stateRewards": ["", 2, -1, -1, 7, 11, -40, -22, -2, 69, 37, 8, -2, 4, -8, -12, -2, -72, -3, -12, 17, 63, 12, 1, 3, -7, 6, 25, 61, 61, -9, 28, -17, 27], "withholdReward": false, "trial_id": "mdp_trial_32", "block": "test", "trialIndex": 39, "score": 56.25, "costs": -10.75, "simulationMode": [null, null, null, null, null], "rewards": [2, -1, -1, -2, 69], "path": ["0", "0", "1", "2", "3", "8", "9"], "rt": [20346, 34, 161, 124, 8], "actions": ["up", "up", "up", "left", "up"], "actionTimes": [22333, 22867, 23543, 24173, 24694], "queries": {"click": {"state": {"target": ["17", "16", "6", "5", "9"], "time": [3864, 7137, 10480, 13759, 17270]}, "edge": {"target": [], "time": []}}, "mouseover": {"state": {"target": ["15", "17", "17", "16", "6", "5", "9", "11"], "time": [3065, 3091, 3498, 4474, 7875, 11062, 14569, 18168]}, "edge": {"target": [], "time": []}}, "mouseout": {"state": {"target": ["22", "0", "15", "17", "17", "16", "6", "5", "9"], "time": [801, 1297, 3087, 3116, 4373, 7731, 10945, 14448, 17867]}, "edge": {"target": [], "time": []}}}, "displayed_time": "25.22", "trialTime": 32020, "trial_type": "mouselab-mdp", "trial_index": 58, "time_elapsed": 3693143, "internal_node_id": "0.0-4.0-1.0-31.0"}}, {"uniqueid": "w93382793:a89453224", "current_trial": 59, "dateTime": 1691145945231, "trialdata": {"revealed_states": [], "clicked_states": [], "num_clicks_accrued": [0, 0, 0, 0, 0, 0, 0, 0, 0, 0, 0, 0, 0], "stateRewards": ["", 2, 4, 7, 7, -79, -2, -21, -5, -53, 47, -21, 1, -3, -1, 7, 83, 7, 84, -7, 80, -37, 69, 2, -4, 5, 2, 4, -20, -30, 7, 71, 44, -81], "withholdReward": false, "trial_id": "mdp_trial_33", "block": "test", "trialIndex": 40, "score": 81, "costs": 0, "simulationMode": [null, null, null, null, null], "rewards": [2, -4, 5, 7, 71], "path": ["0", "0", "23", "24", "25", "30", "31"], "rt": [5516, 7, 5, 102, 103], "actions": ["left", "left", "left", "down", "right"], "actionTimes": [7616, 8129, 8644, 9257, 9895], "queries": {"click": {"state": {"target": [], "time": []}, "edge": {"target": [], "time": []}}, "mouseover": {"state": {"target": ["2", "24", "31", "31"], "time": [2751, 3384, 3770, 4187]}, "edge": {"target": [], "time": []}}, "mouseout": {"state": {"target": ["11", "2", "24", "31"], "time": [834, 3203, 3419, 3790]}, "edge": {"target": [], "time": []}}}, "displayed_time": "16.10", "trialTime": 18291, "trial_type": "mouselab-mdp", "trial_index": 59, "time_elapsed": 3712124, "internal_node_id": "0.0-4.0-1.0-32.0"}}, {"uniqueid": "w93382793:a89453224", "current_trial": 60, "dateTime": 1691145984150, "trialdata": {"revealed_states": [], "clicked_states": ["31", "29", "28", "33", "32", "27", "5"], "num_clicks_accrued": [0, 0, 0, 0, 0, 0, 0, 0, 0, 0, 0, 0, 0], "stateRewards": ["", 2, 3, -1, 6, 44, -4, -59, -14, -3, 64, 16, 1, -3, 3, 6, 3, 49, 19, 3, -49, -14, -86, 1, 2, -3, -8, -33, 14, 32, -13, -77, -47, -67], "withholdReward": false, "trial_id": "mdp_trial_34", "block": "test", "trialIndex": 41, "score": 38.95, "costs": -15.05, "simulationMode": [null, null, null, null, null], "rewards": [2, 3, -1, 6, 44], "path": ["0", "0", "1", "2", "3", "4", "5"], "rt": [28279, 21, 144, 615, 484], "actions": ["up", "up", "up", "right", "up"], "actionTimes": [31207, 31746, 32420, 33557, 34543], "queries": {"click": {"state": {"target": ["31", "29", "28", "33", "32", "27", "5"], "time": [4293, 9423, 12441, 15863, 19212, 22686, 26961]}, "edge": {"target": [], "time": []}}, "mouseover": {"state": {"target": ["23", "24", "31", "26", "29", "26", "28", "25", "33", "32", "30", "25", "26", "27", "27", "8", "5", "5", "4", "7"], "time": [3446, 3490, 3855, 5032, 6035, 10214, 10310, 13267, 14162, 18063, 19930, 20020, 20097, 20177, 20858, 25588, 26190, 26511, 27898, 29090]}, "edge": {"target": [], "time": []}}, "mouseout": {"state": {"target": ["31", "0", "23", "24", "31", "26", "29", "26", "28", "25", "33", "32", "30", "25", "26", "27", "27", "8", "5", "5", "4"], "time": [1472, 3425, 3473, 3556, 4421, 5094, 10176, 10252, 13194, 13307, 16840, 19873, 19982, 20079, 20137, 20215, 22815, 25605, 26237, 27746, 28462]}, "edge": {"target": [], "time": []}}}, "displayed_time": "35.04", "trialTime": 38232, "trial_type": "mouselab-mdp", "trial_index": 60, "time_elapsed": 3751042, "internal_node_id": "0.0-4.0-1.0-33.0"}}, {"uniqueid": "w93382793:a89453224", "current_trial": 61, "dateTime": 1691146010419, "trialdata": {"revealed_states": [], "clicked_states": ["16", "21", "20"], "num_clicks_accrued": [0, 0, 0, 0, 0, 0, 0, 0, 0, 0, 0, 0, 0], "stateRewards": ["", 2, -3, 5, 11, -79, 54, 11, -9, -78, 33, 22, -2, -1, 2, 14, 43, 34, 1, 10, 49, -65, 39, -1, 1, -1, 3, -16, -2, 11, 2, 12, 48, -65], "withholdReward": false, "trial_id": "mdp_trial_35", "block": "test", "trialIndex": 42, "score": 51.55, "costs": -6.449999999999999, "simulationMode": [null, null, null, null, null], "rewards": [-2, -1, 2, 10, 49], "path": ["0", "0", "12", "13", "14", "19", "20"], "rt": [17427, 222, 35, 71, 138], "actions": ["right", "right", "right", "down", "right"], "actionTimes": [21070, 21791, 22319, 22889, 23538], "queries": {"click": {"state": {"target": ["16", "21", "20"], "time": [5893, 9167, 13288]}, "edge": {"target": [], "time": []}}, "mouseover": {"state": {"target": ["18", "16", "17", "19", "21", "20", "19", "13", "18"], "time": [4518, 5398, 6823, 7830, 8270, 10905, 14061, 14650, 14742]}, "edge": {"target": [], "time": []}}, "mouseout": {"state": {"target": ["7", "18", "16", "17", "19", "21", "20", "19", "13"], "time": [1748, 4887, 6689, 7714, 8200, 10301, 13985, 14157, 14685]}, "edge": {"target": [], "time": []}}}, "displayed_time": "24.03", "trialTime": 25612, "trial_type": "mouselab-mdp", "trial_index": 61, "time_elapsed": 3777311, "internal_node_id": "0.0-4.0-1.0-34.0"}}, {"uniqueid": "w93382793:a89453224", "current_trial": 62, "dateTime": 1691146029854, "trialdata": {"revealed_states": [], "clicked_states": ["27", "11"], "num_clicks_accrued": [0, 0, 0, 0, 0, 0, 0, 0, 0, 0, 0, 0, 0], "stateRewards": ["", -1, 3, 1, -11, -22, -36, 19, -5, -70, -52, 50, -2, -4, 4, -2, -41, -83, 29, -2, 22, 10, -6, -2, 3, -2, 14, 54, 44, 77, -9, -65, -37, -40], "withholdReward": false, "trial_id": "mdp_trial_36", "block": "test", "trialIndex": 43, "score": 62.7, "costs": -4.3, "simulationMode": [null, null, null, null, null], "rewards": [-2, 3, -2, 14, 54], "path": ["0", "0", "23", "24", "25", "26", "27"], "rt": [9492, 63, 138, 822, 56], "actions": ["left", "left", "left", "up", "up"], "actionTimes": [11473, 12055, 12733, 14061, 14634], "queries": {"click": {"state": {"target": ["27", "11"], "time": [3784, 6801]}, "edge": {"target": [], "time": []}}, "mouseover": {"state": {"target": ["28", "27", "11", "9"], "time": [2955, 3438, 4672, 7839]}, "edge": {"target": [], "time": []}}, "mouseout": {"state": {"target": ["18", "28", "27", "11"], "time": [1061, 2974, 4378, 6915]}, "edge": {"target": [], "time": []}}}, "displayed_time": "15.98", "trialTime": 18771, "trial_type": "mouselab-mdp", "trial_index": 62, "time_elapsed": 3796747, "internal_node_id": "0.0-4.0-1.0-35.0"}}, {"uniqueid": "w93382793:a89453224", "current_trial": 63, "dateTime": 1691146049312, "trialdata": {"revealed_states": [], "clicked_states": ["17", "22"], "num_clicks_accrued": [0, 0, 0, 0, 0, 0, 0, 0, 0, 0, 0, 0, 0], "stateRewards": ["", 1, -1, -7, -7, -22, 15, -13, 13, 26, -32, 38, -1, 1, -7, -4, 16, -62, 86, 12, -54, 56, 64, -2, -1, 6, 14, -57, 37, 62, -6, -25, 50, -70], "withholdReward": false, "trial_id": "mdp_trial_37", "block": "test", "trialIndex": 44, "score": 64.7, "costs": -4.3, "simulationMode": [null, null, null, null, null], "rewards": [-1, 1, -7, 12, 64], "path": ["0", "0", "12", "13", "14", "19", "22"], "rt": [9212, 40, 120, 23, 843], "actions": ["right", "right", "right", "down", "left"], "actionTimes": [12451, 12995, 13626, 14145, 15497], "queries": {"click": {"state": {"target": ["17", "22"], "time": [4732, 8074]}, "edge": {"target": [], "time": []}}, "mouseover": {"state": {"target": ["17", "14", "22", "13", "15", "18"], "time": [3904, 5310, 5755, 9010, 9102, 9740]}, "edge": {"target": [], "time": []}}, "mouseout": {"state": {"target": ["9", "2", "12", "12", "0", "17", "14", "22", "13", "15"], "time": [828, 871, 934, 1370, 3802, 5288, 5332, 8937, 9049, 9662]}, "edge": {"target": [], "time": []}}}, "displayed_time": "17.24", "trialTime": 18711, "trial_type": "mouselab-mdp", "trial_index": 63, "time_elapsed": 3816204, "internal_node_id": "0.0-4.0-1.0-36.0"}}, {"uniqueid": "w93382793:a89453224", "current_trial": 64, "dateTime": 1691146066871, "trialdata": {"revealed_states": [], "clicked_states": ["29"], "num_clicks_accrued": [0, 0, 0, 0, 0, 0, 0, 0, 0, 0, 0, 0, 0], "stateRewards": ["", -2, 1, -3, -16, -39, -52, 30, -7, -41, -59, 11, 2, 1, 8, 2, -11, -26, -42, -13, 87, -59, -48, -1, -1, -1, 16, -79, 31, 50, -1, -84, 34, -82], "withholdReward": false, "trial_id": "mdp_trial_38", "block": "test", "trialIndex": 45, "score": 60.85, "costs": -2.15, "simulationMode": [null, null, null, null, null], "rewards": [-1, -1, -1, 16, 50], "path": ["0", "0", "23", "24", "25", "26", "29"], "rt": [6067, 25, 53, 711, 808], "actions": ["left", "left", "left", "up", "left"], "actionTimes": [7805, 8375, 8950, 10190, 11504], "queries": {"click": {"state": {"target": ["29"], "time": [3682]}, "edge": {"target": [], "time": []}}, "mouseover": {"state": {"target": ["23", "26", "29", "27", "27"], "time": [2666, 3178, 3293, 4620, 5099]}, "edge": {"target": [], "time": []}}, "mouseout": {"state": {"target": ["18", "23", "26", "29", "27"], "time": [827, 2704, 3203, 4350, 4776]}, "edge": {"target": [], "time": []}}}, "displayed_time": "15.74", "trialTime": 16778, "trial_type": "mouselab-mdp", "trial_index": 64, "time_elapsed": 3833763, "internal_node_id": "0.0-4.0-1.0-37.0"}}, {"uniqueid": "w93382793:a89453224", "current_trial": 65, "dateTime": 1691146091961, "trialdata": {"revealed_states": [], "clicked_states": ["6", "7"], "num_clicks_accrued": [0, 0, 0, 0, 0, 0, 0, 0, 0, 0, 0, 0, 0], "stateRewards": ["", -1, 2, -2, 13, -56, -28, 10, 14, 53, -80, -29, 1, -3, -3, -14, 14, 9, -40, -9, 18, 18, 48, 1, 1, 1, -9, 64, -39, -9, 7, -52, -78, 7], "withholdReward": false, "trial_id": "mdp_trial_39", "block": "test", "trialIndex": 46, "score": -20.3, "costs": -4.3, "simulationMode": [null, null, null, null, null], "rewards": [-1, 2, -2, 14, -29], "path": ["0", "0", "1", "2", "3", "8", "11"], "rt": [15213, 70, 1755, 237, 265], "actions": ["up", "up", "up", "left", "left"], "actionTimes": [17559, 18136, 20421, 21151, 21912], "queries": {"click": {"state": {"target": ["6", "7"], "time": [4660, 8828]}, "edge": {"target": [], "time": []}}, "mouseover": {"state": {"target": ["7", "6", "7", "4", "5"], "time": [2881, 3314, 6664, 9385, 9626]}, "edge": {"target": [], "time": []}}, "mouseout": {"state": {"target": ["27", "28", "7", "6", "7", "4"], "time": [1049, 1144, 2905, 6283, 9316, 9570]}, "edge": {"target": [], "time": []}}}, "displayed_time": "22.41", "trialTime": 24354, "trial_type": "mouselab-mdp", "trial_index": 65, "time_elapsed": 3858853, "internal_node_id": "0.0-4.0-1.0-38.0"}}, {"uniqueid": "w93382793:a89453224", "current_trial": 66, "dateTime": 1691146132137, "trialdata": {"revealed_states": [], "clicked_states": ["9", "5", "6", "7", "18", "16", "17", "20", "21", "22"], "num_clicks_accrued": [0, 0, 0, 0, 0, 0, 0, 0, 0, 0, 0, 0, 0], "stateRewards": ["", 1, -4, -6, 11, -20, 8, -30, 1, -38, 88, 42, 2, 3, 5, -12, -8, -74, 30, -8, 67, -19, 42, 2, -1, 4, 13, 50, -68, 2, -8, -15, 87, -46], "withholdReward": false, "trial_id": "mdp_trial_40", "block": "test", "trialIndex": 47, "score": -38.5, "costs": -21.499999999999996, "simulationMode": [null, null, null, null, null, null], "rewards": [2, 3, 5, -8, -19], "path": ["0", "0", "12", "13", "14", "19", "21"], "rt": [29350, 226, 22, 159, 641, 26], "actions": ["right", "right", "right", "right", "down", "down"], "actionTimes": [31729, 31961, 32513, 33182, 34330, 34865], "queries": {"click": {"state": {"target": ["9", "5", "6", "7", "18", "16", "17", "20", "21", "22"], "time": [3867, 6809, 9810, 12581, 15447, 18334, 21158, 24119, 27049, 29832]}, "edge": {"target": [], "time": []}}, "mouseover": {"state": {"target": ["10", "8", "9", "5", "6", "7", "18", "16", "17", "20", "21", "22"], "time": [2737, 3186, 3270, 4853, 8324, 10728, 14320, 16638, 19241, 22777, 25343, 27849]}, "edge": {"target": [], "time": []}}, "mouseout": {"state": {"target": ["5", "2", "1", "10", "8", "9", "5", "6", "6", "7", "18", "16", "17", "17", "20", "21", "22"], "time": [922, 1087, 1471, 3139, 3236, 4503, 7794, 9952, 10442, 13668, 15616, 19078, 21241, 22139, 25040, 27212, 29969]}, "edge": {"target": [], "time": []}}}, "displayed_time": "35.39", "trialTime": 39524, "trial_type": "mouselab-mdp", "trial_index": 66, "time_elapsed": 3899030, "internal_node_id": "0.0-4.0-1.0-39.0"}}, {"uniqueid": "w93382793:a89453224", "current_trial": 67, "dateTime": 1691146263621, "trialdata": {"rt": 130869, "response": {"Q0": "$-2 to $2", "Q1": "$-32 to $32", "Q2": "$-16 to $16", "Q3": "The cost for clicking on nodes varied between nodes.", "Q4": "Very motivated"}, "question_order": [0, 1, 2, 3, 4], "trial_id": "final_quiz_control", "trial_type": "survey-multi-choice", "trial_index": 67, "time_elapsed": 4030515, "internal_node_id": "0.0-4.0-2.0"}}, {"uniqueid": "w93382793:a89453224", "current_trial": 68, "dateTime": 1691146477127, "trialdata": {"rt": 213125, "response": {"Q0": "yes there was the more id spend on nodes the higher id need the amount to be ", "Q1": "yes i did change my strategy acouple of times based on the infomation given to me", "Q2": "not at all"}, "trial_id": "self_report_control", "trial_type": "survey-text", "trial_index": 68, "time_elapsed": 4244020, "internal_node_id": "0.0-4.0-3.0"}}, {"uniqueid": "w93382793:a89453224", "current_trial": 69, "dateTime": 1691146602168, "trialdata": {"rt": 125033, "response": {"Q0": "Disagree", "Q1": "Agree", "Q2": "Disagree", "Q3": "Disagree", "Q4": "Agree", "Q5": "Strongly agree", "Q6": "Strongly disagree"}, "question_order": [0, 1, 2, 3, 4, 5, 6], "trial_id": "self_report_2", "trial_type": "survey-multi-choice", "trial_index": 69, "time_elapsed": 4369062, "internal_node_id": "0.0-4.0-4.0"}}, {"uniqueid": "w93382793:a89453224", "current_trial": 70, "dateTime": 1691146649391, "trialdata": {"rt": 47099, "response": {"gender": "male", "age": "31", "colorblind": "0", "effort": "0"}, "trial_type": "survey-html-form", "trial_index": 70, "time_elapsed": 4416284, "internal_node_id": "0.0-4.0-5.0"}}, {"uniqueid": "w93382793:a89453224", "current_trial": 71, "dateTime": 1691146775406, "trialdata": {"rt": 125994, "response": {"Q0": "the rules between the practice run and the real run can be missunderstood keep the rules constant so its quicker to understand ", "Q1": "no", "Q2": "none"}, "trial_type": "survey-text", "trial_index": 71, "time_elapsed": 4542300, "internal_node_id": "0.0-4.0-6.0"}}, {"uniqueid": "w93382793:a89453224", "current_trial": 72, "dateTime": 1691146780669, "trialdata": {"rt": 5154, "stimulus": "Press 'Finish HIT' in order to reach the completion code. Once the data has been saved, you will receive the code either in this window or in the original browser window where you started the experiment.\n", "response": 0, "trial_type": "html-button-response", "trial_index": 72, "time_elapsed": 4547563, "internal_node_id": "0.0-5.0"}}, {"uniqueid": "w93382793:a89453224", "current_trial": 73, "dateTime": 1691146781911, "trialdata": {"success": true, "trial_type": "fullscreen", "trial_index": 73, "time_elapsed": 4548805, "internal_node_id": "0.0-6.0"}}], "questiondata": {"params": {"CODE": "C6DMOQA6", "MIN_TIME": 14, "inspectCost": 1, "startTime": "Fri Aug 04 2023 11:43:50 GMT+0200 (South Africa Standard Time)", "bonusRate": 0.002, "variance": "1_2_4_8_44", "branching": "31123"}, "final_score": 1351.9}, "eventdata": [{"eventtype": "initialized", "value": null, "timestamp": 1691142229830, "interval": 0}, {"eventtype": "window_resize", "value": [1024, 654], "timestamp": 1691142229830, "interval": 0}, {"eventtype": "window_resize", "value": [1366, 670], "timestamp": 1691142230392, "interval": 562}, {"eventtype": "focus", "value": "off", "timestamp": 1691142252001, "interval": 21609}, {"eventtype": "focus", "value": "on", "timestamp": 1691142262131, "interval": 10130}, {"eventtype": "window_resize", "value": [1024, 654], "timestamp": 1691142264137, "interval": 2006}, {"eventtype": "window_resize", "value": [1366, 768], "timestamp": 1691142266656, "interval": 2519}, {"eventtype": "focus", "value": "off", "timestamp": 1691143356672, "interval": 1090016}, {"eventtype": "focus", "value": "on", "timestamp": 1691143356673, "interval": 1}, {"eventtype": "window_resize", "value": [1024, 654], "timestamp": 1691143356885, "interval": 212}, {"eventtype": "window_resize", "value": [1366, 768], "timestamp": 1691143359332, "interval": 2447}, {"eventtype": "focus", "value": "off", "timestamp": 1691144118156, "interval": 758824}, {"eventtype": "focus", "value": "on", "timestamp": 1691144118156, "interval": 0}, {"eventtype": "window_resize", "value": [1024, 654], "timestamp": 1691144118374, "interval": 218}, {"eventtype": "window_resize", "value": [1366, 768], "timestamp": 1691144120397, "interval": 2023}, {"eventtype": "focus", "value": "off", "timestamp": 1691144539850, "interval": 419453}, {"eventtype": "focus", "value": "on", "timestamp": 1691144539851, "interval": 1}, {"eventtype": "window_resize", "value": [1024, 654], "timestamp": 1691144540070, "interval": 219}, {"eventtype": "window_resize", "value": [1366, 768], "timestamp": 1691144542336, "interval": 2266}], "useragent": "Mozilla/5.0 (Windows NT 10.0; Win64; x64) AppleWebKit/537.36 (KHTML, like Gecko) Chrome/115.0.0.0 Safari/537.36", "mode": "live", "id": "w93382793:a89453224", "status": "user data saved", "Beginhit": "2023-08-04 09:41:25.281239", "Beginexp": "2023-08-04 09:42:06.619397", "Endhit": "2023-08-04 10:57:23.854815", "psiturkStatus": 3, "browser": "<redacted>", "platform": "windows", "language": "en-US"}