{"condition": 0, "counterbalance": 0, "assignmentId": "a68406633", "workerId": "w67030782", "hitId": "h63955146", "currenttrial": 55, "bonus": 0, "data": [{"uniqueid": "w67030782:a68406633", "current_trial": 0, "dateTime": 1693565789377, "trialdata": {"success": true, "trial_type": "fullscreen", "trial_index": 0, "time_elapsed": 7942, "internal_node_id": "0.0-0.0"}}, {"uniqueid": "w67030782:a68406633", "current_trial": 1, "dateTime": 1693565823945, "trialdata": {"view_history": [{"page_index": 0, "viewing_time": 34566}], "rt": 34566, "trial_id": "exp_instructions_control", "trial_type": "instructions", "trial_index": 1, "time_elapsed": 42511, "internal_node_id": "0.0-1.0"}}, {"uniqueid": "w67030782:a68406633", "current_trial": 2, "dateTime": 1693566159167, "trialdata": {"view_history": [{"page_index": 0, "viewing_time": 102915}, {"page_index": 1, "viewing_time": 125476}, {"page_index": 2, "viewing_time": 41483}, {"page_index": 3, "viewing_time": 65353}], "rt": 335227, "trial_id": "mouselab_instructions_1_control", "trial_type": "instructions", "trial_index": 2, "time_elapsed": 377733, "internal_node_id": "0.0-2.0-1.0"}}, {"uniqueid": "w67030782:a68406633", "current_trial": 3, "dateTime": 1693566185156, "trialdata": {"revealed_states": [], "clicked_states": ["23", "12"], "num_clicks_accrued": [0, 0, 0, 0, 0, 0, 0, 0, 0, 0, 0, 0, 0], "stateRewards": ["", 10, 10, 10, 10, -10, 10, 10, 10, 10, -10, -10, -10, -10, -10, -10, -10, -10, -10, -10, -10, -10, -10, -10, -10, -10, -10, 10, -10, -10, -10, 10, -10, -10], "withholdReward": false, "trial_id": "practice_1", "block": "test", "trialIndex": 0, "score": 32.5, "costs": -1, "simulationMode": [null, null, null, null, null], "rewards": [10, 10, 10, 10, -10], "path": ["0", "0", "1", "2", "3", "4", "5"], "rt": [8929, 1494, 1462, 473, 214], "actions": ["up", "up", "up", "right", "up"], "actionTimes": [13280, 15260, 17226, 18205, 18913], "queries": {"click": {"state": {"target": ["23", "12"], "time": [7141, 9635]}, "edge": {"target": [], "time": []}}, "mouseover": {"state": {"target": ["23", "23", "0", "12", "1"], "time": [5343, 5875, 8863, 9110, 11827]}, "edge": {"target": [], "time": []}}, "mouseout": {"state": {"target": ["0", "23", "23", "0", "12", "1"], "time": [2058, 5711, 8826, 9045, 10916, 14163]}, "edge": {"target": [], "time": []}}}, "displayed_time": "19.41", "trialTime": 25348, "trial_type": "mouselab-mdp", "trial_index": 3, "time_elapsed": 403722, "internal_node_id": "0.0-2.0-2.0-0.0"}}, {"uniqueid": "w67030782:a68406633", "current_trial": 4, "dateTime": 1693566200648, "trialdata": {"revealed_states": [], "clicked_states": ["1"], "num_clicks_accrued": [0, 0, 0, 0, 0, 0, 0, 0, 0, 0, 0, 0, 0], "stateRewards": ["", 10, -10, 10, -10, -10, -10, 10, 10, 10, -10, 10, -10, -10, 10, 10, -10, 10, 10, -10, 10, 10, -10, -10, 10, 10, 10, 10, -10, -10, 10, -10, 10, 10], "withholdReward": false, "trial_id": "practice_2", "block": "test", "trialIndex": 1, "score": -7, "costs": -0.5, "simulationMode": [null, null, null, null, null], "rewards": [10, -10, 10, -10, -10], "path": ["0", "0", "1", "2", "3", "4", "6"], "rt": [5334, 442, 452, 674, 472], "actions": ["up", "up", "up", "right", "right"], "actionTimes": [7440, 8384, 9329, 10500, 11467], "queries": {"click": {"state": {"target": ["1"], "time": [3697]}, "edge": {"target": [], "time": []}}, "mouseover": {"state": {"target": ["1", "23"], "time": [3088, 4490]}, "edge": {"target": [], "time": []}}, "mouseout": {"state": {"target": ["1", "0", "1", "23"], "time": [1188, 2998, 4306, 6042]}, "edge": {"target": [], "time": []}}}, "displayed_time": "11.96", "trialTime": 15146, "trial_type": "mouselab-mdp", "trial_index": 4, "time_elapsed": 419213, "internal_node_id": "0.0-2.0-2.0-1.0"}}, {"uniqueid": "w67030782:a68406633", "current_trial": 5, "dateTime": 1693566272869, "trialdata": {"view_history": [{"page_index": 0, "viewing_time": 59483}, {"page_index": 1, "viewing_time": 12737}], "rt": 72221, "trial_id": "mouselab_instructions_2_control", "trial_type": "instructions", "trial_index": 5, "time_elapsed": 491435, "internal_node_id": "0.0-2.0-3.0"}}, {"uniqueid": "w67030782:a68406633", "current_trial": 6, "dateTime": 1693566371135, "trialdata": {"rt": 98237, "response": {"Q0": "The cost for clicking on nodes may vary between nodes.", "Q1": "The better I perform the higher my bonus will be.", "Q2": "No, the amount of cash at each node of the web may be different each time.", "Q3": "To get the highest total score.", "Q4": "Only before moving the spider.", "Q5": "3 seconds"}, "question_order": [0, 1, 2, 3, 4, 5], "correct": {"Q0": "The cost for clicking on nodes may vary between nodes.", "Q1": "The better I perform the higher my bonus will be.", "Q2": "No, the amount of cash at each node of the web may be different each time.", "Q3": "To get the highest total score.", "Q4": "Only before moving the spider.", "Q5": "3 seconds"}, "trial_id": "mouselab_quiz_control", "trial_type": "survey-multi-choice", "trial_index": 6, "time_elapsed": 589701, "internal_node_id": "0.0-2.0-4.0"}}, {"uniqueid": "w67030782:a68406633", "current_trial": 7, "dateTime": 1693566398593, "trialdata": {"rt": 27454, "response": {"Q0": "No"}, "question_order": [0], "trial_id": "repeat_check", "trial_type": "survey-multi-choice", "trial_index": 7, "time_elapsed": 617159, "internal_node_id": "0.0-4.0-0.0"}}, {"uniqueid": "w67030782:a68406633", "current_trial": 8, "dateTime": 1693566414018, "trialdata": {"rt": 15422, "stimulus": "\n<h1> Get ready to start the game! </h1>\n\nThank you for reading the instructions. Get ready start with the 40 rounds of this game.\n<br><br>\nIf you need to take a break, feel free to take one after the end of a round, before continuing to the next one.\n<br><br>\nRemember, the more money the spider gets, the bigger your bonus will be!\n<br><br>\n<div style='text-align: center;'>Press <code>space</code> to begin.</div>\n\n<br><br>\n(If, at any point, the <code>space</code> key does not take you to the next page, click once on the text and try again.)", "response": " ", "trial_id": "mdp_ready", "trial_type": "html-keyboard-response", "trial_index": 8, "time_elapsed": 632584, "internal_node_id": "0.0-6.0-0.0"}}, {"uniqueid": "w67030782:a68406633", "current_trial": 9, "dateTime": 1693566438544, "trialdata": {"revealed_states": [], "clicked_states": ["1", "23"], "num_clicks_accrued": [0, 0, 0, 0, 0, 0, 0, 0, 0, 0, 0, 0, 0], "stateRewards": ["", 2, -3, -5, 5, 11, -9, -33, 6, 67, 6, -30, -1, -2, -6, 13, 55, 13, 72, -14, 75, 21, -66, -2, -4, 6, 15, -1, -35, 60, 2, 51, -73, 12], "withholdReward": false, "trial_id": "mdp_trial_1", "block": "test", "trialIndex": 2, "score": 49.2, "costs": -2.8, "simulationMode": [null, null, null, null, null], "rewards": [-1, -2, -6, -14, 75], "path": ["0", "0", "12", "13", "14", "19", "20"], "rt": [4907, 989, 3408, 699, 748], "actions": ["right", "right", "right", "down", "right"], "actionTimes": [12115, 13599, 17503, 18696, 19945], "queries": {"click": {"state": {"target": ["1", "23"], "time": [8432, 10549]}, "edge": {"target": [], "time": []}}, "mouseover": {"state": {"target": ["1", "23"], "time": [8024, 9274]}, "edge": {"target": [], "time": []}}, "mouseout": {"state": {"target": ["0", "1"], "time": [7790, 9109]}, "edge": {"target": [], "time": []}}}, "displayed_time": "21.21", "trialTime": 24186, "trial_type": "mouselab-mdp", "trial_index": 9, "time_elapsed": 657110, "internal_node_id": "0.0-6.0-1.0-0.0"}}, {"uniqueid": "w67030782:a68406633", "current_trial": 10, "dateTime": 1693566461843, "trialdata": {"revealed_states": [], "clicked_states": ["23"], "num_clicks_accrued": [0, 0, 0, 0, 0, 0, 0, 0, 0, 0, 0, 0, 0], "stateRewards": ["", 2, -1, 3, -12, -83, 6, -33, 9, 28, 24, -50, -2, -1, -2, -5, -87, 37, 82, 12, 80, -5, 10, -2, -3, -6, 9, 22, -1, 16, 9, 77, -62, 58], "withholdReward": false, "trial_id": "mdp_trial_2", "block": "test", "trialIndex": 3, "score": -92.4, "costs": -1.4, "simulationMode": [null, null, null, null, null], "rewards": [2, -1, 3, -12, -83], "path": ["0", "0", "1", "2", "3", "4", "5"], "rt": [4771, 927, 792, 1566, 1020], "actions": ["up", "up", "up", "right", "up"], "actionTimes": [8399, 9828, 11110, 13169, 14688], "queries": {"click": {"state": {"target": ["23"], "time": [5657]}, "edge": {"target": [], "time": []}}, "mouseover": {"state": {"target": ["0", "23", "23", "0", "12"], "time": [4299, 4580, 5330, 6314, 6400]}, "edge": {"target": [], "time": []}}, "mouseout": {"state": {"target": ["23", "0", "0", "23", "23", "0"], "time": [1129, 1212, 4463, 4613, 6266, 6348]}, "edge": {"target": [], "time": []}}}, "displayed_time": "17.64", "trialTime": 22968, "trial_type": "mouselab-mdp", "trial_index": 10, "time_elapsed": 680409, "internal_node_id": "0.0-6.0-1.0-1.0"}}, {"uniqueid": "w67030782:a68406633", "current_trial": 11, "dateTime": 1693566483177, "trialdata": {"revealed_states": [], "clicked_states": ["23", "12"], "num_clicks_accrued": [0, 0, 0, 0, 0, 0, 0, 0, 0, 0, 0, 0, 0], "stateRewards": ["", -1, 3, -5, -2, -13, -9, -34, -7, -81, 32, 35, -2, -2, 1, -14, -32, 81, 7, 4, 82, 56, -8, -1, 3, -8, 6, -24, -24, -53, 2, 38, 61, 54], "withholdReward": false, "trial_id": "mdp_trial_3", "block": "test", "trialIndex": 4, "score": -93.8, "costs": -2.8, "simulationMode": [null, null, null, null, null], "rewards": [-1, 3, -5, -7, -81], "path": ["0", "0", "1", "2", "3", "8", "9"], "rt": [7359, 802, 718, 1402, 546], "actions": ["up", "up", "up", "left", "up"], "actionTimes": [9044, 10337, 11552, 13454, 14500], "queries": {"click": {"state": {"target": ["23", "12"], "time": [3689, 5905]}, "edge": {"target": [], "time": []}}, "mouseover": {"state": {"target": ["23", "0", "12"], "time": [2931, 5032, 5132]}, "edge": {"target": [], "time": []}}, "mouseout": {"state": {"target": ["12", "0", "23", "0"], "time": [679, 2598, 4898, 5082]}, "edge": {"target": [], "time": []}}}, "displayed_time": "15.69", "trialTime": 20991, "trial_type": "mouselab-mdp", "trial_index": 11, "time_elapsed": 701739, "internal_node_id": "0.0-6.0-1.0-2.0"}}, {"uniqueid": "w67030782:a68406633", "current_trial": 12, "dateTime": 1693566502433, "trialdata": {"revealed_states": [], "clicked_states": [], "num_clicks_accrued": [0, 0, 0, 0, 0, 0, 0, 0, 0, 0, 0, 0, 0], "stateRewards": ["", 1, 2, -3, 6, -88, 74, -45, 7, -46, 40, -77, 1, -4, 4, 3, 22, -25, -59, 8, -83, 19, -60, -1, -1, -1, -8, 26, -29, 64, -7, -88, -51, -55], "withholdReward": false, "trial_id": "mdp_trial_4", "block": "test", "trialIndex": 5, "score": 28, "costs": 0, "simulationMode": [null, null, null, null, null], "rewards": [1, -4, 4, 8, 19], "path": ["0", "0", "12", "13", "14", "19", "21"], "rt": [2633, 1344, 1086, 580, 1050], "actions": ["right", "right", "right", "down", "down"], "actionTimes": [4320, 6165, 7741, 8820, 10373], "queries": {"click": {"state": {"target": [], "time": []}, "edge": {"target": [], "time": []}}, "mouseover": {"state": {"target": [], "time": []}, "edge": {"target": [], "time": []}}, "mouseout": {"state": {"target": ["12"], "time": [1002]}, "edge": {"target": [], "time": []}}}, "displayed_time": "15.70", "trialTime": 18889, "trial_type": "mouselab-mdp", "trial_index": 12, "time_elapsed": 720988, "internal_node_id": "0.0-6.0-1.0-3.0"}}, {"uniqueid": "w67030782:a68406633", "current_trial": 13, "dateTime": 1693566522233, "trialdata": {"revealed_states": [], "clicked_states": [], "num_clicks_accrued": [0, 0, 0, 0, 0, 0, 0, 0, 0, 0, 0, 0, 0], "stateRewards": ["", 1, 1, 5, 6, -29, -7, 3, -16, 9, -46, 65, -1, 4, -1, -16, -63, -77, -87, 8, 80, -50, 43, -1, -1, -5, 5, -38, -71, -62, 9, 81, -50, -52], "withholdReward": false, "trial_id": "mdp_trial_5", "block": "test", "trialIndex": 6, "score": -64, "costs": 0, "simulationMode": [null, null, null, null, null], "rewards": [-1, -1, -5, 5, -62], "path": ["0", "0", "23", "24", "25", "26", "29"], "rt": [1723, 913, 800, 1108, 1207], "actions": ["left", "left", "left", "up", "left"], "actionTimes": [4123, 5529, 6834, 8443, 10141], "queries": {"click": {"state": {"target": [], "time": []}, "edge": {"target": [], "time": []}}, "mouseover": {"state": {"target": [], "time": []}, "edge": {"target": [], "time": []}}, "mouseout": {"state": {"target": [], "time": []}, "edge": {"target": [], "time": []}}}, "displayed_time": "16.41", "trialTime": 19412, "trial_type": "mouselab-mdp", "trial_index": 13, "time_elapsed": 740789, "internal_node_id": "0.0-6.0-1.0-4.0"}}, {"uniqueid": "w67030782:a68406633", "current_trial": 14, "dateTime": 1693566541345, "trialdata": {"revealed_states": [], "clicked_states": [], "num_clicks_accrued": [0, 0, 0, 0, 0, 0, 0, 0, 0, 0, 0, 0, 0], "stateRewards": ["", -1, -4, -6, -15, 21, -67, -63, 9, 51, 69, -14, -1, 3, 8, -8, 39, 72, 63, 15, 19, 47, 15, 1, 4, 5, 16, -18, 34, 35, -14, -80, 40, 1], "withholdReward": false, "trial_id": "mdp_trial_6", "block": "test", "trialIndex": 7, "score": -16, "costs": 0, "simulationMode": [null, null, null, null, null], "rewards": [-1, -4, -6, 9, -14], "path": ["0", "0", "1", "2", "3", "8", "11"], "rt": [2445, 556, 339, 1340, 551], "actions": ["up", "up", "up", "left", "left"], "actionTimes": [4540, 5598, 6430, 8264, 9310], "queries": {"click": {"state": {"target": [], "time": []}, "edge": {"target": [], "time": []}}, "mouseover": {"state": {"target": [], "time": []}, "edge": {"target": [], "time": []}}, "mouseout": {"state": {"target": [], "time": []}, "edge": {"target": [], "time": []}}}, "displayed_time": "16.10", "trialTime": 18727, "trial_type": "mouselab-mdp", "trial_index": 14, "time_elapsed": 759903, "internal_node_id": "0.0-6.0-1.0-5.0"}}, {"uniqueid": "w67030782:a68406633", "current_trial": 15, "dateTime": 1693566559878, "trialdata": {"revealed_states": [], "clicked_states": ["1"], "num_clicks_accrued": [0, 0, 0, 0, 0, 0, 0, 0, 0, 0, 0, 0, 0], "stateRewards": ["", -2, -1, -4, -15, -14, -67, 32, -3, -59, 63, 31, 2, -1, -7, -15, 71, -66, -27, -3, -54, -39, 72, 2, 1, 1, -13, 77, -40, 35, -9, 35, 75, 57], "withholdReward": false, "trial_id": "mdp_trial_7", "block": "test", "trialIndex": 8, "score": 68.6, "costs": -1.4, "simulationMode": [null, null, null, null, null], "rewards": [2, 1, 1, -9, 75], "path": ["0", "0", "23", "24", "25", "30", "32"], "rt": [6356, 601, 467, 277, 263], "actions": ["left", "left", "left", "down", "down"], "actionTimes": [7903, 9006, 9973, 10750, 11503], "queries": {"click": {"state": {"target": ["1"], "time": [3610]}, "edge": {"target": [], "time": []}}, "mouseover": {"state": {"target": ["1", "23"], "time": [2802, 6372]}, "edge": {"target": [], "time": []}}, "mouseout": {"state": {"target": ["0", "1"], "time": [2654, 4121]}, "edge": {"target": [], "time": []}}}, "displayed_time": "15.55", "trialTime": 18130, "trial_type": "mouselab-mdp", "trial_index": 15, "time_elapsed": 778431, "internal_node_id": "0.0-6.0-1.0-6.0"}}, {"uniqueid": "w67030782:a68406633", "current_trial": 16, "dateTime": 1693566580767, "trialdata": {"revealed_states": [], "clicked_states": [], "num_clicks_accrued": [0, 0, 0, 0, 0, 0, 0, 0, 0, 0, 0, 0, 0], "stateRewards": ["", -1, 3, 1, -11, -22, -36, 19, -5, -70, -52, 50, -2, -4, 4, -2, -41, -83, 29, -2, 22, 10, -6, -2, 3, -2, 14, 54, 44, 77, -9, -65, -37, -40], "withholdReward": false, "trial_id": "mdp_trial_8", "block": "test", "trialIndex": 9, "score": -45, "costs": 0, "simulationMode": [null, null, null, null, null], "rewards": [-2, -4, 4, -2, -41], "path": ["0", "0", "12", "13", "14", "15", "16"], "rt": [2827, 430, 533, 1074, 934], "actions": ["right", "right", "right", "up", "up"], "actionTimes": [5026, 5948, 6983, 8558, 9987], "queries": {"click": {"state": {"target": [], "time": []}, "edge": {"target": [], "time": []}}, "mouseover": {"state": {"target": [], "time": []}, "edge": {"target": [], "time": []}}, "mouseout": {"state": {"target": ["23"], "time": [1429]}, "edge": {"target": [], "time": []}}}, "displayed_time": "16.21", "trialTime": 20494, "trial_type": "mouselab-mdp", "trial_index": 16, "time_elapsed": 799323, "internal_node_id": "0.0-6.0-1.0-7.0"}}, {"uniqueid": "w67030782:a68406633", "current_trial": 17, "dateTime": 1693566601649, "trialdata": {"revealed_states": [], "clicked_states": [], "num_clicks_accrued": [0, 0, 0, 0, 0, 0, 0, 0, 0, 0, 0, 0, 0], "stateRewards": ["", 1, 1, -2, 7, -31, -6, 76, 1, -36, -16, -53, 2, 1, 7, 13, -47, -10, 47, -7, 72, 46, -56, -2, -2, -2, 11, -80, 44, 38, 16, 67, 85, -78], "withholdReward": false, "trial_id": "mdp_trial_9", "block": "test", "trialIndex": 10, "score": 77, "costs": 0, "simulationMode": [null, null, null, null, null], "rewards": [-2, -2, -2, 16, 67], "path": ["0", "0", "23", "24", "25", "30", "31"], "rt": [2379, 627, 510, 860, 1007], "actions": ["left", "left", "left", "down", "right"], "actionTimes": [6635, 7760, 8761, 10111, 11607], "queries": {"click": {"state": {"target": [], "time": []}, "edge": {"target": [], "time": []}}, "mouseover": {"state": {"target": [], "time": []}, "edge": {"target": [], "time": []}}, "mouseout": {"state": {"target": [], "time": []}, "edge": {"target": [], "time": []}}}, "displayed_time": "18.27", "trialTime": 20495, "trial_type": "mouselab-mdp", "trial_index": 17, "time_elapsed": 820215, "internal_node_id": "0.0-6.0-1.0-8.0"}}, {"uniqueid": "w67030782:a68406633", "current_trial": 18, "dateTime": 1693566621935, "trialdata": {"revealed_states": [], "clicked_states": [], "num_clicks_accrued": [0, 0, 0, 0, 0, 0, 0, 0, 0, 0, 0, 0, 0], "stateRewards": ["", -1, 1, -2, 5, 73, 15, 61, 8, 7, 38, 76, 2, 2, -4, -6, -6, -26, 43, -5, -45, -85, -35, -2, 1, -4, 15, -10, 69, 72, -11, 84, -49, -38], "withholdReward": false, "trial_id": "mdp_trial_10", "block": "test", "trialIndex": 11, "score": 44, "costs": 0, "simulationMode": [null, null, null, null, null], "rewards": [-1, 1, -2, 8, 38], "path": ["0", "0", "1", "2", "3", "8", "10"], "rt": [1685, 983, 950, 1032, 586], "actions": ["up", "up", "up", "left", "down"], "actionTimes": [5242, 6716, 8167, 9698, 10788], "queries": {"click": {"state": {"target": [], "time": []}, "edge": {"target": [], "time": []}}, "mouseover": {"state": {"target": [], "time": []}, "edge": {"target": [], "time": []}}, "mouseout": {"state": {"target": [], "time": []}, "edge": {"target": [], "time": []}}}, "displayed_time": "17.57", "trialTime": 19868, "trial_type": "mouselab-mdp", "trial_index": 18, "time_elapsed": 840477, "internal_node_id": "0.0-6.0-1.0-9.0"}}, {"uniqueid": "w67030782:a68406633", "current_trial": 19, "dateTime": 1693566645735, "trialdata": {"revealed_states": [], "clicked_states": [], "num_clicks_accrued": [0, 0, 0, 0, 0, 0, 0, 0, 0, 0, 0, 0, 0], "stateRewards": ["", -2, 1, -8, 12, -65, -79, 16, 7, -80, -17, -45, -2, 2, -5, -2, -85, 23, -4, -7, 48, 27, -76, 2, 3, 5, 2, 43, 71, -13, 7, -49, 59, -31], "withholdReward": false, "trial_id": "mdp_trial_11", "block": "test", "trialIndex": 12, "score": -11, "costs": 0, "simulationMode": [null, null, null, null, null], "rewards": [-2, 2, -5, -2, -4], "path": ["0", "0", "12", "13", "14", "15", "18"], "rt": [2093, 1622, 562, 665, 904], "actions": ["right", "right", "right", "up", "left"], "actionTimes": [6014, 8141, 9198, 10368, 11775], "queries": {"click": {"state": {"target": [], "time": []}, "edge": {"target": [], "time": []}}, "mouseover": {"state": {"target": ["0"], "time": [4503]}, "edge": {"target": [], "time": []}}, "mouseout": {"state": {"target": ["0"], "time": [4267]}, "edge": {"target": [], "time": []}}}, "displayed_time": "17.93", "trialTime": 23329, "trial_type": "mouselab-mdp", "trial_index": 19, "time_elapsed": 864225, "internal_node_id": "0.0-6.0-1.0-10.0"}}, {"uniqueid": "w67030782:a68406633", "current_trial": 20, "dateTime": 1693566663891, "trialdata": {"revealed_states": [], "clicked_states": ["23"], "num_clicks_accrued": [0, 0, 0, 0, 0, 0, 0, 0, 0, 0, 0, 0, 0], "stateRewards": ["", -2, -4, -2, 10, -8, -15, -47, 7, -84, 53, 5, -1, 2, -7, 3, 83, 31, 47, -1, 30, -8, 69, 2, -4, -1, 8, -7, 12, -8, -8, -13, 30, -84], "withholdReward": false, "trial_id": "mdp_trial_12", "block": "test", "trialIndex": 13, "score": 15.6, "costs": -1.4, "simulationMode": [null, null, null, null, null], "rewards": [2, -4, -1, 8, 12], "path": ["0", "0", "23", "24", "25", "26", "28"], "rt": [4579, 698, 510, 297, 318], "actions": ["left", "left", "left", "up", "right"], "actionTimes": [6042, 7245, 8258, 9045, 9866], "queries": {"click": {"state": {"target": ["23"], "time": [2586]}, "edge": {"target": [], "time": []}}, "mouseover": {"state": {"target": ["23"], "time": [2180]}, "edge": {"target": [], "time": []}}, "mouseout": {"state": {"target": ["0", "23"], "time": [2112, 3246]}, "edge": {"target": [], "time": []}}}, "displayed_time": "15.47", "trialTime": 17730, "trial_type": "mouselab-mdp", "trial_index": 20, "time_elapsed": 882439, "internal_node_id": "0.0-6.0-1.0-11.0"}}, {"uniqueid": "w67030782:a68406633", "current_trial": 21, "dateTime": 1693566681869, "trialdata": {"revealed_states": [], "clicked_states": ["12"], "num_clicks_accrued": [0, 0, 0, 0, 0, 0, 0, 0, 0, 0, 0, 0, 0], "stateRewards": ["", 2, -1, -1, -9, -81, -30, 55, -6, 78, 25, 62, 2, 4, -1, 9, -85, 1, -19, 1, -60, 12, -34, 1, 4, -1, -13, -24, -16, -83, -8, 16, 43, 9], "withholdReward": false, "trial_id": "mdp_trial_13", "block": "test", "trialIndex": 14, "score": -29.4, "costs": -1.4, "simulationMode": [null, null, null, null, null], "rewards": [2, 4, -1, 1, -34], "path": ["0", "0", "12", "13", "14", "19", "22"], "rt": [5337, 800, 855, 923, 271], "actions": ["right", "right", "right", "down", "left"], "actionTimes": [6888, 8193, 9565, 10983, 11748], "queries": {"click": {"state": {"target": ["12"], "time": [3649]}, "edge": {"target": [], "time": []}}, "mouseover": {"state": {"target": ["1", "1", "12"], "time": [2822, 3140, 3309]}, "edge": {"target": [], "time": []}}, "mouseout": {"state": {"target": ["0", "1", "1", "12"], "time": [2739, 2856, 3192, 3991]}, "edge": {"target": [], "time": []}}}, "displayed_time": "15.55", "trialTime": 17564, "trial_type": "mouselab-mdp", "trial_index": 21, "time_elapsed": 900417, "internal_node_id": "0.0-6.0-1.0-12.0"}}, {"uniqueid": "w67030782:a68406633", "current_trial": 22, "dateTime": 1693566703436, "trialdata": {"revealed_states": [], "clicked_states": [], "num_clicks_accrued": [0, 0, 0, 0, 0, 0, 0, 0, 0, 0, 0, 0, 0], "stateRewards": ["", -2, 4, 3, 5, -61, 4, 30, 1, -47, 83, 10, 1, 4, 7, -14, 19, -74, -83, 6, -2, -2, -65, -1, -2, 4, -11, 12, -1, -68, 11, -38, -28, 66], "withholdReward": false, "trial_id": "mdp_trial_14", "block": "test", "trialIndex": 15, "score": 40, "costs": 0, "simulationMode": [null, null, null, null, null], "rewards": [-2, 4, 3, 5, 30], "path": ["0", "0", "1", "2", "3", "4", "7"], "rt": [1741, 462, 441, 1273, 439], "actions": ["up", "up", "up", "right", "down"], "actionTimes": [6513, 7481, 8426, 10192, 11126], "queries": {"click": {"state": {"target": [], "time": []}, "edge": {"target": [], "time": []}}, "mouseover": {"state": {"target": ["0"], "time": [4816]}, "edge": {"target": [], "time": []}}, "mouseout": {"state": {"target": ["0", "0"], "time": [4164, 4917]}, "edge": {"target": [], "time": []}}}, "displayed_time": "18.78", "trialTime": 21139, "trial_type": "mouselab-mdp", "trial_index": 22, "time_elapsed": 921972, "internal_node_id": "0.0-6.0-1.0-13.0"}}, {"uniqueid": "w67030782:a68406633", "current_trial": 23, "dateTime": 1693566725814, "trialdata": {"revealed_states": [], "clicked_states": ["1"], "num_clicks_accrued": [0, 0, 0, 0, 0, 0, 0, 0, 0, 0, 0, 0, 0], "stateRewards": ["", -2, 3, -1, -9, 44, 48, -37, -3, 71, -39, 87, -1, 3, -4, 4, -21, 59, -15, -8, -1, 28, -38, 2, 4, 4, 8, -85, -72, -63, 14, 58, 63, -46], "withholdReward": false, "trial_id": "mdp_trial_15", "block": "test", "trialIndex": 16, "score": -55.4, "costs": -1.4, "simulationMode": [null, null, null, null, null], "rewards": [2, 4, 4, 8, -72], "path": ["0", "0", "23", "24", "25", "26", "28"], "rt": [6732, 562, 420, 738, 337], "actions": ["left", "left", "left", "up", "right"], "actionTimes": [9276, 10333, 11258, 12493, 13326], "queries": {"click": {"state": {"target": ["1"], "time": [4825]}, "edge": {"target": [], "time": []}}, "mouseover": {"state": {"target": ["1"], "time": [4250]}, "edge": {"target": [], "time": []}}, "mouseout": {"state": {"target": ["0", "1"], "time": [1547, 5218]}, "edge": {"target": [], "time": []}}}, "displayed_time": "16.55", "trialTime": 21932, "trial_type": "mouselab-mdp", "trial_index": 23, "time_elapsed": 944338, "internal_node_id": "0.0-6.0-1.0-14.0"}}, {"uniqueid": "w67030782:a68406633", "current_trial": 24, "dateTime": 1693566745858, "trialdata": {"revealed_states": [], "clicked_states": [], "num_clicks_accrued": [0, 0, 0, 0, 0, 0, 0, 0, 0, 0, 0, 0, 0], "stateRewards": ["", 1, 1, 4, 11, 83, -66, 18, -16, -23, 5, 25, 1, -3, 1, -12, 18, 24, -86, -11, -64, 36, 40, 2, 1, -6, 13, 55, 29, 72, -2, 81, -72, -41], "withholdReward": false, "trial_id": "mdp_trial_16", "block": "test", "trialIndex": 17, "score": 11, "costs": 0, "simulationMode": [null, null, null, null, null], "rewards": [1, -3, 1, -12, 24], "path": ["0", "0", "12", "13", "14", "15", "17"], "rt": [1954, 1452, 1359, 599, 1119], "actions": ["right", "right", "right", "up", "right"], "actionTimes": [3583, 5540, 7396, 8488, 10108], "queries": {"click": {"state": {"target": [], "time": []}, "edge": {"target": [], "time": []}}, "mouseover": {"state": {"target": [], "time": []}, "edge": {"target": [], "time": []}}, "mouseout": {"state": {"target": ["0"], "time": [1405]}, "edge": {"target": [], "time": []}}}, "displayed_time": "15.64", "trialTime": 19603, "trial_type": "mouselab-mdp", "trial_index": 24, "time_elapsed": 964397, "internal_node_id": "0.0-6.0-1.0-15.0"}}, {"uniqueid": "w67030782:a68406633", "current_trial": 25, "dateTime": 1693566766436, "trialdata": {"revealed_states": [], "clicked_states": [], "num_clicks_accrued": [0, 0, 0, 0, 0, 0, 0, 0, 0, 0, 0, 0, 0], "stateRewards": ["", 1, 1, 6, -14, -40, 37, 16, -13, 33, -68, 49, 2, 4, 3, 6, 55, 27, 32, 10, -65, 20, -87, 2, 1, -6, -5, -42, 12, 29, -8, 16, 76, -33], "withholdReward": false, "trial_id": "mdp_trial_17", "block": "test", "trialIndex": 18, "score": 21, "costs": 0, "simulationMode": [null, null, null, null, null], "rewards": [2, 1, -6, -5, 29], "path": ["0", "0", "23", "24", "25", "26", "29"], "rt": [1797, 723, 1318, 907, 3049], "actions": ["left", "left", "left", "up", "left"], "actionTimes": [5415, 6630, 8441, 9847, 13391], "queries": {"click": {"state": {"target": [], "time": []}, "edge": {"target": [], "time": []}}, "mouseover": {"state": {"target": [], "time": []}, "edge": {"target": [], "time": []}}, "mouseout": {"state": {"target": ["0"], "time": [3392]}, "edge": {"target": [], "time": []}}}, "displayed_time": "17.63", "trialTime": 20130, "trial_type": "mouselab-mdp", "trial_index": 25, "time_elapsed": 984962, "internal_node_id": "0.0-6.0-1.0-16.0"}}, {"uniqueid": "w67030782:a68406633", "current_trial": 26, "dateTime": 1693566785314, "trialdata": {"revealed_states": [], "clicked_states": [], "num_clicks_accrued": [0, 0, 0, 0, 0, 0, 0, 0, 0, 0, 0, 0, 0], "stateRewards": ["", 1, 2, 8, -2, 23, -69, -18, -16, 54, -21, 71, -1, -4, 7, 11, 43, -6, 88, 6, -55, 72, 43, 1, -3, -2, -1, 68, -31, -54, 4, -8, 25, -2], "withholdReward": false, "trial_id": "mdp_trial_18", "block": "test", "trialIndex": 19, "score": -2, "costs": 0, "simulationMode": [null, null, null, null, null], "rewards": [1, -3, -2, 4, -2], "path": ["0", "0", "23", "24", "25", "30", "33"], "rt": [4366, 700, 520, 518, 549], "actions": ["left", "left", "left", "down", "left"], "actionTimes": [5969, 7162, 8181, 9198, 10244], "queries": {"click": {"state": {"target": [], "time": []}, "edge": {"target": [], "time": []}}, "mouseover": {"state": {"target": [], "time": []}, "edge": {"target": [], "time": []}}, "mouseout": {"state": {"target": ["0"], "time": [1379]}, "edge": {"target": [], "time": []}}}, "displayed_time": "15.62", "trialTime": 18457, "trial_type": "mouselab-mdp", "trial_index": 26, "time_elapsed": 1003873, "internal_node_id": "0.0-6.0-1.0-17.0"}}, {"uniqueid": "w67030782:a68406633", "current_trial": 27, "dateTime": 1693566804070, "trialdata": {"revealed_states": [], "clicked_states": ["1"], "num_clicks_accrued": [0, 0, 0, 0, 0, 0, 0, 0, 0, 0, 0, 0, 0], "stateRewards": ["", -2, 1, -3, -16, -39, -52, 30, -7, -41, -59, 11, 2, 1, 8, 2, -11, -26, -42, -13, 87, -59, -48, -1, -1, -1, 16, -79, 31, 50, -1, -84, 34, -82], "withholdReward": false, "trial_id": "mdp_trial_19", "block": "test", "trialIndex": 20, "score": -62.4, "costs": -1.4, "simulationMode": [null, null, null, null, null], "rewards": [2, 1, 8, -13, -59], "path": ["0", "0", "12", "13", "14", "19", "21"], "rt": [6793, 514, 534, 963, 407], "actions": ["right", "right", "right", "down", "down"], "actionTimes": [8379, 9391, 10426, 11888, 12800], "queries": {"click": {"state": {"target": ["1"], "time": [4365]}, "edge": {"target": [], "time": []}}, "mouseover": {"state": {"target": ["1"], "time": [3923]}, "edge": {"target": [], "time": []}}, "mouseout": {"state": {"target": ["0", "1"], "time": [1358, 4889]}, "edge": {"target": [], "time": []}}}, "displayed_time": "15.59", "trialTime": 18312, "trial_type": "mouselab-mdp", "trial_index": 27, "time_elapsed": 1022605, "internal_node_id": "0.0-6.0-1.0-18.0"}}, {"uniqueid": "w67030782:a68406633", "current_trial": 28, "dateTime": 1693566823237, "trialdata": {"revealed_states": [], "clicked_states": [], "num_clicks_accrued": [0, 0, 0, 0, 0, 0, 0, 0, 0, 0, 0, 0, 0], "stateRewards": ["", 2, -2, -8, 9, -20, 55, -58, 14, 42, 2, 36, 1, -3, -5, 5, -58, 57, 60, 16, 57, 30, -70, -2, 1, 3, 10, 59, 23, 77, -13, -26, 88, -72], "withholdReward": false, "trial_id": "mdp_trial_20", "block": "test", "trialIndex": 21, "score": 39, "costs": 0, "simulationMode": [null, null, null, null, null], "rewards": [1, -3, -5, 16, 30], "path": ["0", "0", "12", "13", "14", "19", "21"], "rt": [3240, 739, 627, 385, 243], "actions": ["right", "right", "right", "down", "down"], "actionTimes": [5598, 6835, 7960, 8849, 9592], "queries": {"click": {"state": {"target": [], "time": []}, "edge": {"target": [], "time": []}}, "mouseover": {"state": {"target": ["22"], "time": [2843]}, "edge": {"target": [], "time": []}}, "mouseout": {"state": {"target": ["0", "22"], "time": [2745, 2864]}, "edge": {"target": [], "time": []}}}, "displayed_time": "16.37", "trialTime": 18715, "trial_type": "mouselab-mdp", "trial_index": 28, "time_elapsed": 1041775, "internal_node_id": "0.0-6.0-1.0-19.0"}}, {"uniqueid": "w67030782:a68406633", "current_trial": 29, "dateTime": 1693566842715, "trialdata": {"revealed_states": [], "clicked_states": [], "num_clicks_accrued": [0, 0, 0, 0, 0, 0, 0, 0, 0, 0, 0, 0, 0], "stateRewards": ["", -2, 1, 6, -2, -10, -78, -69, 14, -15, 7, -1, 1, -1, -2, 13, 77, 32, 87, 5, -74, 30, -26, 1, 3, 4, 12, 39, 54, -43, 2, 10, 23, 13], "withholdReward": false, "trial_id": "mdp_trial_21", "block": "test", "trialIndex": 22, "score": 4, "costs": 0, "simulationMode": [null, null, null, null, null], "rewards": [-2, 1, 6, 14, -15], "path": ["0", "0", "1", "2", "3", "8", "9"], "rt": [2302, 264, 296, 1317, 197], "actions": ["up", "up", "up", "left", "up"], "actionTimes": [4674, 5439, 6238, 8061, 8758], "queries": {"click": {"state": {"target": [], "time": []}, "edge": {"target": [], "time": []}}, "mouseover": {"state": {"target": [], "time": []}, "edge": {"target": [], "time": []}}, "mouseout": {"state": {"target": [], "time": []}, "edge": {"target": [], "time": []}}}, "displayed_time": "16.38", "trialTime": 19030, "trial_type": "mouselab-mdp", "trial_index": 29, "time_elapsed": 1061249, "internal_node_id": "0.0-6.0-1.0-20.0"}}, {"uniqueid": "w67030782:a68406633", "current_trial": 30, "dateTime": 1693566862615, "trialdata": {"revealed_states": [], "clicked_states": ["23"], "num_clicks_accrued": [0, 0, 0, 0, 0, 0, 0, 0, 0, 0, 0, 0, 0], "stateRewards": ["", 1, 2, -8, 9, 18, -83, -11, 6, -64, -48, 17, -2, -2, -5, -3, -24, -3, -86, -2, 48, -41, -22, -2, 4, 7, 8, 81, 13, -48, 10, 61, 19, 57], "withholdReward": false, "trial_id": "mdp_trial_22", "block": "test", "trialIndex": 23, "score": 20.6, "costs": -1.4, "simulationMode": [null, null, null, null, null], "rewards": [1, 2, -8, 9, 18], "path": ["0", "0", "1", "2", "3", "4", "5"], "rt": [6204, 642, 137, 101, 726], "actions": ["up", "up", "up", "right", "up"], "actionTimes": [9728, 10876, 11505, 12102, 13328], "queries": {"click": {"state": {"target": ["23"], "time": [5339]}, "edge": {"target": [], "time": []}}, "mouseover": {"state": {"target": ["23"], "time": [4915]}, "edge": {"target": [], "time": []}}, "mouseout": {"state": {"target": ["0", "0", "23"], "time": [2180, 4881, 5698]}, "edge": {"target": [], "time": []}}}, "displayed_time": "17.53", "trialTime": 19459, "trial_type": "mouselab-mdp", "trial_index": 30, "time_elapsed": 1081162, "internal_node_id": "0.0-6.0-1.0-21.0"}}, {"uniqueid": "w67030782:a68406633", "current_trial": 31, "dateTime": 1693566886360, "trialdata": {"revealed_states": [], "clicked_states": [], "num_clicks_accrued": [0, 0, 0, 0, 0, 0, 0, 0, 0, 0, 0, 0, 0], "stateRewards": ["", -2, 2, 8, -6, -25, 3, 87, 2, -62, -2, 74, -2, -1, 2, -1, 79, 49, -37, -14, 5, 67, -9, -1, 2, -2, 5, 15, 38, 32, -14, -38, -38, 30], "withholdReward": false, "trial_id": "mdp_trial_23", "block": "test", "trialIndex": 24, "score": -39, "costs": 0, "simulationMode": [null, null, null, null, null], "rewards": [-2, -1, 2, -1, -37], "path": ["0", "0", "12", "13", "14", "15", "18"], "rt": [7667, 915, 409, 655, 292], "actions": ["right", "right", "right", "up", "left"], "actionTimes": [10863, 12280, 13191, 14339, 15126], "queries": {"click": {"state": {"target": [], "time": []}, "edge": {"target": [], "time": []}}, "mouseover": {"state": {"target": ["12", "0"], "time": [6195, 9496]}, "edge": {"target": [], "time": []}}, "mouseout": {"state": {"target": ["0", "12"], "time": [5980, 6862]}, "edge": {"target": [], "time": []}}}, "displayed_time": "17.20", "trialTime": 23328, "trial_type": "mouselab-mdp", "trial_index": 31, "time_elapsed": 1104923, "internal_node_id": "0.0-6.0-1.0-22.0"}}, {"uniqueid": "w67030782:a68406633", "current_trial": 32, "dateTime": 1693566904796, "trialdata": {"revealed_states": [], "clicked_states": [], "num_clicks_accrued": [0, 0, 0, 0, 0, 0, 0, 0, 0, 0, 0, 0, 0], "stateRewards": ["", -1, 3, 1, -7, 56, 76, 57, 3, 11, -9, 14, 1, -2, 2, 8, -77, -3, 79, -5, 88, 24, -66, -2, -1, 7, -7, -30, 14, -76, 11, -36, 28, -6], "withholdReward": false, "trial_id": "mdp_trial_24", "block": "test", "trialIndex": 25, "score": 53, "costs": 0, "simulationMode": [null, null, null, null, null], "rewards": [-1, 3, 1, -7, 57], "path": ["0", "0", "1", "2", "3", "4", "7"], "rt": [1346, 439, 225, 139, 449], "actions": ["up", "up", "up", "right", "down"], "actionTimes": [3055, 4000, 4720, 5350, 6295], "queries": {"click": {"state": {"target": [], "time": []}, "edge": {"target": [], "time": []}}, "mouseover": {"state": {"target": [], "time": []}, "edge": {"target": [], "time": []}}, "mouseout": {"state": {"target": [], "time": []}, "edge": {"target": [], "time": []}}}, "displayed_time": "15.71", "trialTime": 18007, "trial_type": "mouselab-mdp", "trial_index": 32, "time_elapsed": 1123362, "internal_node_id": "0.0-6.0-1.0-23.0"}}, {"uniqueid": "w67030782:a68406633", "current_trial": 33, "dateTime": 1693566923905, "trialdata": {"revealed_states": [], "clicked_states": [], "num_clicks_accrued": [0, 0, 0, 0, 0, 0, 0, 0, 0, 0, 0, 0, 0], "stateRewards": ["", -2, -3, 4, 1, 33, -53, 15, 9, -12, 61, -6, -2, 4, 6, -11, 47, -43, -7, -11, 46, 23, -28, -1, -1, 3, -10, 11, 76, -76, 10, 18, -38, 87], "withholdReward": false, "trial_id": "mdp_trial_25", "block": "test", "trialIndex": 26, "score": -85, "costs": 0, "simulationMode": [null, null, null, null, null], "rewards": [-1, -1, 3, -10, -76], "path": ["0", "0", "23", "24", "25", "26", "29"], "rt": [784, 758, 486, 323, 115], "actions": ["left", "left", "left", "up", "left"], "actionTimes": [2875, 4136, 5114, 5935, 6543], "queries": {"click": {"state": {"target": [], "time": []}, "edge": {"target": [], "time": []}}, "mouseover": {"state": {"target": [], "time": []}, "edge": {"target": [], "time": []}}, "mouseout": {"state": {"target": [], "time": []}, "edge": {"target": [], "time": []}}}, "displayed_time": "16.10", "trialTime": 18671, "trial_type": "mouselab-mdp", "trial_index": 33, "time_elapsed": 1142464, "internal_node_id": "0.0-6.0-1.0-24.0"}}, {"uniqueid": "w67030782:a68406633", "current_trial": 34, "dateTime": 1693566942327, "trialdata": {"revealed_states": [], "clicked_states": ["12"], "num_clicks_accrued": [0, 0, 0, 0, 0, 0, 0, 0, 0, 0, 0, 0, 0], "stateRewards": ["", -1, 2, -6, 6, -82, -19, -39, -16, -83, 11, -33, -2, -2, 4, -6, -82, -1, -19, -6, -10, -67, -41, -2, 1, -7, 16, -23, -78, -52, 14, 31, -71, 74], "withholdReward": false, "trial_id": "mdp_trial_26", "block": "test", "trialIndex": 27, "score": -45.4, "costs": -1.4, "simulationMode": [null, null, null, null, null], "rewards": [-2, 1, -7, 16, -52], "path": ["0", "0", "23", "24", "25", "26", "29"], "rt": [5000, 410, 386, 279, 194], "actions": ["left", "left", "left", "up", "left"], "actionTimes": [6914, 7825, 8703, 9479, 10177], "queries": {"click": {"state": {"target": ["12"], "time": [3203]}, "edge": {"target": [], "time": []}}, "mouseover": {"state": {"target": ["12"], "time": [2994]}, "edge": {"target": [], "time": []}}, "mouseout": {"state": {"target": ["0"], "time": [2963]}, "edge": {"target": [], "time": []}}}, "displayed_time": "15.92", "trialTime": 17962, "trial_type": "mouselab-mdp", "trial_index": 34, "time_elapsed": 1160859, "internal_node_id": "0.0-6.0-1.0-25.0"}}, {"uniqueid": "w67030782:a68406633", "current_trial": 35, "dateTime": 1693566961405, "trialdata": {"revealed_states": [], "clicked_states": [], "num_clicks_accrued": [0, 0, 0, 0, 0, 0, 0, 0, 0, 0, 0, 0, 0], "stateRewards": ["", -2, 4, -7, -3, -76, 39, -28, 10, 14, 12, 60, 2, -3, 6, -10, 88, -34, -41, -3, 72, -13, -56, 1, 3, 2, 8, -51, 23, -57, 1, 14, -46, -16], "withholdReward": false, "trial_id": "mdp_trial_27", "block": "test", "trialIndex": 28, "score": 83, "costs": 0, "simulationMode": [null, null, null, null, null], "rewards": [2, -3, 6, -10, 88], "path": ["0", "0", "12", "13", "14", "15", "16"], "rt": [1608, 658, 523, 203, 414], "actions": ["right", "right", "right", "up", "up"], "actionTimes": [3941, 5099, 6112, 6809, 7720], "queries": {"click": {"state": {"target": [], "time": []}, "edge": {"target": [], "time": []}}, "mouseover": {"state": {"target": ["22"], "time": [2522]}, "edge": {"target": [], "time": []}}, "mouseout": {"state": {"target": ["12", "0"], "time": [1387, 2438]}, "edge": {"target": [], "time": []}}}, "displayed_time": "16.34", "trialTime": 18634, "trial_type": "mouselab-mdp", "trial_index": 35, "time_elapsed": 1179961, "internal_node_id": "0.0-6.0-1.0-26.0"}}, {"uniqueid": "w67030782:a68406633", "current_trial": 36, "dateTime": 1693566980595, "trialdata": {"revealed_states": [], "clicked_states": [], "num_clicks_accrued": [0, 0, 0, 0, 0, 0, 0, 0, 0, 0, 0, 0, 0], "stateRewards": ["", 1, 4, -4, 14, 35, 51, 19, -13, 54, 78, -74, -2, -1, -3, 13, -11, -42, -73, -15, -24, -3, -69, 2, -1, 5, 16, -27, 73, 58, 9, -60, 5, -60], "withholdReward": false, "trial_id": "mdp_trial_28", "block": "test", "trialIndex": 29, "score": 20, "costs": 0, "simulationMode": [null, null, null, null, null], "rewards": [2, -1, 5, 9, 5], "path": ["0", "0", "23", "24", "25", "30", "32"], "rt": [1576, 263, 488, 190, 249], "actions": ["left", "left", "left", "down", "down"], "actionTimes": [4037, 4791, 5781, 6467, 7210], "queries": {"click": {"state": {"target": [], "time": []}, "edge": {"target": [], "time": []}}, "mouseover": {"state": {"target": [], "time": []}, "edge": {"target": [], "time": []}}, "mouseout": {"state": {"target": ["22", "22", "0"], "time": [1690, 1707, 1792]}, "edge": {"target": [], "time": []}}}, "displayed_time": "16.47", "trialTime": 18741, "trial_type": "mouselab-mdp", "trial_index": 36, "time_elapsed": 1199154, "internal_node_id": "0.0-6.0-1.0-27.0"}}, {"uniqueid": "w67030782:a68406633", "current_trial": 37, "dateTime": 1693566998917, "trialdata": {"revealed_states": [], "clicked_states": [], "num_clicks_accrued": [0, 0, 0, 0, 0, 0, 0, 0, 0, 0, 0, 0, 0], "stateRewards": ["", 2, -4, -4, 13, -80, 62, 13, -11, 57, -13, -44, 1, 4, 3, -4, -29, -88, 15, 16, -58, 68, -45, -1, -3, -1, -9, -44, -86, -19, -7, -36, 59, 66], "withholdReward": false, "trial_id": "mdp_trial_29", "block": "test", "trialIndex": 30, "score": -34, "costs": 0, "simulationMode": [null, null, null, null, null], "rewards": [1, 4, 3, 16, -58], "path": ["0", "0", "12", "13", "14", "19", "20"], "rt": [2537, 583, 423, 519, 367], "actions": ["right", "right", "right", "down", "right"], "actionTimes": [4165, 5245, 6167, 7180, 8046], "queries": {"click": {"state": {"target": [], "time": []}, "edge": {"target": [], "time": []}}, "mouseover": {"state": {"target": [], "time": []}, "edge": {"target": [], "time": []}}, "mouseout": {"state": {"target": ["0"], "time": [1395]}, "edge": {"target": [], "time": []}}}, "displayed_time": "15.63", "trialTime": 17845, "trial_type": "mouselab-mdp", "trial_index": 37, "time_elapsed": 1217447, "internal_node_id": "0.0-6.0-1.0-28.0"}}, {"uniqueid": "w67030782:a68406633", "current_trial": 38, "dateTime": 1693567019295, "trialdata": {"revealed_states": [], "clicked_states": ["1"], "num_clicks_accrued": [0, 0, 0, 0, 0, 0, 0, 0, 0, 0, 0, 0, 0], "stateRewards": ["", -2, 2, -5, -6, 10, -66, -58, -10, -11, -63, -70, -1, -4, -5, 7, 66, -64, -43, -3, 45, -37, 4, -2, -2, -6, -4, -30, 33, 43, 15, -32, -65, -59], "withholdReward": false, "trial_id": "mdp_trial_30", "block": "test", "trialIndex": 31, "score": 17.6, "costs": -1.4, "simulationMode": [null, null, null, null, null], "rewards": [-2, -2, -6, -4, 33], "path": ["0", "0", "23", "24", "25", "26", "28"], "rt": [4103, 689, 259, 49, 12], "actions": ["left", "left", "left", "up", "right"], "actionTimes": [7939, 9120, 9874, 10414, 10942], "queries": {"click": {"state": {"target": ["1"], "time": [4768]}, "edge": {"target": [], "time": []}}, "mouseover": {"state": {"target": ["1"], "time": [4528]}, "edge": {"target": [], "time": []}}, "mouseout": {"state": {"target": ["0", "1"], "time": [3598, 5012]}, "edge": {"target": [], "time": []}}}, "displayed_time": "17.85", "trialTime": 19921, "trial_type": "mouselab-mdp", "trial_index": 38, "time_elapsed": 1237843, "internal_node_id": "0.0-6.0-1.0-29.0"}}, {"uniqueid": "w67030782:a68406633", "current_trial": 39, "dateTime": 1693567040540, "trialdata": {"revealed_states": [], "clicked_states": [], "num_clicks_accrued": [0, 0, 0, 0, 0, 0, 0, 0, 0, 0, 0, 0, 0], "stateRewards": ["", 2, -1, 4, -9, -43, 7, 54, -13, 38, -40, -83, -1, 2, -8, -10, 34, -33, 11, -14, -79, 65, 26, 1, 2, 4, 10, 21, 1, 86, 4, -53, 28, -29], "withholdReward": false, "trial_id": "mdp_trial_31", "block": "test", "trialIndex": 32, "score": -91, "costs": 0, "simulationMode": [null, null, null, null, null], "rewards": [2, -1, 4, -13, -83], "path": ["0", "0", "1", "2", "3", "8", "11"], "rt": [982, 343, 725, 779, 622], "actions": ["up", "up", "up", "left", "left"], "actionTimes": [5284, 6128, 7343, 8614, 9739], "queries": {"click": {"state": {"target": [], "time": []}, "edge": {"target": [], "time": []}}, "mouseover": {"state": {"target": [], "time": []}, "edge": {"target": [], "time": []}}, "mouseout": {"state": {"target": [], "time": []}, "edge": {"target": [], "time": []}}}, "displayed_time": "18.31", "trialTime": 20787, "trial_type": "mouselab-mdp", "trial_index": 39, "time_elapsed": 1259095, "internal_node_id": "0.0-6.0-1.0-30.0"}}, {"uniqueid": "w67030782:a68406633", "current_trial": 40, "dateTime": 1693567062673, "trialdata": {"revealed_states": [], "clicked_states": ["23"], "num_clicks_accrued": [0, 0, 0, 0, 0, 0, 0, 0, 0, 0, 0, 0, 0], "stateRewards": ["", 2, -2, -3, 10, -4, -1, -11, -8, -9, -36, -78, 2, 1, 7, -7, 44, -1, -31, -1, 26, 47, 83, 2, -4, -4, -6, -52, -76, -81, -1, -59, 45, 67], "withholdReward": false, "trial_id": "mdp_trial_32", "block": "test", "trialIndex": 33, "score": -65.4, "costs": -1.4, "simulationMode": [null, null, null, null, null], "rewards": [2, -4, -4, -6, -52], "path": ["0", "0", "23", "24", "25", "26", "27"], "rt": [5142, 972, 889, 594, 800], "actions": ["left", "left", "left", "up", "up"], "actionTimes": [6861, 8335, 9719, 10810, 12115], "queries": {"click": {"state": {"target": ["23"], "time": [3568]}, "edge": {"target": [], "time": []}}, "mouseover": {"state": {"target": ["23"], "time": [3246]}, "edge": {"target": [], "time": []}}, "mouseout": {"state": {"target": ["0", "23", "0"], "time": [3106, 4028, 18534]}, "edge": {"target": [], "time": []}}}, "displayed_time": "15.73", "trialTime": 21633, "trial_type": "mouselab-mdp", "trial_index": 40, "time_elapsed": 1281235, "internal_node_id": "0.0-6.0-1.0-31.0"}}, {"uniqueid": "w67030782:a68406633", "current_trial": 41, "dateTime": 1693567081263, "trialdata": {"revealed_states": [], "clicked_states": [], "num_clicks_accrued": [0, 0, 0, 0, 0, 0, 0, 0, 0, 0, 0, 0, 0], "stateRewards": ["", 1, 1, 7, -11, 80, -20, -53, -14, 3, 31, 27, 2, -1, -8, -10, 33, 41, 86, 9, 78, -37, -13, -1, -2, -6, -8, -80, 75, 4, -16, -49, -74, 24], "withholdReward": false, "trial_id": "mdp_trial_33", "block": "test", "trialIndex": 34, "score": 22, "costs": 0, "simulationMode": [null, null, null, null, null], "rewards": [1, 1, 7, -14, 27], "path": ["0", "0", "1", "2", "3", "8", "11"], "rt": [1293, 343, 475, 50, 250], "actions": ["up", "up", "up", "left", "left"], "actionTimes": [3341, 4185, 5152, 5692, 6457], "queries": {"click": {"state": {"target": [], "time": []}, "edge": {"target": [], "time": []}}, "mouseover": {"state": {"target": [], "time": []}, "edge": {"target": [], "time": []}}, "mouseout": {"state": {"target": ["0"], "time": [1441]}, "edge": {"target": [], "time": []}}}, "displayed_time": "16.06", "trialTime": 18113, "trial_type": "mouselab-mdp", "trial_index": 41, "time_elapsed": 1299809, "internal_node_id": "0.0-6.0-1.0-32.0"}}, {"uniqueid": "w67030782:a68406633", "current_trial": 42, "dateTime": 1693567100414, "trialdata": {"revealed_states": [], "clicked_states": [], "num_clicks_accrued": [0, 0, 0, 0, 0, 0, 0, 0, 0, 0, 0, 0, 0], "stateRewards": ["", -2, -1, -1, 5, -54, -87, 35, 2, -8, 20, -22, 1, 3, 6, 13, -75, -32, -55, -3, 56, 62, -22, -1, -4, -1, -7, -51, 84, 70, 7, -15, 5, 55], "withholdReward": false, "trial_id": "mdp_trial_34", "block": "test", "trialIndex": 35, "score": -9, "costs": 0, "simulationMode": [null, null, null, null, null], "rewards": [1, 3, 6, 13, -32], "path": ["0", "0", "12", "13", "14", "15", "17"], "rt": [1408, 92, 217, 2550, 893], "actions": ["right", "right", "right", "up", "right"], "actionTimes": [3891, 4487, 5195, 8244, 9639], "queries": {"click": {"state": {"target": [], "time": []}, "edge": {"target": [], "time": []}}, "mouseover": {"state": {"target": [], "time": []}, "edge": {"target": [], "time": []}}, "mouseout": {"state": {"target": ["0"], "time": [2245]}, "edge": {"target": [], "time": []}}}, "displayed_time": "16.49", "trialTime": 18696, "trial_type": "mouselab-mdp", "trial_index": 42, "time_elapsed": 1318979, "internal_node_id": "0.0-6.0-1.0-33.0"}}, {"uniqueid": "w67030782:a68406633", "current_trial": 43, "dateTime": 1693567118696, "trialdata": {"revealed_states": [], "clicked_states": ["23"], "num_clicks_accrued": [0, 0, 0, 0, 0, 0, 0, 0, 0, 0, 0, 0, 0], "stateRewards": ["", 1, -1, 4, -2, -75, -75, 84, -9, -60, -79, 59, 2, -4, 8, 9, -17, -82, 80, 14, -4, 49, 49, -1, 3, 6, -11, -33, 34, 55, 9, -57, 5, 59], "withholdReward": false, "trial_id": "mdp_trial_35", "block": "test", "trialIndex": 36, "score": 84.6, "costs": -1.4, "simulationMode": [null, null, null, null, null], "rewards": [1, -1, 4, -2, 84], "path": ["0", "0", "1", "2", "3", "4", "7"], "rt": [5132, 791, 226, 95, 92], "actions": ["up", "up", "up", "right", "down"], "actionTimes": [6437, 7719, 8440, 9025, 9621], "queries": {"click": {"state": {"target": ["23"], "time": [2517]}, "edge": {"target": [], "time": []}}, "mouseover": {"state": {"target": ["23", "0"], "time": [2312, 2976]}, "edge": {"target": [], "time": []}}, "mouseout": {"state": {"target": ["0", "23"], "time": [762, 2942]}, "edge": {"target": [], "time": []}}}, "displayed_time": "15.31", "trialTime": 17800, "trial_type": "mouselab-mdp", "trial_index": 43, "time_elapsed": 1337239, "internal_node_id": "0.0-6.0-1.0-34.0"}}, {"uniqueid": "w67030782:a68406633", "current_trial": 44, "dateTime": 1693567136941, "trialdata": {"revealed_states": [], "clicked_states": ["12"], "num_clicks_accrued": [0, 0, 0, 0, 0, 0, 0, 0, 0, 0, 0, 0, 0], "stateRewards": ["", -1, 1, -5, -6, -78, 47, -13, 12, 48, -88, 20, 2, -3, -2, 13, -20, 37, -57, 14, -38, 30, 31, -2, -2, 8, 2, -23, 78, 28, 12, -74, -88, 8], "withholdReward": false, "trial_id": "mdp_trial_36", "block": "test", "trialIndex": 37, "score": -48.4, "costs": -1.4, "simulationMode": [null, null, null, null, null], "rewards": [2, -3, -2, 13, -57], "path": ["0", "0", "12", "13", "14", "15", "18"], "rt": [4662, 694, 375, 330, 308], "actions": ["right", "right", "right", "up", "left"], "actionTimes": [6537, 7729, 8595, 9417, 10227], "queries": {"click": {"state": {"target": ["12"], "time": [3140]}, "edge": {"target": [], "time": []}}, "mouseover": {"state": {"target": ["12"], "time": [2917]}, "edge": {"target": [], "time": []}}, "mouseout": {"state": {"target": ["0", "12"], "time": [2782, 3934]}, "edge": {"target": [], "time": []}}}, "displayed_time": "15.88", "trialTime": 17742, "trial_type": "mouselab-mdp", "trial_index": 44, "time_elapsed": 1355464, "internal_node_id": "0.0-6.0-1.0-35.0"}}, {"uniqueid": "w67030782:a68406633", "current_trial": 45, "dateTime": 1693567156252, "trialdata": {"revealed_states": [], "clicked_states": [], "num_clicks_accrued": [0, 0, 0, 0, 0, 0, 0, 0, 0, 0, 0, 0, 0], "stateRewards": ["", -1, 3, 8, 9, -53, 20, -84, 2, -28, -62, -31, -1, -2, -7, 2, 51, 58, 45, -4, -17, -41, 36, 2, -2, -7, -15, 29, -54, -37, -16, -43, 65, -17], "withholdReward": false, "trial_id": "mdp_trial_37", "block": "test", "trialIndex": 38, "score": -59, "costs": 0, "simulationMode": [null, null, null, null, null], "rewards": [2, -2, -7, -15, -37], "path": ["0", "0", "23", "24", "25", "26", "29"], "rt": [1489, 141, 149, 309, 1253], "actions": ["left", "left", "left", "up", "left"], "actionTimes": [3464, 4104, 4746, 5556, 7300], "queries": {"click": {"state": {"target": [], "time": []}, "edge": {"target": [], "time": []}}, "mouseover": {"state": {"target": [], "time": []}, "edge": {"target": [], "time": []}}, "mouseout": {"state": {"target": ["12", "0"], "time": [1464, 1511]}, "edge": {"target": [], "time": []}}}, "displayed_time": "15.98", "trialTime": 18764, "trial_type": "mouselab-mdp", "trial_index": 45, "time_elapsed": 1374780, "internal_node_id": "0.0-6.0-1.0-36.0"}}, {"uniqueid": "w67030782:a68406633", "current_trial": 46, "dateTime": 1693567174364, "trialdata": {"revealed_states": [], "clicked_states": ["12"], "num_clicks_accrued": [0, 0, 0, 0, 0, 0, 0, 0, 0, 0, 0, 0, 0], "stateRewards": ["", -1, -3, -7, -7, -76, 30, -49, 11, -70, 56, 2, 1, 4, -3, -14, -59, -83, -25, -9, -21, -67, -73, -2, 4, 4, -9, -11, -32, 60, 9, -87, 22, -64], "withholdReward": false, "trial_id": "mdp_trial_38", "block": "test", "trialIndex": 39, "score": -29.4, "costs": -1.4, "simulationMode": [null, null, null, null, null], "rewards": [1, 4, -3, -9, -21], "path": ["0", "0", "12", "13", "14", "19", "20"], "rt": [5617, 684, 378, 735, 459], "actions": ["right", "right", "right", "down", "right"], "actionTimes": [6901, 8082, 8960, 10186, 11142], "queries": {"click": {"state": {"target": ["12"], "time": [3270]}, "edge": {"target": [], "time": []}}, "mouseover": {"state": {"target": ["0", "12"], "time": [1300, 3029]}, "edge": {"target": [], "time": []}}, "mouseout": {"state": {"target": ["0", "0", "12"], "time": [1050, 1528, 3697]}, "edge": {"target": [], "time": []}}}, "displayed_time": "15.29", "trialTime": 17577, "trial_type": "mouselab-mdp", "trial_index": 46, "time_elapsed": 1392848, "internal_node_id": "0.0-6.0-1.0-37.0"}}, {"uniqueid": "w67030782:a68406633", "current_trial": 47, "dateTime": 1693567193104, "trialdata": {"revealed_states": [], "clicked_states": [], "num_clicks_accrued": [0, 0, 0, 0, 0, 0, 0, 0, 0, 0, 0, 0, 0], "stateRewards": ["", 1, -4, 6, -3, 40, 76, -51, 5, -24, -63, 44, -2, -2, 8, 1, 76, -85, -58, 10, 59, 20, 11, -2, 3, -3, 3, -82, -10, 54, -7, -57, -6, -32], "withholdReward": false, "trial_id": "mdp_trial_39", "block": "test", "trialIndex": 40, "score": -15, "costs": 0, "simulationMode": [null, null, null, null, null], "rewards": [-2, 3, -3, -7, -6], "path": ["0", "0", "23", "24", "25", "30", "32"], "rt": [1881, 250, 143, 83, 737], "actions": ["left", "left", "left", "down", "down"], "actionTimes": [3189, 3943, 4584, 5158, 6395], "queries": {"click": {"state": {"target": [], "time": []}, "edge": {"target": [], "time": []}}, "mouseover": {"state": {"target": ["0", "12"], "time": [1323, 1370]}, "edge": {"target": [], "time": []}}, "mouseout": {"state": {"target": ["12", "0", "12"], "time": [737, 1339, 1403]}, "edge": {"target": [], "time": []}}}, "displayed_time": "15.31", "trialTime": 18287, "trial_type": "mouselab-mdp", "trial_index": 47, "time_elapsed": 1411670, "internal_node_id": "0.0-6.0-1.0-38.0"}}, {"uniqueid": "w67030782:a68406633", "current_trial": 48, "dateTime": 1693567216364, "trialdata": {"revealed_states": [], "clicked_states": ["1"], "num_clicks_accrued": [0, 0, 0, 0, 0, 0, 0, 0, 0, 0, 0, 0, 0], "stateRewards": ["", 1, -2, -2, 10, -31, -77, 35, 9, -47, 8, 48, -2, 1, -4, -3, -26, -50, 43, -11, 76, -38, 17, 1, -1, 6, 10, 15, -9, 12, -8, 85, 11, -55], "withholdReward": false, "trial_id": "mdp_trial_40", "block": "test", "trialIndex": 41, "score": -42.4, "costs": -1.4, "simulationMode": [null, null, null, null, null], "rewards": [1, -2, -2, 9, -47], "path": ["0", "0", "1", "2", "3", "8", "9"], "rt": [5188, 259, 195, 126, 38], "actions": ["up", "up", "up", "left", "up"], "actionTimes": [10482, 11236, 11922, 12552, 13081], "queries": {"click": {"state": {"target": ["1"], "time": [7148]}, "edge": {"target": [], "time": []}}, "mouseover": {"state": {"target": ["0", "0", "1"], "time": [5807, 6089, 6190]}, "edge": {"target": [], "time": []}}, "mouseout": {"state": {"target": ["0", "0", "0", "1"], "time": [1922, 5959, 6123, 8006]}, "edge": {"target": [], "time": []}}}, "displayed_time": "19.30", "trialTime": 22734, "trial_type": "mouselab-mdp", "trial_index": 48, "time_elapsed": 1434857, "internal_node_id": "0.0-6.0-1.0-39.0"}}, {"uniqueid": "w67030782:a68406633", "current_trial": 49, "dateTime": 1693567325999, "trialdata": {"rt": 109557, "response": {"Q0": "$-2 to $2", "Q1": "$-4 to $4", "Q2": "$-16 to $16", "Q3": "The cost was always $1.4.", "Q4": "Very motivated"}, "question_order": [0, 1, 2, 3, 4], "trial_id": "final_quiz_control", "trial_type": "survey-multi-choice", "trial_index": 49, "time_elapsed": 1544565, "internal_node_id": "0.0-6.0-2.0"}}, {"uniqueid": "w67030782:a68406633", "current_trial": 50, "dateTime": 1693567668653, "trialdata": {"rt": 342597, "response": {"Q0": "I used a node to try and get a green value, if it was a red value I would go the other way. If my values were in the red I tended to try and guess in the next game to avoid losing $1.40 more. On a few occasions if I got a minus score I would try the same pattern hoping it would be positive.", "Q1": "As above I tried to avoid using a node if I had a minus value on the game before to try and gain a bit more. I don't think my plan worked as I ended up with a low score.", "Q2": "It was very frustrating, as I tried different ways to get positive values but not much seemed to work. It was very difficult to improve as I went along in each game. I tried to work out a pattern but couldn't."}, "trial_id": "self_report_control", "trial_type": "survey-text", "trial_index": 50, "time_elapsed": 1887219, "internal_node_id": "0.0-6.0-3.0"}}, {"uniqueid": "w67030782:a68406633", "current_trial": 51, "dateTime": 1693567695696, "trialdata": {"rt": 27027, "response": {"gender": "male", "age": "51", "colorblind": "0", "effort": "0"}, "trial_type": "survey-html-form", "trial_index": 51, "time_elapsed": 1914262, "internal_node_id": "0.0-6.0-4.0"}}, {"uniqueid": "w67030782:a68406633", "current_trial": 52, "dateTime": 1693567789029, "trialdata": {"rt": 93317, "response": {"Q0": "No, I understood the rules of the game ok.", "Q1": "No, I don't think i've played a game like this before.", "Q2": "Thank you for letting me participate in your study, and good luck with your findings."}, "trial_type": "survey-text", "trial_index": 52, "time_elapsed": 2007595, "internal_node_id": "0.0-6.0-5.0"}}, {"uniqueid": "w67030782:a68406633", "current_trial": 53, "dateTime": 1693567850518, "trialdata": {"rt": 61484, "stimulus": "<h1>Completion Code Instructions (1/2)</h1>\n<br><br><br><br>\nYou have reached the end of the experiment! The completion code consists of two parts: (1) a code with 2 characters (2) a code with 6 characters. On this page, you will receive the second part of the code. The first part of the completion code will be on the next page.\n<br><br>\nThe second part of your completion code is: <b>EWEK22</b>\n<br><br>\nPlease note this down. Then, press 'Finish HIT' in order to find the first part of your completion code. Once the data has been saved, you will receive this code either in this window or in the original browser window where you started the experiment.\n", "response": 0, "trial_type": "html-button-response", "trial_index": 53, "time_elapsed": 2069084, "internal_node_id": "0.0-6.0-6.0"}}, {"uniqueid": "w67030782:a68406633", "current_trial": 54, "dateTime": 1693567851538, "trialdata": {"success": true, "trial_type": "fullscreen", "trial_index": 54, "time_elapsed": 2070103, "internal_node_id": "0.0-7.0"}}], "questiondata": {"params": {"CODE": "C6DMOQA6", "MIN_TIME": 14, "inspectCost": 1, "startTime": "Fri Sep 01 2023 11:56:20 GMT+0100 (British Summer Time)", "bonusRate": 0.002, "variance": "1_2_4_8_44", "branching": "31123"}, "final_score": -336.2}, "eventdata": [{"eventtype": "initialized", "value": null, "timestamp": 1693565780235, "interval": 0}, {"eventtype": "window_resize", "value": [1852, 919], "timestamp": 1693565780235, "interval": 0}, {"eventtype": "window_resize", "value": [1852, 919], "timestamp": 1693565780575, "interval": 340}, {"eventtype": "window_resize", "value": [2048, 1152], "timestamp": 1693565788895, "interval": 8320}, {"eventtype": "window_resize", "value": [1852, 919], "timestamp": 1693567850853, "interval": 2061958}], "useragent": "Mozilla/5.0 (Macintosh; Intel Mac OS X 10_15_7) AppleWebKit/537.36 (KHTML, like Gecko) Chrome/116.0.0.0 Safari/537.36", "mode": "live", "id": "w67030782:a68406633", "status": "user data saved", "Beginhit": "2023-09-01 10:56:18.240221", "Beginexp": "2023-09-01 10:56:29.880386", "Endhit": "2023-09-01 11:30:52.011456", "psiturkStatus": 3, "browser": "<redacted>", "platform": "macos", "language": "en-GB"}