{"condition": 0, "counterbalance": 0, "assignmentId": "a21596607", "workerId": "w86284612", "hitId": "h68627653", "currenttrial": 61, "bonus": 0, "data": [{"uniqueid": "w86284612:a21596607", "current_trial": 0, "dateTime": 1691142899100, "trialdata": {"success": true, "trial_type": "fullscreen", "trial_index": 0, "time_elapsed": 13616, "internal_node_id": "0.0-0.0"}}, {"uniqueid": "w86284612:a21596607", "current_trial": 1, "dateTime": 1691142938427, "trialdata": {"view_history": [{"page_index": 0, "viewing_time": 39295}], "rt": 39297, "trial_id": "exp_instructions_control", "trial_type": "instructions", "trial_index": 1, "time_elapsed": 52944, "internal_node_id": "0.0-1.0"}}, {"uniqueid": "w86284612:a21596607", "current_trial": 2, "dateTime": 1691142943465, "trialdata": {"success": true, "trial_type": "fullscreen", "trial_index": 2, "time_elapsed": 57982, "internal_node_id": "0.0-2.0-0.0"}}, {"uniqueid": "w86284612:a21596607", "current_trial": 3, "dateTime": 1691143509870, "trialdata": {"view_history": [{"page_index": 0, "viewing_time": 200816}, {"page_index": 1, "viewing_time": 213300}, {"page_index": 2, "viewing_time": 4346}, {"page_index": 1, "viewing_time": 9669}, {"page_index": 2, "viewing_time": 61055}, {"page_index": 3, "viewing_time": 77209}], "rt": 566395, "trial_id": "mouselab_instructions_1_control", "trial_type": "instructions", "trial_index": 3, "time_elapsed": 624387, "internal_node_id": "0.0-2.0-1.0"}}, {"uniqueid": "w86284612:a21596607", "current_trial": 4, "dateTime": 1691143534102, "trialdata": {"revealed_states": [], "clicked_states": ["1"], "num_clicks_accrued": [0, 0, 0, 0, 0, 0, 0, 0, 0, 0, 0, 0, 0], "stateRewards": ["", -10, 10, 10, -10, 10, 10, 10, -10, 10, 10, -10, -10, 10, -10, -10, 10, 10, 10, -10, -10, -10, 10, 10, 10, -10, -10, 10, -10, -10, -10, -10, -10, 10], "withholdReward": false, "trial_id": "practice_1", "block": "test", "trialIndex": 0, "score": -7, "costs": -0.5, "simulationMode": [null, null, null, null, null], "rewards": [-10, 10, -10, -10, 10], "path": ["0", "0", "12", "13", "14", "15", "17"], "rt": [3873, 984, 1429, 2133, 108], "actions": ["right", "right", "right", "up", "right"], "actionTimes": [6333, 7856, 9808, 12478, 13119], "queries": {"click": {"state": {"target": ["1"], "time": [4035]}, "edge": {"target": [], "time": []}}, "mouseover": {"state": {"target": ["1", "12"], "time": [3558, 5194]}, "edge": {"target": [], "time": []}}, "mouseout": {"state": {"target": ["12", "0", "1"], "time": [511, 939, 5140]}, "edge": {"target": [], "time": []}}}, "displayed_time": "13.65", "trialTime": 21591, "trial_type": "mouselab-mdp", "trial_index": 4, "time_elapsed": 648616, "internal_node_id": "0.0-2.0-2.0-0.0"}}, {"uniqueid": "w86284612:a21596607", "current_trial": 5, "dateTime": 1691143566620, "trialdata": {"revealed_states": [], "clicked_states": ["23", "1"], "num_clicks_accrued": [0, 0, 0, 0, 0, 0, 0, 0, 0, 0, 0, 0, 0], "stateRewards": ["", 10, 10, -10, 10, -10, -10, -10, -10, -10, -10, 10, 10, -10, 10, 10, 10, -10, -10, 10, 10, -10, 10, 10, 10, 10, 10, 10, 10, 10, 10, 10, -10, -10], "withholdReward": false, "trial_id": "practice_2", "block": "test", "trialIndex": 1, "score": 32.5, "costs": -1, "simulationMode": [null, null, null, null, null], "rewards": [10, 10, 10, 10, -10], "path": ["0", "0", "23", "24", "25", "30", "32"], "rt": [9921, 6776, 1102, 820, 939], "actions": ["left", "left", "left", "down", "down"], "actionTimes": [13986, 21335, 22968, 24340, 25843], "queries": {"click": {"state": {"target": ["23", "1"], "time": [5939, 8708]}, "edge": {"target": [], "time": []}}, "mouseover": {"state": {"target": ["23", "23", "1", "12"], "time": [4763, 5415, 7662, 10165]}, "edge": {"target": [], "time": []}}, "mouseout": {"state": {"target": ["12", "0", "23", "23", "1", "12", "0", "23"], "time": [2395, 2831, 4848, 7214, 9901, 15698, 15799, 15866]}, "edge": {"target": [], "time": []}}}, "displayed_time": "26.39", "trialTime": 31183, "trial_type": "mouselab-mdp", "trial_index": 5, "time_elapsed": 681136, "internal_node_id": "0.0-2.0-2.0-1.0"}}, {"uniqueid": "w86284612:a21596607", "current_trial": 6, "dateTime": 1691143687257, "trialdata": {"view_history": [{"page_index": 0, "viewing_time": 102115}, {"page_index": 1, "viewing_time": 18509}], "rt": 120624, "trial_id": "mouselab_instructions_2_control", "trial_type": "instructions", "trial_index": 6, "time_elapsed": 801774, "internal_node_id": "0.0-2.0-3.0"}}, {"uniqueid": "w86284612:a21596607", "current_trial": 7, "dateTime": 1691143788031, "trialdata": {"rt": 100761, "response": {"Q0": "The cost for clicking on nodes may vary between nodes.", "Q1": "I will receive a $1 bonus regardless of my performance.", "Q2": "No, the amount of cash at each node of the web may be different each time.", "Q3": "To get the highest total score.", "Q4": "Only before moving the spider.", "Q5": "3 seconds"}, "question_order": [0, 1, 2, 3, 4, 5], "correct": {"Q0": "The cost for clicking on nodes may vary between nodes.", "Q1": "The better I perform the higher my bonus will be.", "Q2": "No, the amount of cash at each node of the web may be different each time.", "Q3": "To get the highest total score.", "Q4": "Only before moving the spider.", "Q5": "3 seconds"}, "trial_id": "mouselab_quiz_control", "trial_type": "survey-multi-choice", "trial_index": 7, "time_elapsed": 902547, "internal_node_id": "0.0-2.0-4.0"}}, {"uniqueid": "w86284612:a21596607", "current_trial": 8, "dateTime": 1691143798994, "trialdata": {"success": true, "trial_type": "fullscreen", "trial_index": 8, "time_elapsed": 913511, "internal_node_id": "0.0-2.1-0.1"}}, {"uniqueid": "w86284612:a21596607", "current_trial": 9, "dateTime": 1691143972222, "trialdata": {"view_history": [{"page_index": 0, "viewing_time": 27595}, {"page_index": 1, "viewing_time": 93281}, {"page_index": 2, "viewing_time": 39169}, {"page_index": 3, "viewing_time": 13177}], "rt": 173222, "trial_id": "mouselab_instructions_1_control", "trial_type": "instructions", "trial_index": 9, "time_elapsed": 1086739, "internal_node_id": "0.0-2.1-1.1"}}, {"uniqueid": "w86284612:a21596607", "current_trial": 10, "dateTime": 1691143999200, "trialdata": {"revealed_states": [], "clicked_states": ["1", "23", "12"], "num_clicks_accrued": [0, 0, 0, 0, 0, 0, 0, 0, 0, 0, 0, 0, 0], "stateRewards": ["", -10, 10, 10, -10, 10, 10, 10, -10, 10, 10, -10, -10, 10, -10, -10, 10, 10, 10, -10, -10, -10, 10, 10, 10, -10, -10, 10, -10, -10, -10, -10, -10, 10], "withholdReward": false, "trial_id": "practice_1", "block": "test", "trialIndex": 2, "score": 12, "costs": -1.5, "simulationMode": [null, null, null, null, null], "rewards": [10, 10, -10, -10, 10], "path": ["0", "0", "23", "24", "25", "26", "27"], "rt": [8255, 7772, 358, 750, 126], "actions": ["left", "left", "left", "up", "up"], "actionTimes": [11892, 20226, 21126, 22422, 23096], "queries": {"click": {"state": {"target": ["1", "23", "12"], "time": [5247, 7194, 9088]}, "edge": {"target": [], "time": []}}, "mouseover": {"state": {"target": ["1", "23", "12"], "time": [4613, 6579, 8466]}, "edge": {"target": [], "time": []}}, "mouseout": {"state": {"target": ["0", "1", "23", "12", "0", "23", "24"], "time": [4449, 6075, 7299, 13767, 13866, 14014, 17965]}, "edge": {"target": [], "time": []}}}, "displayed_time": "23.63", "trialTime": 25597, "trial_type": "mouselab-mdp", "trial_index": 10, "time_elapsed": 1113715, "internal_node_id": "0.0-2.1-2.1-0.1"}}, {"uniqueid": "w86284612:a21596607", "current_trial": 11, "dateTime": 1691144020694, "trialdata": {"revealed_states": [], "clicked_states": ["17", "1"], "num_clicks_accrued": [0, 0, 0, 0, 0, 0, 0, 0, 0, 0, 0, 0, 0], "stateRewards": ["", 10, 10, -10, 10, -10, -10, -10, -10, -10, -10, 10, 10, -10, 10, 10, 10, -10, -10, 10, 10, -10, 10, 10, 10, 10, 10, 10, 10, 10, 10, 10, -10, -10], "withholdReward": false, "trial_id": "practice_2", "block": "test", "trialIndex": 3, "score": -7.5, "costs": -1, "simulationMode": [null, null, null, null, null], "rewards": [10, 10, -10, -10, -10], "path": ["0", "0", "1", "2", "3", "8", "9"], "rt": [10941, 248, 341, 633, 21], "actions": ["up", "up", "up", "left", "up"], "actionTimes": [14393, 15171, 16079, 17244, 17801], "queries": {"click": {"state": {"target": ["17", "1"], "time": [5832, 10614]}, "edge": {"target": [], "time": []}}, "mouseover": {"state": {"target": ["12", "13", "17", "0", "23", "24", "25", "29", "28", "1", "23", "23"], "time": [4330, 4381, 5048, 6596, 6655, 7098, 7225, 7322, 9314, 9563, 11863, 12914]}, "edge": {"target": [], "time": []}}, "mouseout": {"state": {"target": ["28", "23", "12", "13", "17", "0", "23", "24", "25", "29", "28", "1", "23", "23"], "time": [1511, 1855, 4367, 4407, 6479, 6640, 6691, 7175, 7257, 9263, 9347, 11710, 12483, 12982]}, "edge": {"target": [], "time": []}}}, "displayed_time": "18.36", "trialTime": 20141, "trial_type": "mouselab-mdp", "trial_index": 11, "time_elapsed": 1135209, "internal_node_id": "0.0-2.1-2.1-1.1"}}, {"uniqueid": "w86284612:a21596607", "current_trial": 12, "dateTime": 1691144061053, "trialdata": {"view_history": [{"page_index": 0, "viewing_time": 37667}, {"page_index": 1, "viewing_time": 2677}], "rt": 40348, "trial_id": "mouselab_instructions_2_control", "trial_type": "instructions", "trial_index": 12, "time_elapsed": 1175570, "internal_node_id": "0.0-2.1-3.1"}}, {"uniqueid": "w86284612:a21596607", "current_trial": 13, "dateTime": 1691144454383, "trialdata": {"rt": 393318, "response": {"Q0": "The cost for clicking on nodes may vary between nodes.", "Q1": "The better I perform the higher my bonus will be.", "Q2": "No, the amount of cash at each node of the web may be different each time.", "Q3": "To get the highest total score.", "Q4": "Only before moving the spider.", "Q5": "3 seconds"}, "question_order": [0, 1, 2, 3, 4, 5], "correct": {"Q0": "The cost for clicking on nodes may vary between nodes.", "Q1": "The better I perform the higher my bonus will be.", "Q2": "No, the amount of cash at each node of the web may be different each time.", "Q3": "To get the highest total score.", "Q4": "Only before moving the spider.", "Q5": "3 seconds"}, "trial_id": "mouselab_quiz_control", "trial_type": "survey-multi-choice", "trial_index": 13, "time_elapsed": 1568900, "internal_node_id": "0.0-2.1-4.1"}}, {"uniqueid": "w86284612:a21596607", "current_trial": 14, "dateTime": 1691144499140, "trialdata": {"rt": 44732, "stimulus": "\n<h1> Get ready to start the game! </h1>\n\nThank you for reading the instructions. Get ready start with the 40 rounds of this game.\n<br><br>\nIf you need to take a break, feel free to take one after the end of a round, before continuing to the next one.\n<br><br>\nRemember, the more money the spider gets, the bigger your bonus will be!\n<br><br>\n<div style='text-align: center;'>Press <code>space</code> to begin.</div>\n\n<br><br>\n(If, at any point, the <code>space</code> key does not take you to the next page, click once on the text and try again.)", "response": " ", "trial_id": "mdp_ready", "trial_type": "html-keyboard-response", "trial_index": 14, "time_elapsed": 1613657, "internal_node_id": "0.0-4.0-0.0"}}, {"uniqueid": "w86284612:a21596607", "current_trial": 15, "dateTime": 1691144528780, "trialdata": {"revealed_states": [], "clicked_states": ["12", "2"], "num_clicks_accrued": [0, 0, 0, 0, 0, 0, 0, 0, 0, 0, 0, 0, 0], "stateRewards": ["", -2, -1, -5, 10, -36, -70, 68, -9, 86, 71, -10, 2, -4, 7, -7, 66, 44, -66, -13, -69, 43, 15, -2, 2, 6, -13, 62, 57, 50, -10, -69, 42, -72], "withholdReward": false, "trial_id": "mdp_trial_1", "block": "test", "trialIndex": 4, "score": 40.2, "costs": -2.8, "simulationMode": [null, null, null, null, null], "rewards": [-2, 2, 6, -13, 50], "path": ["0", "0", "23", "24", "25", "26", "29"], "rt": [7289, 1928, 406, 1721, 676], "actions": ["left", "left", "left", "up", "left"], "actionTimes": [12317, 14822, 15797, 18088, 19278], "queries": {"click": {"state": {"target": ["12", "2"], "time": [6397, 10082]}, "edge": {"target": [], "time": []}}, "mouseover": {"state": {"target": ["12", "1", "2", "23"], "time": [5804, 7911, 9552, 11502]}, "edge": {"target": [], "time": []}}, "mouseout": {"state": {"target": ["1", "0", "12", "1", "2", "23"], "time": [2303, 3830, 6533, 9268, 10232, 11701]}, "edge": {"target": [], "time": []}}}, "displayed_time": "19.82", "trialTime": 28334, "trial_type": "mouselab-mdp", "trial_index": 15, "time_elapsed": 1643296, "internal_node_id": "0.0-4.0-1.0-0.0"}}, {"uniqueid": "w86284612:a21596607", "current_trial": 16, "dateTime": 1691144554960, "trialdata": {"revealed_states": [], "clicked_states": ["1", "29"], "num_clicks_accrued": [0, 0, 0, 0, 0, 0, 0, 0, 0, 0, 0, 0, 0], "stateRewards": ["", 2, -1, -2, -5, -47, -57, -33, -11, 31, -18, -72, -2, 1, -4, -8, -46, -53, -50, 15, -85, -9, 39, -2, -2, 1, 14, -1, -8, 53, -12, -41, -74, 62], "withholdReward": false, "trial_id": "mdp_trial_2", "block": "test", "trialIndex": 5, "score": -77.8, "costs": -2.8, "simulationMode": [null, null, null, null, null], "rewards": [-2, 1, -4, 15, -85], "path": ["0", "0", "12", "13", "14", "19", "20"], "rt": [6966, 554, 123, 25, 271], "actions": ["right", "right", "right", "down", "right"], "actionTimes": [10462, 11567, 12245, 12797, 13657], "queries": {"click": {"state": {"target": ["1", "29"], "time": [5262, 8438]}, "edge": {"target": [], "time": []}}, "mouseover": {"state": {"target": ["1", "24", "25", "26", "29", "14"], "time": [4518, 6468, 6615, 7215, 8016, 9174]}, "edge": {"target": [], "time": []}}, "mouseout": {"state": {"target": ["1", "24", "25", "26", "29", "14"], "time": [6300, 6521, 7029, 7417, 9009, 9734]}, "edge": {"target": [], "time": []}}}, "displayed_time": "17.50", "trialTime": 24462, "trial_type": "mouselab-mdp", "trial_index": 16, "time_elapsed": 1669476, "internal_node_id": "0.0-4.0-1.0-1.0"}}, {"uniqueid": "w86284612:a21596607", "current_trial": 17, "dateTime": 1691144578850, "trialdata": {"revealed_states": [], "clicked_states": ["12", "23", "1"], "num_clicks_accrued": [0, 0, 0, 0, 0, 0, 0, 0, 0, 0, 0, 0, 0], "stateRewards": ["", 1, 2, -8, 9, 18, -83, -11, 6, -64, -48, 17, -2, -2, -5, -3, -24, -3, -86, -2, 48, -41, -22, -2, 4, 7, 8, 81, 13, -48, 10, 61, 19, 57], "withholdReward": false, "trial_id": "mdp_trial_3", "block": "test", "trialIndex": 6, "score": -67.2, "costs": -4.199999999999999, "simulationMode": [null, null, null, null, null], "rewards": [1, 2, -8, 6, -64], "path": ["0", "0", "1", "2", "3", "8", "9"], "rt": [8632, 1036, 377, 223, 818], "actions": ["up", "up", "up", "left", "up"], "actionTimes": [12030, 13594, 14536, 15292, 16651], "queries": {"click": {"state": {"target": ["12", "23", "1"], "time": [5094, 6848, 9553]}, "edge": {"target": [], "time": []}}, "mouseover": {"state": {"target": ["12", "23", "1"], "time": [4567, 6048, 8259]}, "edge": {"target": [], "time": []}}, "mouseout": {"state": {"target": ["13", "12", "0", "23", "12", "23"], "time": [1030, 1066, 1099, 1363, 5813, 7912]}, "edge": {"target": [], "time": []}}}, "displayed_time": "17.40", "trialTime": 22265, "trial_type": "mouselab-mdp", "trial_index": 17, "time_elapsed": 1693365, "internal_node_id": "0.0-4.0-1.0-2.0"}}, {"uniqueid": "w86284612:a21596607", "current_trial": 18, "dateTime": 1691144608871, "trialdata": {"revealed_states": [], "clicked_states": ["23", "25", "13", "1"], "num_clicks_accrued": [0, 0, 0, 0, 0, 0, 0, 0, 0, 0, 0, 0, 0], "stateRewards": ["", 2, -4, -8, -15, 71, -43, -41, 7, -17, 20, 67, -1, -1, -4, 6, 37, -24, -47, 9, 34, 57, 45, 1, 2, -4, -5, -23, 88, -5, 13, -40, 43, 44], "withholdReward": false, "trial_id": "mdp_trial_4", "block": "test", "trialIndex": 7, "score": -71.6, "costs": -5.6, "simulationMode": [null, null, null, null, null], "rewards": [2, -4, -8, -15, -41], "path": ["0", "0", "1", "2", "3", "4", "7"], "rt": [11567, 911, 904, 35, 553], "actions": ["up", "up", "up", "right", "down"], "actionTimes": [17924, 19390, 20855, 21418, 22538], "queries": {"click": {"state": {"target": ["23", "25", "13", "1"], "time": [8262, 9878, 12745, 15171]}, "edge": {"target": [], "time": []}}, "mouseover": {"state": {"target": ["23", "24", "25", "13", "12", "1"], "time": [7563, 9105, 9445, 11647, 13600, 14005]}, "edge": {"target": [], "time": []}}, "mouseout": {"state": {"target": ["1", "12", "23", "24", "25", "13", "12", "1"], "time": [24, 1695, 9084, 9213, 11171, 12878, 13654, 26712]}, "edge": {"target": [], "time": []}}}, "displayed_time": "23.11", "trialTime": 27836, "trial_type": "mouselab-mdp", "trial_index": 18, "time_elapsed": 1723388, "internal_node_id": "0.0-4.0-1.0-3.0"}}, {"uniqueid": "w86284612:a21596607", "current_trial": 19, "dateTime": 1691144629344, "trialdata": {"revealed_states": [], "clicked_states": [], "num_clicks_accrued": [0, 0, 0, 0, 0, 0, 0, 0, 0, 0, 0, 0, 0], "stateRewards": ["", -2, -2, -3, -6, -15, -11, 41, -12, -63, -76, 2, -2, -3, 8, 9, -36, -2, -18, -16, -32, -85, -17, -2, 1, 5, -16, 82, 35, -88, -1, 80, -82, -20], "withholdReward": false, "trial_id": "mdp_trial_5", "block": "test", "trialIndex": 8, "score": -100, "costs": 0, "simulationMode": [null, null, null, null, null], "rewards": [-2, 1, 5, -16, -88], "path": ["0", "0", "23", "24", "25", "26", "29"], "rt": [1106, 9, 106, 560, 9], "actions": ["left", "left", "left", "up", "left"], "actionTimes": [3606, 4177, 4828, 5992, 6524], "queries": {"click": {"state": {"target": [], "time": []}, "edge": {"target": [], "time": []}}, "mouseover": {"state": {"target": [], "time": []}, "edge": {"target": [], "time": []}}, "mouseout": {"state": {"target": ["0", "0", "15"], "time": [1512, 15427, 15492]}, "edge": {"target": [], "time": []}}}, "displayed_time": "16.50", "trialTime": 18567, "trial_type": "mouselab-mdp", "trial_index": 19, "time_elapsed": 1743859, "internal_node_id": "0.0-4.0-1.0-4.0"}}, {"uniqueid": "w86284612:a21596607", "current_trial": 20, "dateTime": 1691144650964, "trialdata": {"revealed_states": [], "clicked_states": [], "num_clicks_accrued": [0, 0, 0, 0, 0, 0, 0, 0, 0, 0, 0, 0, 0], "stateRewards": ["", 2, -2, -3, 10, -4, -1, -11, -8, -9, -36, -78, 2, 1, 7, -7, 44, -1, -31, -1, 26, 47, 83, 2, -4, -4, -6, -52, -76, -81, -1, -59, 45, 67], "withholdReward": false, "trial_id": "mdp_trial_6", "block": "test", "trialIndex": 9, "score": -64, "costs": 0, "simulationMode": [null, null, null, null, null], "rewards": [2, -4, -4, -6, -52], "path": ["0", "0", "23", "24", "25", "26", "27"], "rt": [6006, 59, 444, 1013, 500], "actions": ["left", "left", "left", "up", "up"], "actionTimes": [10484, 11086, 12085, 13681, 14745], "queries": {"click": {"state": {"target": [], "time": []}, "edge": {"target": [], "time": []}}, "mouseover": {"state": {"target": ["0", "12", "13"], "time": [5625, 7260, 8423]}, "edge": {"target": [], "time": []}}, "mouseout": {"state": {"target": ["0", "0", "12"], "time": [5342, 5674, 8276]}, "edge": {"target": [], "time": []}}}, "displayed_time": "18.48", "trialTime": 19638, "trial_type": "mouselab-mdp", "trial_index": 20, "time_elapsed": 1765479, "internal_node_id": "0.0-4.0-1.0-5.0"}}, {"uniqueid": "w86284612:a21596607", "current_trial": 21, "dateTime": 1691144680196, "trialdata": {"revealed_states": [], "clicked_states": ["13", "25"], "num_clicks_accrued": [0, 0, 0, 0, 0, 0, 0, 0, 0, 0, 0, 0, 0], "stateRewards": ["", -2, 2, 5, -14, -56, 64, 84, -5, 52, 39, 85, -2, 1, 7, 8, 21, 29, -78, -9, -10, -69, 10, -2, -1, -7, 15, 72, 20, 41, -2, 52, 80, 22], "withholdReward": false, "trial_id": "mdp_trial_7", "block": "test", "trialIndex": 10, "score": 40.2, "costs": -2.8, "simulationMode": [null, null, null, null, null], "rewards": [-2, 1, 7, 8, 29], "path": ["0", "0", "12", "13", "14", "15", "17"], "rt": [7029, 251, 149, 748, 6], "actions": ["right", "right", "right", "up", "right"], "actionTimes": [10099, 10891, 11598, 12902, 13452], "queries": {"click": {"state": {"target": ["13", "25"], "time": [4612, 6802]}, "edge": {"target": [], "time": []}}, "mouseover": {"state": {"target": ["12", "13", "23", "24", "25", "25", "26", "1"], "time": [3960, 4159, 5846, 5910, 6010, 6291, 8790, 9524]}, "edge": {"target": [], "time": []}}, "mouseout": {"state": {"target": ["13", "12", "0", "12", "13", "23", "24", "25", "25", "26"], "time": [922, 1055, 1340, 4043, 5716, 5900, 5995, 6056, 6939, 8859]}, "edge": {"target": [], "time": []}}}, "displayed_time": "17.07", "trialTime": 27204, "trial_type": "mouselab-mdp", "trial_index": 21, "time_elapsed": 1794712, "internal_node_id": "0.0-4.0-1.0-6.0"}}, {"uniqueid": "w86284612:a21596607", "current_trial": 22, "dateTime": 1691144718269, "trialdata": {"revealed_states": [], "clicked_states": ["3", "13", "25"], "num_clicks_accrued": [0, 0, 0, 0, 0, 0, 0, 0, 0, 0, 0, 0, 0], "stateRewards": ["", -1, 2, 7, 8, 75, 67, -11, 6, 52, -17, 38, -1, 4, -8, 14, 74, -37, -17, -12, 52, 55, 71, -2, -1, -5, 2, 21, 6, -88, -14, 64, -61, -47], "withholdReward": false, "trial_id": "mdp_trial_8", "block": "test", "trialIndex": 11, "score": -12.2, "costs": -4.199999999999999, "simulationMode": [null, null, null, null, null], "rewards": [-1, 4, -8, 14, -17], "path": ["0", "0", "12", "13", "14", "15", "18"], "rt": [9919, 134, 130, 1004, 435], "actions": ["right", "right", "right", "up", "left"], "actionTimes": [13532, 14208, 14919, 16461, 17444], "queries": {"click": {"state": {"target": ["3", "13", "25"], "time": [5744, 9277, 11206]}, "edge": {"target": [], "time": []}}, "mouseover": {"state": {"target": ["1", "2", "3", "28", "25", "24", "0", "12", "13", "12", "24", "25"], "time": [3884, 4415, 5294, 6407, 6843, 7891, 8153, 8217, 8283, 10047, 10171, 10274]}, "edge": {"target": [], "time": []}}, "mouseout": {"state": {"target": ["1", "1", "2", "3", "28", "25", "24", "0", "12", "13", "12", "24", "25", "12", "13", "14"], "time": [1482, 4366, 4716, 6291, 6453, 7821, 7955, 8202, 8266, 9430, 10112, 10233, 33599, 34087, 34133, 34178]}, "edge": {"target": [], "time": []}}}, "displayed_time": "18.00", "trialTime": 36119, "trial_type": "mouselab-mdp", "trial_index": 22, "time_elapsed": 1832785, "internal_node_id": "0.0-4.0-1.0-7.0"}}, {"uniqueid": "w86284612:a21596607", "current_trial": 23, "dateTime": 1691144761859, "trialdata": {"revealed_states": [], "clicked_states": ["24", "27", "17"], "num_clicks_accrued": [0, 0, 0, 0, 0, 0, 0, 0, 0, 0, 0, 0, 0], "stateRewards": ["", -2, -3, -3, 9, 79, 67, 22, -15, -56, 27, -85, -2, 4, -4, -15, -20, -32, 60, 15, 71, 57, 17, 1, 2, -8, 15, -37, -81, 82, 15, 21, -3, 2], "withholdReward": false, "trial_id": "mdp_trial_9", "block": "test", "trialIndex": 12, "score": 75.8, "costs": -4.199999999999999, "simulationMode": [null, null, null, null, null], "rewards": [-2, -3, -3, 9, 79], "path": ["0", "0", "1", "2", "3", "4", "5"], "rt": [11187, 534, 155, 270, 530], "actions": ["up", "up", "up", "right", "up"], "actionTimes": [15200, 16285, 16969, 17774, 18865], "queries": {"click": {"state": {"target": ["24", "27", "17"], "time": [5785, 8033, 11560]}, "edge": {"target": [], "time": []}}, "mouseover": {"state": {"target": ["23", "24", "27", "26", "1", "15", "17", "13", "12", "0"], "time": [4882, 5213, 6492, 9216, 10318, 10802, 10898, 12868, 13147, 13784]}, "edge": {"target": [], "time": []}}, "mouseout": {"state": {"target": ["0", "23", "24", "27", "26", "1", "15", "17", "13", "12"], "time": [2042, 5102, 5916, 9125, 9269, 10371, 10840, 12721, 13044, 13284]}, "edge": {"target": [], "time": []}}}, "displayed_time": "19.42", "trialTime": 41576, "trial_type": "mouselab-mdp", "trial_index": 23, "time_elapsed": 1876375, "internal_node_id": "0.0-4.0-1.0-8.0"}}, {"uniqueid": "w86284612:a21596607", "current_trial": 24, "dateTime": 1691144795205, "trialdata": {"revealed_states": [], "clicked_states": ["13", "17", "9"], "num_clicks_accrued": [0, 0, 0, 0, 0, 0, 0, 0, 0, 0, 0, 0, 0], "stateRewards": ["", 1, 2, -5, 14, 54, -14, -25, 16, -5, -87, 78, -1, 1, 3, -3, 52, 53, 53, -10, 73, -69, -48, 2, 3, 1, 8, -62, -7, 85, 7, 82, 52, -28], "withholdReward": false, "trial_id": "mdp_trial_10", "block": "test", "trialIndex": 13, "score": 48.8, "costs": -4.199999999999999, "simulationMode": [null, null, null, null, null], "rewards": [-1, 1, 3, -3, 53], "path": ["0", "0", "12", "13", "14", "15", "17"], "rt": [9721, 9, 137, 307, 10], "actions": ["right", "right", "right", "up", "right"], "actionTimes": [11980, 12556, 13254, 14122, 14687], "queries": {"click": {"state": {"target": ["13", "17", "9"], "time": [3570, 6175, 9412]}, "edge": {"target": [], "time": []}}, "mouseover": {"state": {"target": ["12", "13", "17", "1", "10", "8", "9"], "time": [2466, 3037, 4869, 7103, 8090, 8189, 8722]}, "edge": {"target": [], "time": []}}, "mouseout": {"state": {"target": ["0", "12", "13", "17", "1", "10", "8"], "time": [2321, 2576, 4261, 6964, 7174, 8125, 8642]}, "edge": {"target": [], "time": []}}}, "displayed_time": "16.26", "trialTime": 31395, "trial_type": "mouselab-mdp", "trial_index": 24, "time_elapsed": 1909721, "internal_node_id": "0.0-4.0-1.0-9.0"}}, {"uniqueid": "w86284612:a21596607", "current_trial": 25, "dateTime": 1691144823539, "trialdata": {"revealed_states": [], "clicked_states": ["24", "27", "5", "17"], "num_clicks_accrued": [0, 0, 0, 0, 0, 0, 0, 0, 0, 0, 0, 0, 0], "stateRewards": ["", -1, -4, -1, -11, 43, 69, 39, 4, 17, -20, -82, -2, -1, 4, 8, -79, 24, -79, 11, 36, 64, 41, 2, 4, -1, 11, -79, -47, 75, -3, 63, -36, -19], "withholdReward": false, "trial_id": "mdp_trial_11", "block": "test", "trialIndex": 14, "score": 20.4, "costs": -5.6, "simulationMode": [null, null, null, null, null], "rewards": [-1, -4, -1, -11, 43], "path": ["0", "0", "1", "2", "3", "4", "5"], "rt": [10582, 28, 16, 96, 652], "actions": ["up", "up", "up", "right", "up"], "actionTimes": [14394, 14980, 15559, 16232, 17424], "queries": {"click": {"state": {"target": ["24", "27", "5", "17"], "time": [5432, 7264, 9505, 11119]}, "edge": {"target": [], "time": []}}, "mouseover": {"state": {"target": ["23", "24", "27", "27", "6", "5", "16", "17"], "time": [4679, 4794, 6154, 6506, 8366, 8675, 10191, 10638]}, "edge": {"target": [], "time": []}}, "mouseout": {"state": {"target": ["9", "23", "24", "27", "27", "6", "5", "16"], "time": [727, 4745, 6003, 6210, 7829, 8421, 10091, 10273]}, "edge": {"target": [], "time": []}}}, "displayed_time": "17.96", "trialTime": 26236, "trial_type": "mouselab-mdp", "trial_index": 25, "time_elapsed": 1938055, "internal_node_id": "0.0-4.0-1.0-10.0"}}, {"uniqueid": "w86284612:a21596607", "current_trial": 26, "dateTime": 1691144857404, "trialdata": {"revealed_states": [], "clicked_states": ["24", "27", "16", "5", "33", "20", "13"], "num_clicks_accrued": [0, 0, 0, 0, 0, 0, 0, 0, 0, 0, 0, 0, 0], "stateRewards": ["", 1, 1, -5, 8, -6, 45, 16, -6, -7, -22, -38, -1, -4, 8, -11, -16, 21, -45, -15, -59, -32, 42, -1, 3, 6, 11, -7, 34, -27, -8, 85, 43, -9], "withholdReward": false, "trial_id": "mdp_trial_12", "block": "test", "trialIndex": 15, "score": -25.8, "costs": -9.8, "simulationMode": [null, null, null, null, null], "rewards": [1, 1, -5, -6, -7], "path": ["0", "0", "1", "2", "3", "8", "9"], "rt": [19345, 181, 12, 315, 441], "actions": ["up", "up", "up", "left", "up"], "actionTimes": [23995, 24723, 25285, 26172, 27172], "queries": {"click": {"state": {"target": ["24", "27", "16", "5", "33", "20", "13"], "time": [5717, 8319, 10502, 12562, 15343, 18672, 20994]}, "edge": {"target": [], "time": []}}, "mouseover": {"state": {"target": ["23", "24", "27", "7", "16", "17", "16", "5", "2", "23", "31", "32", "33", "30", "0", "12", "13", "14", "20", "13", "12", "0"], "time": [5309, 5493, 6119, 8977, 9338, 9451, 10176, 11211, 13668, 14543, 14693, 14856, 15109, 16249, 17709, 17757, 17805, 18126, 18218, 19622, 21963, 22037]}, "edge": {"target": [], "time": []}}, "mouseout": {"state": {"target": ["17", "15", "12", "0", "23", "24", "27", "7", "16", "17", "16", "5", "2", "23", "31", "32", "33", "30", "0", "12", "13", "14", "20", "13", "12", "0"], "time": [1284, 1330, 1373, 4840, 5363, 6066, 8922, 9033, 9394, 9931, 11056, 13512, 14067, 14640, 14760, 14960, 16185, 16304, 17744, 17795, 18095, 18165, 18785, 21909, 22023, 22092]}, "edge": {"target": [], "time": []}}}, "displayed_time": "27.71", "trialTime": 31863, "trial_type": "mouselab-mdp", "trial_index": 26, "time_elapsed": 1971919, "internal_node_id": "0.0-4.0-1.0-11.0"}}, {"uniqueid": "w86284612:a21596607", "current_trial": 27, "dateTime": 1691144884904, "trialdata": {"revealed_states": [], "clicked_states": ["24", "27", "5"], "num_clicks_accrued": [0, 0, 0, 0, 0, 0, 0, 0, 0, 0, 0, 0, 0], "stateRewards": ["", 2, 1, -3, 7, 46, 11, -36, 16, 71, 5, 1, 2, -2, -8, -3, -4, 6, 55, 7, 68, -54, 2, 1, 1, 6, -6, 42, -4, -84, -11, -65, 63, 25], "withholdReward": false, "trial_id": "mdp_trial_13", "block": "test", "trialIndex": 16, "score": 48.8, "costs": -4.199999999999999, "simulationMode": [null, null, null, null, null], "rewards": [2, 1, -3, 7, 46], "path": ["0", "0", "1", "2", "3", "4", "5"], "rt": [10135, 390, 87, 112, 548], "actions": ["up", "up", "up", "right", "up"], "actionTimes": [17081, 18036, 18659, 19311, 20428], "queries": {"click": {"state": {"target": ["24", "27", "5"], "time": [8564, 10827, 13779]}, "edge": {"target": [], "time": []}}, "mouseover": {"state": {"target": ["23", "24", "27", "27", "3", "5", "18"], "time": [7452, 7622, 9071, 9465, 11642, 12769, 14468]}, "edge": {"target": [], "time": []}}, "mouseout": {"state": {"target": ["23", "24", "27", "27", "3", "5", "18"], "time": [7560, 8972, 9130, 11522, 11702, 14369, 14530]}, "edge": {"target": [], "time": []}}}, "displayed_time": "21.02", "trialTime": 25472, "trial_type": "mouselab-mdp", "trial_index": 27, "time_elapsed": 1999420, "internal_node_id": "0.0-4.0-1.0-12.0"}}, {"uniqueid": "w86284612:a21596607", "current_trial": 28, "dateTime": 1691144909849, "trialdata": {"revealed_states": [], "clicked_states": ["2", "5", "27", "17"], "num_clicks_accrued": [0, 0, 0, 0, 0, 0, 0, 0, 0, 0, 0, 0, 0], "stateRewards": ["", -1, 4, -6, -5, -22, -38, -38, -2, -56, 88, 14, -1, -1, -7, -6, 61, -60, 21, 11, 57, 31, -30, -2, -2, 6, -9, -44, -70, -44, -15, 34, 16, -78], "withholdReward": false, "trial_id": "mdp_trial_14", "block": "test", "trialIndex": 17, "score": -35.6, "costs": -5.6, "simulationMode": [null, null, null, null, null], "rewards": [-1, 4, -6, -5, -22], "path": ["0", "0", "1", "2", "3", "4", "5"], "rt": [12284, 184, 11, 33, 493], "actions": ["up", "up", "up", "right", "up"], "actionTimes": [15818, 16568, 17129, 17721, 18744], "queries": {"click": {"state": {"target": ["2", "5", "27", "17"], "time": [4823, 7496, 9967, 12796]}, "edge": {"target": [], "time": []}}, "mouseover": {"state": {"target": ["1", "2", "4", "5", "8", "27", "10", "16", "17", "12"], "time": [4169, 4303, 5264, 5341, 8251, 8725, 10730, 11237, 12348, 13687]}, "edge": {"target": [], "time": []}}, "mouseout": {"state": {"target": ["14", "13", "12", "0", "1", "2", "4", "5", "8", "27", "10", "16", "17", "12"], "time": [634, 698, 949, 3586, 4268, 5211, 5327, 8177, 8296, 10710, 10779, 11294, 12938, 14215]}, "edge": {"target": [], "time": []}}}, "displayed_time": "19.31", "trialTime": 22784, "trial_type": "mouselab-mdp", "trial_index": 28, "time_elapsed": 2024365, "internal_node_id": "0.0-4.0-1.0-13.0"}}, {"uniqueid": "w86284612:a21596607", "current_trial": 29, "dateTime": 1691144936576, "trialdata": {"revealed_states": [], "clicked_states": ["25", "27", "5", "9"], "num_clicks_accrued": [0, 0, 0, 0, 0, 0, 0, 0, 0, 0, 0, 0, 0], "stateRewards": ["", 1, -3, -1, 9, -34, -40, 22, -7, 45, 53, -11, 2, 4, 5, 15, 21, 37, -49, -3, 80, -28, -34, 1, -3, 1, 1, -40, -6, -5, -16, -85, -86, 59], "withholdReward": false, "trial_id": "mdp_trial_15", "block": "test", "trialIndex": 18, "score": 29.4, "costs": -5.6, "simulationMode": [null, null, null, null, null], "rewards": [1, -3, -1, -7, 45], "path": ["0", "0", "1", "2", "3", "8", "9"], "rt": [12552, 398, 25, 412, 132], "actions": ["up", "up", "up", "left", "up"], "actionTimes": [14898, 15875, 16483, 17444, 18131], "queries": {"click": {"state": {"target": ["25", "27", "5", "9"], "time": [3877, 6252, 8697, 11812]}, "edge": {"target": [], "time": []}}, "mouseover": {"state": {"target": ["23", "24", "25", "27", "27", "5", "9"], "time": [3152, 3225, 3303, 4480, 5097, 7597, 11679]}, "edge": {"target": [], "time": []}}, "mouseout": {"state": {"target": ["0", "23", "24", "25", "27", "27", "5", "9"], "time": [1341, 3191, 3265, 4418, 4610, 6403, 9263, 12701]}, "edge": {"target": [], "time": []}}}, "displayed_time": "18.70", "trialTime": 24577, "trial_type": "mouselab-mdp", "trial_index": 29, "time_elapsed": 2051092, "internal_node_id": "0.0-4.0-1.0-14.0"}}, {"uniqueid": "w86284612:a21596607", "current_trial": 30, "dateTime": 1691144967589, "trialdata": {"revealed_states": [], "clicked_states": ["2", "5", "9", "29", "17"], "num_clicks_accrued": [0, 0, 0, 0, 0, 0, 0, 0, 0, 0, 0, 0, 0], "stateRewards": ["", 2, 4, -6, -13, -75, -81, 30, 7, 5, 59, -65, -1, -1, 7, 14, -38, 36, -41, 1, -54, -5, 64, 2, -1, 5, 6, -19, 79, 11, 16, -33, -50, 58], "withholdReward": false, "trial_id": "mdp_trial_16", "block": "test", "trialIndex": 19, "score": 48, "costs": -7, "simulationMode": [null, null, null, null, null], "rewards": [-1, -1, 7, 14, 36], "path": ["0", "0", "12", "13", "14", "15", "17"], "rt": [15524, 555, 136, 328, 1047], "actions": ["right", "right", "right", "up", "right"], "actionTimes": [20685, 21784, 22465, 23336, 24944], "queries": {"click": {"state": {"target": ["2", "5", "9", "29", "17"], "time": [6634, 8862, 11740, 14000, 17437]}, "edge": {"target": [], "time": []}}, "mouseover": {"state": {"target": ["2", "2", "4", "5", "6", "4", "3", "9", "9", "27", "29", "24", "23", "14", "17"], "time": [5985, 6369, 7014, 7586, 9642, 10903, 10955, 11083, 11335, 12312, 12828, 16470, 16539, 16902, 17218]}, "edge": {"target": [], "time": []}}, "mouseout": {"state": {"target": ["0", "2", "2", "4", "5", "6", "4", "3", "9", "9", "27", "29", "29", "24", "23", "14", "17"], "time": [3416, 6052, 6917, 7059, 9549, 10282, 10943, 10988, 11167, 12203, 12364, 14102, 14830, 16504, 16578, 16966, 19095]}, "edge": {"target": [], "time": []}}}, "displayed_time": "25.48", "trialTime": 28757, "trial_type": "mouselab-mdp", "trial_index": 30, "time_elapsed": 2082105, "internal_node_id": "0.0-4.0-1.0-15.0"}}, {"uniqueid": "w86284612:a21596607", "current_trial": 31, "dateTime": 1691144991958, "trialdata": {"revealed_states": [], "clicked_states": ["17", "5"], "num_clicks_accrued": [0, 0, 0, 0, 0, 0, 0, 0, 0, 0, 0, 0, 0], "stateRewards": ["", 1, -3, -6, -5, 47, 80, -29, 11, -71, 10, -29, -2, 3, -6, 12, 2, -78, -6, 8, 34, -16, -5, -1, 3, 3, -13, 84, -36, -62, -3, -27, 66, 15], "withholdReward": false, "trial_id": "mdp_trial_17", "block": "test", "trialIndex": 20, "score": 31.2, "costs": -2.8, "simulationMode": [null, null, null, null, null], "rewards": [1, -3, -6, -5, 47], "path": ["0", "0", "1", "2", "3", "4", "5"], "rt": [6733, 507, 881, 347, 230], "actions": ["up", "up", "up", "right", "up"], "actionTimes": [10457, 11489, 12998, 13881, 14674], "queries": {"click": {"state": {"target": ["17", "5"], "time": [5155, 7408]}, "edge": {"target": [], "time": []}}, "mouseover": {"state": {"target": ["18", "17", "15", "5", "9", "11", "27"], "time": [3946, 4937, 5638, 6592, 8011, 8584, 9093]}, "edge": {"target": [], "time": []}}, "mouseout": {"state": {"target": ["13", "0", "0", "18", "17", "15", "5", "9", "11", "27"], "time": [986, 1071, 1536, 3997, 5303, 5686, 7958, 8434, 8622, 9613]}, "edge": {"target": [], "time": []}}}, "displayed_time": "17.73", "trialTime": 22048, "trial_type": "mouselab-mdp", "trial_index": 31, "time_elapsed": 2106474, "internal_node_id": "0.0-4.0-1.0-16.0"}}, {"uniqueid": "w86284612:a21596607", "current_trial": 32, "dateTime": 1691145015753, "trialdata": {"revealed_states": [], "clicked_states": ["7", "9", "29"], "num_clicks_accrued": [0, 0, 0, 0, 0, 0, 0, 0, 0, 0, 0, 0, 0], "stateRewards": ["", 1, 1, 5, 6, -29, -7, 3, -16, 9, -46, 65, -1, 4, -1, -16, -63, -77, -87, 8, 80, -50, 43, -1, -1, -5, 5, -38, -71, -62, 9, 81, -50, -52], "withholdReward": false, "trial_id": "mdp_trial_18", "block": "test", "trialIndex": 21, "score": -4.199999999999999, "costs": -4.199999999999999, "simulationMode": [null, null, null, null, null], "rewards": [1, 1, 5, -16, 9], "path": ["0", "0", "1", "2", "3", "8", "9"], "rt": [9958, 54, 62, 291, 58], "actions": ["up", "up", "up", "left", "up"], "actionTimes": [13462, 14045, 14716, 15546, 16137], "queries": {"click": {"state": {"target": ["7", "9", "29"], "time": [5105, 7414, 10032]}, "edge": {"target": [], "time": []}}, "mouseover": {"state": {"target": ["7", "9", "26", "33", "29", "26", "28"], "time": [4777, 6025, 8198, 8556, 9761, 12452, 12539]}, "edge": {"target": [], "time": []}}, "mouseout": {"state": {"target": ["7", "9", "26", "33", "29", "26", "28"], "time": [5874, 8040, 8406, 9044, 12414, 12499, 12579]}, "edge": {"target": [], "time": []}}}, "displayed_time": "17.51", "trialTime": 21498, "trial_type": "mouselab-mdp", "trial_index": 32, "time_elapsed": 2130268, "internal_node_id": "0.0-4.0-1.0-17.0"}}, {"uniqueid": "w86284612:a21596607", "current_trial": 33, "dateTime": 1691145039006, "trialdata": {"revealed_states": [], "clicked_states": ["17", "20"], "num_clicks_accrued": [0, 0, 0, 0, 0, 0, 0, 0, 0, 0, 0, 0, 0], "stateRewards": ["", 2, 3, -3, 12, -43, 81, -82, -15, 58, -7, -75, -1, -1, 3, -5, 50, -25, -8, 4, 66, 65, -66, 2, -4, 2, -1, -10, 10, 37, 11, 88, -37, 8], "withholdReward": false, "trial_id": "mdp_trial_19", "block": "test", "trialIndex": 22, "score": 68.2, "costs": -2.8, "simulationMode": [null, null, null, null, null], "rewards": [-1, -1, 3, 4, 66], "path": ["0", "0", "12", "13", "14", "19", "20"], "rt": [7818, 641, 338, 302, 243], "actions": ["right", "right", "right", "down", "right"], "actionTimes": [11055, 12249, 13203, 14048, 14852], "queries": {"click": {"state": {"target": ["17", "20"], "time": [5181, 7658]}, "edge": {"target": [], "time": []}}, "mouseover": {"state": {"target": ["12", "17", "20", "19", "25", "27", "10"], "time": [3934, 4489, 6029, 8153, 8400, 8979, 10118]}, "edge": {"target": [], "time": []}}, "mouseout": {"state": {"target": ["0", "12", "17", "20", "19", "25", "27", "10"], "time": [3882, 3998, 5845, 8134, 8211, 8461, 9036, 10167]}, "edge": {"target": [], "time": []}}}, "displayed_time": "17.24", "trialTime": 21271, "trial_type": "mouselab-mdp", "trial_index": 33, "time_elapsed": 2153521, "internal_node_id": "0.0-4.0-1.0-18.0"}}, {"uniqueid": "w86284612:a21596607", "current_trial": 34, "dateTime": 1691145062577, "trialdata": {"revealed_states": [], "clicked_states": [], "num_clicks_accrued": [0, 0, 0, 0, 0, 0, 0, 0, 0, 0, 0, 0, 0], "stateRewards": ["", -1, 3, 1, -7, 56, 76, 57, 3, 11, -9, 14, 1, -2, 2, 8, -77, -3, 79, -5, 88, 24, -66, -2, -1, 7, -7, -30, 14, -76, 11, -36, 28, -6], "withholdReward": false, "trial_id": "mdp_trial_20", "block": "test", "trialIndex": 23, "score": 88, "costs": 0, "simulationMode": [null, null, null, null, null], "rewards": [1, -2, 2, 8, 79], "path": ["0", "0", "12", "13", "14", "15", "18"], "rt": [4861, 130, 311, 248, 653], "actions": ["right", "right", "right", "up", "left"], "actionTimes": [7117, 7788, 8641, 9459, 10640], "queries": {"click": {"state": {"target": [], "time": []}, "edge": {"target": [], "time": []}}, "mouseover": {"state": {"target": ["18", "15", "17"], "time": [4143, 4282, 5043]}, "edge": {"target": [], "time": []}}, "mouseout": {"state": {"target": ["0", "18", "15", "17"], "time": [4059, 4227, 4474, 6060]}, "edge": {"target": [], "time": []}}}, "displayed_time": "16.25", "trialTime": 20951, "trial_type": "mouselab-mdp", "trial_index": 34, "time_elapsed": 2177092, "internal_node_id": "0.0-4.0-1.0-19.0"}}, {"uniqueid": "w86284612:a21596607", "current_trial": 35, "dateTime": 1691145092736, "trialdata": {"revealed_states": [], "clicked_states": ["5", "9", "29", "17"], "num_clicks_accrued": [0, 0, 0, 0, 0, 0, 0, 0, 0, 0, 0, 0, 0], "stateRewards": ["", -1, -4, 8, 8, -68, 47, 24, -7, -61, 49, -69, -1, -1, 8, -7, 42, 1, -45, -11, 10, -63, -6, 1, 4, 6, -16, 79, -37, -58, -12, 81, 18, -53], "withholdReward": false, "trial_id": "mdp_trial_21", "block": "test", "trialIndex": 24, "score": -5.6, "costs": -5.6, "simulationMode": [null, null, null, null, null], "rewards": [-1, -1, 8, -7, 1], "path": ["0", "0", "12", "13", "14", "15", "17"], "rt": [13109, 23, 100, 438, 11], "actions": ["right", "right", "right", "up", "right"], "actionTimes": [17459, 18053, 18673, 19683, 20227], "queries": {"click": {"state": {"target": ["5", "9", "29", "17"], "time": [5858, 8891, 11130, 14522]}, "edge": {"target": [], "time": []}}, "mouseover": {"state": {"target": ["4", "7", "1", "1", "4", "5", "9", "9", "29", "26", "15", "17", "15"], "time": [4410, 4661, 4776, 5006, 5168, 5532, 6464, 6817, 10042, 11945, 13900, 14043, 16616]}, "edge": {"target": [], "time": []}}, "mouseout": {"state": {"target": ["4", "7", "1", "1", "4", "5", "9", "9", "29", "26", "15", "17", "17"], "time": [4602, 4712, 4847, 5085, 5306, 6377, 6593, 9580, 11923, 12047, 14016, 14644, 15628]}, "edge": {"target": [], "time": []}}}, "displayed_time": "20.79", "trialTime": 27916, "trial_type": "mouselab-mdp", "trial_index": 35, "time_elapsed": 2207251, "internal_node_id": "0.0-4.0-1.0-20.0"}}, {"uniqueid": "w86284612:a21596607", "current_trial": 36, "dateTime": 1691145119123, "trialdata": {"revealed_states": [], "clicked_states": ["17", "27", "5", "9"], "num_clicks_accrued": [0, 0, 0, 0, 0, 0, 0, 0, 0, 0, 0, 0, 0], "stateRewards": ["", -2, 2, -4, -4, -59, 88, 62, -3, 69, -15, -34, 1, -2, -5, 7, -54, -20, 78, -16, -74, -53, -21, 2, -4, 2, 13, -8, -44, 26, 9, 72, 4, 17], "withholdReward": false, "trial_id": "mdp_trial_22", "block": "test", "trialIndex": 25, "score": 56.4, "costs": -5.6, "simulationMode": [null, null, null, null, null], "rewards": [-2, 2, -4, -3, 69], "path": ["0", "0", "1", "2", "3", "8", "9"], "rt": [13106, 384, 298, 497, 309], "actions": ["up", "up", "up", "left", "up"], "actionTimes": [16327, 17249, 18096, 19131, 20027], "queries": {"click": {"state": {"target": ["17", "27", "5", "9"], "time": [4455, 7348, 9612, 13162]}, "edge": {"target": [], "time": []}}, "mouseover": {"state": {"target": ["15", "17", "15", "26", "29", "27", "3", "5", "0", "8", "9", "9", "25", "24"], "time": [4002, 4086, 5055, 6189, 6335, 7120, 8172, 8267, 11653, 12084, 12554, 12939, 14469, 15351]}, "edge": {"target": [], "time": []}}, "mouseout": {"state": {"target": ["15", "18", "0", "15", "17", "15", "26", "29", "27", "3", "5", "0", "8", "9", "9", "25"], "time": [867, 897, 3910, 4040, 4622, 5186, 6255, 6539, 8114, 8257, 10253, 11693, 12479, 12602, 13681, 14819]}, "edge": {"target": [], "time": []}}}, "displayed_time": "20.56", "trialTime": 24126, "trial_type": "mouselab-mdp", "trial_index": 36, "time_elapsed": 2233639, "internal_node_id": "0.0-4.0-1.0-21.0"}}, {"uniqueid": "w86284612:a21596607", "current_trial": 37, "dateTime": 1691145145736, "trialdata": {"revealed_states": [], "clicked_states": ["22", "33", "11"], "num_clicks_accrued": [0, 0, 0, 0, 0, 0, 0, 0, 0, 0, 0, 0, 0], "stateRewards": ["", -2, -3, 7, -13, 60, 9, 37, -6, 37, 20, 1, 2, -2, -8, 6, -80, -31, -10, -7, 70, -65, -44, -1, 1, 7, 6, -11, 73, -85, 16, -21, 47, 34], "withholdReward": false, "trial_id": "mdp_trial_23", "block": "test", "trialIndex": 26, "score": 65.8, "costs": -4.199999999999999, "simulationMode": [null, null, null, null, null], "rewards": [-1, 1, 7, 16, 47], "path": ["0", "0", "23", "24", "25", "30", "32"], "rt": [8770, 91, 190, 135, 159], "actions": ["left", "left", "left", "down", "down"], "actionTimes": [12422, 13075, 13801, 14488, 15187], "queries": {"click": {"state": {"target": ["22", "33", "11"], "time": [5035, 7526, 10275]}, "edge": {"target": [], "time": []}}, "mouseover": {"state": {"target": ["22", "31", "30", "33", "11", "11"], "time": [4474, 5774, 5852, 6296, 8245, 8725]}, "edge": {"target": [], "time": []}}, "mouseout": {"state": {"target": ["24", "23", "22", "31", "30", "33", "11"], "time": [1255, 1707, 5660, 5842, 6223, 8102, 8315]}, "edge": {"target": [], "time": []}}}, "displayed_time": "17.66", "trialTime": 24008, "trial_type": "mouselab-mdp", "trial_index": 37, "time_elapsed": 2260249, "internal_node_id": "0.0-4.0-1.0-22.0"}}, {"uniqueid": "w86284612:a21596607", "current_trial": 38, "dateTime": 1691145170959, "trialdata": {"revealed_states": [], "clicked_states": ["32", "5", "16", "9"], "num_clicks_accrued": [0, 0, 0, 0, 0, 0, 0, 0, 0, 0, 0, 0, 0], "stateRewards": ["", -2, -4, 4, -11, -63, -60, -7, 2, -14, 81, -43, -1, -1, -5, 7, 10, 69, 40, 8, -83, 52, 60, 1, 2, 5, -5, 16, 64, 14, -3, 29, 7, -51], "withholdReward": false, "trial_id": "mdp_trial_24", "block": "test", "trialIndex": 27, "score": 4.4, "costs": -5.6, "simulationMode": [null, null, null, null, null], "rewards": [-1, -1, -5, 7, 10], "path": ["0", "0", "12", "13", "14", "15", "16"], "rt": [11659, 199, 125, 155, 23], "actions": ["right", "right", "right", "up", "up"], "actionTimes": [15694, 16449, 17133, 17873, 18445], "queries": {"click": {"state": {"target": ["32", "5", "16", "9"], "time": [5518, 7849, 10290, 12985]}, "edge": {"target": [], "time": []}}, "mouseover": {"state": {"target": ["0", "32", "3", "5", "5", "6", "16", "9"], "time": [4776, 4970, 6184, 6534, 7087, 8786, 9356, 11742]}, "edge": {"target": [], "time": []}}, "mouseout": {"state": {"target": ["11", "10", "1", "0", "32", "3", "5", "5", "5", "6", "16"], "time": [704, 770, 836, 4905, 6072, 6479, 6645, 7983, 8726, 8874, 10408]}, "edge": {"target": [], "time": []}}}, "displayed_time": "19.02", "trialTime": 22616, "trial_type": "mouselab-mdp", "trial_index": 38, "time_elapsed": 2285475, "internal_node_id": "0.0-4.0-1.0-23.0"}}, {"uniqueid": "w86284612:a21596607", "current_trial": 39, "dateTime": 1691145200339, "trialdata": {"revealed_states": [], "clicked_states": ["9", "5", "32", "22"], "num_clicks_accrued": [0, 0, 0, 0, 0, 0, 0, 0, 0, 0, 0, 0, 0], "stateRewards": ["", -1, -3, 3, 5, 56, 39, 50, -1, -80, 33, -46, 1, -2, -6, -8, 87, 48, 54, -11, -20, -64, -54, -2, 3, -7, -3, 12, 88, 35, -16, -46, -70, -3], "withholdReward": false, "trial_id": "mdp_trial_25", "block": "test", "trialIndex": 28, "score": 54.4, "costs": -5.6, "simulationMode": [null, null, null, null, null], "rewards": [-1, -3, 3, 5, 56], "path": ["0", "0", "1", "2", "3", "4", "5"], "rt": [14936, 81, 300, 224, 821], "actions": ["up", "up", "up", "right", "up"], "actionTimes": [18878, 19529, 20402, 21191, 22562], "queries": {"click": {"state": {"target": ["9", "5", "32", "22"], "time": [5871, 8454, 12104, 15740]}, "edge": {"target": [], "time": []}}, "mouseover": {"state": {"target": ["10", "9", "5", "3", "10", "33", "30", "31", "31", "30", "32", "33", "30", "31", "22"], "time": [4929, 5474, 6859, 9255, 9577, 9985, 10936, 10985, 11256, 11303, 11623, 14121, 14559, 14637, 15255]}, "edge": {"target": [], "time": []}}, "mouseout": {"state": {"target": ["9", "1", "10", "9", "5", "3", "10", "33", "30", "31", "31", "30", "32", "33", "30", "31", "22"], "time": [1039, 1103, 4973, 6025, 9200, 9517, 9624, 10905, 10972, 11036, 11293, 11341, 13268, 14522, 14592, 14684, 17426]}, "edge": {"target": [], "time": []}}}, "displayed_time": "23.10", "trialTime": 27094, "trial_type": "mouselab-mdp", "trial_index": 39, "time_elapsed": 2314854, "internal_node_id": "0.0-4.0-1.0-24.0"}}, {"uniqueid": "w86284612:a21596607", "current_trial": 40, "dateTime": 1691145226845, "trialdata": {"revealed_states": [], "clicked_states": ["18", "17", "9", "5"], "num_clicks_accrued": [0, 0, 0, 0, 0, 0, 0, 0, 0, 0, 0, 0, 0], "stateRewards": ["", -1, -1, 4, -16, -75, 81, -51, -7, -84, 73, -30, -2, 1, -3, -16, -77, 33, 14, 1, 45, 87, -66, 2, 2, -5, -7, -19, -17, 79, -3, 8, 49, 47], "withholdReward": false, "trial_id": "mdp_trial_26", "block": "test", "trialIndex": 29, "score": 7.399999999999999, "costs": -5.6, "simulationMode": [null, null, null, null, null], "rewards": [-2, 1, -3, -16, 33], "path": ["0", "0", "12", "13", "14", "15", "17"], "rt": [11914, 138, 100, 288, 158], "actions": ["right", "right", "right", "up", "right"], "actionTimes": [15251, 15943, 16598, 17429, 18147], "queries": {"click": {"state": {"target": ["18", "17", "9", "5"], "time": [4738, 7226, 9578, 12634]}, "edge": {"target": [], "time": []}}, "mouseover": {"state": {"target": ["18", "17", "4", "9", "5"], "time": [4111, 6389, 7711, 8475, 11770]}, "edge": {"target": [], "time": []}}, "mouseout": {"state": {"target": ["0", "18", "17", "4", "9", "9", "9", "5", "5"], "time": [3407, 5804, 7597, 7771, 9742, 10883, 11508, 12777, 14481]}, "edge": {"target": [], "time": []}}}, "displayed_time": "19.01", "trialTime": 24208, "trial_type": "mouselab-mdp", "trial_index": 40, "time_elapsed": 2341361, "internal_node_id": "0.0-4.0-1.0-25.0"}}, {"uniqueid": "w86284612:a21596607", "current_trial": 41, "dateTime": 1691145258289, "trialdata": {"revealed_states": [], "clicked_states": ["27", "5", "18", "20", "33"], "num_clicks_accrued": [0, 0, 0, 0, 0, 0, 0, 0, 0, 0, 0, 0, 0], "stateRewards": ["", -1, 2, -6, 6, -82, -19, -39, -16, -83, 11, -33, -2, -2, 4, -6, -82, -1, -19, -6, -10, -67, -41, -2, 1, -7, 16, -23, -78, -52, 14, 31, -71, 74], "withholdReward": false, "trial_id": "mdp_trial_27", "block": "test", "trialIndex": 30, "score": 73, "costs": -7, "simulationMode": [null, null, null, null, null], "rewards": [-2, 1, -7, 14, 74], "path": ["0", "0", "23", "24", "25", "30", "33"], "rt": [16587, 215, 100, 372, 200], "actions": ["left", "left", "left", "down", "left"], "actionTimes": [20360, 21119, 21769, 22671, 23426], "queries": {"click": {"state": {"target": ["27", "5", "18", "20", "33"], "time": [5227, 8139, 11799, 14381, 17238]}, "edge": {"target": [], "time": []}}, "mouseover": {"state": {"target": ["26", "27", "5", "9", "5", "6", "15", "17", "15", "18", "14", "20", "19", "33", "30", "31"], "time": [4585, 4722, 6352, 6968, 7468, 8558, 8688, 9340, 10312, 10670, 12540, 13132, 14988, 16387, 18605, 18828]}, "edge": {"target": [], "time": []}}, "mouseout": {"state": {"target": ["3", "1", "26", "27", "5", "9", "5", "6", "15", "17", "15", "18", "14", "20", "19", "33", "30"], "time": [1116, 1586, 4650, 5933, 6837, 7358, 8299, 8623, 9089, 10254, 10522, 11931, 12601, 14978, 15087, 18584, 18744]}, "edge": {"target": [], "time": []}}}, "displayed_time": "23.99", "trialTime": 27257, "trial_type": "mouselab-mdp", "trial_index": 41, "time_elapsed": 2372804, "internal_node_id": "0.0-4.0-1.0-26.0"}}, {"uniqueid": "w86284612:a21596607", "current_trial": 42, "dateTime": 1691145284172, "trialdata": {"revealed_states": [], "clicked_states": ["18", "9", "29", "33"], "num_clicks_accrued": [0, 0, 0, 0, 0, 0, 0, 0, 0, 0, 0, 0, 0], "stateRewards": ["", -1, -2, -8, 8, -27, -82, 19, -14, -62, 4, 1, -2, 2, 6, 10, 73, -51, -2, 2, 73, -48, 54, -1, 2, -4, 11, -25, 47, 86, 15, 33, 43, -42], "withholdReward": false, "trial_id": "mdp_trial_28", "block": "test", "trialIndex": 31, "score": 88.4, "costs": -5.6, "simulationMode": [null, null, null, null, null, null], "rewards": [-1, 2, -4, 11, 86], "path": ["0", "0", "23", "24", "25", "26", "29"], "rt": [9863, 1482, 121, 119, 261, 74], "actions": ["left", "left", "left", "left", "up", "left"], "actionTimes": [13068, 14563, 15245, 15883, 16706, 17330], "queries": {"click": {"state": {"target": ["18", "9", "29", "33"], "time": [4678, 7001, 9158, 12096]}, "edge": {"target": [], "time": []}}, "mouseover": {"state": {"target": ["18", "9", "11", "29", "33", "33"], "time": [4028, 6006, 7545, 7669, 9681, 10161]}, "edge": {"target": [], "time": []}}, "mouseout": {"state": {"target": ["31", "0", "18", "9", "11", "29", "33"], "time": [873, 974, 5378, 7526, 7607, 9614, 9735]}, "edge": {"target": [], "time": []}}}, "displayed_time": "17.89", "trialTime": 23367, "trial_type": "mouselab-mdp", "trial_index": 42, "time_elapsed": 2398688, "internal_node_id": "0.0-4.0-1.0-27.0"}}, {"uniqueid": "w86284612:a21596607", "current_trial": 43, "dateTime": 1691145308778, "trialdata": {"revealed_states": [], "clicked_states": ["29", "5", "17"], "num_clicks_accrued": [0, 0, 0, 0, 0, 0, 0, 0, 0, 0, 0, 0, 0], "stateRewards": ["", 2, -2, -8, 9, -20, 55, -58, 14, 42, 2, 36, 1, -3, -5, 5, -58, 57, 60, 16, 57, 30, -70, -2, 1, 3, 10, 59, 23, 77, -13, -26, 88, -72], "withholdReward": false, "trial_id": "mdp_trial_29", "block": "test", "trialIndex": 32, "score": 84.8, "costs": -4.199999999999999, "simulationMode": [null, null, null, null, null], "rewards": [-2, 1, 3, 10, 77], "path": ["0", "0", "23", "24", "25", "26", "29"], "rt": [9021, 642, 177, 370, 46], "actions": ["left", "left", "left", "up", "left"], "actionTimes": [12266, 13462, 14204, 15117, 15738], "queries": {"click": {"state": {"target": ["29", "5", "17"], "time": [4644, 7020, 10023]}, "edge": {"target": [], "time": []}}, "mouseover": {"state": {"target": ["23", "24", "29", "5", "4", "6", "16", "17"], "time": [3915, 3964, 4094, 5894, 8266, 9258, 9415, 9537]}, "edge": {"target": [], "time": []}}, "mouseout": {"state": {"target": ["33", "31", "0", "23", "24", "29", "5", "4", "6", "16"], "time": [743, 791, 3877, 3954, 4015, 5202, 8196, 9221, 9335, 9469]}, "edge": {"target": [], "time": []}}}, "displayed_time": "17.25", "trialTime": 22255, "trial_type": "mouselab-mdp", "trial_index": 43, "time_elapsed": 2423293, "internal_node_id": "0.0-4.0-1.0-28.0"}}, {"uniqueid": "w86284612:a21596607", "current_trial": 44, "dateTime": 1691145331320, "trialdata": {"revealed_states": [], "clicked_states": ["29", "18"], "num_clicks_accrued": [0, 0, 0, 0, 0, 0, 0, 0, 0, 0, 0, 0, 0], "stateRewards": ["", -1, 3, 1, -11, -22, -36, 19, -5, -70, -52, 50, -2, -4, 4, -2, -41, -83, 29, -2, 22, 10, -6, -2, 3, -2, 14, 54, 44, 77, -9, -65, -37, -40], "withholdReward": false, "trial_id": "mdp_trial_30", "block": "test", "trialIndex": 33, "score": 87.2, "costs": -2.8, "simulationMode": [null, null, null, null, null], "rewards": [-2, 3, -2, 14, 77], "path": ["0", "0", "23", "24", "25", "26", "29"], "rt": [7595, 81, 82, 796, 193], "actions": ["left", "left", "left", "up", "left"], "actionTimes": [11564, 12212, 12830, 14172, 14914], "queries": {"click": {"state": {"target": ["29", "18"], "time": [5307, 8536]}, "edge": {"target": [], "time": []}}, "mouseover": {"state": {"target": ["29", "29", "28", "1", "18", "18"], "time": [4008, 4805, 6381, 6974, 7591, 7970]}, "edge": {"target": [], "time": []}}, "mouseout": {"state": {"target": ["29", "26", "28", "0", "29", "29", "28", "1", "18"], "time": [87, 706, 753, 1537, 4210, 6258, 6437, 7021, 7803]}, "edge": {"target": [], "time": []}}}, "displayed_time": "17.97", "trialTime": 19323, "trial_type": "mouselab-mdp", "trial_index": 44, "time_elapsed": 2445835, "internal_node_id": "0.0-4.0-1.0-29.0"}}, {"uniqueid": "w86284612:a21596607", "current_trial": 45, "dateTime": 1691145355443, "trialdata": {"revealed_states": [], "clicked_states": ["29", "5", "18"], "num_clicks_accrued": [0, 0, 0, 0, 0, 0, 0, 0, 0, 0, 0, 0, 0], "stateRewards": ["", 1, 2, -3, 6, -88, 74, -45, 7, -46, 40, -77, 1, -4, 4, 3, 22, -25, -59, 8, -83, 19, -60, -1, -1, -1, -8, 26, -29, 64, -7, -88, -51, -55], "withholdReward": false, "trial_id": "mdp_trial_31", "block": "test", "trialIndex": 34, "score": 48.8, "costs": -4.199999999999999, "simulationMode": [null, null, null, null, null], "rewards": [-1, -1, -1, -8, 64], "path": ["0", "0", "23", "24", "25", "26", "29"], "rt": [10127, 61, 84, 132, 50], "actions": ["left", "left", "left", "up", "left"], "actionTimes": [13959, 14583, 15243, 15936, 16570], "queries": {"click": {"state": {"target": ["29", "5", "18"], "time": [5543, 8453, 11118]}, "edge": {"target": [], "time": []}}, "mouseover": {"state": {"target": ["28", "26", "29", "26", "10", "3", "5", "3", "28", "18"], "time": [4483, 4566, 5027, 6731, 7317, 7413, 7916, 9003, 9570, 10127]}, "edge": {"target": [], "time": []}}, "mouseout": {"state": {"target": ["18", "28", "26", "29", "26", "10", "3", "5", "3", "28"], "time": [887, 4519, 4612, 6668, 6794, 7362, 7462, 8630, 9070, 9671]}, "edge": {"target": [], "time": []}}}, "displayed_time": "17.84", "trialTime": 21494, "trial_type": "mouselab-mdp", "trial_index": 45, "time_elapsed": 2469959, "internal_node_id": "0.0-4.0-1.0-30.0"}}, {"uniqueid": "w86284612:a21596607", "current_trial": 46, "dateTime": 1691145378993, "trialdata": {"revealed_states": [], "clicked_states": ["29"], "num_clicks_accrued": [0, 0, 0, 0, 0, 0, 0, 0, 0, 0, 0, 0, 0], "stateRewards": ["", -1, 1, 8, -8, -49, 62, -78, 16, 28, -81, 78, -2, -3, -1, -4, 67, 49, -2, -13, -16, -39, 83, 1, -4, 4, -5, -20, 7, 84, 7, -32, -59, 19], "withholdReward": false, "trial_id": "mdp_trial_32", "block": "test", "trialIndex": 35, "score": 78.6, "costs": -1.4, "simulationMode": [null, null, null, null, null], "rewards": [1, -4, 4, -5, 84], "path": ["0", "0", "23", "24", "25", "26", "29"], "rt": [5486, 37, 118, 304, 1093], "actions": ["left", "left", "left", "up", "left"], "actionTimes": [11036, 11635, 12306, 13225, 14918], "queries": {"click": {"state": {"target": ["29"], "time": [7800]}, "edge": {"target": [], "time": []}}, "mouseover": {"state": {"target": ["23", "24", "26", "29", "27"], "time": [6524, 6642, 6872, 7003, 8781]}, "edge": {"target": [], "time": []}}, "mouseout": {"state": {"target": ["18", "12", "0", "23", "24", "26", "29"], "time": [668, 713, 1319, 6625, 6734, 6942, 8702]}, "edge": {"target": [], "time": []}}}, "displayed_time": "19.55", "trialTime": 21083, "trial_type": "mouselab-mdp", "trial_index": 46, "time_elapsed": 2493509, "internal_node_id": "0.0-4.0-1.0-31.0"}}, {"uniqueid": "w86284612:a21596607", "current_trial": 47, "dateTime": 1691145405893, "trialdata": {"revealed_states": [], "clicked_states": ["29", "5", "18", "20"], "num_clicks_accrued": [0, 0, 0, 0, 0, 0, 0, 0, 0, 0, 0, 0, 0], "stateRewards": ["", -2, -1, -6, -14, -55, 78, -13, 11, 14, -71, 59, 2, 2, 6, -6, 9, 38, 14, 7, 85, 11, 68, 1, -4, -1, -3, -63, -85, 9, -2, 63, -86, -10], "withholdReward": false, "trial_id": "mdp_trial_33", "block": "test", "trialIndex": 36, "score": 96.4, "costs": -5.6, "simulationMode": [null, null, null, null, null], "rewards": [2, 2, 6, 7, 85], "path": ["0", "0", "12", "13", "14", "19", "20"], "rt": [12541, 463, 220, 130, 525], "actions": ["right", "right", "right", "down", "right"], "actionTimes": [15826, 16830, 17580, 18240, 19324], "queries": {"click": {"state": {"target": ["29", "5", "18", "20"], "time": [4765, 6974, 10061, 12908]}, "edge": {"target": [], "time": []}}, "mouseover": {"state": {"target": ["29", "26", "29", "8", "5", "9", "6", "18", "15", "17", "14", "20", "19"], "time": [3319, 4024, 4329, 5626, 6127, 8154, 9098, 9474, 11193, 11489, 11914, 12359, 13747]}, "edge": {"target": [], "time": []}}, "mouseout": {"state": {"target": ["27", "29", "26", "29", "8", "5", "9", "6", "18", "15", "17", "14", "20", "19"], "time": [798, 3470, 4143, 5606, 5692, 7769, 8968, 9229, 11126, 11309, 11739, 12316, 13732, 14017]}, "edge": {"target": [], "time": []}}}, "displayed_time": "19.87", "trialTime": 23325, "trial_type": "mouselab-mdp", "trial_index": 47, "time_elapsed": 2520408, "internal_node_id": "0.0-4.0-1.0-32.0"}}, {"uniqueid": "w86284612:a21596607", "current_trial": 48, "dateTime": 1691145431080, "trialdata": {"revealed_states": [], "clicked_states": ["20", "29", "5", "18"], "num_clicks_accrued": [0, 0, 0, 0, 0, 0, 0, 0, 0, 0, 0, 0, 0], "stateRewards": ["", 2, 2, 3, -15, 23, -14, 73, -7, -32, -20, -6, 1, 1, -5, -12, 73, 6, -84, 11, -81, -57, 13, -2, -1, -4, -8, -52, -58, 49, 13, 5, -41, -41], "withholdReward": false, "trial_id": "mdp_trial_34", "block": "test", "trialIndex": 37, "score": 28.4, "costs": -5.6, "simulationMode": [null, null, null, null, null], "rewards": [-2, -1, -4, -8, 49], "path": ["0", "0", "23", "24", "25", "26", "29"], "rt": [11669, 26, 157, 371, 513], "actions": ["left", "left", "left", "up", "left"], "actionTimes": [15114, 15724, 16440, 17380, 18439], "queries": {"click": {"state": {"target": ["20", "29", "5", "18"], "time": [4796, 7811, 10411, 13012]}, "edge": {"target": [], "time": []}}, "mouseover": {"state": {"target": ["20", "20", "23", "29", "6", "5", "4", "18"], "time": [3874, 4229, 6123, 7284, 9716, 9832, 11065, 11247]}, "edge": {"target": [], "time": []}}, "mouseout": {"state": {"target": ["0", "20", "20", "23", "29", "6", "5", "4"], "time": [894, 4030, 5867, 6485, 8662, 9755, 11049, 11128]}, "edge": {"target": [], "time": []}}}, "displayed_time": "18.97", "trialTime": 22327, "trial_type": "mouselab-mdp", "trial_index": 48, "time_elapsed": 2545595, "internal_node_id": "0.0-4.0-1.0-33.0"}}, {"uniqueid": "w86284612:a21596607", "current_trial": 49, "dateTime": 1691145455855, "trialdata": {"revealed_states": [], "clicked_states": ["20", "33", "29", "9"], "num_clicks_accrued": [0, 0, 0, 0, 0, 0, 0, 0, 0, 0, 0, 0, 0], "stateRewards": ["", -1, 2, -7, -12, -62, 12, -13, 5, 77, -71, 83, 1, -4, 7, 15, -42, -87, -4, 5, -25, 44, 88, -1, 4, -5, -8, 14, 51, 8, -5, 83, -24, -19], "withholdReward": false, "trial_id": "mdp_trial_35", "block": "test", "trialIndex": 38, "score": 70.4, "costs": -5.6, "simulationMode": [null, null, null, null, null], "rewards": [-1, 2, -7, 5, 77], "path": ["0", "0", "1", "2", "3", "8", "9"], "rt": [11987, 55, 93, 203, 294], "actions": ["up", "up", "up", "left", "up"], "actionTimes": [14789, 15430, 16089, 16847, 17686], "queries": {"click": {"state": {"target": ["20", "33", "29", "9"], "time": [3775, 6927, 9259, 11557]}, "edge": {"target": [], "time": []}}, "mouseover": {"state": {"target": ["20", "19", "22", "31", "30", "33", "33", "29", "8", "9", "17", "17", "15"], "time": [2890, 4322, 4608, 5501, 5816, 5911, 6217, 8469, 9971, 10559, 12336, 12944, 13382]}, "edge": {"target": [], "time": []}}, "mouseout": {"state": {"target": ["17", "14", "13", "20", "19", "22", "31", "30", "33", "33", "29", "8", "9", "17", "17", "15"], "time": [181, 414, 728, 4309, 4371, 5415, 5573, 5894, 5983, 7472, 9833, 10345, 12022, 12396, 13236, 13729]}, "edge": {"target": [], "time": []}}}, "displayed_time": "18.25", "trialTime": 21515, "trial_type": "mouselab-mdp", "trial_index": 49, "time_elapsed": 2570370, "internal_node_id": "0.0-4.0-1.0-34.0"}}, {"uniqueid": "w86284612:a21596607", "current_trial": 50, "dateTime": 1691145476434, "trialdata": {"revealed_states": [], "clicked_states": ["9", "29"], "num_clicks_accrued": [0, 0, 0, 0, 0, 0, 0, 0, 0, 0, 0, 0, 0], "stateRewards": ["", 1, 4, -4, 14, 35, 51, 19, -13, 54, 78, -74, -2, -1, -3, 13, -11, -42, -73, -15, -24, -3, -69, 2, -1, 5, 16, -27, 73, 58, 9, -60, 5, -60], "withholdReward": false, "trial_id": "mdp_trial_36", "block": "test", "trialIndex": 39, "score": 77.2, "costs": -2.8, "simulationMode": [null, null, null, null, null], "rewards": [2, -1, 5, 16, 58], "path": ["0", "0", "23", "24", "25", "26", "29"], "rt": [6779, 96, 117, 444, 60], "actions": ["left", "left", "left", "up", "left"], "actionTimes": [10025, 10678, 11344, 12370, 12959], "queries": {"click": {"state": {"target": ["9", "29"], "time": [4652, 6891]}, "edge": {"target": [], "time": []}}, "mouseover": {"state": {"target": ["10", "8", "9", "9", "11", "27", "29", "14"], "time": [3797, 3881, 3945, 4237, 5069, 5151, 5437, 8115]}, "edge": {"target": [], "time": []}}, "mouseout": {"state": {"target": ["12", "0", "10", "8", "9", "9", "11", "27", "29", "14"], "time": [730, 3652, 3869, 3920, 3987, 5052, 5136, 5214, 7491, 8178]}, "edge": {"target": [], "time": []}}}, "displayed_time": "17.25", "trialTime": 18315, "trial_type": "mouselab-mdp", "trial_index": 50, "time_elapsed": 2590949, "internal_node_id": "0.0-4.0-1.0-35.0"}}, {"uniqueid": "w86284612:a21596607", "current_trial": 51, "dateTime": 1691145498372, "trialdata": {"revealed_states": [], "clicked_states": ["20", "29", "9"], "num_clicks_accrued": [0, 0, 0, 0, 0, 0, 0, 0, 0, 0, 0, 0, 0], "stateRewards": ["", 2, 3, 6, -12, -29, 12, 87, 4, 35, -30, 67, 2, 3, -5, -9, 44, 69, -8, 1, 45, -8, 28, -2, -1, -8, 11, -12, -5, 81, 9, 87, 82, 88], "withholdReward": false, "trial_id": "mdp_trial_37", "block": "test", "trialIndex": 40, "score": 76.8, "costs": -4.199999999999999, "simulationMode": [null, null, null, null, null], "rewards": [-2, -1, -8, 11, 81], "path": ["0", "0", "23", "24", "25", "26", "29"], "rt": [9058, 10, 104, 175, 572], "actions": ["left", "left", "left", "up", "left"], "actionTimes": [12171, 12852, 13526, 14244, 15404], "queries": {"click": {"state": {"target": ["20", "29", "9"], "time": [5211, 7432, 10075]}, "edge": {"target": [], "time": []}}, "mouseover": {"state": {"target": ["12", "14", "20", "19", "29", "29", "9"], "time": [3999, 4373, 4665, 5593, 5712, 6252, 8458]}, "edge": {"target": [], "time": []}}, "mouseout": {"state": {"target": ["13", "12", "14", "20", "19", "29", "29", "9"], "time": [700, 4058, 4443, 5566, 5647, 5784, 7858, 10228]}, "edge": {"target": [], "time": []}}}, "displayed_time": "17.12", "trialTime": 19038, "trial_type": "mouselab-mdp", "trial_index": 51, "time_elapsed": 2612888, "internal_node_id": "0.0-4.0-1.0-36.0"}}, {"uniqueid": "w86284612:a21596607", "current_trial": 52, "dateTime": 1691145520382, "trialdata": {"revealed_states": [], "clicked_states": ["29", "20"], "num_clicks_accrued": [0, 0, 0, 0, 0, 0, 0, 0, 0, 0, 0, 0, 0], "stateRewards": ["", 1, -2, -2, 10, -31, -77, 35, 9, -47, 8, 48, -2, 1, -4, -3, -26, -50, 43, -11, 76, -38, 17, 1, -1, 6, 10, 15, -9, 12, -8, 85, 11, -55], "withholdReward": false, "trial_id": "mdp_trial_38", "block": "test", "trialIndex": 41, "score": 57.2, "costs": -2.8, "simulationMode": [null, null, null, null, null], "rewards": [-2, 1, -4, -11, 76], "path": ["0", "0", "12", "13", "14", "19", "20"], "rt": [6516, 34, 68, 139, 41], "actions": ["right", "right", "right", "down", "right"], "actionTimes": [10694, 11297, 11907, 12621, 13203], "queries": {"click": {"state": {"target": ["29", "20"], "time": [5476, 7632]}, "edge": {"target": [], "time": []}}, "mouseover": {"state": {"target": ["29", "12", "19", "20", "2", "8", "9"], "time": [5009, 5987, 6348, 6459, 8188, 8676, 9895]}, "edge": {"target": [], "time": []}}, "mouseout": {"state": {"target": ["29", "12", "0", "29", "12", "19", "20", "2", "8"], "time": [544, 1428, 4211, 5606, 6047, 6442, 7812, 8524, 8729]}, "edge": {"target": [], "time": []}}}, "displayed_time": "18.18", "trialTime": 19194, "trial_type": "mouselab-mdp", "trial_index": 52, "time_elapsed": 2634897, "internal_node_id": "0.0-4.0-1.0-37.0"}}, {"uniqueid": "w86284612:a21596607", "current_trial": 53, "dateTime": 1691145542475, "trialdata": {"revealed_states": [], "clicked_states": ["9", "29", "20", "18"], "num_clicks_accrued": [0, 0, 0, 0, 0, 0, 0, 0, 0, 0, 0, 0, 0], "stateRewards": ["", 1, 1, 4, 11, 83, -66, 18, -16, -23, 5, 25, 1, -3, 1, -12, 18, 24, -86, -11, -64, 36, 40, 2, 1, -6, 13, 55, 29, 72, -2, 81, -72, -41], "withholdReward": false, "trial_id": "mdp_trial_39", "block": "test", "trialIndex": 42, "score": 76.4, "costs": -5.6, "simulationMode": [null, null, null, null, null], "rewards": [2, 1, -6, 13, 72], "path": ["0", "0", "23", "24", "25", "26", "29"], "rt": [10360, 36, 64, 427, 70], "actions": ["left", "left", "left", "up", "left"], "actionTimes": [13839, 14461, 15104, 16085, 16698], "queries": {"click": {"state": {"target": ["9", "29", "20", "18"], "time": [5046, 7239, 9566, 11858]}, "edge": {"target": [], "time": []}}, "mouseover": {"state": {"target": ["9", "11", "27", "29", "12", "19", "20", "14", "18"], "time": [4510, 5530, 5696, 6386, 7666, 7819, 8193, 10159, 10813]}, "edge": {"target": [], "time": []}}, "mouseout": {"state": {"target": ["9", "1", "0", "9", "11", "27", "29", "12", "19", "20", "14"], "time": [745, 846, 3588, 5515, 5611, 5994, 7651, 7808, 8101, 9943, 10307]}, "edge": {"target": [], "time": []}}}, "displayed_time": "17.48", "trialTime": 18957, "trial_type": "mouselab-mdp", "trial_index": 53, "time_elapsed": 2656991, "internal_node_id": "0.0-4.0-1.0-38.0"}}, {"uniqueid": "w86284612:a21596607", "current_trial": 54, "dateTime": 1691145568331, "trialdata": {"revealed_states": [], "clicked_states": ["29", "20", "9", "18"], "num_clicks_accrued": [0, 0, 0, 0, 0, 0, 0, 0, 0, 0, 0, 0, 0], "stateRewards": ["", 1, -4, -4, 8, 1, -79, 68, -10, -79, 8, -74, -1, -3, -6, 14, 43, 23, 9, 5, -51, 63, 61, -2, 4, 6, -10, 69, -32, 57, 15, -80, -80, -77], "withholdReward": false, "trial_id": "mdp_trial_40", "block": "test", "trialIndex": 43, "score": 49.4, "costs": -5.6, "simulationMode": [null, null, null, null, null], "rewards": [-2, 4, 6, -10, 57], "path": ["0", "0", "23", "24", "25", "26", "29"], "rt": [11115, 582, 247, 166, 483], "actions": ["left", "left", "left", "up", "left"], "actionTimes": [14659, 15807, 16608, 17362, 18477], "queries": {"click": {"state": {"target": ["29", "20", "9", "18"], "time": [5222, 7482, 9636, 12425]}, "edge": {"target": [], "time": []}}, "mouseover": {"state": {"target": ["23", "26", "29", "19", "20", "18", "9", "18", "1", "28", "26"], "time": [4397, 4514, 4655, 5772, 6339, 8039, 8532, 10926, 12912, 13098, 13197]}, "edge": {"target": [], "time": []}}, "mouseout": {"state": {"target": ["18", "23", "26", "29", "19", "20", "18", "9", "18", "18", "1", "28", "26"], "time": [1083, 4444, 4563, 5694, 6225, 8009, 8110, 10144, 12578, 12839, 12990, 13182, 13747]}, "edge": {"target": [], "time": []}}}, "displayed_time": "19.02", "trialTime": 23343, "trial_type": "mouselab-mdp", "trial_index": 54, "time_elapsed": 2682846, "internal_node_id": "0.0-4.0-1.0-39.0"}}, {"uniqueid": "w86284612:a21596607", "current_trial": 55, "dateTime": 1691145633320, "trialdata": {"rt": 64205, "response": {"Q0": "$-2 to $2", "Q1": "$-16 to $16", "Q2": "$-88 to $88", "Q3": "The cost for clicking on nodes varied between nodes.", "Q4": "Very motivated"}, "question_order": [0, 1, 2, 3, 4], "trial_id": "final_quiz_control", "trial_type": "survey-multi-choice", "trial_index": 55, "time_elapsed": 2747837, "internal_node_id": "0.0-4.0-2.0"}}, {"uniqueid": "w86284612:a21596607", "current_trial": 56, "dateTime": 1691145788773, "trialdata": {"rt": 154211, "response": {"Q0": "checking the end nodes", "Q1": "memorising locations that paid more", "Q2": "not difficult"}, "trial_id": "self_report_control", "trial_type": "survey-text", "trial_index": 56, "time_elapsed": 2903290, "internal_node_id": "0.0-4.0-3.0"}}, {"uniqueid": "w86284612:a21596607", "current_trial": 57, "dateTime": 1691145825415, "trialdata": {"rt": 36396, "response": {"gender": "male", "age": "21", "colorblind": "0", "effort": "0"}, "trial_type": "survey-html-form", "trial_index": 57, "time_elapsed": 2939932, "internal_node_id": "0.0-4.0-4.0"}}, {"uniqueid": "w86284612:a21596607", "current_trial": 58, "dateTime": 1691145843819, "trialdata": {"rt": 18318, "response": {"Q0": "no", "Q1": "no", "Q2": "none"}, "trial_type": "survey-text", "trial_index": 58, "time_elapsed": 2958333, "internal_node_id": "0.0-4.0-5.0"}}, {"uniqueid": "w86284612:a21596607", "current_trial": 59, "dateTime": 1691145849625, "trialdata": {"rt": 5682, "stimulus": "Press 'Finish HIT' in order to reach the completion code. Once the data has been saved, you will receive the code either in this window or in the original browser window where you started the experiment.\n", "response": 0, "trial_type": "html-button-response", "trial_index": 59, "time_elapsed": 2964142, "internal_node_id": "0.0-5.0"}}, {"uniqueid": "w86284612:a21596607", "current_trial": 60, "dateTime": 1691145850723, "trialdata": {"success": true, "trial_type": "fullscreen", "trial_index": 60, "time_elapsed": 2965239, "internal_node_id": "0.0-6.0"}}], "questiondata": {"params": {"CODE": "C6DMOQA6", "MIN_TIME": 14, "inspectCost": 1, "startTime": "Fri Aug 04 2023 11:54:43 GMT+0200 (South Africa Standard Time)", "bonusRate": 0.002, "variance": "1_2_4_8_44", "branching": "31123"}, "final_score": 1256.4}, "eventdata": [{"eventtype": "initialized", "value": null, "timestamp": 1691142882879, "interval": 0}, {"eventtype": "window_resize", "value": [1024, 664], "timestamp": 1691142882879, "interval": 0}, {"eventtype": "window_resize", "value": [1024, 664], "timestamp": 1691142883422, "interval": 543}, {"eventtype": "window_resize", "value": [1366, 680], "timestamp": 1691142887335, "interval": 3913}, {"eventtype": "window_resize", "value": [1366, 768], "timestamp": 1691142898474, "interval": 11139}, {"eventtype": "focus", "value": "off", "timestamp": 1691143796093, "interval": 897619}, {"eventtype": "focus", "value": "on", "timestamp": 1691143796094, "interval": 1}, {"eventtype": "window_resize", "value": [1366, 680], "timestamp": 1691143796326, "interval": 232}, {"eventtype": "window_resize", "value": [1366, 768], "timestamp": 1691143798383, "interval": 2057}], "useragent": "Mozilla/5.0 (Windows NT 10.0; Win64; x64) AppleWebKit/537.36 (KHTML, like Gecko) Chrome/115.0.0.0 Safari/537.36", "mode": "live", "id": "w86284612:a21596607", "status": "user data saved", "Beginhit": "2023-08-04 09:54:39.586141", "Beginexp": "2023-08-04 09:55:00.091677", "Endhit": "2023-08-04 10:44:17.152772", "psiturkStatus": 3, "browser": "<redacted>", "platform": "windows", "language": "en-ZA"}