{"condition": 0, "counterbalance": 0, "assignmentId": "a48414496", "workerId": "w90225276", "hitId": "h32484462", "currenttrial": 61, "bonus": 0, "data": [{"uniqueid": "w90225276:a48414496", "current_trial": 0, "dateTime": 1693564681385, "trialdata": {"success": true, "trial_type": "fullscreen", "trial_index": 0, "time_elapsed": 9254, "internal_node_id": "0.0-0.0"}}, {"uniqueid": "w90225276:a48414496", "current_trial": 1, "dateTime": 1693564714683, "trialdata": {"view_history": [{"page_index": 0, "viewing_time": 33259}], "rt": 33265, "trial_id": "exp_instructions_control", "trial_type": "instructions", "trial_index": 1, "time_elapsed": 42553, "internal_node_id": "0.0-1.0"}}, {"uniqueid": "w90225276:a48414496", "current_trial": 2, "dateTime": 1693565116647, "trialdata": {"view_history": [{"page_index": 0, "viewing_time": 157548}, {"page_index": 1, "viewing_time": 149704}, {"page_index": 2, "viewing_time": 36900}, {"page_index": 3, "viewing_time": 57789}], "rt": 401942, "trial_id": "mouselab_instructions_1_control", "trial_type": "instructions", "trial_index": 2, "time_elapsed": 444517, "internal_node_id": "0.0-2.0-1.0"}}, {"uniqueid": "w90225276:a48414496", "current_trial": 3, "dateTime": 1693565141368, "trialdata": {"revealed_states": [], "clicked_states": [], "num_clicks_accrued": [0, 0, 0, 0, 0, 0, 0, 0, 0, 0, 0, 0, 0], "stateRewards": ["", 10, -10, -10, -10, -10, 10, -10, 10, -10, 10, -10, -10, 10, -10, -10, 10, -10, 10, -10, -10, -10, 10, -10, 10, 10, 10, 10, 10, -10, 10, 10, -10, 10], "withholdReward": false, "trial_id": "practice_1", "block": "test", "trialIndex": 0, "score": -6.5, "costs": 0, "simulationMode": [null, null, null, null, null], "rewards": [-10, 10, -10, -10, 10], "path": ["0", "0", "12", "13", "14", "15", "16"], "rt": [1803, 103, 13, 1663, 148], "actions": ["right", "right", "right", "up", "up"], "actionTimes": [10413, 11065, 11624, 13857, 14542], "queries": {"click": {"state": {"target": [], "time": []}, "edge": {"target": [], "time": []}}, "mouseover": {"state": {"target": ["0"], "time": [8724]}, "edge": {"target": [], "time": []}}, "mouseout": {"state": {"target": ["12", "0", "0", "0"], "time": [582, 5884, 6436, 19438]}, "edge": {"target": [], "time": []}}}, "displayed_time": "15.12", "trialTime": 21993, "trial_type": "mouselab-mdp", "trial_index": 3, "time_elapsed": 469234, "internal_node_id": "0.0-2.0-2.0-0.0"}}, {"uniqueid": "w90225276:a48414496", "current_trial": 4, "dateTime": 1693565159422, "trialdata": {"revealed_states": [], "clicked_states": [], "num_clicks_accrued": [0, 0, 0, 0, 0, 0, 0, 0, 0, 0, 0, 0, 0], "stateRewards": ["", 10, -10, -10, -10, -10, 10, -10, 10, -10, -10, -10, 10, -10, 10, -10, -10, 10, 10, -10, 10, -10, 10, 10, -10, -10, 10, 10, 10, 10, -10, -10, -10, -10], "withholdReward": false, "trial_id": "practice_2", "block": "test", "trialIndex": 1, "score": 13.5, "costs": 0, "simulationMode": [null, null, null, null, null], "rewards": [10, -10, -10, 10, 10], "path": ["0", "0", "23", "24", "25", "26", "27"], "rt": [3379, 21, 487, 1149, 447], "actions": ["left", "left", "left", "up", "up"], "actionTimes": [8074, 8642, 9662, 11407, 12410], "queries": {"click": {"state": {"target": [], "time": []}, "edge": {"target": [], "time": []}}, "mouseover": {"state": {"target": [], "time": []}, "edge": {"target": [], "time": []}}, "mouseout": {"state": {"target": [], "time": []}, "edge": {"target": [], "time": []}}}, "displayed_time": "12.94", "trialTime": 15861, "trial_type": "mouselab-mdp", "trial_index": 4, "time_elapsed": 487289, "internal_node_id": "0.0-2.0-2.0-1.0"}}, {"uniqueid": "w90225276:a48414496", "current_trial": 5, "dateTime": 1693565190919, "trialdata": {"view_history": [{"page_index": 0, "viewing_time": 10018}, {"page_index": 1, "viewing_time": 21462}], "rt": 31481, "trial_id": "mouselab_instructions_2_control", "trial_type": "instructions", "trial_index": 5, "time_elapsed": 518789, "internal_node_id": "0.0-2.0-3.0"}}, {"uniqueid": "w90225276:a48414496", "current_trial": 6, "dateTime": 1693565265303, "trialdata": {"rt": 74350, "response": {"Q0": "There is no cost for clicking on nodes.", "Q1": "The better I perform the higher my bonus will be.", "Q2": "No, the amount of cash at each node of the web may be different each time.", "Q3": "To get the highest total score.", "Q4": "Only before moving the spider.", "Q5": "3 seconds"}, "question_order": [0, 1, 2, 3, 4, 5], "correct": {"Q0": "The cost for clicking on nodes may vary between nodes.", "Q1": "The better I perform the higher my bonus will be.", "Q2": "No, the amount of cash at each node of the web may be different each time.", "Q3": "To get the highest total score.", "Q4": "Only before moving the spider.", "Q5": "3 seconds"}, "trial_id": "mouselab_quiz_control", "trial_type": "survey-multi-choice", "trial_index": 6, "time_elapsed": 593173, "internal_node_id": "0.0-2.0-4.0"}}, {"uniqueid": "w90225276:a48414496", "current_trial": 7, "dateTime": 1693565283747, "trialdata": {"success": true, "trial_type": "fullscreen", "trial_index": 7, "time_elapsed": 611617, "internal_node_id": "0.0-2.1-0.1-0.1"}}, {"uniqueid": "w90225276:a48414496", "current_trial": 8, "dateTime": 1693565474535, "trialdata": {"view_history": [{"page_index": 0, "viewing_time": 82332}, {"page_index": 1, "viewing_time": 81360}, {"page_index": 2, "viewing_time": 1709}, {"page_index": 1, "viewing_time": 22452}, {"page_index": 2, "viewing_time": 333}, {"page_index": 3, "viewing_time": 2588}], "rt": 190776, "trial_id": "mouselab_instructions_1_control", "trial_type": "instructions", "trial_index": 8, "time_elapsed": 802404, "internal_node_id": "0.0-2.1-1.1"}}, {"uniqueid": "w90225276:a48414496", "current_trial": 9, "dateTime": 1693565494060, "trialdata": {"revealed_states": [], "clicked_states": ["12"], "num_clicks_accrued": [0, 0, 0, 0, 0, 0, 0, 0, 0, 0, 0, 0, 0], "stateRewards": ["", 10, -10, -10, -10, -10, 10, -10, 10, -10, 10, -10, -10, 10, -10, -10, 10, -10, 10, -10, -10, -10, 10, -10, 10, 10, 10, 10, 10, -10, 10, 10, -10, 10], "withholdReward": false, "trial_id": "practice_1", "block": "test", "trialIndex": 2, "score": -7, "costs": -0.5, "simulationMode": [null, null, null, null, null], "rewards": [-10, 10, -10, -10, 10], "path": ["0", "0", "12", "13", "14", "15", "16"], "rt": [3134, 346, 372, 1305, 260], "actions": ["right", "right", "right", "up", "up"], "actionTimes": [7695, 8600, 9520, 11357, 12144], "queries": {"click": {"state": {"target": ["12"], "time": [6623]}, "edge": {"target": [], "time": []}}, "mouseover": {"state": {"target": ["12"], "time": [5391]}, "edge": {"target": [], "time": []}}, "mouseout": {"state": {"target": ["23", "23", "0", "12", "12"], "time": [1877, 2247, 5345, 6754, 15482]}, "edge": {"target": [], "time": []}}}, "displayed_time": "12.68", "trialTime": 16824, "trial_type": "mouselab-mdp", "trial_index": 9, "time_elapsed": 821927, "internal_node_id": "0.0-2.1-2.1-0.1"}}, {"uniqueid": "w90225276:a48414496", "current_trial": 10, "dateTime": 1693565519468, "trialdata": {"revealed_states": [], "clicked_states": [], "num_clicks_accrued": [0, 0, 0, 0, 0, 0, 0, 0, 0, 0, 0, 0, 0], "stateRewards": ["", 10, -10, -10, -10, -10, 10, -10, 10, -10, -10, -10, 10, -10, 10, -10, -10, 10, 10, -10, 10, -10, 10, 10, -10, -10, 10, 10, 10, 10, -10, -10, -10, -10], "withholdReward": false, "trial_id": "practice_2", "block": "test", "trialIndex": 3, "score": 13.5, "costs": 0, "simulationMode": [null, null, null, null, null], "rewards": [10, -10, -10, 10, 10], "path": ["0", "0", "23", "24", "25", "26", "27"], "rt": [3671, 820, 324, 1498, 83], "actions": ["left", "left", "left", "up", "up"], "actionTimes": [12056, 13444, 14319, 16389, 17015], "queries": {"click": {"state": {"target": [], "time": []}, "edge": {"target": [], "time": []}}, "mouseover": {"state": {"target": [], "time": []}, "edge": {"target": [], "time": []}}, "mouseout": {"state": {"target": [], "time": []}, "edge": {"target": [], "time": []}}}, "displayed_time": "17.56", "trialTime": 23470, "trial_type": "mouselab-mdp", "trial_index": 10, "time_elapsed": 847335, "internal_node_id": "0.0-2.1-2.1-1.1"}}, {"uniqueid": "w90225276:a48414496", "current_trial": 11, "dateTime": 1693565538541, "trialdata": {"view_history": [{"page_index": 0, "viewing_time": 16607}, {"page_index": 1, "viewing_time": 2447}], "rt": 19057, "trial_id": "mouselab_instructions_2_control", "trial_type": "instructions", "trial_index": 11, "time_elapsed": 866411, "internal_node_id": "0.0-2.1-3.1"}}, {"uniqueid": "w90225276:a48414496", "current_trial": 12, "dateTime": 1693565594863, "trialdata": {"rt": 56310, "response": {"Q0": "The cost for clicking on nodes may vary between nodes.", "Q1": "The better I perform the higher my bonus will be.", "Q2": "No, the amount of cash at each node of the web may be different each time.", "Q3": "To get the highest total score.", "Q4": "Only before moving the spider.", "Q5": "3 seconds"}, "question_order": [0, 1, 2, 3, 4, 5], "correct": {"Q0": "The cost for clicking on nodes may vary between nodes.", "Q1": "The better I perform the higher my bonus will be.", "Q2": "No, the amount of cash at each node of the web may be different each time.", "Q3": "To get the highest total score.", "Q4": "Only before moving the spider.", "Q5": "3 seconds"}, "trial_id": "mouselab_quiz_control", "trial_type": "survey-multi-choice", "trial_index": 12, "time_elapsed": 922733, "internal_node_id": "0.0-2.1-4.1"}}, {"uniqueid": "w90225276:a48414496", "current_trial": 13, "dateTime": 1693565610723, "trialdata": {"rt": 15822, "response": {"Q0": "No"}, "question_order": [0], "trial_id": "repeat_check", "trial_type": "survey-multi-choice", "trial_index": 13, "time_elapsed": 938590, "internal_node_id": "0.0-4.0-0.0"}}, {"uniqueid": "w90225276:a48414496", "current_trial": 14, "dateTime": 1693565627033, "trialdata": {"rt": 16275, "stimulus": "\n<h1> Get ready to start the game! </h1>\n\nThank you for reading the instructions. Get ready start with the 40 rounds of this game.\n<br><br>\nIf you need to take a break, feel free to take one after the end of a round, before continuing to the next one.\n<br><br>\nRemember, the more money the spider gets, the bigger your bonus will be!\n<br><br>\n<div style='text-align: center;'>Press <code>space</code> to begin.</div>\n\n<br><br>\n(If, at any point, the <code>space</code> key does not take you to the next page, click once on the text and try again.)", "response": " ", "trial_id": "mdp_ready", "trial_type": "html-keyboard-response", "trial_index": 14, "time_elapsed": 954903, "internal_node_id": "0.0-6.0-0.0"}}, {"uniqueid": "w90225276:a48414496", "current_trial": 15, "dateTime": 1693565656897, "trialdata": {"revealed_states": [], "clicked_states": [], "num_clicks_accrued": [0, 0, 0, 0, 0, 0, 0, 0, 0, 0, 0, 0, 0], "stateRewards": ["", 1, 2, 2, -15, -84, 28, -26, 13, 31, 86, 30, -2, 1, -1, -8, 66, -40, -1, -10, -32, 57, -17, 1, 2, -2, 9, -23, 77, 85, 12, -32, -62, -35], "withholdReward": false, "trial_id": "mdp_trial_1", "block": "test", "trialIndex": 4, "score": -13, "costs": 0, "simulationMode": [null, null, null, null, null], "rewards": [1, 2, -2, 9, -23], "path": ["0", "0", "23", "24", "25", "26", "27"], "rt": [7428, 256, 384, 433, 63], "actions": ["left", "left", "left", "up", "up"], "actionTimes": [18711, 19522, 20449, 21442, 22045], "queries": {"click": {"state": {"target": [], "time": []}, "edge": {"target": [], "time": []}}, "mouseover": {"state": {"target": [], "time": []}, "edge": {"target": [], "time": []}}, "mouseout": {"state": {"target": ["3", "2", "1"], "time": [7842, 7937, 8116]}, "edge": {"target": [], "time": []}}}, "displayed_time": "25.29", "trialTime": 27521, "trial_type": "mouselab-mdp", "trial_index": 15, "time_elapsed": 984765, "internal_node_id": "0.0-6.0-1.0-0.0"}}, {"uniqueid": "w90225276:a48414496", "current_trial": 16, "dateTime": 1693565679082, "trialdata": {"revealed_states": [], "clicked_states": [], "num_clicks_accrued": [0, 0, 0, 0, 0, 0, 0, 0, 0, 0, 0, 0, 0], "stateRewards": ["", 2, -1, 5, 8, 75, -35, -77, 1, -9, -81, -58, 1, 2, -7, 5, 77, -16, 19, 16, -10, -18, 40, -2, 3, 7, -5, 64, 1, -62, 10, 27, 10, 65], "withholdReward": false, "trial_id": "mdp_trial_2", "block": "test", "trialIndex": 5, "score": -6, "costs": 0, "simulationMode": [null, null, null, null, null], "rewards": [1, 2, -7, 16, -18], "path": ["0", "0", "12", "13", "14", "19", "21"], "rt": [927, 352, 263, 939, 187], "actions": ["right", "right", "right", "down", "down"], "actionTimes": [3531, 4437, 5237, 6717, 7441], "queries": {"click": {"state": {"target": [], "time": []}, "edge": {"target": [], "time": []}}, "mouseover": {"state": {"target": [], "time": []}, "edge": {"target": [], "time": []}}, "mouseout": {"state": {"target": [], "time": []}, "edge": {"target": [], "time": []}}}, "displayed_time": "16.64", "trialTime": 20083, "trial_type": "mouselab-mdp", "trial_index": 16, "time_elapsed": 1006947, "internal_node_id": "0.0-6.0-1.0-1.0"}}, {"uniqueid": "w90225276:a48414496", "current_trial": 17, "dateTime": 1693565754066, "trialdata": {"revealed_states": [], "clicked_states": [], "num_clicks_accrued": [0, 0, 0, 0, 0, 0, 0, 0, 0, 0, 0, 0, 0], "stateRewards": ["", -1, 3, 8, 9, -53, 20, -84, 2, -28, -62, -31, -1, -2, -7, 2, 51, 58, 45, -4, -17, -41, 36, 2, -2, -7, -15, 29, -54, -37, -16, -43, 65, -17], "withholdReward": false, "trial_id": "mdp_trial_3", "block": "test", "trialIndex": 6, "score": 42, "costs": 0, "simulationMode": [null, null, null, null, null], "rewards": [2, -2, -7, -16, 65], "path": ["0", "0", "23", "24", "25", "30", "32"], "rt": [1791, 364, 332, 721, 655], "actions": ["left", "left", "left", "down", "down"], "actionTimes": [5966, 6895, 7770, 9037, 10229], "queries": {"click": {"state": {"target": [], "time": []}, "edge": {"target": [], "time": []}}, "mouseover": {"state": {"target": [], "time": []}, "edge": {"target": [], "time": []}}, "mouseout": {"state": {"target": [], "time": []}, "edge": {"target": [], "time": []}}}, "displayed_time": "18.18", "trialTime": 72843, "trial_type": "mouselab-mdp", "trial_index": 17, "time_elapsed": 1081935, "internal_node_id": "0.0-6.0-1.0-2.0"}}, {"uniqueid": "w90225276:a48414496", "current_trial": 18, "dateTime": 1693565899614, "trialdata": {"revealed_states": [], "clicked_states": [], "num_clicks_accrued": [0, 0, 0, 0, 0, 0, 0, 0, 0, 0, 0, 0, 0], "stateRewards": ["", -1, -3, -3, 1, -38, 2, -53, -2, -1, -81, 70, -1, 1, -5, -9, 46, 15, 35, -1, -22, 38, 59, -2, 4, -8, 13, 1, -83, -43, 4, 76, 13, 48], "withholdReward": false, "trial_id": "mdp_trial_4", "block": "test", "trialIndex": 7, "score": -28, "costs": 0, "simulationMode": [null, null, null, null, null], "rewards": [-1, 1, -5, -1, -22], "path": ["0", "0", "12", "13", "14", "19", "20"], "rt": [15779, 155, 7, 8221, 1701], "actions": ["right", "right", "right", "down", "right"], "actionTimes": [42000, 42693, 43233, 52010, 54261], "queries": {"click": {"state": {"target": [], "time": []}, "edge": {"target": [], "time": []}}, "mouseover": {"state": {"target": ["0", "12", "17"], "time": [29500, 37133, 37212]}, "edge": {"target": [], "time": []}}, "mouseout": {"state": {"target": ["0", "0", "0", "12", "17", "17", "17", "19"], "time": [220, 26263, 37090, 37173, 37242, 47873, 48009, 50283]}, "edge": {"target": [], "time": []}}}, "displayed_time": "54.80", "trialTime": 143230, "trial_type": "mouselab-mdp", "trial_index": 18, "time_elapsed": 1227483, "internal_node_id": "0.0-6.0-1.0-3.0"}}, {"uniqueid": "w90225276:a48414496", "current_trial": 19, "dateTime": 1693565922595, "trialdata": {"revealed_states": [], "clicked_states": [], "num_clicks_accrued": [0, 0, 0, 0, 0, 0, 0, 0, 0, 0, 0, 0, 0], "stateRewards": ["", -2, 1, -3, -16, -39, -52, 30, -7, -41, -59, 11, 2, 1, 8, 2, -11, -26, -42, -13, 87, -59, -48, -1, -1, -1, 16, -79, 31, 50, -1, -84, 34, -82], "withholdReward": false, "trial_id": "mdp_trial_5", "block": "test", "trialIndex": 8, "score": -66, "costs": 0, "simulationMode": [null, null, null, null, null], "rewards": [-1, -1, -1, 16, -79], "path": ["0", "0", "23", "24", "25", "26", "27"], "rt": [1640, 127, 192, 432, 594], "actions": ["left", "left", "left", "up", "up"], "actionTimes": [6090, 6752, 7509, 8465, 9639], "queries": {"click": {"state": {"target": [], "time": []}, "edge": {"target": [], "time": []}}, "mouseover": {"state": {"target": [], "time": []}, "edge": {"target": [], "time": []}}, "mouseout": {"state": {"target": ["0", "1"], "time": [2028, 2332]}, "edge": {"target": [], "time": []}}}, "displayed_time": "18.46", "trialTime": 20752, "trial_type": "mouselab-mdp", "trial_index": 19, "time_elapsed": 1250464, "internal_node_id": "0.0-6.0-1.0-4.0"}}, {"uniqueid": "w90225276:a48414496", "current_trial": 20, "dateTime": 1693565944602, "trialdata": {"revealed_states": [], "clicked_states": [], "num_clicks_accrued": [0, 0, 0, 0, 0, 0, 0, 0, 0, 0, 0, 0, 0], "stateRewards": ["", -2, 2, -1, -6, 22, 6, 6, -5, 70, -42, 65, 1, 3, 5, -6, -67, -9, 3, 14, 7, -62, -13, -2, 4, 1, 16, 42, -21, -52, -8, 32, 53, 81], "withholdReward": false, "trial_id": "mdp_trial_6", "block": "test", "trialIndex": 9, "score": -1, "costs": 0, "simulationMode": [null, null, null, null, null], "rewards": [-2, 2, -1, -6, 6], "path": ["0", "0", "1", "2", "3", "4", "6"], "rt": [2285, 504, 251, 481, 766], "actions": ["up", "up", "up", "right", "right"], "actionTimes": [5349, 6455, 7250, 8256, 9549], "queries": {"click": {"state": {"target": [], "time": []}, "edge": {"target": [], "time": []}}, "mouseover": {"state": {"target": [], "time": []}, "edge": {"target": [], "time": []}}, "mouseout": {"state": {"target": [], "time": []}, "edge": {"target": [], "time": []}}}, "displayed_time": "17.07", "trialTime": 19916, "trial_type": "mouselab-mdp", "trial_index": 20, "time_elapsed": 1272470, "internal_node_id": "0.0-6.0-1.0-5.0"}}, {"uniqueid": "w90225276:a48414496", "current_trial": 21, "dateTime": 1693565971214, "trialdata": {"revealed_states": [], "clicked_states": [], "num_clicks_accrued": [0, 0, 0, 0, 0, 0, 0, 0, 0, 0, 0, 0, 0], "stateRewards": ["", -1, 1, -6, -1, 80, 23, 2, -11, 73, -81, 59, 1, 3, 5, -1, -26, 28, -3, 16, -59, -13, -50, -2, -2, 2, 15, -50, 86, 17, -4, 37, 35, 44], "withholdReward": false, "trial_id": "mdp_trial_7", "block": "test", "trialIndex": 10, "score": 12, "costs": 0, "simulationMode": [null, null, null, null, null], "rewards": [1, 3, 5, 16, -13], "path": ["0", "0", "12", "13", "14", "19", "21"], "rt": [1736, 586, 495, 748, 481], "actions": ["right", "right", "right", "down", "down"], "actionTimes": [4566, 5770, 6837, 8226, 9249], "queries": {"click": {"state": {"target": [], "time": []}, "edge": {"target": [], "time": []}}, "mouseover": {"state": {"target": [], "time": []}, "edge": {"target": [], "time": []}}, "mouseout": {"state": {"target": [], "time": []}, "edge": {"target": [], "time": []}}}, "displayed_time": "16.84", "trialTime": 24245, "trial_type": "mouselab-mdp", "trial_index": 21, "time_elapsed": 1299080, "internal_node_id": "0.0-6.0-1.0-6.0"}}, {"uniqueid": "w90225276:a48414496", "current_trial": 22, "dateTime": 1693566005841, "trialdata": {"revealed_states": [], "clicked_states": [], "num_clicks_accrued": [0, 0, 0, 0, 0, 0, 0, 0, 0, 0, 0, 0, 0], "stateRewards": ["", 1, 3, 3, -10, 52, 68, 59, 12, 7, 49, 21, -2, -3, -4, -2, -2, 63, 63, -4, 44, 43, -76, -2, -3, -6, 13, 48, 36, 12, -5, -36, -33, -11], "withholdReward": false, "trial_id": "mdp_trial_8", "block": "test", "trialIndex": 11, "score": -49, "costs": 0, "simulationMode": [null, null, null, null, null], "rewards": [-2, -3, -6, -5, -33], "path": ["0", "0", "23", "24", "25", "30", "32"], "rt": [3057, 246, 85, 698, 143], "actions": ["left", "left", "left", "down", "down"], "actionTimes": [9802, 10619, 11247, 12491, 13180], "queries": {"click": {"state": {"target": [], "time": []}, "edge": {"target": [], "time": []}}, "mouseover": {"state": {"target": [], "time": []}, "edge": {"target": [], "time": []}}, "mouseout": {"state": {"target": ["0"], "time": [4029]}, "edge": {"target": [], "time": []}}}, "displayed_time": "20.75", "trialTime": 32370, "trial_type": "mouselab-mdp", "trial_index": 22, "time_elapsed": 1333706, "internal_node_id": "0.0-6.0-1.0-7.0"}}, {"uniqueid": "w90225276:a48414496", "current_trial": 23, "dateTime": 1693566031856, "trialdata": {"revealed_states": [], "clicked_states": [], "num_clicks_accrued": [0, 0, 0, 0, 0, 0, 0, 0, 0, 0, 0, 0, 0], "stateRewards": ["", 1, 4, -4, 14, 35, 51, 19, -13, 54, 78, -74, -2, -1, -3, 13, -11, -42, -73, -15, -24, -3, -69, 2, -1, 5, 16, -27, 73, 58, 9, -60, 5, -60], "withholdReward": false, "trial_id": "mdp_trial_9", "block": "test", "trialIndex": 12, "score": -24, "costs": 0, "simulationMode": [null, null, null, null, null], "rewards": [-2, -1, -3, -15, -3], "path": ["0", "0", "12", "13", "14", "19", "21"], "rt": [1021, 161, 913, 522, 653], "actions": ["right", "right", "right", "down", "down"], "actionTimes": [3771, 4496, 5938, 7010, 8201], "queries": {"click": {"state": {"target": [], "time": []}, "edge": {"target": [], "time": []}}, "mouseover": {"state": {"target": [], "time": []}, "edge": {"target": [], "time": []}}, "mouseout": {"state": {"target": ["0", "22"], "time": [20763, 21289]}, "edge": {"target": [], "time": []}}}, "displayed_time": "16.75", "trialTime": 23474, "trial_type": "mouselab-mdp", "trial_index": 23, "time_elapsed": 1359721, "internal_node_id": "0.0-6.0-1.0-8.0"}}, {"uniqueid": "w90225276:a48414496", "current_trial": 24, "dateTime": 1693566057684, "trialdata": {"revealed_states": [], "clicked_states": ["23", "24"], "num_clicks_accrued": [0, 0, 0, 0, 0, 0, 0, 0, 0, 0, 0, 0, 0], "stateRewards": ["", -2, 2, 3, -7, 76, 63, 21, 15, 35, -8, -44, 1, 1, -2, -12, 23, 24, 76, -9, 46, 66, -49, -2, -1, 7, 12, 40, -71, -45, -6, 38, -49, 46], "withholdReward": false, "trial_id": "mdp_trial_10", "block": "test", "trialIndex": 13, "score": 8.2, "costs": -2.8, "simulationMode": [null, null, null, null, null], "rewards": [1, 1, -2, -12, 23], "path": ["0", "0", "12", "13", "14", "15", "16"], "rt": [6979, 270, 420, 476, 97], "actions": ["right", "right", "right", "up", "up"], "actionTimes": [9917, 10736, 11720, 12771, 13425], "queries": {"click": {"state": {"target": ["23", "24"], "time": [4622, 6421]}, "edge": {"target": [], "time": []}}, "mouseover": {"state": {"target": ["0", "23", "24", "25", "26", "28", "0"], "time": [2992, 3855, 5758, 7070, 8667, 8746, 9146]}, "edge": {"target": [], "time": []}}, "mouseout": {"state": {"target": ["22", "12", "0", "0", "23", "24", "25", "26", "28", "0", "0"], "time": [506, 729, 828, 3787, 5600, 7053, 8517, 8724, 8804, 9206, 22690]}, "edge": {"target": [], "time": []}}}, "displayed_time": "16.95", "trialTime": 23233, "trial_type": "mouselab-mdp", "trial_index": 24, "time_elapsed": 1385551, "internal_node_id": "0.0-6.0-1.0-9.0"}}, {"uniqueid": "w90225276:a48414496", "current_trial": 25, "dateTime": 1693566085712, "trialdata": {"revealed_states": [], "clicked_states": [], "num_clicks_accrued": [0, 0, 0, 0, 0, 0, 0, 0, 0, 0, 0, 0, 0], "stateRewards": ["", -1, -4, 8, 8, -68, 47, 24, -7, -61, 49, -69, -1, -1, 8, -7, 42, 1, -45, -11, 10, -63, -6, 1, 4, 6, -16, 79, -37, -58, -12, 81, 18, -53], "withholdReward": false, "trial_id": "mdp_trial_11", "block": "test", "trialIndex": 14, "score": 74, "costs": 0, "simulationMode": [null, null, null, null, null], "rewards": [1, 4, 6, -16, 79], "path": ["0", "0", "23", "24", "25", "26", "27"], "rt": [9034, 128, 286, 567, 34], "actions": ["left", "left", "left", "up", "up"], "actionTimes": [14878, 15526, 16418, 17538, 18188], "queries": {"click": {"state": {"target": [], "time": []}, "edge": {"target": [], "time": []}}, "mouseover": {"state": {"target": ["12", "0", "23", "23"], "time": [8550, 10033, 10721, 11475]}, "edge": {"target": [], "time": []}}, "mouseout": {"state": {"target": ["0", "12", "0", "23", "23"], "time": [8062, 9985, 10087, 10775, 12984]}, "edge": {"target": [], "time": []}}}, "displayed_time": "19.85", "trialTime": 25615, "trial_type": "mouselab-mdp", "trial_index": 25, "time_elapsed": 1413577, "internal_node_id": "0.0-6.0-1.0-10.0"}}, {"uniqueid": "w90225276:a48414496", "current_trial": 26, "dateTime": 1693566112984, "trialdata": {"revealed_states": [], "clicked_states": ["12"], "num_clicks_accrued": [0, 0, 0, 0, 0, 0, 0, 0, 0, 0, 0, 0, 0], "stateRewards": ["", 2, -4, 7, 3, 23, -42, 4, 7, -81, -33, 7, -2, -4, 5, -1, 50, -57, -14, -13, -14, 44, 55, -2, -2, 5, -2, 33, 1, 57, -13, -7, 58, 87], "withholdReward": false, "trial_id": "mdp_trial_12", "block": "test", "trialIndex": 15, "score": 30.6, "costs": -1.4, "simulationMode": [null, null, null, null, null], "rewards": [-2, -2, 5, -2, 33], "path": ["0", "0", "23", "24", "25", "26", "27"], "rt": [4020, 64, 207, 344, 76], "actions": ["left", "left", "left", "up", "up"], "actionTimes": [7137, 7754, 8530, 9415, 10035], "queries": {"click": {"state": {"target": ["12"], "time": [5419]}, "edge": {"target": [], "time": []}}, "mouseover": {"state": {"target": ["12", "23"], "time": [4798, 6710]}, "edge": {"target": [], "time": []}}, "mouseout": {"state": {"target": ["0", "14", "13", "12", "0", "12"], "time": [303, 705, 750, 1088, 4734, 6307]}, "edge": {"target": [], "time": []}}}, "displayed_time": "17.13", "trialTime": 24322, "trial_type": "mouselab-mdp", "trial_index": 26, "time_elapsed": 1440852, "internal_node_id": "0.0-6.0-1.0-11.0"}}, {"uniqueid": "w90225276:a48414496", "current_trial": 27, "dateTime": 1693566159136, "trialdata": {"revealed_states": [], "clicked_states": ["12"], "num_clicks_accrued": [0, 0, 0, 0, 0, 0, 0, 0, 0, 0, 0, 0, 0], "stateRewards": ["", 1, -2, -8, -3, 31, -84, -55, -14, 15, -58, 17, -2, -3, 7, 7, -12, 48, 67, 4, -44, -68, 46, 2, 3, -5, -7, 76, 27, 5, 11, 57, 52, 59], "withholdReward": false, "trial_id": "mdp_trial_13", "block": "test", "trialIndex": 16, "score": 61.6, "costs": -1.4, "simulationMode": [null, null, null, null, null, null], "rewards": [2, 3, -5, 11, 52], "path": ["0", "0", "23", "24", "25", "30", "32"], "rt": [3702, 289, 760, 600, 131, 212], "actions": ["left", "left", "left", "left", "down", "down"], "actionTimes": [7627, 7935, 9260, 10490, 11157, 11906], "queries": {"click": {"state": {"target": ["12"], "time": [6303]}, "edge": {"target": [], "time": []}}, "mouseover": {"state": {"target": ["12", "23"], "time": [5769, 7088]}, "edge": {"target": [], "time": []}}, "mouseout": {"state": {"target": ["12", "0", "12", "23", "23", "0", "0"], "time": [1463, 5702, 7026, 7156, 40444, 40575, 40967]}, "edge": {"target": [], "time": []}}}, "displayed_time": "17.93", "trialTime": 43255, "trial_type": "mouselab-mdp", "trial_index": 27, "time_elapsed": 1487002, "internal_node_id": "0.0-6.0-1.0-12.0"}}, {"uniqueid": "w90225276:a48414496", "current_trial": 28, "dateTime": 1693566197358, "trialdata": {"revealed_states": [], "clicked_states": [], "num_clicks_accrued": [0, 0, 0, 0, 0, 0, 0, 0, 0, 0, 0, 0, 0], "stateRewards": ["", 1, -3, 4, 13, -72, 52, 5, 5, -58, 5, 14, 2, 1, 3, -14, -86, -4, 73, 6, -58, -50, 49, 2, -3, -4, 2, 33, -41, 42, -11, 81, 45, 53], "withholdReward": false, "trial_id": "mdp_trial_14", "block": "test", "trialIndex": 17, "score": 30, "costs": 0, "simulationMode": [null, null, null, null, null], "rewards": [2, -3, -4, 2, 33], "path": ["0", "0", "23", "24", "25", "26", "27"], "rt": [5320, 189, 463, 362, 98], "actions": ["left", "left", "left", "up", "up"], "actionTimes": [23107, 23918, 24915, 25853, 26485], "queries": {"click": {"state": {"target": [], "time": []}, "edge": {"target": [], "time": []}}, "mouseover": {"state": {"target": ["0", "12", "0", "23"], "time": [18199, 20851, 22181, 22248]}, "edge": {"target": [], "time": []}}, "mouseout": {"state": {"target": ["0", "0", "12", "0", "23"], "time": [17996, 20506, 22117, 22233, 33027]}, "edge": {"target": [], "time": []}}}, "displayed_time": "31.79", "trialTime": 35468, "trial_type": "mouselab-mdp", "trial_index": 28, "time_elapsed": 1525222, "internal_node_id": "0.0-6.0-1.0-13.0"}}, {"uniqueid": "w90225276:a48414496", "current_trial": 29, "dateTime": 1693566237763, "trialdata": {"revealed_states": [], "clicked_states": ["12"], "num_clicks_accrued": [0, 0, 0, 0, 0, 0, 0, 0, 0, 0, 0, 0, 0], "stateRewards": ["", -1, 2, -6, 6, -82, -19, -39, -16, -83, 11, -33, -2, -2, 4, -6, -82, -1, -19, -6, -10, -67, -41, -2, 1, -7, 16, -23, -78, -52, 14, 31, -71, 74], "withholdReward": false, "trial_id": "mdp_trial_15", "block": "test", "trialIndex": 18, "score": -16.4, "costs": -1.4, "simulationMode": [null, null, null, null, null, null], "rewards": [-2, 1, -7, 16, -23], "path": ["0", "0", "23", "24", "25", "26", "27"], "rt": [3739, 387, 472, 234, 366, 75], "actions": ["left", "left", "left", "left", "up", "up"], "actionTimes": [26261, 26667, 27687, 28457, 29371, 29982], "queries": {"click": {"state": {"target": ["12"], "time": [25108]}, "edge": {"target": [], "time": []}}, "mouseover": {"state": {"target": ["12", "12"], "time": [24277, 24605]}, "edge": {"target": [], "time": []}}, "mouseout": {"state": {"target": ["0", "12"], "time": [24225, 24330]}, "edge": {"target": [], "time": []}}}, "displayed_time": "36.53", "trialTime": 38023, "trial_type": "mouselab-mdp", "trial_index": 29, "time_elapsed": 1565630, "internal_node_id": "0.0-6.0-1.0-14.0"}}, {"uniqueid": "w90225276:a48414496", "current_trial": 30, "dateTime": 1693566308288, "trialdata": {"revealed_states": [], "clicked_states": [], "num_clicks_accrued": [0, 0, 0, 0, 0, 0, 0, 0, 0, 0, 0, 0, 0], "stateRewards": ["", -1, -4, -1, -5, -28, -23, -15, -15, -38, 59, -87, 2, 2, -5, 9, -55, -39, -71, -6, 85, -85, -11, -1, -2, 5, -10, 1, 25, 41, -4, 69, -35, 86], "withholdReward": false, "trial_id": "mdp_trial_16", "block": "test", "trialIndex": 19, "score": -92, "costs": 0, "simulationMode": [null, null, null, null, null], "rewards": [2, 2, -5, -6, -85], "path": ["0", "0", "12", "13", "14", "19", "21"], "rt": [17635, 759, 223, 828, 289], "actions": ["right", "right", "right", "down", "down"], "actionTimes": [22473, 23776, 24535, 25911, 26754], "queries": {"click": {"state": {"target": [], "time": []}, "edge": {"target": [], "time": []}}, "mouseover": {"state": {"target": [], "time": []}, "edge": {"target": [], "time": []}}, "mouseout": {"state": {"target": ["12", "0"], "time": [1761, 2096]}, "edge": {"target": [], "time": []}}}, "displayed_time": "27.30", "trialTime": 67572, "trial_type": "mouselab-mdp", "trial_index": 30, "time_elapsed": 1636155, "internal_node_id": "0.0-6.0-1.0-15.0"}}, {"uniqueid": "w90225276:a48414496", "current_trial": 31, "dateTime": 1693566331014, "trialdata": {"revealed_states": [], "clicked_states": [], "num_clicks_accrued": [0, 0, 0, 0, 0, 0, 0, 0, 0, 0, 0, 0, 0], "stateRewards": ["", 2, 3, -3, 4, 72, -28, 34, -12, 57, -64, -15, 2, 1, -4, -15, 2, 49, 31, -1, -42, -58, 31, -2, 1, -2, -13, -75, -19, -22, -6, 61, 10, -56], "withholdReward": false, "trial_id": "mdp_trial_17", "block": "test", "trialIndex": 20, "score": 33, "costs": 0, "simulationMode": [null, null, null, null, null], "rewards": [2, 1, -4, -15, 49], "path": ["0", "0", "12", "13", "14", "15", "17"], "rt": [1587, 151, 381, 426, 448], "actions": ["right", "right", "right", "up", "right"], "actionTimes": [4172, 4892, 5801, 6774, 7777], "queries": {"click": {"state": {"target": [], "time": []}, "edge": {"target": [], "time": []}}, "mouseover": {"state": {"target": ["0"], "time": [2857]}, "edge": {"target": [], "time": []}}, "mouseout": {"state": {"target": ["0", "0"], "time": [1179, 19236]}, "edge": {"target": [], "time": []}}}, "displayed_time": "16.59", "trialTime": 19947, "trial_type": "mouselab-mdp", "trial_index": 31, "time_elapsed": 1658882, "internal_node_id": "0.0-6.0-1.0-16.0"}}, {"uniqueid": "w90225276:a48414496", "current_trial": 32, "dateTime": 1693566361156, "trialdata": {"revealed_states": [], "clicked_states": ["23"], "num_clicks_accrued": [0, 0, 0, 0, 0, 0, 0, 0, 0, 0, 0, 0, 0], "stateRewards": ["", 1, -4, -6, -1, -21, 17, -72, 10, 77, 67, -46, -1, 4, -2, 14, -66, -49, -45, -15, -52, 23, -67, 2, -2, -2, 15, -3, 45, -64, 5, -44, 83, 61], "withholdReward": false, "trial_id": "mdp_trial_18", "block": "test", "trialIndex": 21, "score": -67.4, "costs": -1.4, "simulationMode": [null, null, null, null, null], "rewards": [-1, 4, -2, -15, -52], "path": ["0", "0", "12", "13", "14", "19", "20"], "rt": [3612, 113, 129, 738, 213], "actions": ["right", "right", "right", "down", "right"], "actionTimes": [6956, 7609, 8303, 9625, 10390], "queries": {"click": {"state": {"target": ["23"], "time": [5403]}, "edge": {"target": [], "time": []}}, "mouseover": {"state": {"target": ["23", "12"], "time": [4857, 6351]}, "edge": {"target": [], "time": []}}, "mouseout": {"state": {"target": ["0", "23", "12", "31", "23"], "time": [4800, 6022, 19821, 20075, 20225]}, "edge": {"target": [], "time": []}}}, "displayed_time": "17.35", "trialTime": 27626, "trial_type": "mouselab-mdp", "trial_index": 32, "time_elapsed": 1689023, "internal_node_id": "0.0-6.0-1.0-17.0"}}, {"uniqueid": "w90225276:a48414496", "current_trial": 33, "dateTime": 1693566391753, "trialdata": {"revealed_states": [], "clicked_states": [], "num_clicks_accrued": [0, 0, 0, 0, 0, 0, 0, 0, 0, 0, 0, 0, 0], "stateRewards": ["", -2, 4, -7, -3, -76, 39, -28, 10, 14, 12, 60, 2, -3, 6, -10, 88, -34, -41, -3, 72, -13, -56, 1, 3, 2, 8, -51, 23, -57, 1, 14, -46, -16], "withholdReward": false, "trial_id": "mdp_trial_19", "block": "test", "trialIndex": 22, "score": -11, "costs": 0, "simulationMode": [null, null, null, null, null], "rewards": [2, -3, 6, -3, -13], "path": ["0", "0", "12", "13", "14", "19", "21"], "rt": [783, 57, 112, 682, 115], "actions": ["right", "right", "right", "down", "down"], "actionTimes": [4227, 4833, 5510, 6754, 7421], "queries": {"click": {"state": {"target": [], "time": []}, "edge": {"target": [], "time": []}}, "mouseover": {"state": {"target": [], "time": []}, "edge": {"target": [], "time": []}}, "mouseout": {"state": {"target": ["7"], "time": [698]}, "edge": {"target": [], "time": []}}}, "displayed_time": "17.44", "trialTime": 28273, "trial_type": "mouselab-mdp", "trial_index": 33, "time_elapsed": 1719621, "internal_node_id": "0.0-6.0-1.0-18.0"}}, {"uniqueid": "w90225276:a48414496", "current_trial": 34, "dateTime": 1693566419105, "trialdata": {"revealed_states": [], "clicked_states": ["23"], "num_clicks_accrued": [0, 0, 0, 0, 0, 0, 0, 0, 0, 0, 0, 0, 0], "stateRewards": ["", -2, 3, -1, 2, -72, 63, 20, -1, 62, -66, 39, -2, 3, -6, 14, 22, 47, 1, 8, -49, -1, -41, 2, 2, -6, -16, -64, -60, -34, 16, 54, 22, -7], "withholdReward": false, "trial_id": "mdp_trial_20", "block": "test", "trialIndex": 23, "score": 54.6, "costs": -1.4, "simulationMode": [null, null, null, null, null], "rewards": [-2, 3, -6, 14, 47], "path": ["0", "0", "12", "13", "14", "15", "17"], "rt": [4384, 231, 87, 2813, 716], "actions": ["right", "right", "right", "up", "right"], "actionTimes": [11649, 12420, 13081, 16443, 17735], "queries": {"click": {"state": {"target": ["23"], "time": [9747]}, "edge": {"target": [], "time": []}}, "mouseover": {"state": {"target": ["23", "12"], "time": [9206, 10771]}, "edge": {"target": [], "time": []}}, "mouseout": {"state": {"target": ["0", "23"], "time": [9143, 10604]}, "edge": {"target": [], "time": []}}}, "displayed_time": "21.27", "trialTime": 24811, "trial_type": "mouselab-mdp", "trial_index": 34, "time_elapsed": 1746972, "internal_node_id": "0.0-6.0-1.0-19.0"}}, {"uniqueid": "w90225276:a48414496", "current_trial": 35, "dateTime": 1693566441957, "trialdata": {"revealed_states": [], "clicked_states": ["12"], "num_clicks_accrued": [0, 0, 0, 0, 0, 0, 0, 0, 0, 0, 0, 0, 0], "stateRewards": ["", 2, 3, -1, 16, -78, -11, 46, 2, -20, 79, -67, 2, 3, 2, 11, -83, -42, -58, -11, -67, -22, 55, 2, -1, -1, -16, -83, -82, 23, -11, -29, 13, 13], "withholdReward": false, "trial_id": "mdp_trial_21", "block": "test", "trialIndex": 24, "score": -100.4, "costs": -1.4, "simulationMode": [null, null, null, null, null], "rewards": [2, -1, -1, -16, -83], "path": ["0", "0", "23", "24", "25", "26", "27"], "rt": [3444, 294, 135, 710, 701], "actions": ["left", "left", "left", "up", "up"], "actionTimes": [6835, 7679, 8355, 9610, 10839], "queries": {"click": {"state": {"target": ["12"], "time": [5205]}, "edge": {"target": [], "time": []}}, "mouseover": {"state": {"target": ["12", "23"], "time": [4687, 6191]}, "edge": {"target": [], "time": []}}, "mouseout": {"state": {"target": ["12", "0", "12"], "time": [1326, 4623, 5860]}, "edge": {"target": [], "time": []}}}, "displayed_time": "17.40", "trialTime": 19997, "trial_type": "mouselab-mdp", "trial_index": 35, "time_elapsed": 1769826, "internal_node_id": "0.0-6.0-1.0-20.0"}}, {"uniqueid": "w90225276:a48414496", "current_trial": 36, "dateTime": 1693566468362, "trialdata": {"revealed_states": [], "clicked_states": ["12", "24"], "num_clicks_accrued": [0, 0, 0, 0, 0, 0, 0, 0, 0, 0, 0, 0, 0], "stateRewards": ["", -1, 3, 1, -7, 56, 76, 57, 3, 11, -9, 14, 1, -2, 2, 8, -77, -3, 79, -5, 88, 24, -66, -2, -1, 7, -7, -30, 14, -76, 11, -36, 28, -6], "withholdReward": false, "trial_id": "mdp_trial_22", "block": "test", "trialIndex": 25, "score": 40.2, "costs": -2.8, "simulationMode": [null, null, null, null, null, null], "rewards": [-2, -1, 7, 11, 28], "path": ["0", "0", "23", "24", "25", "30", "32"], "rt": [4337, 277, 274, 179, 843, 451], "actions": ["left", "left", "left", "left", "down", "down"], "actionTimes": [7719, 8020, 8817, 9515, 10896, 11937], "queries": {"click": {"state": {"target": ["12", "24"], "time": [4192, 6603]}, "edge": {"target": [], "time": []}}, "mouseover": {"state": {"target": ["12", "23", "23", "24"], "time": [3445, 4751, 5233, 6033]}, "edge": {"target": [], "time": []}}, "mouseout": {"state": {"target": ["23", "12", "23", "23", "24"], "time": [916, 4672, 4832, 5908, 15082]}, "edge": {"target": [], "time": []}}}, "displayed_time": "17.39", "trialTime": 23924, "trial_type": "mouselab-mdp", "trial_index": 36, "time_elapsed": 1796230, "internal_node_id": "0.0-6.0-1.0-21.0"}}, {"uniqueid": "w90225276:a48414496", "current_trial": 37, "dateTime": 1693566512081, "trialdata": {"revealed_states": [], "clicked_states": ["12"], "num_clicks_accrued": [0, 0, 0, 0, 0, 0, 0, 0, 0, 0, 0, 0, 0], "stateRewards": ["", -1, 4, -3, 3, 57, -61, 5, -11, 23, -1, 34, -2, -4, -1, -13, 27, 38, -36, 4, -45, 21, 88, 1, -2, -1, 1, -69, -5, -78, -12, -9, 38, -54], "withholdReward": false, "trial_id": "mdp_trial_23", "block": "test", "trialIndex": 26, "score": 22.6, "costs": -1.4, "simulationMode": [null, null, null, null, null], "rewards": [1, -2, -1, -12, 38], "path": ["0", "0", "23", "24", "25", "30", "32"], "rt": [6411, 267, 47, 354, 570], "actions": ["left", "left", "left", "down", "down"], "actionTimes": [9960, 10808, 11347, 12273, 13407], "queries": {"click": {"state": {"target": ["12"], "time": [6214]}, "edge": {"target": [], "time": []}}, "mouseover": {"state": {"target": ["12", "23"], "time": [5640, 6864]}, "edge": {"target": [], "time": []}}, "mouseout": {"state": {"target": ["0", "12"], "time": [4479, 6791]}, "edge": {"target": [], "time": []}}}, "displayed_time": "17.57", "trialTime": 40795, "trial_type": "mouselab-mdp", "trial_index": 37, "time_elapsed": 1839948, "internal_node_id": "0.0-6.0-1.0-22.0"}}, {"uniqueid": "w90225276:a48414496", "current_trial": 38, "dateTime": 1693566543734, "trialdata": {"revealed_states": [], "clicked_states": [], "num_clicks_accrued": [0, 0, 0, 0, 0, 0, 0, 0, 0, 0, 0, 0, 0], "stateRewards": ["", 2, -1, 3, -12, -83, 6, -33, 9, 28, 24, -50, -2, -1, -2, -5, -87, 37, 82, 12, 80, -5, 10, -2, -3, -6, 9, 22, -1, 16, 9, 77, -62, 58], "withholdReward": false, "trial_id": "mdp_trial_24", "block": "test", "trialIndex": 27, "score": -97, "costs": 0, "simulationMode": [null, null, null, null, null], "rewards": [-2, -1, -2, -5, -87], "path": ["0", "0", "12", "13", "14", "15", "16"], "rt": [1762, 535, 145, 1100, 23], "actions": ["right", "right", "right", "up", "up"], "actionTimes": [6893, 7982, 8684, 10351, 10901], "queries": {"click": {"state": {"target": [], "time": []}, "edge": {"target": [], "time": []}}, "mouseover": {"state": {"target": [], "time": []}, "edge": {"target": [], "time": []}}, "mouseout": {"state": {"target": ["23", "0", "12"], "time": [2690, 21864, 21943]}, "edge": {"target": [], "time": []}}}, "displayed_time": "19.14", "trialTime": 29255, "trial_type": "mouselab-mdp", "trial_index": 38, "time_elapsed": 1871601, "internal_node_id": "0.0-6.0-1.0-23.0"}}, {"uniqueid": "w90225276:a48414496", "current_trial": 39, "dateTime": 1693566569114, "trialdata": {"revealed_states": [], "clicked_states": [], "num_clicks_accrued": [0, 0, 0, 0, 0, 0, 0, 0, 0, 0, 0, 0, 0], "stateRewards": ["", -1, -3, -6, -2, -7, 80, -45, -3, -38, -72, 76, 2, 1, 7, 4, -62, 14, -74, 14, -87, -21, -88, -2, 1, -7, -10, 66, 56, -76, 10, -29, -72, -70], "withholdReward": false, "trial_id": "mdp_trial_25", "block": "test", "trialIndex": 28, "score": 3, "costs": 0, "simulationMode": [null, null, null, null, null], "rewards": [2, 1, 7, 14, -21], "path": ["0", "0", "12", "13", "14", "19", "21"], "rt": [8965, 443, 223, 342, 59], "actions": ["right", "right", "right", "down", "down"], "actionTimes": [12868, 13848, 14621, 15499, 16087], "queries": {"click": {"state": {"target": [], "time": []}, "edge": {"target": [], "time": []}}, "mouseover": {"state": {"target": ["12"], "time": [11389]}, "edge": {"target": [], "time": []}}, "mouseout": {"state": {"target": ["0", "0"], "time": [1500, 11329]}, "edge": {"target": [], "time": []}}}, "displayed_time": "17.91", "trialTime": 22767, "trial_type": "mouselab-mdp", "trial_index": 39, "time_elapsed": 1896979, "internal_node_id": "0.0-6.0-1.0-24.0"}}, {"uniqueid": "w90225276:a48414496", "current_trial": 40, "dateTime": 1693566599458, "trialdata": {"revealed_states": [], "clicked_states": [], "num_clicks_accrued": [0, 0, 0, 0, 0, 0, 0, 0, 0, 0, 0, 0, 0], "stateRewards": ["", -1, 3, 2, 9, 41, 4, -46, -12, -54, -87, -25, 2, 3, -1, 11, -77, 12, -33, -9, -32, 35, 72, 1, 3, -7, 4, 37, 65, -73, 6, 77, -43, 8], "withholdReward": false, "trial_id": "mdp_trial_26", "block": "test", "trialIndex": 29, "score": -62, "costs": 0, "simulationMode": [null, null, null, null, null], "rewards": [2, 3, -1, 11, -77], "path": ["0", "0", "12", "13", "14", "15", "16"], "rt": [1380, 188, 767, 601, 793], "actions": ["right", "right", "right", "up", "up"], "actionTimes": [5969, 6722, 8034, 9169, 10510], "queries": {"click": {"state": {"target": [], "time": []}, "edge": {"target": [], "time": []}}, "mouseover": {"state": {"target": [], "time": []}, "edge": {"target": [], "time": []}}, "mouseout": {"state": {"target": ["12", "0"], "time": [1957, 27298]}, "edge": {"target": [], "time": []}}}, "displayed_time": "18.60", "trialTime": 27733, "trial_type": "mouselab-mdp", "trial_index": 40, "time_elapsed": 1927326, "internal_node_id": "0.0-6.0-1.0-25.0"}}, {"uniqueid": "w90225276:a48414496", "current_trial": 41, "dateTime": 1693566625512, "trialdata": {"revealed_states": [], "clicked_states": ["23", "25"], "num_clicks_accrued": [0, 0, 0, 0, 0, 0, 0, 0, 0, 0, 0, 0, 0], "stateRewards": ["", -1, 1, -1, 2, 19, 85, -18, 2, -3, -26, 36, 2, 4, 7, -9, -18, 70, 72, -5, 35, -20, -28, 1, -2, -4, -3, -59, -11, -63, -2, -72, 59, -69], "withholdReward": false, "trial_id": "mdp_trial_27", "block": "test", "trialIndex": 30, "score": -14.8, "costs": -2.8, "simulationMode": [null, null, null, null, null], "rewards": [2, 4, 7, -5, -20], "path": ["0", "0", "12", "13", "14", "19", "21"], "rt": [6302, 328, 367, 786, 239], "actions": ["right", "right", "right", "down", "down"], "actionTimes": [10450, 11541, 12436, 13760, 14579], "queries": {"click": {"state": {"target": ["23", "25"], "time": [5960, 8108]}, "edge": {"target": [], "time": []}}, "mouseover": {"state": {"target": ["23", "23", "24", "25", "26"], "time": [5050, 5463, 6444, 7569, 8701]}, "edge": {"target": [], "time": []}}, "mouseout": {"state": {"target": ["23", "0", "23", "23", "24", "25", "26"], "time": [1938, 4950, 5165, 6229, 7457, 8221, 9605]}, "edge": {"target": [], "time": []}}}, "displayed_time": "18.15", "trialTime": 23374, "trial_type": "mouselab-mdp", "trial_index": 41, "time_elapsed": 1953380, "internal_node_id": "0.0-6.0-1.0-26.0"}}, {"uniqueid": "w90225276:a48414496", "current_trial": 42, "dateTime": 1693566658889, "trialdata": {"revealed_states": [], "clicked_states": [], "num_clicks_accrued": [0, 0, 0, 0, 0, 0, 0, 0, 0, 0, 0, 0, 0], "stateRewards": ["", 1, 1, 4, 11, 83, -66, 18, -16, -23, 5, 25, 1, -3, 1, -12, 18, 24, -86, -11, -64, 36, 40, 2, 1, -6, 13, 55, 29, 72, -2, 81, -72, -41], "withholdReward": false, "trial_id": "mdp_trial_28", "block": "test", "trialIndex": 31, "score": 24, "costs": 0, "simulationMode": [null, null, null, null, null], "rewards": [1, -3, 1, -11, 36], "path": ["0", "0", "12", "13", "14", "19", "21"], "rt": [2067, 733, 294, 555, 224], "actions": ["right", "right", "right", "down", "down"], "actionTimes": [9729, 10995, 11812, 13017, 13796], "queries": {"click": {"state": {"target": [], "time": []}, "edge": {"target": [], "time": []}}, "mouseover": {"state": {"target": ["12"], "time": [8891]}, "edge": {"target": [], "time": []}}, "mouseout": {"state": {"target": ["15"], "time": [3572]}, "edge": {"target": [], "time": []}}}, "displayed_time": "21.67", "trialTime": 30619, "trial_type": "mouselab-mdp", "trial_index": 42, "time_elapsed": 1986756, "internal_node_id": "0.0-6.0-1.0-27.0"}}, {"uniqueid": "w90225276:a48414496", "current_trial": 43, "dateTime": 1693566689140, "trialdata": {"revealed_states": [], "clicked_states": [], "num_clicks_accrued": [0, 0, 0, 0, 0, 0, 0, 0, 0, 0, 0, 0, 0], "stateRewards": ["", -2, -1, -2, -15, 87, 57, 29, -10, 77, -80, -7, 1, -3, 6, 14, -11, 87, -59, 4, -71, 16, -11, 2, 2, -7, 2, -47, 61, 50, 14, -20, 17, 81], "withholdReward": false, "trial_id": "mdp_trial_29", "block": "test", "trialIndex": 32, "score": 28, "costs": 0, "simulationMode": [null, null, null, null, null], "rewards": [2, 2, -7, 14, 17], "path": ["0", "0", "23", "24", "25", "30", "32"], "rt": [4737, 111, 343, 620, 119], "actions": ["left", "left", "left", "down", "down"], "actionTimes": [16012, 16676, 17578, 18732, 19412], "queries": {"click": {"state": {"target": [], "time": []}, "edge": {"target": [], "time": []}}, "mouseover": {"state": {"target": ["23"], "time": [14241]}, "edge": {"target": [], "time": []}}, "mouseout": {"state": {"target": ["12", "0", "23"], "time": [8053, 13928, 15047]}, "edge": {"target": [], "time": []}}}, "displayed_time": "25.29", "trialTime": 27244, "trial_type": "mouselab-mdp", "trial_index": 43, "time_elapsed": 2017008, "internal_node_id": "0.0-6.0-1.0-28.0"}}, {"uniqueid": "w90225276:a48414496", "current_trial": 44, "dateTime": 1693566713388, "trialdata": {"revealed_states": [], "clicked_states": ["1"], "num_clicks_accrued": [0, 0, 0, 0, 0, 0, 0, 0, 0, 0, 0, 0, 0], "stateRewards": ["", 2, 3, 8, 11, 25, -80, 6, -4, -56, 84, -23, -2, -4, -3, 4, -51, -9, -61, -15, -64, 67, -35, 1, -1, -7, -6, 83, 59, -15, 12, -79, 56, 41], "withholdReward": false, "trial_id": "mdp_trial_30", "block": "test", "trialIndex": 33, "score": -57.4, "costs": -1.4, "simulationMode": [null, null, null, null, null], "rewards": [2, 3, 8, 11, -80], "path": ["0", "0", "1", "2", "3", "4", "6"], "rt": [4092, 61, 126, 200, 33], "actions": ["up", "up", "up", "right", "right"], "actionTimes": [8534, 9151, 9848, 10582, 11274], "queries": {"click": {"state": {"target": ["1"], "time": [5819]}, "edge": {"target": [], "time": []}}, "mouseover": {"state": {"target": ["1", "2"], "time": [5253, 6789]}, "edge": {"target": [], "time": []}}, "mouseout": {"state": {"target": ["0", "1", "2"], "time": [5098, 6711, 20995]}, "edge": {"target": [], "time": []}}}, "displayed_time": "18.46", "trialTime": 21512, "trial_type": "mouselab-mdp", "trial_index": 44, "time_elapsed": 2041256, "internal_node_id": "0.0-6.0-1.0-29.0"}}, {"uniqueid": "w90225276:a48414496", "current_trial": 45, "dateTime": 1693566748993, "trialdata": {"revealed_states": [], "clicked_states": [], "num_clicks_accrued": [0, 0, 0, 0, 0, 0, 0, 0, 0, 0, 0, 0, 0], "stateRewards": ["", 2, 3, 6, -12, -29, 12, 87, 4, 35, -30, 67, 2, 3, -5, -9, 44, 69, -8, 1, 45, -8, 28, -2, -1, -8, 11, -12, -5, 81, 9, 87, 82, 88], "withholdReward": false, "trial_id": "mdp_trial_31", "block": "test", "trialIndex": 34, "score": -7, "costs": 0, "simulationMode": [null, null, null, null, null], "rewards": [2, 3, -5, 1, -8], "path": ["0", "0", "12", "13", "14", "19", "21"], "rt": [5082, 118, 116, 667, 117], "actions": ["right", "right", "right", "down", "down"], "actionTimes": [12356, 13006, 13658, 14864, 15558], "queries": {"click": {"state": {"target": [], "time": []}, "edge": {"target": [], "time": []}}, "mouseover": {"state": {"target": ["12"], "time": [10843]}, "edge": {"target": [], "time": []}}, "mouseout": {"state": {"target": ["1", "0"], "time": [4769, 10602]}, "edge": {"target": [], "time": []}}}, "displayed_time": "21.28", "trialTime": 32522, "trial_type": "mouselab-mdp", "trial_index": 45, "time_elapsed": 2076859, "internal_node_id": "0.0-6.0-1.0-30.0"}}, {"uniqueid": "w90225276:a48414496", "current_trial": 46, "dateTime": 1693566782464, "trialdata": {"revealed_states": [], "clicked_states": ["23"], "num_clicks_accrued": [0, 0, 0, 0, 0, 0, 0, 0, 0, 0, 0, 0, 0], "stateRewards": ["", 1, 2, -5, 14, 54, -14, -25, 16, -5, -87, 78, -1, 1, 3, -3, 52, 53, 53, -10, 73, -69, -48, 2, 3, 1, 8, -62, -7, 85, 7, 82, 52, -28], "withholdReward": false, "trial_id": "mdp_trial_32", "block": "test", "trialIndex": 35, "score": 50.6, "costs": -1.4, "simulationMode": [null, null, null, null, null], "rewards": [-1, 1, 3, -3, 52], "path": ["0", "0", "12", "13", "14", "15", "16"], "rt": [4787, 64, 557, 1292, 774], "actions": ["right", "right", "right", "up", "up"], "actionTimes": [8936, 9531, 10641, 12565, 13876], "queries": {"click": {"state": {"target": ["23"], "time": [6524]}, "edge": {"target": [], "time": []}}, "mouseover": {"state": {"target": ["23", "24"], "time": [6046, 7247]}, "edge": {"target": [], "time": []}}, "mouseout": {"state": {"target": ["22", "0", "23", "24", "13"], "time": [1617, 5377, 7229, 8207, 23095]}, "edge": {"target": [], "time": []}}}, "displayed_time": "18.16", "trialTime": 29193, "trial_type": "mouselab-mdp", "trial_index": 46, "time_elapsed": 2110327, "internal_node_id": "0.0-6.0-1.0-31.0"}}, {"uniqueid": "w90225276:a48414496", "current_trial": 47, "dateTime": 1693566814481, "trialdata": {"revealed_states": [], "clicked_states": ["12"], "num_clicks_accrued": [0, 0, 0, 0, 0, 0, 0, 0, 0, 0, 0, 0, 0], "stateRewards": ["", -1, 2, -6, 6, 43, 78, 78, -2, 55, -29, -17, -2, -4, 1, -15, 13, 7, -79, 8, -28, -68, 36, -1, -3, 3, -16, 84, -18, 87, 10, 32, 13, -81], "withholdReward": false, "trial_id": "mdp_trial_33", "block": "test", "trialIndex": 36, "score": 65.6, "costs": -1.4, "simulationMode": [null, null, null, null, null, null], "rewards": [-1, -3, 3, -16, 84], "path": ["0", "0", "23", "24", "25", "26", "27"], "rt": [3951, 562, 83, 68, 499, 14], "actions": ["left", "left", "left", "left", "up", "up"], "actionTimes": [13398, 13982, 14612, 15218, 16259, 16826], "queries": {"click": {"state": {"target": ["12"], "time": [11981]}, "edge": {"target": [], "time": []}}, "mouseover": {"state": {"target": ["12", "12"], "time": [11095, 11407]}, "edge": {"target": [], "time": []}}, "mouseout": {"state": {"target": ["0", "12", "12"], "time": [11021, 11159, 28062]}, "edge": {"target": [], "time": []}}}, "displayed_time": "23.45", "trialTime": 28976, "trial_type": "mouselab-mdp", "trial_index": 47, "time_elapsed": 2142349, "internal_node_id": "0.0-6.0-1.0-32.0"}}, {"uniqueid": "w90225276:a48414496", "current_trial": 48, "dateTime": 1693566854358, "trialdata": {"revealed_states": [], "clicked_states": [], "num_clicks_accrued": [0, 0, 0, 0, 0, 0, 0, 0, 0, 0, 0, 0, 0], "stateRewards": ["", -1, -2, -1, -10, -57, 73, -72, -16, 75, -14, -46, -2, -3, -7, -1, -61, -60, 76, -4, 50, 4, 14, 2, 2, -7, 12, -65, -32, 15, -8, -76, -25, -61], "withholdReward": false, "trial_id": "mdp_trial_34", "block": "test", "trialIndex": 37, "score": -66, "costs": 0, "simulationMode": [null, null, null, null, null], "rewards": [-1, -2, -1, -16, -46], "path": ["0", "0", "1", "2", "3", "8", "11"], "rt": [1427, 769, 210, 499, 700], "actions": ["up", "up", "up", "left", "left"], "actionTimes": [6439, 7747, 8509, 9569, 10872], "queries": {"click": {"state": {"target": [], "time": []}, "edge": {"target": [], "time": []}}, "mouseover": {"state": {"target": [], "time": []}, "edge": {"target": [], "time": []}}, "mouseout": {"state": {"target": ["12"], "time": [2004]}, "edge": {"target": [], "time": []}}}, "displayed_time": "19.01", "trialTime": 37094, "trial_type": "mouselab-mdp", "trial_index": 48, "time_elapsed": 2182226, "internal_node_id": "0.0-6.0-1.0-33.0"}}, {"uniqueid": "w90225276:a48414496", "current_trial": 49, "dateTime": 1693566880724, "trialdata": {"revealed_states": [], "clicked_states": ["23"], "num_clicks_accrued": [0, 0, 0, 0, 0, 0, 0, 0, 0, 0, 0, 0, 0], "stateRewards": ["", 2, 3, 6, -5, -74, -53, 17, -12, 46, 44, 18, -2, 4, 1, -8, 22, -23, -49, 9, -45, 55, 81, 1, -1, -7, -16, -83, -71, -45, 2, 51, 82, 61], "withholdReward": false, "trial_id": "mdp_trial_35", "block": "test", "trialIndex": 38, "score": 15.6, "costs": -1.4, "simulationMode": [null, null, null, null, null], "rewards": [-2, 4, 1, -8, 22], "path": ["0", "0", "12", "13", "14", "15", "16"], "rt": [3458, 295, 110, 748, 85], "actions": ["right", "right", "right", "up", "up"], "actionTimes": [9266, 10088, 10745, 12040, 12694], "queries": {"click": {"state": {"target": ["23"], "time": [7049]}, "edge": {"target": [], "time": []}}, "mouseover": {"state": {"target": ["0", "23", "24"], "time": [5872, 6563, 7696]}, "edge": {"target": [], "time": []}}, "mouseout": {"state": {"target": ["0", "0", "0", "23", "24"], "time": [2195, 2714, 6489, 7183, 8454]}, "edge": {"target": [], "time": []}}}, "displayed_time": "19.81", "trialTime": 23431, "trial_type": "mouselab-mdp", "trial_index": 49, "time_elapsed": 2208590, "internal_node_id": "0.0-6.0-1.0-34.0"}}, {"uniqueid": "w90225276:a48414496", "current_trial": 50, "dateTime": 1693566903093, "trialdata": {"revealed_states": [], "clicked_states": ["1"], "num_clicks_accrued": [0, 0, 0, 0, 0, 0, 0, 0, 0, 0, 0, 0, 0], "stateRewards": ["", 1, 2, -6, -13, -51, 22, -4, -12, -44, -12, 6, -2, -2, -2, -14, -46, -4, -77, -2, 36, -79, 41, 2, -4, 2, -6, -55, 59, 70, -5, 39, -19, 24], "withholdReward": false, "trial_id": "mdp_trial_36", "block": "test", "trialIndex": 39, "score": -25.4, "costs": -1.4, "simulationMode": [null, null, null, null, null], "rewards": [2, -4, 2, -5, -19], "path": ["0", "0", "23", "24", "25", "30", "32"], "rt": [3182, 355, 628, 850, 591], "actions": ["left", "left", "left", "down", "down"], "actionTimes": [6516, 7395, 8570, 9962, 11127], "queries": {"click": {"state": {"target": ["1"], "time": [4613]}, "edge": {"target": [], "time": []}}, "mouseover": {"state": {"target": ["1", "23"], "time": [4049, 5540]}, "edge": {"target": [], "time": []}}, "mouseout": {"state": {"target": ["0", "1"], "time": [3897, 4734]}, "edge": {"target": [], "time": []}}}, "displayed_time": "17.34", "trialTime": 19740, "trial_type": "mouselab-mdp", "trial_index": 50, "time_elapsed": 2230953, "internal_node_id": "0.0-6.0-1.0-35.0"}}, {"uniqueid": "w90225276:a48414496", "current_trial": 51, "dateTime": 1693566946388, "trialdata": {"revealed_states": [], "clicked_states": [], "num_clicks_accrued": [0, 0, 0, 0, 0, 0, 0, 0, 0, 0, 0, 0, 0], "stateRewards": ["", -2, 2, 3, -7, -31, -33, 29, -8, -57, 50, -83, -1, -1, 5, 13, -23, -62, 25, 5, -66, -85, 14, 1, -2, -1, 16, 71, 33, -19, -14, 5, -43, 79], "withholdReward": false, "trial_id": "mdp_trial_37", "block": "test", "trialIndex": 40, "score": 85, "costs": 0, "simulationMode": [null, null, null, null, null], "rewards": [1, -2, -1, 16, 71], "path": ["0", "0", "23", "24", "25", "26", "27"], "rt": [6252, 185, 262, 1222, 741], "actions": ["left", "left", "left", "up", "up"], "actionTimes": [10327, 11042, 11855, 13615, 14920], "queries": {"click": {"state": {"target": [], "time": []}, "edge": {"target": [], "time": []}}, "mouseover": {"state": {"target": ["0", "23"], "time": [8854, 8939]}, "edge": {"target": [], "time": []}}, "mouseout": {"state": {"target": ["23", "0", "0"], "time": [1191, 1573, 8921]}, "edge": {"target": [], "time": []}}}, "displayed_time": "18.08", "trialTime": 40259, "trial_type": "mouselab-mdp", "trial_index": 51, "time_elapsed": 2274252, "internal_node_id": "0.0-6.0-1.0-36.0"}}, {"uniqueid": "w90225276:a48414496", "current_trial": 52, "dateTime": 1693566979711, "trialdata": {"revealed_states": [], "clicked_states": ["23"], "num_clicks_accrued": [0, 0, 0, 0, 0, 0, 0, 0, 0, 0, 0, 0, 0], "stateRewards": ["", -1, -3, 1, 13, -64, -29, 12, -4, -33, 50, 56, 2, -3, 4, 11, -64, -58, -55, 12, 47, 38, -25, -2, 2, 5, -15, 85, 7, 84, 10, 8, 57, 26], "withholdReward": false, "trial_id": "mdp_trial_38", "block": "test", "trialIndex": 41, "score": -45.4, "costs": -1.4, "simulationMode": [null, null, null, null, null, null], "rewards": [2, -3, 4, 11, -58], "path": ["0", "0", "12", "13", "14", "15", "17"], "rt": [3998, 658, 218, 68, 712, 1208], "actions": ["right", "right", "right", "right", "up", "right"], "actionTimes": [12584, 13257, 14011, 14622, 15894, 17782], "queries": {"click": {"state": {"target": ["23"], "time": [11183]}, "edge": {"target": [], "time": []}}, "mouseover": {"state": {"target": ["23"], "time": [10400]}, "edge": {"target": [], "time": []}}, "mouseout": {"state": {"target": ["23", "0"], "time": [6065, 10215]}, "edge": {"target": [], "time": []}}}, "displayed_time": "22.60", "trialTime": 30521, "trial_type": "mouselab-mdp", "trial_index": 52, "time_elapsed": 2307579, "internal_node_id": "0.0-6.0-1.0-37.0"}}, {"uniqueid": "w90225276:a48414496", "current_trial": 53, "dateTime": 1693567006317, "trialdata": {"revealed_states": [], "clicked_states": ["23"], "num_clicks_accrued": [0, 0, 0, 0, 0, 0, 0, 0, 0, 0, 0, 0, 0], "stateRewards": ["", -2, -4, 4, -11, -63, -60, -7, 2, -14, 81, -43, -1, -1, -5, 7, 10, 69, 40, 8, -83, 52, 60, 1, 2, 5, -5, 16, 64, 14, -3, 29, 7, -51], "withholdReward": false, "trial_id": "mdp_trial_39", "block": "test", "trialIndex": 42, "score": -74.4, "costs": -1.4, "simulationMode": [null, null, null, null, null], "rewards": [-2, -4, 4, -11, -60], "path": ["0", "0", "1", "2", "3", "4", "6"], "rt": [4470, 448, 140, 567, 17], "actions": ["up", "up", "up", "right", "right"], "actionTimes": [9591, 10585, 11251, 12361, 12933], "queries": {"click": {"state": {"target": ["23"], "time": [7680]}, "edge": {"target": [], "time": []}}, "mouseover": {"state": {"target": ["23"], "time": [7266]}, "edge": {"target": [], "time": []}}, "mouseout": {"state": {"target": ["23", "0", "0", "0", "23", "31", "30", "30"], "time": [1520, 1655, 1887, 6826, 7799, 22503, 22602, 22786]}, "edge": {"target": [], "time": []}}}, "displayed_time": "19.13", "trialTime": 23520, "trial_type": "mouselab-mdp", "trial_index": 53, "time_elapsed": 2334183, "internal_node_id": "0.0-6.0-1.0-38.0"}}, {"uniqueid": "w90225276:a48414496", "current_trial": 54, "dateTime": 1693567044254, "trialdata": {"revealed_states": [], "clicked_states": ["12", "23", "1"], "num_clicks_accrued": [0, 0, 0, 0, 0, 0, 0, 0, 0, 0, 0, 0, 0], "stateRewards": ["", -2, 3, 3, -14, 62, 36, 49, 16, 11, 17, -84, 2, -1, 6, 2, -82, -73, 49, -6, -87, 48, 50, -1, -2, -1, -16, -11, 37, -44, 4, 55, 73, -10], "withholdReward": false, "trial_id": "mdp_trial_40", "block": "test", "trialIndex": 43, "score": -35.2, "costs": -4.199999999999999, "simulationMode": [null, null, null, null, null], "rewards": [-1, -2, -1, -16, -11], "path": ["0", "0", "23", "24", "25", "26", "27"], "rt": [9419, 117, 125, 430, 801], "actions": ["left", "left", "left", "up", "up"], "actionTimes": [14826, 15497, 16236, 17228, 18582], "queries": {"click": {"state": {"target": ["12", "23", "1"], "time": [6783, 9071, 10859]}, "edge": {"target": [], "time": []}}, "mouseover": {"state": {"target": ["0", "12", "1", "23", "1", "0", "0", "23"], "time": [5478, 6266, 7561, 8407, 10025, 12196, 13407, 14233]}, "edge": {"target": [], "time": []}}, "mouseout": {"state": {"target": ["12", "0", "0", "12", "1", "23", "1", "0", "0"], "time": [2219, 2759, 6164, 7123, 8293, 9912, 11855, 12510, 13476]}, "edge": {"target": [], "time": []}}}, "displayed_time": "19.42", "trialTime": 34724, "trial_type": "mouselab-mdp", "trial_index": 54, "time_elapsed": 2372118, "internal_node_id": "0.0-6.0-1.0-39.0"}}, {"uniqueid": "w90225276:a48414496", "current_trial": 55, "dateTime": 1693567140072, "trialdata": {"rt": 95729, "response": {"Q0": "$-2 to $2", "Q1": "$-16 to $16", "Q2": "$-88 to $88", "Q3": "The cost was always $1.4.", "Q4": "Slightly motivated"}, "question_order": [0, 1, 2, 3, 4], "trial_id": "final_quiz_control", "trial_type": "survey-multi-choice", "trial_index": 55, "time_elapsed": 2467941, "internal_node_id": "0.0-6.0-2.0"}}, {"uniqueid": "w90225276:a48414496", "current_trial": 56, "dateTime": 1693567393615, "trialdata": {"rt": 253435, "response": {"Q0": "at first I was a bit confused. i struggled to develop a strategy.", "Q1": "I did improve . i used the inspector more though I would run out of time.", "Q2": "it was difficult for me , i would get it and then not get it."}, "trial_id": "self_report_control", "trial_type": "survey-text", "trial_index": 56, "time_elapsed": 2721484, "internal_node_id": "0.0-6.0-3.0"}}, {"uniqueid": "w90225276:a48414496", "current_trial": 57, "dateTime": 1693567434223, "trialdata": {"rt": 40554, "response": {"gender": "female", "age": "30", "colorblind": "0", "effort": "0"}, "trial_type": "survey-html-form", "trial_index": 57, "time_elapsed": 2762092, "internal_node_id": "0.0-6.0-4.0"}}, {"uniqueid": "w90225276:a48414496", "current_trial": 58, "dateTime": 1693567469315, "trialdata": {"rt": 35037, "response": {"Q0": "no", "Q1": "No", "Q2": ""}, "trial_type": "survey-text", "trial_index": 58, "time_elapsed": 2797184, "internal_node_id": "0.0-6.0-5.0"}}, {"uniqueid": "w90225276:a48414496", "current_trial": 59, "dateTime": 1693567479730, "trialdata": {"rt": 10381, "stimulus": "<h1>Completion Code Instructions (1/2)</h1>\n<br><br><br><br>\nYou have reached the end of the experiment! The completion code consists of two parts: (1) a code with 2 characters (2) a code with 6 characters. On this page, you will receive the second part of the code. The first part of the completion code will be on the next page.\n<br><br>\nThe second part of your completion code is: <b>EWEK22</b>\n<br><br>\nPlease note this down. Then, press 'Finish HIT' in order to find the first part of your completion code. Once the data has been saved, you will receive this code either in this window or in the original browser window where you started the experiment.\n", "response": 0, "trial_type": "html-button-response", "trial_index": 59, "time_elapsed": 2807600, "internal_node_id": "0.0-6.0-6.0"}}, {"uniqueid": "w90225276:a48414496", "current_trial": 60, "dateTime": 1693567480761, "trialdata": {"success": true, "trial_type": "fullscreen", "trial_index": 60, "time_elapsed": 2808631, "internal_node_id": "0.0-7.0"}}], "questiondata": {"params": {"CODE": "C6DMOQA6", "MIN_TIME": 14, "inspectCost": 1, "startTime": "Fri Sep 01 2023 12:37:49 GMT+0200 (South Africa Standard Time)", "bonusRate": 0.002, "variance": "1_2_4_8_44", "branching": "31123"}}, "eventdata": [{"eventtype": "initialized", "value": null, "timestamp": 1693564668299, "interval": 0}, {"eventtype": "window_resize", "value": [1024, 654], "timestamp": 1693564668299, "interval": 0}, {"eventtype": "window_resize", "value": [1024, 654], "timestamp": 1693564669032, "interval": 733}, {"eventtype": "window_resize", "value": [1366, 768], "timestamp": 1693564680796, "interval": 11764}, {"eventtype": "focus", "value": "off", "timestamp": 1693565280219, "interval": 599423}, {"eventtype": "focus", "value": "on", "timestamp": 1693565280220, "interval": 1}, {"eventtype": "window_resize", "value": [1024, 654], "timestamp": 1693565280604, "interval": 384}, {"eventtype": "window_resize", "value": [1366, 768], "timestamp": 1693565283148, "interval": 2544}, {"eventtype": "window_resize", "value": [1024, 654], "timestamp": 1693567480231, "interval": 2197083}], "useragent": "Mozilla/5.0 (Windows NT 10.0; Win64; x64) AppleWebKit/537.36 (KHTML, like Gecko) Chrome/115.0.0.0 Safari/537.36", "mode": "live", "id": "w90225276:a48414496", "status": "user data saved", "Beginhit": "2023-09-01 10:37:43.735358", "Beginexp": "2023-09-01 10:38:01.600278", "Endhit": "2023-09-01 11:24:41.755547", "psiturkStatus": 3, "browser": "<redacted>", "platform": "windows", "language": "en-GB"}