{"condition": 0, "counterbalance": 0, "assignmentId": "a65852774", "workerId": "w45231981", "hitId": "h25992686", "currenttrial": 61, "bonus": 0, "data": [{"uniqueid": "w45231981:a65852774", "current_trial": 0, "dateTime": 1691159459122, "trialdata": {"success": true, "trial_type": "fullscreen", "trial_index": 0, "time_elapsed": 15319, "internal_node_id": "0.0-0.0"}}, {"uniqueid": "w45231981:a65852774", "current_trial": 1, "dateTime": 1691159484204, "trialdata": {"view_history": [{"page_index": 0, "viewing_time": 25068}], "rt": 25070, "trial_id": "exp_instructions_control", "trial_type": "instructions", "trial_index": 1, "time_elapsed": 40402, "internal_node_id": "0.0-1.0"}}, {"uniqueid": "w45231981:a65852774", "current_trial": 2, "dateTime": 1691159494504, "trialdata": {"success": true, "trial_type": "fullscreen", "trial_index": 2, "time_elapsed": 50702, "internal_node_id": "0.0-2.0-0.0"}}, {"uniqueid": "w45231981:a65852774", "current_trial": 3, "dateTime": 1691159816924, "trialdata": {"view_history": [{"page_index": 0, "viewing_time": 106730}, {"page_index": 1, "viewing_time": 115229}, {"page_index": 2, "viewing_time": 42755}, {"page_index": 3, "viewing_time": 57697}], "rt": 322412, "trial_id": "mouselab_instructions_1_control", "trial_type": "instructions", "trial_index": 3, "time_elapsed": 373121, "internal_node_id": "0.0-2.0-1.0"}}, {"uniqueid": "w45231981:a65852774", "current_trial": 4, "dateTime": 1691159847780, "trialdata": {"revealed_states": [], "clicked_states": [], "num_clicks_accrued": [0, 0, 0, 0, 0, 0, 0, 0, 0, 0, 0, 0, 0], "stateRewards": ["", 10, 10, -10, 10, -10, -10, -10, 10, 10, -10, -10, 10, 10, 10, 10, -10, 10, 10, 10, -10, -10, -10, 10, 10, -10, -10, 10, -10, -10, -10, 10, -10, 10], "withholdReward": false, "trial_id": "practice_1", "block": "test", "trialIndex": 0, "score": 13.5, "costs": 0, "simulationMode": [null, null, null, null, null], "rewards": [10, 10, -10, 10, -10], "path": ["0", "0", "1", "2", "3", "4", "5"], "rt": [4481, 758, 189, 318, 1035], "actions": ["up", "up", "up", "right", "up"], "actionTimes": [11918, 13206, 13965, 14803, 16356], "queries": {"click": {"state": {"target": [], "time": []}, "edge": {"target": [], "time": []}}, "mouseover": {"state": {"target": [], "time": []}, "edge": {"target": [], "time": []}}, "mouseout": {"state": {"target": ["0", "0", "15", "17"], "time": [6442, 23283, 23352, 23378]}, "edge": {"target": [], "time": []}}}, "displayed_time": "16.88", "trialTime": 29045, "trial_type": "mouselab-mdp", "trial_index": 4, "time_elapsed": 403977, "internal_node_id": "0.0-2.0-2.0-0.0"}}, {"uniqueid": "w45231981:a65852774", "current_trial": 5, "dateTime": 1691159867640, "trialdata": {"revealed_states": [], "clicked_states": [], "num_clicks_accrued": [0, 0, 0, 0, 0, 0, 0, 0, 0, 0, 0, 0, 0], "stateRewards": ["", 10, -10, 10, -10, 10, -10, -10, -10, 10, -10, -10, -10, -10, -10, 10, -10, -10, -10, -10, 10, -10, 10, 10, 10, -10, -10, -10, -10, -10, 10, -10, -10, 10], "withholdReward": false, "trial_id": "practice_2", "block": "test", "trialIndex": 1, "score": -6.5, "costs": 0, "simulationMode": [null, null, null, null, null], "rewards": [10, 10, -10, -10, -10], "path": ["0", "0", "23", "24", "25", "26", "27"], "rt": [2831, 526, 253, 274, 904], "actions": ["left", "left", "left", "up", "up"], "actionTimes": [7823, 8865, 9651, 10457, 11870], "queries": {"click": {"state": {"target": [], "time": []}, "edge": {"target": [], "time": []}}, "mouseover": {"state": {"target": [], "time": []}, "edge": {"target": [], "time": []}}, "mouseout": {"state": {"target": ["17", "15", "18"], "time": [3130, 3163, 3581]}, "edge": {"target": [], "time": []}}}, "displayed_time": "12.38", "trialTime": 18650, "trial_type": "mouselab-mdp", "trial_index": 5, "time_elapsed": 423837, "internal_node_id": "0.0-2.0-2.0-1.0"}}, {"uniqueid": "w45231981:a65852774", "current_trial": 6, "dateTime": 1691159941477, "trialdata": {"view_history": [{"page_index": 0, "viewing_time": 57098}, {"page_index": 1, "viewing_time": 16730}], "rt": 73828, "trial_id": "mouselab_instructions_2_control", "trial_type": "instructions", "trial_index": 6, "time_elapsed": 497675, "internal_node_id": "0.0-2.0-3.0"}}, {"uniqueid": "w45231981:a65852774", "current_trial": 7, "dateTime": 1691160033297, "trialdata": {"rt": 91806, "response": {"Q0": "The cost for clicking on nodes may vary between nodes.", "Q1": "The better I perform the higher my bonus will be.", "Q2": "No, the amount of cash at each node of the web may be different each time.", "Q3": "To click on the least number of nodes.", "Q4": "Only before moving the spider.", "Q5": "3 seconds"}, "question_order": [0, 1, 2, 3, 4, 5], "correct": {"Q0": "The cost for clicking on nodes may vary between nodes.", "Q1": "The better I perform the higher my bonus will be.", "Q2": "No, the amount of cash at each node of the web may be different each time.", "Q3": "To get the highest total score.", "Q4": "Only before moving the spider.", "Q5": "3 seconds"}, "trial_id": "mouselab_quiz_control", "trial_type": "survey-multi-choice", "trial_index": 7, "time_elapsed": 589495, "internal_node_id": "0.0-2.0-4.0"}}, {"uniqueid": "w45231981:a65852774", "current_trial": 8, "dateTime": 1691160050629, "trialdata": {"success": true, "trial_type": "fullscreen", "trial_index": 8, "time_elapsed": 606827, "internal_node_id": "0.0-2.1-0.1"}}, {"uniqueid": "w45231981:a65852774", "current_trial": 9, "dateTime": 1691160125762, "trialdata": {"view_history": [{"page_index": 0, "viewing_time": 18743}, {"page_index": 1, "viewing_time": 14450}, {"page_index": 2, "viewing_time": 16682}, {"page_index": 3, "viewing_time": 25252}], "rt": 75128, "trial_id": "mouselab_instructions_1_control", "trial_type": "instructions", "trial_index": 9, "time_elapsed": 681960, "internal_node_id": "0.0-2.1-1.1"}}, {"uniqueid": "w45231981:a65852774", "current_trial": 10, "dateTime": 1691160142816, "trialdata": {"revealed_states": [], "clicked_states": [], "num_clicks_accrued": [0, 0, 0, 0, 0, 0, 0, 0, 0, 0, 0, 0, 0], "stateRewards": ["", 10, 10, -10, 10, -10, -10, -10, 10, 10, -10, -10, 10, 10, 10, 10, -10, 10, 10, 10, -10, -10, -10, 10, 10, -10, -10, 10, -10, -10, -10, 10, -10, 10], "withholdReward": false, "trial_id": "practice_1", "block": "test", "trialIndex": 2, "score": 13.5, "costs": 0, "simulationMode": [null, null, null, null, null], "rewards": [10, 10, -10, 10, -10], "path": ["0", "0", "1", "2", "3", "4", "5"], "rt": [2086, 19, 6, 701, 244], "actions": ["up", "up", "up", "right", "up"], "actionTimes": [5763, 6318, 6857, 8124, 8880], "queries": {"click": {"state": {"target": [], "time": []}, "edge": {"target": [], "time": []}}, "mouseover": {"state": {"target": [], "time": []}, "edge": {"target": [], "time": []}}, "mouseout": {"state": {"target": [], "time": []}, "edge": {"target": [], "time": []}}}, "displayed_time": "9.42", "trialTime": 15604, "trial_type": "mouselab-mdp", "trial_index": 10, "time_elapsed": 699013, "internal_node_id": "0.0-2.1-2.1-0.1"}}, {"uniqueid": "w45231981:a65852774", "current_trial": 11, "dateTime": 1691160160866, "trialdata": {"revealed_states": [], "clicked_states": [], "num_clicks_accrued": [0, 0, 0, 0, 0, 0, 0, 0, 0, 0, 0, 0, 0], "stateRewards": ["", 10, -10, 10, -10, 10, -10, -10, -10, 10, -10, -10, -10, -10, -10, 10, -10, -10, -10, -10, 10, -10, 10, 10, 10, -10, -10, -10, -10, -10, 10, -10, -10, 10], "withholdReward": false, "trial_id": "practice_2", "block": "test", "trialIndex": 3, "score": 13.5, "costs": 0, "simulationMode": [null, null, null, null, null], "rewards": [10, 10, -10, 10, -10], "path": ["0", "0", "23", "24", "25", "30", "32"], "rt": [4090, 254, 63, 75, 464], "actions": ["left", "left", "left", "down", "down"], "actionTimes": [9482, 10287, 10880, 11522, 12528], "queries": {"click": {"state": {"target": [], "time": []}, "edge": {"target": [], "time": []}}, "mouseover": {"state": {"target": [], "time": []}, "edge": {"target": [], "time": []}}, "mouseout": {"state": {"target": ["0"], "time": [5755]}, "edge": {"target": [], "time": []}}}, "displayed_time": "13.05", "trialTime": 16649, "trial_type": "mouselab-mdp", "trial_index": 11, "time_elapsed": 717062, "internal_node_id": "0.0-2.1-2.1-1.1"}}, {"uniqueid": "w45231981:a65852774", "current_trial": 12, "dateTime": 1691160175513, "trialdata": {"view_history": [{"page_index": 0, "viewing_time": 12125}, {"page_index": 1, "viewing_time": 2515}], "rt": 14641, "trial_id": "mouselab_instructions_2_control", "trial_type": "instructions", "trial_index": 12, "time_elapsed": 731711, "internal_node_id": "0.0-2.1-3.1"}}, {"uniqueid": "w45231981:a65852774", "current_trial": 13, "dateTime": 1691160224340, "trialdata": {"rt": 48818, "response": {"Q0": "The cost for clicking on nodes may vary between nodes.", "Q1": "The better I perform the higher my bonus will be.", "Q2": "No, the amount of cash at each node of the web may be different each time.", "Q3": "To get the highest total score.", "Q4": "Only before moving the spider.", "Q5": "3 seconds"}, "question_order": [0, 1, 2, 3, 4, 5], "correct": {"Q0": "The cost for clicking on nodes may vary between nodes.", "Q1": "The better I perform the higher my bonus will be.", "Q2": "No, the amount of cash at each node of the web may be different each time.", "Q3": "To get the highest total score.", "Q4": "Only before moving the spider.", "Q5": "3 seconds"}, "trial_id": "mouselab_quiz_control", "trial_type": "survey-multi-choice", "trial_index": 13, "time_elapsed": 780538, "internal_node_id": "0.0-2.1-4.1"}}, {"uniqueid": "w45231981:a65852774", "current_trial": 14, "dateTime": 1691160236970, "trialdata": {"rt": 12610, "stimulus": "\n<h1> Get ready to start the game! </h1>\n\nThank you for reading the instructions. Get ready start with the 40 rounds of this game.\n<br><br>\nIf you need to take a break, feel free to take one after the end of a round, before continuing to the next one.\n<br><br>\nRemember, the more money the spider gets, the bigger your bonus will be!\n<br><br>\n<div style='text-align: center;'>Press <code>space</code> to begin.</div>\n\n<br><br>\n(If, at any point, the <code>space</code> key does not take you to the next page, click once on the text and try again.)", "response": " ", "trial_id": "mdp_ready", "trial_type": "html-keyboard-response", "trial_index": 14, "time_elapsed": 793168, "internal_node_id": "0.0-4.0-0.0"}}, {"uniqueid": "w45231981:a65852774", "current_trial": 15, "dateTime": 1691160259673, "trialdata": {"revealed_states": [], "clicked_states": [], "num_clicks_accrued": [0, 0, 0, 0, 0, 0, 0, 0, 0, 0, 0, 0, 0], "stateRewards": ["", -1, 3, -5, -2, -13, -9, -34, -7, -81, 32, 35, -2, -2, 1, -14, -32, 81, 7, 4, 82, 56, -8, -1, 3, -8, 6, -24, -24, -53, 2, 38, 61, 54], "withholdReward": false, "trial_id": "mdp_trial_1", "block": "test", "trialIndex": 4, "score": -18, "costs": 0, "simulationMode": [null, null, null, null, null], "rewards": [-1, 3, -5, -2, -13], "path": ["0", "0", "1", "2", "3", "4", "5"], "rt": [1018, 1156, 3, 319, 223], "actions": ["up", "up", "up", "right", "up"], "actionTimes": [4626, 6375, 7199, 8044, 8785], "queries": {"click": {"state": {"target": [], "time": []}, "edge": {"target": [], "time": []}}, "mouseover": {"state": {"target": [], "time": []}, "edge": {"target": [], "time": []}}, "mouseout": {"state": {"target": ["0", "0", "18", "14"], "time": [2387, 12327, 12394, 15243]}, "edge": {"target": [], "time": []}}}, "displayed_time": "17.61", "trialTime": 21266, "trial_type": "mouselab-mdp", "trial_index": 15, "time_elapsed": 815870, "internal_node_id": "0.0-4.0-1.0-0.0"}}, {"uniqueid": "w45231981:a65852774", "current_trial": 16, "dateTime": 1691160280878, "trialdata": {"revealed_states": [], "clicked_states": [], "num_clicks_accrued": [0, 0, 0, 0, 0, 0, 0, 0, 0, 0, 0, 0, 0], "stateRewards": ["", -1, -4, -1, -11, 43, 69, 39, 4, 17, -20, -82, -2, -1, 4, 8, -79, 24, -79, 11, 36, 64, 41, 2, 4, -1, 11, -79, -47, 75, -3, 63, -36, -19], "withholdReward": false, "trial_id": "mdp_trial_2", "block": "test", "trialIndex": 5, "score": -34, "costs": 0, "simulationMode": [null, null, null, null, null], "rewards": [2, 4, -1, -3, -36], "path": ["0", "0", "23", "24", "25", "30", "32"], "rt": [987, 52, 73, 117, 148], "actions": ["left", "left", "left", "down", "down"], "actionTimes": [4420, 4986, 5597, 6269, 6933], "queries": {"click": {"state": {"target": [], "time": []}, "edge": {"target": [], "time": []}}, "mouseover": {"state": {"target": [], "time": []}, "edge": {"target": [], "time": []}}, "mouseout": {"state": {"target": [], "time": []}, "edge": {"target": [], "time": []}}}, "displayed_time": "17.43", "trialTime": 19691, "trial_type": "mouselab-mdp", "trial_index": 16, "time_elapsed": 837075, "internal_node_id": "0.0-4.0-1.0-1.0"}}, {"uniqueid": "w45231981:a65852774", "current_trial": 17, "dateTime": 1691160304068, "trialdata": {"revealed_states": [], "clicked_states": [], "num_clicks_accrued": [0, 0, 0, 0, 0, 0, 0, 0, 0, 0, 0, 0, 0], "stateRewards": ["", -2, 1, -5, 2, -68, 80, 33, 10, 67, -59, 20, -1, -3, 3, 14, 74, -2, 24, -16, 63, 80, 46, -1, 4, 6, 12, 83, -38, -43, -4, 43, 14, -79], "withholdReward": false, "trial_id": "mdp_trial_3", "block": "test", "trialIndex": 6, "score": -22, "costs": 0, "simulationMode": [null, null, null, null, null], "rewards": [-1, 4, 6, 12, -43], "path": ["0", "0", "23", "24", "25", "26", "29"], "rt": [1894, 337, 398, 179, 234], "actions": ["left", "left", "left", "up", "left"], "actionTimes": [5613, 6479, 7407, 8092, 8840], "queries": {"click": {"state": {"target": [], "time": []}, "edge": {"target": [], "time": []}}, "mouseover": {"state": {"target": [], "time": []}, "edge": {"target": [], "time": []}}, "mouseout": {"state": {"target": ["0"], "time": [3065]}, "edge": {"target": [], "time": []}}}, "displayed_time": "17.72", "trialTime": 21617, "trial_type": "mouselab-mdp", "trial_index": 17, "time_elapsed": 860265, "internal_node_id": "0.0-4.0-1.0-2.0"}}, {"uniqueid": "w45231981:a65852774", "current_trial": 18, "dateTime": 1691160323979, "trialdata": {"revealed_states": [], "clicked_states": [], "num_clicks_accrued": [0, 0, 0, 0, 0, 0, 0, 0, 0, 0, 0, 0, 0], "stateRewards": ["", -2, -4, -8, 8, 63, -50, -19, -7, -17, -31, 31, 1, 3, -5, 12, -35, -63, -29, -4, -17, -75, -79, -2, -3, -2, 8, -3, -85, 10, -2, -82, -82, 56], "withholdReward": false, "trial_id": "mdp_trial_4", "block": "test", "trialIndex": 7, "score": -38, "costs": 0, "simulationMode": [null, null, null, null, null], "rewards": [-2, -4, -8, -7, -17], "path": ["0", "0", "1", "2", "3", "8", "9"], "rt": [1372, 799, 588, 416, 351], "actions": ["up", "up", "up", "left", "up"], "actionTimes": [3902, 5233, 6353, 7283, 8162], "queries": {"click": {"state": {"target": [], "time": []}, "edge": {"target": [], "time": []}}, "mouseover": {"state": {"target": [], "time": []}, "edge": {"target": [], "time": []}}, "mouseout": {"state": {"target": ["0"], "time": [791]}, "edge": {"target": [], "time": []}}}, "displayed_time": "16.54", "trialTime": 18481, "trial_type": "mouselab-mdp", "trial_index": 18, "time_elapsed": 880177, "internal_node_id": "0.0-4.0-1.0-3.0"}}, {"uniqueid": "w45231981:a65852774", "current_trial": 19, "dateTime": 1691160349622, "trialdata": {"revealed_states": [], "clicked_states": [], "num_clicks_accrued": [0, 0, 0, 0, 0, 0, 0, 0, 0, 0, 0, 0, 0], "stateRewards": ["", 2, 4, 4, 9, -88, -10, 44, 16, -54, 64, 78, 1, 2, 5, 16, 80, 36, 7, -4, 9, -47, -70, -1, -3, 6, -16, 11, 80, 28, 8, -1, 34, -17], "withholdReward": false, "trial_id": "mdp_trial_5", "block": "test", "trialIndex": 8, "score": 66, "costs": 0, "simulationMode": [null, null, null, null, null], "rewards": [-1, -3, 6, -16, 80], "path": ["0", "0", "23", "24", "25", "26", "28"], "rt": [10320, 192, 160, 686, 1235], "actions": ["left", "left", "left", "up", "right"], "actionTimes": [15149, 15853, 16530, 17738, 19492], "queries": {"click": {"state": {"target": [], "time": []}, "edge": {"target": [], "time": []}}, "mouseover": {"state": {"target": ["18"], "time": [10882]}, "edge": {"target": [], "time": []}}, "mouseout": {"state": {"target": ["0", "18", "19", "22"], "time": [3578, 10911, 22538, 22604]}, "edge": {"target": [], "time": []}}}, "displayed_time": "20.00", "trialTime": 23999, "trial_type": "mouselab-mdp", "trial_index": 19, "time_elapsed": 905819, "internal_node_id": "0.0-4.0-1.0-4.0"}}, {"uniqueid": "w45231981:a65852774", "current_trial": 20, "dateTime": 1691160375932, "trialdata": {"revealed_states": [], "clicked_states": [], "num_clicks_accrued": [0, 0, 0, 0, 0, 0, 0, 0, 0, 0, 0, 0, 0], "stateRewards": ["", 1, -3, -4, -11, -56, 61, -47, -16, -28, -9, 69, -2, -3, -4, -8, 40, -86, 59, -4, 80, 27, 54, -1, 3, -1, 8, 67, 23, 50, 6, 83, -43, -29], "withholdReward": false, "trial_id": "mdp_trial_6", "block": "test", "trialIndex": 9, "score": 41, "costs": 0, "simulationMode": [null, null, null, null, null], "rewards": [-2, -3, -4, -4, 54], "path": ["0", "0", "12", "13", "14", "19", "22"], "rt": [527, 184, 415, 31, 310], "actions": ["right", "right", "right", "down", "left"], "actionTimes": [7627, 8332, 9281, 9838, 10689], "queries": {"click": {"state": {"target": [], "time": []}, "edge": {"target": [], "time": []}}, "mouseover": {"state": {"target": [], "time": []}, "edge": {"target": [], "time": []}}, "mouseout": {"state": {"target": ["0"], "time": [5935]}, "edge": {"target": [], "time": []}}}, "displayed_time": "21.10", "trialTime": 24604, "trial_type": "mouselab-mdp", "trial_index": 20, "time_elapsed": 932129, "internal_node_id": "0.0-4.0-1.0-5.0"}}, {"uniqueid": "w45231981:a65852774", "current_trial": 21, "dateTime": 1691160397190, "trialdata": {"revealed_states": [], "clicked_states": [], "num_clicks_accrued": [0, 0, 0, 0, 0, 0, 0, 0, 0, 0, 0, 0, 0], "stateRewards": ["", 2, -1, -1, -9, -81, -30, 55, -6, 78, 25, 62, 2, 4, -1, 9, -85, 1, -19, 1, -60, 12, -34, 1, 4, -1, -13, -24, -16, -83, -8, 16, 43, 9], "withholdReward": false, "trial_id": "mdp_trial_7", "block": "test", "trialIndex": 10, "score": -39, "costs": 0, "simulationMode": [null, null, null, null, null], "rewards": [2, -1, -1, -9, -30], "path": ["0", "0", "1", "2", "3", "4", "6"], "rt": [806, 421, 1728, 496, 307], "actions": ["up", "up", "up", "right", "right"], "actionTimes": [2818, 3752, 5996, 7012, 7859], "queries": {"click": {"state": {"target": [], "time": []}, "edge": {"target": [], "time": []}}, "mouseover": {"state": {"target": [], "time": []}, "edge": {"target": [], "time": []}}, "mouseout": {"state": {"target": ["0"], "time": [1233]}, "edge": {"target": [], "time": []}}}, "displayed_time": "16.01", "trialTime": 19783, "trial_type": "mouselab-mdp", "trial_index": 21, "time_elapsed": 953387, "internal_node_id": "0.0-4.0-1.0-6.0"}}, {"uniqueid": "w45231981:a65852774", "current_trial": 22, "dateTime": 1691160419718, "trialdata": {"revealed_states": [], "clicked_states": [], "num_clicks_accrued": [0, 0, 0, 0, 0, 0, 0, 0, 0, 0, 0, 0, 0], "stateRewards": ["", -1, 4, 3, 12, -27, 34, -33, 3, -63, 1, 6, 2, 2, -6, -11, -77, -85, 68, -6, 51, 81, -60, -2, -2, 1, 15, 20, 15, 68, -10, -14, 6, -4], "withholdReward": false, "trial_id": "mdp_trial_8", "block": "test", "trialIndex": 11, "score": 73, "costs": 0, "simulationMode": [null, null, null, null, null], "rewards": [2, 2, -6, -6, 81], "path": ["0", "0", "12", "13", "14", "19", "21"], "rt": [1268, 693, 526, 214, 208], "actions": ["right", "right", "right", "down", "down"], "actionTimes": [3294, 4507, 5606, 6336, 7064], "queries": {"click": {"state": {"target": [], "time": []}, "edge": {"target": [], "time": []}}, "mouseover": {"state": {"target": [], "time": []}, "edge": {"target": [], "time": []}}, "mouseout": {"state": {"target": ["0"], "time": [1291]}, "edge": {"target": [], "time": []}}}, "displayed_time": "16.03", "trialTime": 20838, "trial_type": "mouselab-mdp", "trial_index": 22, "time_elapsed": 975915, "internal_node_id": "0.0-4.0-1.0-7.0"}}, {"uniqueid": "w45231981:a65852774", "current_trial": 23, "dateTime": 1691160442412, "trialdata": {"revealed_states": [], "clicked_states": [], "num_clicks_accrued": [0, 0, 0, 0, 0, 0, 0, 0, 0, 0, 0, 0, 0], "stateRewards": ["", -2, -4, -2, -13, -15, 87, -19, -6, -80, 30, 12, 1, 1, -8, 2, 55, 56, 15, 11, -68, -7, 55, -2, 3, -3, -3, 48, 62, 4, 1, -3, 69, -33], "withholdReward": false, "trial_id": "mdp_trial_9", "block": "test", "trialIndex": 12, "score": 68, "costs": 0, "simulationMode": [null, null, null, null, null], "rewards": [-2, 3, -3, 1, 69], "path": ["0", "0", "23", "24", "25", "30", "32"], "rt": [1234, 478, 285, 2064, 97], "actions": ["left", "left", "left", "down", "down"], "actionTimes": [3838, 4839, 5648, 8221, 8844], "queries": {"click": {"state": {"target": [], "time": []}, "edge": {"target": [], "time": []}}, "mouseover": {"state": {"target": [], "time": []}, "edge": {"target": [], "time": []}}, "mouseout": {"state": {"target": ["0"], "time": [1806]}, "edge": {"target": [], "time": []}}}, "displayed_time": "16.61", "trialTime": 20909, "trial_type": "mouselab-mdp", "trial_index": 23, "time_elapsed": 998609, "internal_node_id": "0.0-4.0-1.0-8.0"}}, {"uniqueid": "w45231981:a65852774", "current_trial": 24, "dateTime": 1691160463031, "trialdata": {"revealed_states": [], "clicked_states": [], "num_clicks_accrued": [0, 0, 0, 0, 0, 0, 0, 0, 0, 0, 0, 0, 0], "stateRewards": ["", -1, -3, -6, -2, -7, 80, -45, -3, -38, -72, 76, 2, 1, 7, 4, -62, 14, -74, 14, -87, -21, -88, -2, 1, -7, -10, 66, 56, -76, 10, -29, -72, -70], "withholdReward": false, "trial_id": "mdp_trial_10", "block": "test", "trialIndex": 13, "score": -85, "costs": 0, "simulationMode": [null, null, null, null, null], "rewards": [-1, -3, -6, -3, -72], "path": ["0", "0", "1", "2", "3", "8", "10"], "rt": [1225, 323, 149, 104, 852], "actions": ["up", "up", "up", "left", "down"], "actionTimes": [3401, 4254, 4929, 5545, 6915], "queries": {"click": {"state": {"target": [], "time": []}, "edge": {"target": [], "time": []}}, "mouseover": {"state": {"target": [], "time": []}, "edge": {"target": [], "time": []}}, "mouseout": {"state": {"target": ["0"], "time": [1405]}, "edge": {"target": [], "time": []}}}, "displayed_time": "16.18", "trialTime": 18804, "trial_type": "mouselab-mdp", "trial_index": 24, "time_elapsed": 1019228, "internal_node_id": "0.0-4.0-1.0-9.0"}}, {"uniqueid": "w45231981:a65852774", "current_trial": 25, "dateTime": 1691160483022, "trialdata": {"revealed_states": [], "clicked_states": [], "num_clicks_accrued": [0, 0, 0, 0, 0, 0, 0, 0, 0, 0, 0, 0, 0], "stateRewards": ["", 1, -3, 4, 13, -72, 52, 5, 5, -58, 5, 14, 2, 1, 3, -14, -86, -4, 73, 6, -58, -50, 49, 2, -3, -4, 2, 33, -41, 42, -11, 81, 45, 53], "withholdReward": false, "trial_id": "mdp_trial_11", "block": "test", "trialIndex": 14, "score": -12, "costs": 0, "simulationMode": [null, null, null, null, null], "rewards": [2, 1, 3, -14, -4], "path": ["0", "0", "12", "13", "14", "15", "17"], "rt": [1308, 415, 542, 323, 87], "actions": ["right", "right", "right", "up", "right"], "actionTimes": [4398, 5356, 6418, 7268, 7872], "queries": {"click": {"state": {"target": [], "time": []}, "edge": {"target": [], "time": []}}, "mouseover": {"state": {"target": [], "time": []}, "edge": {"target": [], "time": []}}, "mouseout": {"state": {"target": ["0"], "time": [2323]}, "edge": {"target": [], "time": []}}}, "displayed_time": "17.09", "trialTime": 18110, "trial_type": "mouselab-mdp", "trial_index": 25, "time_elapsed": 1039219, "internal_node_id": "0.0-4.0-1.0-10.0"}}, {"uniqueid": "w45231981:a65852774", "current_trial": 26, "dateTime": 1691160504119, "trialdata": {"revealed_states": [], "clicked_states": [], "num_clicks_accrued": [0, 0, 0, 0, 0, 0, 0, 0, 0, 0, 0, 0, 0], "stateRewards": ["", -2, 1, -8, 12, -65, -79, 16, 7, -80, -17, -45, -2, 2, -5, -2, -85, 23, -4, -7, 48, 27, -76, 2, 3, 5, 2, 43, 71, -13, 7, -49, 59, -31], "withholdReward": false, "trial_id": "mdp_trial_12", "block": "test", "trialIndex": 15, "score": -88, "costs": 0, "simulationMode": [null, null, null, null, null], "rewards": [-2, 2, -5, -7, -76], "path": ["0", "0", "12", "13", "14", "19", "22"], "rt": [1013, 376, 622, 220, 1563], "actions": ["right", "right", "right", "down", "left"], "actionTimes": [3143, 4049, 5195, 5932, 8057], "queries": {"click": {"state": {"target": [], "time": []}, "edge": {"target": [], "time": []}}, "mouseover": {"state": {"target": [], "time": []}, "edge": {"target": [], "time": []}}, "mouseout": {"state": {"target": ["0"], "time": [1317]}, "edge": {"target": [], "time": []}}}, "displayed_time": "16.13", "trialTime": 19367, "trial_type": "mouselab-mdp", "trial_index": 26, "time_elapsed": 1060316, "internal_node_id": "0.0-4.0-1.0-11.0"}}, {"uniqueid": "w45231981:a65852774", "current_trial": 27, "dateTime": 1691160524149, "trialdata": {"revealed_states": [], "clicked_states": [], "num_clicks_accrued": [0, 0, 0, 0, 0, 0, 0, 0, 0, 0, 0, 0, 0], "stateRewards": ["", 2, -1, 8, -2, -16, 69, -39, -7, -13, -27, -86, 2, -2, 2, 13, -34, -16, -20, -5, 19, 81, 32, -2, -1, 2, -14, 20, 80, 58, 4, 70, 12, 73], "withholdReward": false, "trial_id": "mdp_trial_13", "block": "test", "trialIndex": 16, "score": 78, "costs": 0, "simulationMode": [null, null, null, null, null], "rewards": [2, -2, 2, -5, 81], "path": ["0", "0", "12", "13", "14", "19", "21"], "rt": [1169, 398, 307, 317, 51], "actions": ["right", "right", "right", "down", "down"], "actionTimes": [2810, 3751, 4589, 5415, 5986], "queries": {"click": {"state": {"target": [], "time": []}, "edge": {"target": [], "time": []}}, "mouseover": {"state": {"target": [], "time": []}, "edge": {"target": [], "time": []}}, "mouseout": {"state": {"target": ["0"], "time": [870]}, "edge": {"target": [], "time": []}}}, "displayed_time": "15.64", "trialTime": 18201, "trial_type": "mouselab-mdp", "trial_index": 27, "time_elapsed": 1080346, "internal_node_id": "0.0-4.0-1.0-12.0"}}, {"uniqueid": "w45231981:a65852774", "current_trial": 28, "dateTime": 1691160544834, "trialdata": {"revealed_states": [], "clicked_states": [], "num_clicks_accrued": [0, 0, 0, 0, 0, 0, 0, 0, 0, 0, 0, 0, 0], "stateRewards": ["", 2, -4, -4, 13, -80, 62, 13, -11, 57, -13, -44, 1, 4, 3, -4, -29, -88, 15, 16, -58, 68, -45, -1, -3, -1, -9, -44, -86, -19, -7, -36, 59, 66], "withholdReward": false, "trial_id": "mdp_trial_14", "block": "test", "trialIndex": 17, "score": 92, "costs": 0, "simulationMode": [null, null, null, null, null], "rewards": [1, 4, 3, 16, 68], "path": ["0", "0", "12", "13", "14", "19", "21"], "rt": [1412, 251, 171, 135, 118], "actions": ["right", "right", "right", "down", "down"], "actionTimes": [3859, 4635, 5316, 5981, 6619], "queries": {"click": {"state": {"target": [], "time": []}, "edge": {"target": [], "time": []}}, "mouseover": {"state": {"target": [], "time": []}, "edge": {"target": [], "time": []}}, "mouseout": {"state": {"target": ["0"], "time": [1392]}, "edge": {"target": [], "time": []}}}, "displayed_time": "16.45", "trialTime": 18722, "trial_type": "mouselab-mdp", "trial_index": 28, "time_elapsed": 1101031, "internal_node_id": "0.0-4.0-1.0-13.0"}}, {"uniqueid": "w45231981:a65852774", "current_trial": 29, "dateTime": 1691160565063, "trialdata": {"revealed_states": [], "clicked_states": [], "num_clicks_accrued": [0, 0, 0, 0, 0, 0, 0, 0, 0, 0, 0, 0, 0], "stateRewards": ["", -1, 1, -5, -6, -78, 47, -13, 12, 48, -88, 20, 2, -3, -2, 13, -20, 37, -57, 14, -38, 30, 31, -2, -2, 8, 2, -23, 78, 28, 12, -74, -88, 8], "withholdReward": false, "trial_id": "mdp_trial_15", "block": "test", "trialIndex": 18, "score": 41, "costs": 0, "simulationMode": [null, null, null, null, null], "rewards": [2, -3, -2, 14, 30], "path": ["0", "0", "12", "13", "14", "19", "21"], "rt": [1121, 266, 257, 159, 145], "actions": ["right", "right", "right", "down", "down"], "actionTimes": [3277, 4070, 4840, 5555, 6313], "queries": {"click": {"state": {"target": [], "time": []}, "edge": {"target": [], "time": []}}, "mouseover": {"state": {"target": [], "time": []}, "edge": {"target": [], "time": []}}, "mouseout": {"state": {"target": ["0"], "time": [1324]}, "edge": {"target": [], "time": []}}}, "displayed_time": "16.16", "trialTime": 17908, "trial_type": "mouselab-mdp", "trial_index": 29, "time_elapsed": 1121260, "internal_node_id": "0.0-4.0-1.0-14.0"}}, {"uniqueid": "w45231981:a65852774", "current_trial": 30, "dateTime": 1691160586459, "trialdata": {"revealed_states": [], "clicked_states": [], "num_clicks_accrued": [0, 0, 0, 0, 0, 0, 0, 0, 0, 0, 0, 0, 0], "stateRewards": ["", -2, -1, -5, 10, -36, -70, 68, -9, 86, 71, -10, 2, -4, 7, -7, 66, 44, -66, -13, -69, 43, 15, -2, 2, 6, -13, 62, 57, 50, -10, -69, 42, -72], "withholdReward": false, "trial_id": "mdp_trial_16", "block": "test", "trialIndex": 19, "score": 35, "costs": 0, "simulationMode": [null, null, null, null, null], "rewards": [2, -4, 7, -13, 43], "path": ["0", "0", "12", "13", "14", "19", "21"], "rt": [847, 217, 63, 199, 223], "actions": ["right", "right", "right", "down", "down"], "actionTimes": [3040, 3807, 4545, 5283, 6029], "queries": {"click": {"state": {"target": [], "time": []}, "edge": {"target": [], "time": []}}, "mouseover": {"state": {"target": [], "time": []}, "edge": {"target": [], "time": []}}, "mouseout": {"state": {"target": ["0"], "time": [1381]}, "edge": {"target": [], "time": []}}}, "displayed_time": "16.20", "trialTime": 18462, "trial_type": "mouselab-mdp", "trial_index": 30, "time_elapsed": 1142656, "internal_node_id": "0.0-4.0-1.0-15.0"}}, {"uniqueid": "w45231981:a65852774", "current_trial": 31, "dateTime": 1691160606032, "trialdata": {"revealed_states": [], "clicked_states": [], "num_clicks_accrued": [0, 0, 0, 0, 0, 0, 0, 0, 0, 0, 0, 0, 0], "stateRewards": ["", 1, -2, -8, -3, 31, -84, -55, -14, 15, -58, 17, -2, -3, 7, 7, -12, 48, 67, 4, -44, -68, 46, 2, 3, -5, -7, 76, 27, 5, 11, 57, 52, 59], "withholdReward": false, "trial_id": "mdp_trial_17", "block": "test", "trialIndex": 20, "score": -38, "costs": 0, "simulationMode": [null, null, null, null, null], "rewards": [-2, -3, 7, 4, -44], "path": ["0", "0", "12", "13", "14", "19", "20"], "rt": [1024, 233, 186, 149, 177], "actions": ["right", "right", "right", "down", "right"], "actionTimes": [3092, 3857, 4600, 5295, 6042], "queries": {"click": {"state": {"target": [], "time": []}, "edge": {"target": [], "time": []}}, "mouseover": {"state": {"target": [], "time": []}, "edge": {"target": [], "time": []}}, "mouseout": {"state": {"target": ["0"], "time": [1255]}, "edge": {"target": [], "time": []}}}, "displayed_time": "16.07", "trialTime": 17625, "trial_type": "mouselab-mdp", "trial_index": 31, "time_elapsed": 1162230, "internal_node_id": "0.0-4.0-1.0-16.0"}}, {"uniqueid": "w45231981:a65852774", "current_trial": 32, "dateTime": 1691160627892, "trialdata": {"revealed_states": [], "clicked_states": [], "num_clicks_accrued": [0, 0, 0, 0, 0, 0, 0, 0, 0, 0, 0, 0, 0], "stateRewards": ["", 1, -3, -1, 9, -34, -40, 22, -7, 45, 53, -11, 2, 4, 5, 15, 21, 37, -49, -3, 80, -28, -34, 1, -3, 1, 1, -40, -6, -5, -16, -85, -86, 59], "withholdReward": false, "trial_id": "mdp_trial_18", "block": "test", "trialIndex": 21, "score": -26, "costs": 0, "simulationMode": [null, null, null, null, null], "rewards": [2, 4, 5, -3, -34], "path": ["0", "0", "12", "13", "14", "19", "22"], "rt": [975, 804, 221, 214, 304], "actions": ["right", "right", "right", "down", "left"], "actionTimes": [3671, 5004, 5768, 6510, 7352], "queries": {"click": {"state": {"target": [], "time": []}, "edge": {"target": [], "time": []}}, "mouseover": {"state": {"target": [], "time": []}, "edge": {"target": [], "time": []}}, "mouseout": {"state": {"target": ["0"], "time": [1679]}, "edge": {"target": [], "time": []}}}, "displayed_time": "16.70", "trialTime": 18979, "trial_type": "mouselab-mdp", "trial_index": 32, "time_elapsed": 1184089, "internal_node_id": "0.0-4.0-1.0-17.0"}}, {"uniqueid": "w45231981:a65852774", "current_trial": 33, "dateTime": 1691160647783, "trialdata": {"revealed_states": [], "clicked_states": [], "num_clicks_accrued": [0, 0, 0, 0, 0, 0, 0, 0, 0, 0, 0, 0, 0], "stateRewards": ["", -2, -3, 8, 14, -73, 73, 84, -12, -2, -50, -17, 2, 1, -2, -9, -44, -27, -33, 16, -63, -47, -66, -2, 1, 4, -5, -33, -11, 50, 9, 38, -79, 31], "withholdReward": false, "trial_id": "mdp_trial_19", "block": "test", "trialIndex": 22, "score": -30, "costs": 0, "simulationMode": [null, null, null, null, null], "rewards": [2, 1, -2, 16, -47], "path": ["0", "0", "12", "13", "14", "19", "21"], "rt": [672, 242, 21, 7, 873], "actions": ["right", "right", "right", "down", "down"], "actionTimes": [2849, 3606, 4145, 4704, 6164], "queries": {"click": {"state": {"target": [], "time": []}, "edge": {"target": [], "time": []}}, "mouseover": {"state": {"target": [], "time": []}, "edge": {"target": [], "time": []}}, "mouseout": {"state": {"target": ["0"], "time": [1321]}, "edge": {"target": [], "time": []}}}, "displayed_time": "16.18", "trialTime": 17776, "trial_type": "mouselab-mdp", "trial_index": 33, "time_elapsed": 1203979, "internal_node_id": "0.0-4.0-1.0-18.0"}}, {"uniqueid": "w45231981:a65852774", "current_trial": 34, "dateTime": 1691160670334, "trialdata": {"revealed_states": [], "clicked_states": [], "num_clicks_accrued": [0, 0, 0, 0, 0, 0, 0, 0, 0, 0, 0, 0, 0], "stateRewards": ["", 1, -1, 8, -3, 38, 85, -20, -4, 8, 23, 73, 2, -4, 6, -13, 44, 7, -28, -11, -77, 45, -69, 1, -1, -7, -11, 75, -51, -87, 7, 36, -53, -26], "withholdReward": false, "trial_id": "mdp_trial_20", "block": "test", "trialIndex": 23, "score": -15, "costs": 0, "simulationMode": [null, null, null, null, null], "rewards": [1, -1, 8, -3, -20], "path": ["0", "0", "1", "2", "3", "4", "7"], "rt": [738, 371, 602, 731, 3054], "actions": ["up", "up", "up", "right", "down"], "actionTimes": [3038, 3941, 5067, 6343, 9919], "queries": {"click": {"state": {"target": [], "time": []}, "edge": {"target": [], "time": []}}, "mouseover": {"state": {"target": [], "time": []}, "edge": {"target": [], "time": []}}, "mouseout": {"state": {"target": ["0"], "time": [1499]}, "edge": {"target": [], "time": []}}}, "displayed_time": "16.30", "trialTime": 20853, "trial_type": "mouselab-mdp", "trial_index": 34, "time_elapsed": 1226531, "internal_node_id": "0.0-4.0-1.0-19.0"}}, {"uniqueid": "w45231981:a65852774", "current_trial": 35, "dateTime": 1691160690219, "trialdata": {"revealed_states": [], "clicked_states": [], "num_clicks_accrued": [0, 0, 0, 0, 0, 0, 0, 0, 0, 0, 0, 0, 0], "stateRewards": ["", 2, 4, 7, 7, -79, -2, -21, -5, -53, 47, -21, 1, -3, -1, 7, 83, 7, 84, -7, 80, -37, 69, 2, -4, 5, 2, 4, -20, -30, 7, 71, 44, -81], "withholdReward": false, "trial_id": "mdp_trial_21", "block": "test", "trialIndex": 24, "score": -15, "costs": 0, "simulationMode": [null, null, null, null, null], "rewards": [2, -4, 5, 2, -20], "path": ["0", "0", "23", "24", "25", "26", "28"], "rt": [1458, 200, 286, 1855, 154], "actions": ["left", "left", "left", "up", "right"], "actionTimes": [4200, 4942, 5751, 8137, 8818], "queries": {"click": {"state": {"target": [], "time": []}, "edge": {"target": [], "time": []}}, "mouseover": {"state": {"target": [], "time": []}, "edge": {"target": [], "time": []}}, "mouseout": {"state": {"target": ["0"], "time": [1908]}, "edge": {"target": [], "time": []}}}, "displayed_time": "16.75", "trialTime": 18048, "trial_type": "mouselab-mdp", "trial_index": 35, "time_elapsed": 1246416, "internal_node_id": "0.0-4.0-1.0-20.0"}}, {"uniqueid": "w45231981:a65852774", "current_trial": 36, "dateTime": 1691160712980, "trialdata": {"revealed_states": [], "clicked_states": [], "num_clicks_accrued": [0, 0, 0, 0, 0, 0, 0, 0, 0, 0, 0, 0, 0], "stateRewards": ["", 1, -4, -6, -1, -21, 17, -72, 10, 77, 67, -46, -1, 4, -2, 14, -66, -49, -45, -15, -52, 23, -67, 2, -2, -2, 15, -3, 45, -64, 5, -44, 83, 61], "withholdReward": false, "trial_id": "mdp_trial_22", "block": "test", "trialIndex": 25, "score": 78, "costs": 0, "simulationMode": [null, null, null, null, null], "rewards": [1, -4, -6, 10, 77], "path": ["0", "0", "1", "2", "3", "8", "9"], "rt": [992, 455, 207, 99, 166], "actions": ["up", "up", "up", "left", "up"], "actionTimes": [3291, 4278, 5007, 5646, 6339], "queries": {"click": {"state": {"target": [], "time": []}, "edge": {"target": [], "time": []}}, "mouseover": {"state": {"target": [], "time": []}, "edge": {"target": [], "time": []}}, "mouseout": {"state": {"target": ["0"], "time": [1446]}, "edge": {"target": [], "time": []}}}, "displayed_time": "16.30", "trialTime": 20679, "trial_type": "mouselab-mdp", "trial_index": 36, "time_elapsed": 1269177, "internal_node_id": "0.0-4.0-1.0-21.0"}}, {"uniqueid": "w45231981:a65852774", "current_trial": 37, "dateTime": 1691160733543, "trialdata": {"revealed_states": [], "clicked_states": [], "num_clicks_accrued": [0, 0, 0, 0, 0, 0, 0, 0, 0, 0, 0, 0, 0], "stateRewards": ["", -1, 1, 8, -8, -49, 62, -78, 16, 28, -81, 78, -2, -3, -1, -4, 67, 49, -2, -13, -16, -39, 83, 1, -4, 4, -5, -20, 7, 84, 7, -32, -59, 19], "withholdReward": false, "trial_id": "mdp_trial_23", "block": "test", "trialIndex": 26, "score": 52, "costs": 0, "simulationMode": [null, null, null, null, null], "rewards": [-1, 1, 8, 16, 28], "path": ["0", "0", "1", "2", "3", "8", "9"], "rt": [1244, 250, 133, 75, 64], "actions": ["up", "up", "up", "left", "up"], "actionTimes": [3733, 4542, 5198, 5797, 6381], "queries": {"click": {"state": {"target": [], "time": []}, "edge": {"target": [], "time": []}}, "mouseover": {"state": {"target": [], "time": []}, "edge": {"target": [], "time": []}}, "mouseout": {"state": {"target": ["0"], "time": [1473]}, "edge": {"target": [], "time": []}}}, "displayed_time": "16.49", "trialTime": 18420, "trial_type": "mouselab-mdp", "trial_index": 37, "time_elapsed": 1289741, "internal_node_id": "0.0-4.0-1.0-22.0"}}, {"uniqueid": "w45231981:a65852774", "current_trial": 38, "dateTime": 1691160754926, "trialdata": {"revealed_states": [], "clicked_states": [], "num_clicks_accrued": [0, 0, 0, 0, 0, 0, 0, 0, 0, 0, 0, 0, 0], "stateRewards": ["", -2, 1, -3, -16, -39, -52, 30, -7, -41, -59, 11, 2, 1, 8, 2, -11, -26, -42, -13, 87, -59, -48, -1, -1, -1, 16, -79, 31, 50, -1, -84, 34, -82], "withholdReward": false, "trial_id": "mdp_trial_24", "block": "test", "trialIndex": 27, "score": -52, "costs": 0, "simulationMode": [null, null, null, null, null], "rewards": [-2, 1, -3, -7, -41], "path": ["0", "0", "1", "2", "3", "8", "9"], "rt": [1269, 162, 66, 113, 76], "actions": ["up", "up", "up", "left", "up"], "actionTimes": [3692, 4380, 4981, 5636, 6348], "queries": {"click": {"state": {"target": [], "time": []}, "edge": {"target": [], "time": []}}, "mouseover": {"state": {"target": [], "time": []}, "edge": {"target": [], "time": []}}, "mouseout": {"state": {"target": ["0"], "time": [1538]}, "edge": {"target": [], "time": []}}}, "displayed_time": "16.42", "trialTime": 18395, "trial_type": "mouselab-mdp", "trial_index": 38, "time_elapsed": 1311123, "internal_node_id": "0.0-4.0-1.0-23.0"}}, {"uniqueid": "w45231981:a65852774", "current_trial": 39, "dateTime": 1691160778373, "trialdata": {"revealed_states": [], "clicked_states": [], "num_clicks_accrued": [0, 0, 0, 0, 0, 0, 0, 0, 0, 0, 0, 0, 0], "stateRewards": ["", -2, -1, 3, -3, 71, -58, -21, 7, -10, -75, -37, 2, 4, -1, -12, -79, -29, -48, 3, -41, -10, -30, -1, -2, 1, -15, 13, 66, 22, -1, -42, -86, -55], "withholdReward": false, "trial_id": "mdp_trial_25", "block": "test", "trialIndex": 28, "score": -2, "costs": 0, "simulationMode": [null, null, null, null, null], "rewards": [2, 4, -1, 3, -10], "path": ["0", "0", "12", "13", "14", "19", "21"], "rt": [802, 127, 254, 55, 1096], "actions": ["right", "right", "right", "down", "down"], "actionTimes": [3545, 4201, 5033, 5671, 7340], "queries": {"click": {"state": {"target": [], "time": []}, "edge": {"target": [], "time": []}}, "mouseover": {"state": {"target": [], "time": []}, "edge": {"target": [], "time": []}}, "mouseout": {"state": {"target": ["0"], "time": [1772]}, "edge": {"target": [], "time": []}}}, "displayed_time": "16.75", "trialTime": 21383, "trial_type": "mouselab-mdp", "trial_index": 39, "time_elapsed": 1334570, "internal_node_id": "0.0-4.0-1.0-24.0"}}, {"uniqueid": "w45231981:a65852774", "current_trial": 40, "dateTime": 1691160799101, "trialdata": {"revealed_states": [], "clicked_states": [], "num_clicks_accrued": [0, 0, 0, 0, 0, 0, 0, 0, 0, 0, 0, 0, 0], "stateRewards": ["", -2, 3, -1, -9, 44, 48, -37, -3, 71, -39, 87, -1, 3, -4, 4, -21, 59, -15, -8, -1, 28, -38, 2, 4, 4, 8, -85, -72, -63, 14, 58, 63, -46], "withholdReward": false, "trial_id": "mdp_trial_26", "block": "test", "trialIndex": 29, "score": -46, "costs": 0, "simulationMode": [null, null, null, null, null], "rewards": [-2, 3, -1, -9, -37], "path": ["0", "0", "1", "2", "3", "4", "7"], "rt": [643, 198, 212, 69, 110], "actions": ["up", "up", "up", "right", "down"], "actionTimes": [2881, 3606, 4390, 4979, 5633], "queries": {"click": {"state": {"target": [], "time": []}, "edge": {"target": [], "time": []}}, "mouseover": {"state": {"target": [], "time": []}, "edge": {"target": [], "time": []}}, "mouseout": {"state": {"target": ["0"], "time": [1250]}, "edge": {"target": [], "time": []}}}, "displayed_time": "16.24", "trialTime": 17518, "trial_type": "mouselab-mdp", "trial_index": 40, "time_elapsed": 1355299, "internal_node_id": "0.0-4.0-1.0-25.0"}}, {"uniqueid": "w45231981:a65852774", "current_trial": 41, "dateTime": 1691160821693, "trialdata": {"revealed_states": [], "clicked_states": [], "num_clicks_accrued": [0, 0, 0, 0, 0, 0, 0, 0, 0, 0, 0, 0, 0], "stateRewards": ["", 2, 4, -3, 16, -58, 30, -35, 11, -60, 47, 27, -2, -1, -7, -16, 23, -70, 68, -10, -65, -43, -34, -2, 1, 7, 9, -63, 34, -31, -8, -12, -86, 59], "withholdReward": false, "trial_id": "mdp_trial_27", "block": "test", "trialIndex": 30, "score": -48, "costs": 0, "simulationMode": [null, null, null, null, null], "rewards": [-2, 1, 7, 9, -63], "path": ["0", "0", "23", "24", "25", "26", "27"], "rt": [897, 122, 21, 74, 146], "actions": ["left", "left", "left", "up", "up"], "actionTimes": [4014, 4660, 5207, 5822, 6487], "queries": {"click": {"state": {"target": [], "time": []}, "edge": {"target": [], "time": []}}, "mouseover": {"state": {"target": [], "time": []}, "edge": {"target": [], "time": []}}, "mouseout": {"state": {"target": ["0"], "time": [2014]}, "edge": {"target": [], "time": []}}}, "displayed_time": "17.12", "trialTime": 20374, "trial_type": "mouselab-mdp", "trial_index": 41, "time_elapsed": 1377889, "internal_node_id": "0.0-4.0-1.0-26.0"}}, {"uniqueid": "w45231981:a65852774", "current_trial": 42, "dateTime": 1691160841466, "trialdata": {"revealed_states": [], "clicked_states": [], "num_clicks_accrued": [0, 0, 0, 0, 0, 0, 0, 0, 0, 0, 0, 0, 0], "stateRewards": ["", 1, 1, -2, 7, -31, -6, 76, 1, -36, -16, -53, 2, 1, 7, 13, -47, -10, 47, -7, 72, 46, -56, -2, -2, -2, 11, -80, 44, 38, 16, 67, 85, -78], "withholdReward": false, "trial_id": "mdp_trial_28", "block": "test", "trialIndex": 31, "score": -35, "costs": 0, "simulationMode": [null, null, null, null, null], "rewards": [1, 1, -2, 1, -36], "path": ["0", "0", "1", "2", "3", "8", "9"], "rt": [846, 293, 111, 240, 55], "actions": ["up", "up", "up", "left", "up"], "actionTimes": [3276, 4095, 4746, 5516, 6150], "queries": {"click": {"state": {"target": [], "time": []}, "edge": {"target": [], "time": []}}, "mouseover": {"state": {"target": [], "time": []}, "edge": {"target": [], "time": []}}, "mouseout": {"state": {"target": ["0"], "time": [1525]}, "edge": {"target": [], "time": []}}}, "displayed_time": "16.43", "trialTime": 17548, "trial_type": "mouselab-mdp", "trial_index": 42, "time_elapsed": 1397663, "internal_node_id": "0.0-4.0-1.0-27.0"}}, {"uniqueid": "w45231981:a65852774", "current_trial": 43, "dateTime": 1691160861668, "trialdata": {"revealed_states": [], "clicked_states": [], "num_clicks_accrued": [0, 0, 0, 0, 0, 0, 0, 0, 0, 0, 0, 0, 0], "stateRewards": ["", 1, 1, 5, 6, -29, -7, 3, -16, 9, -46, 65, -1, 4, -1, -16, -63, -77, -87, 8, 80, -50, 43, -1, -1, -5, 5, -38, -71, -62, 9, 81, -50, -52], "withholdReward": false, "trial_id": "mdp_trial_29", "block": "test", "trialIndex": 32, "score": -50, "costs": 0, "simulationMode": [null, null, null, null, null], "rewards": [-1, -1, -5, 9, -52], "path": ["0", "0", "23", "24", "25", "30", "33"], "rt": [821, 168, 30, 51, 189], "actions": ["left", "left", "left", "down", "left"], "actionTimes": [3402, 4173, 4755, 5346, 6065], "queries": {"click": {"state": {"target": [], "time": []}, "edge": {"target": [], "time": []}}, "mouseover": {"state": {"target": [], "time": []}, "edge": {"target": [], "time": []}}, "mouseout": {"state": {"target": ["0"], "time": [1535]}, "edge": {"target": [], "time": []}}}, "displayed_time": "16.58", "trialTime": 18165, "trial_type": "mouselab-mdp", "trial_index": 43, "time_elapsed": 1417865, "internal_node_id": "0.0-4.0-1.0-28.0"}}, {"uniqueid": "w45231981:a65852774", "current_trial": 44, "dateTime": 1691160887878, "trialdata": {"revealed_states": [], "clicked_states": [], "num_clicks_accrued": [0, 0, 0, 0, 0, 0, 0, 0, 0, 0, 0, 0, 0], "stateRewards": ["", 1, 1, 7, -11, 80, -20, -53, -14, 3, 31, 27, 2, -1, -8, -10, 33, 41, 86, 9, 78, -37, -13, -1, -2, -6, -8, -80, 75, 4, -16, -49, -74, 24], "withholdReward": false, "trial_id": "mdp_trial_30", "block": "test", "trialIndex": 33, "score": 24, "costs": 0, "simulationMode": [null, null, null, null, null], "rewards": [2, -1, -8, -10, 41], "path": ["0", "0", "12", "13", "14", "15", "17"], "rt": [990, 7, 1027, 164, 1925], "actions": ["right", "right", "right", "up", "right"], "actionTimes": [3492, 4019, 5593, 6310, 8769], "queries": {"click": {"state": {"target": [], "time": []}, "edge": {"target": [], "time": []}}, "mouseover": {"state": {"target": [], "time": []}, "edge": {"target": [], "time": []}}, "mouseout": {"state": {"target": ["0"], "time": [1586]}, "edge": {"target": [], "time": []}}}, "displayed_time": "16.51", "trialTime": 24133, "trial_type": "mouselab-mdp", "trial_index": 44, "time_elapsed": 1444075, "internal_node_id": "0.0-4.0-1.0-29.0"}}, {"uniqueid": "w45231981:a65852774", "current_trial": 45, "dateTime": 1691160912944, "trialdata": {"revealed_states": [], "clicked_states": [], "num_clicks_accrued": [0, 0, 0, 0, 0, 0, 0, 0, 0, 0, 0, 0, 0], "stateRewards": ["", -2, 2, 3, -7, 76, 63, 21, 15, 35, -8, -44, 1, 1, -2, -12, 23, 24, 76, -9, 46, 66, -49, -2, -1, 7, 12, 40, -71, -45, -6, 38, -49, 46], "withholdReward": false, "trial_id": "mdp_trial_31", "block": "test", "trialIndex": 34, "score": 11, "costs": 0, "simulationMode": [null, null, null, null, null], "rewards": [1, 1, -2, -12, 23], "path": ["0", "0", "12", "13", "14", "15", "16"], "rt": [875, 532, 234, 142, 145], "actions": ["right", "right", "right", "up", "up"], "actionTimes": [7348, 8410, 9186, 9888, 10712], "queries": {"click": {"state": {"target": [], "time": []}, "edge": {"target": [], "time": []}}, "mouseover": {"state": {"target": [], "time": []}, "edge": {"target": [], "time": []}}, "mouseout": {"state": {"target": ["0"], "time": [1440]}, "edge": {"target": [], "time": []}}}, "displayed_time": "20.55", "trialTime": 22290, "trial_type": "mouselab-mdp", "trial_index": 45, "time_elapsed": 1469141, "internal_node_id": "0.0-4.0-1.0-30.0"}}, {"uniqueid": "w45231981:a65852774", "current_trial": 46, "dateTime": 1691160939363, "trialdata": {"revealed_states": [], "clicked_states": [], "num_clicks_accrued": [0, 0, 0, 0, 0, 0, 0, 0, 0, 0, 0, 0, 0], "stateRewards": ["", 1, -1, 8, 4, 76, -33, -17, -3, -1, -54, -74, -2, 2, -5, 13, -51, 63, 83, 1, 84, 29, -36, 2, -1, 7, -12, -10, -44, -43, -14, 8, -69, 19], "withholdReward": false, "trial_id": "mdp_trial_32", "block": "test", "trialIndex": 35, "score": 71, "costs": 0, "simulationMode": [null, null, null, null, null], "rewards": [-2, 2, -5, 13, 63], "path": ["0", "0", "12", "13", "14", "15", "17"], "rt": [1122, 151, 29, 74, 216], "actions": ["right", "right", "right", "up", "right"], "actionTimes": [4192, 4872, 5417, 6005, 6759], "queries": {"click": {"state": {"target": [], "time": []}, "edge": {"target": [], "time": []}}, "mouseover": {"state": {"target": [], "time": []}, "edge": {"target": [], "time": []}}, "mouseout": {"state": {"target": ["0"], "time": [2210]}, "edge": {"target": [], "time": []}}}, "displayed_time": "17.07", "trialTime": 22721, "trial_type": "mouselab-mdp", "trial_index": 46, "time_elapsed": 1495559, "internal_node_id": "0.0-4.0-1.0-31.0"}}, {"uniqueid": "w45231981:a65852774", "current_trial": 47, "dateTime": 1691160966310, "trialdata": {"revealed_states": [], "clicked_states": [], "num_clicks_accrued": [0, 0, 0, 0, 0, 0, 0, 0, 0, 0, 0, 0, 0], "stateRewards": ["", 1, 4, 5, -5, 58, -80, 75, 6, 25, -39, 46, 2, -2, 4, 2, 59, 31, -22, -12, -61, 15, 72, 1, -2, -7, 8, 77, 76, -23, -7, 71, -15, -3], "withholdReward": false, "trial_id": "mdp_trial_33", "block": "test", "trialIndex": 36, "score": -16, "costs": 0, "simulationMode": [null, null, null, null, null], "rewards": [2, -2, 4, 2, -22], "path": ["0", "0", "12", "13", "14", "15", "18"], "rt": [935, 493, 256, 395, 157], "actions": ["right", "right", "right", "up", "left"], "actionTimes": [8746, 9775, 10593, 11761, 12472], "queries": {"click": {"state": {"target": [], "time": []}, "edge": {"target": [], "time": []}}, "mouseover": {"state": {"target": [], "time": []}, "edge": {"target": [], "time": []}}, "mouseout": {"state": {"target": ["0"], "time": [6775]}, "edge": {"target": [], "time": []}}}, "displayed_time": "21.81", "trialTime": 24824, "trial_type": "mouselab-mdp", "trial_index": 47, "time_elapsed": 1522508, "internal_node_id": "0.0-4.0-1.0-32.0"}}, {"uniqueid": "w45231981:a65852774", "current_trial": 48, "dateTime": 1691160987768, "trialdata": {"revealed_states": [], "clicked_states": [], "num_clicks_accrued": [0, 0, 0, 0, 0, 0, 0, 0, 0, 0, 0, 0, 0], "stateRewards": ["", 2, -3, -4, -1, 25, -16, 16, 10, -71, -20, -55, 1, 3, -4, -9, 1, 32, 11, -6, 32, -50, -41, -1, 4, 4, -8, 7, -81, 70, 2, -52, 45, -10], "withholdReward": false, "trial_id": "mdp_trial_34", "block": "test", "trialIndex": 37, "score": 23, "costs": 0, "simulationMode": [null, null, null, null, null], "rewards": [1, 3, -4, -9, 32], "path": ["0", "0", "12", "13", "14", "15", "17"], "rt": [1034, 274, 281, 198, 22], "actions": ["right", "right", "right", "up", "right"], "actionTimes": [3043, 3914, 4791, 5515, 6108], "queries": {"click": {"state": {"target": [], "time": []}, "edge": {"target": [], "time": []}}, "mouseover": {"state": {"target": [], "time": []}, "edge": {"target": [], "time": []}}, "mouseout": {"state": {"target": ["0"], "time": [942]}, "edge": {"target": [], "time": []}}}, "displayed_time": "16.01", "trialTime": 18782, "trial_type": "mouselab-mdp", "trial_index": 48, "time_elapsed": 1543965, "internal_node_id": "0.0-4.0-1.0-33.0"}}, {"uniqueid": "w45231981:a65852774", "current_trial": 49, "dateTime": 1691161013668, "trialdata": {"revealed_states": [], "clicked_states": [], "num_clicks_accrued": [0, 0, 0, 0, 0, 0, 0, 0, 0, 0, 0, 0, 0], "stateRewards": ["", 2, 2, 3, -15, 23, -14, 73, -7, -32, -20, -6, 1, 1, -5, -12, 73, 6, -84, 11, -81, -57, 13, -2, -1, -4, -8, -52, -58, 49, 13, 5, -41, -41], "withholdReward": false, "trial_id": "mdp_trial_35", "block": "test", "trialIndex": 38, "score": -9, "costs": 0, "simulationMode": [null, null, null, null, null], "rewards": [1, 1, -5, -12, 6], "path": ["0", "0", "12", "13", "14", "15", "17"], "rt": [1063, 362, 514, 754, 39], "actions": ["right", "right", "right", "up", "right"], "actionTimes": [7421, 8324, 9404, 10717, 11291], "queries": {"click": {"state": {"target": [], "time": []}, "edge": {"target": [], "time": []}}, "mouseover": {"state": {"target": [], "time": []}, "edge": {"target": [], "time": []}}, "mouseout": {"state": {"target": ["0"], "time": [5213]}, "edge": {"target": [], "time": []}}}, "displayed_time": "20.36", "trialTime": 22827, "trial_type": "mouselab-mdp", "trial_index": 49, "time_elapsed": 1569865, "internal_node_id": "0.0-4.0-1.0-34.0"}}, {"uniqueid": "w45231981:a65852774", "current_trial": 50, "dateTime": 1691161037100, "trialdata": {"revealed_states": [], "clicked_states": [], "num_clicks_accrued": [0, 0, 0, 0, 0, 0, 0, 0, 0, 0, 0, 0, 0], "stateRewards": ["", 1, 1, -3, 2, 22, -25, -11, -5, 50, 49, 3, 1, -1, 8, 14, -85, -30, 57, -6, -39, -16, 59, -2, -1, 5, 5, 59, -16, 8, 4, 67, 56, -9], "withholdReward": false, "trial_id": "mdp_trial_36", "block": "test", "trialIndex": 39, "score": -14, "costs": 0, "simulationMode": [null, null, null, null, null], "rewards": [1, -1, 8, -6, -16], "path": ["0", "0", "12", "13", "14", "19", "21"], "rt": [2045, 340, 162, 50, 237], "actions": ["right", "right", "right", "down", "down"], "actionTimes": [6783, 7669, 8372, 8959, 9761], "queries": {"click": {"state": {"target": [], "time": []}, "edge": {"target": [], "time": []}}, "mouseover": {"state": {"target": [], "time": []}, "edge": {"target": [], "time": []}}, "mouseout": {"state": {"target": ["0"], "time": [3557]}, "edge": {"target": [], "time": []}}}, "displayed_time": "18.74", "trialTime": 21234, "trial_type": "mouselab-mdp", "trial_index": 50, "time_elapsed": 1593297, "internal_node_id": "0.0-4.0-1.0-35.0"}}, {"uniqueid": "w45231981:a65852774", "current_trial": 51, "dateTime": 1691161061654, "trialdata": {"revealed_states": [], "clicked_states": [], "num_clicks_accrued": [0, 0, 0, 0, 0, 0, 0, 0, 0, 0, 0, 0, 0], "stateRewards": ["", 2, -1, 1, 10, -52, 86, -22, -2, -14, -63, 38, 1, 3, 7, -8, 11, -32, -27, 9, -71, 40, -87, -2, -1, 5, -7, 12, 31, -57, 13, 86, -58, 29], "withholdReward": false, "trial_id": "mdp_trial_37", "block": "test", "trialIndex": 40, "score": -62, "costs": 0, "simulationMode": [null, null, null, null, null], "rewards": [-2, -1, 5, -7, -57], "path": ["0", "0", "23", "24", "25", "26", "29"], "rt": [9046, 339, 373, 430, 794], "actions": ["left", "left", "left", "up", "left"], "actionTimes": [13468, 14344, 15240, 16240, 17542], "queries": {"click": {"state": {"target": [], "time": []}, "edge": {"target": [], "time": []}}, "mouseover": {"state": {"target": [], "time": []}, "edge": {"target": [], "time": []}}, "mouseout": {"state": {"target": ["0"], "time": [3265]}, "edge": {"target": [], "time": []}}}, "displayed_time": "18.42", "trialTime": 22513, "trial_type": "mouselab-mdp", "trial_index": 51, "time_elapsed": 1617851, "internal_node_id": "0.0-4.0-1.0-36.0"}}, {"uniqueid": "w45231981:a65852774", "current_trial": 52, "dateTime": 1691161085318, "trialdata": {"revealed_states": [], "clicked_states": [], "num_clicks_accrued": [0, 0, 0, 0, 0, 0, 0, 0, 0, 0, 0, 0, 0], "stateRewards": ["", 2, -4, 1, -12, -59, -53, -74, 16, -88, -66, 66, 1, -2, 8, -9, -14, 22, 25, -1, -39, 47, -14, -1, -1, -2, 1, -4, 52, -26, 15, -7, 46, 43], "withholdReward": false, "trial_id": "mdp_trial_38", "block": "test", "trialIndex": 41, "score": 4, "costs": 0, "simulationMode": [null, null, null, null, null], "rewards": [-1, -1, -2, 15, -7], "path": ["0", "0", "23", "24", "25", "30", "31"], "rt": [1105, 383, 1109, 102, 1135], "actions": ["left", "left", "left", "down", "right"], "actionTimes": [4361, 5294, 7168, 7796, 9451], "queries": {"click": {"state": {"target": [], "time": []}, "edge": {"target": [], "time": []}}, "mouseover": {"state": {"target": [], "time": []}, "edge": {"target": [], "time": []}}, "mouseout": {"state": {"target": ["0"], "time": [2206]}, "edge": {"target": [], "time": []}}}, "displayed_time": "17.26", "trialTime": 20221, "trial_type": "mouselab-mdp", "trial_index": 52, "time_elapsed": 1641515, "internal_node_id": "0.0-4.0-1.0-37.0"}}, {"uniqueid": "w45231981:a65852774", "current_trial": 53, "dateTime": 1691161107262, "trialdata": {"revealed_states": [], "clicked_states": [], "num_clicks_accrued": [0, 0, 0, 0, 0, 0, 0, 0, 0, 0, 0, 0, 0], "stateRewards": ["", -2, -4, 4, -11, -63, -60, -7, 2, -14, 81, -43, -1, -1, -5, 7, 10, 69, 40, 8, -83, 52, 60, 1, 2, 5, -5, 16, 64, 14, -3, 29, 7, -51], "withholdReward": false, "trial_id": "mdp_trial_39", "block": "test", "trialIndex": 42, "score": 40, "costs": 0, "simulationMode": [null, null, null, null, null], "rewards": [-1, -1, -5, 7, 40], "path": ["0", "0", "12", "13", "14", "15", "18"], "rt": [1099, 208, 380, 248, 367], "actions": ["right", "right", "right", "up", "left"], "actionTimes": [3957, 4701, 5606, 6375, 7260], "queries": {"click": {"state": {"target": [], "time": []}, "edge": {"target": [], "time": []}}, "mouseover": {"state": {"target": [], "time": []}, "edge": {"target": [], "time": []}}, "mouseout": {"state": {"target": ["0"], "time": [1807]}, "edge": {"target": [], "time": []}}}, "displayed_time": "16.86", "trialTime": 19589, "trial_type": "mouselab-mdp", "trial_index": 53, "time_elapsed": 1663459, "internal_node_id": "0.0-4.0-1.0-38.0"}}, {"uniqueid": "w45231981:a65852774", "current_trial": 54, "dateTime": 1691161130641, "trialdata": {"revealed_states": [], "clicked_states": [], "num_clicks_accrued": [0, 0, 0, 0, 0, 0, 0, 0, 0, 0, 0, 0, 0], "stateRewards": ["", 1, 3, 1, -13, 52, -28, 67, -14, 3, 63, -70, -1, -4, 7, -11, -10, 47, -18, 6, 69, -9, -61, 2, 3, -6, 10, 63, -34, 40, -6, -79, -35, -32], "withholdReward": false, "trial_id": "mdp_trial_40", "block": "test", "trialIndex": 43, "score": -27, "costs": 0, "simulationMode": [null, null, null, null, null], "rewards": [-1, -4, 7, -11, -18], "path": ["0", "0", "12", "13", "14", "15", "18"], "rt": [498, 351, 116, 47, 25], "actions": ["right", "right", "right", "up", "left"], "actionTimes": [4182, 5046, 5689, 6262, 6835], "queries": {"click": {"state": {"target": [], "time": []}, "edge": {"target": [], "time": []}}, "mouseover": {"state": {"target": [], "time": []}, "edge": {"target": [], "time": []}}, "mouseout": {"state": {"target": ["0"], "time": [2661]}, "edge": {"target": [], "time": []}}}, "displayed_time": "17.69", "trialTime": 19551, "trial_type": "mouselab-mdp", "trial_index": 54, "time_elapsed": 1686838, "internal_node_id": "0.0-4.0-1.0-39.0"}}, {"uniqueid": "w45231981:a65852774", "current_trial": 55, "dateTime": 1691161229259, "trialdata": {"rt": 97500, "response": {"Q0": "$-2 to $2", "Q1": "$-16 to $16", "Q2": "$-16 to $16", "Q3": "The cost for clicking on nodes varied between nodes.", "Q4": "Slightly motivated"}, "question_order": [0, 1, 2, 3, 4], "trial_id": "final_quiz_control", "trial_type": "survey-multi-choice", "trial_index": 55, "time_elapsed": 1785456, "internal_node_id": "0.0-4.0-2.0"}}, {"uniqueid": "w45231981:a65852774", "current_trial": 56, "dateTime": 1691161456313, "trialdata": {"rt": 226258, "response": {"Q0": "I was guessing if I found it right, i will go back to that node for four-time before I make a loss or it change.", "Q1": "no i didnt ", "Q2": "i was difficult because regardless of what you do you don't know which node is right."}, "trial_id": "self_report_control", "trial_type": "survey-text", "trial_index": 56, "time_elapsed": 2012510, "internal_node_id": "0.0-4.0-3.0"}}, {"uniqueid": "w45231981:a65852774", "current_trial": 57, "dateTime": 1691161495619, "trialdata": {"rt": 39232, "response": {"gender": "male", "age": "23", "colorblind": "0", "effort": "0"}, "trial_type": "survey-html-form", "trial_index": 57, "time_elapsed": 2051817, "internal_node_id": "0.0-4.0-4.0"}}, {"uniqueid": "w45231981:a65852774", "current_trial": 58, "dateTime": 1691161548435, "trialdata": {"rt": 52778, "response": {"Q0": "no", "Q1": "no i haven't.", "Q2": "no comment."}, "trial_type": "survey-text", "trial_index": 58, "time_elapsed": 2104633, "internal_node_id": "0.0-4.0-5.0"}}, {"uniqueid": "w45231981:a65852774", "current_trial": 59, "dateTime": 1691161551299, "trialdata": {"rt": 2731, "stimulus": "Press 'Finish HIT' in order to reach the completion code. Once the data has been saved, you will receive the code either in this window or in the original browser window where you started the experiment.\n", "response": 0, "trial_type": "html-button-response", "trial_index": 59, "time_elapsed": 2107497, "internal_node_id": "0.0-5.0"}}, {"uniqueid": "w45231981:a65852774", "current_trial": 60, "dateTime": 1691161552408, "trialdata": {"success": true, "trial_type": "fullscreen", "trial_index": 60, "time_elapsed": 2108606, "internal_node_id": "0.0-6.0"}}], "questiondata": {"params": {"CODE": "C6DMOQA6", "MIN_TIME": 14, "inspectCost": 1, "startTime": "Fri Aug 04 2023 16:30:41 GMT+0200 (South Africa Standard Time)", "bonusRate": 0.002, "variance": "1_2_4_8_44", "branching": "31123"}, "final_score": -24}, "eventdata": [{"eventtype": "initialized", "value": null, "timestamp": 1691159440437, "interval": 0}, {"eventtype": "window_resize", "value": [1366, 708], "timestamp": 1691159440437, "interval": 0}, {"eventtype": "window_resize", "value": [1366, 708], "timestamp": 1691159441038, "interval": 601}, {"eventtype": "window_resize", "value": [1366, 768], "timestamp": 1691159458738, "interval": 17700}, {"eventtype": "focus", "value": "off", "timestamp": 1691160046926, "interval": 588188}, {"eventtype": "focus", "value": "on", "timestamp": 1691160046927, "interval": 1}, {"eventtype": "window_resize", "value": [1366, 708], "timestamp": 1691160047149, "interval": 222}, {"eventtype": "window_resize", "value": [1366, 768], "timestamp": 1691160049953, "interval": 2804}], "useragent": "Mozilla/5.0 (Windows NT 10.0; Win64; x64) AppleWebKit/537.36 (KHTML, like Gecko) Chrome/115.0.0.0 Safari/537.36", "mode": "live", "id": "w45231981:a65852774", "status": "user data saved", "Beginhit": "2023-08-04 14:30:33.887789", "Beginexp": "2023-08-04 14:30:59.736659", "Endhit": "2023-08-04 15:05:55.977564", "psiturkStatus": 3, "browser": "<redacted>", "platform": "windows", "language": "en-GB"}