{"condition": 0, "counterbalance": 0, "assignmentId": "a91497197", "workerId": "w36371727", "hitId": "h93918803", "currenttrial": 55, "bonus": 0, "data": [{"uniqueid": "w36371727:a91497197", "current_trial": 0, "dateTime": 1693481936511, "trialdata": {"success": true, "trial_type": "fullscreen", "trial_index": 0, "time_elapsed": 13217, "internal_node_id": "0.0-0.0"}}, {"uniqueid": "w36371727:a91497197", "current_trial": 1, "dateTime": 1693481969664, "trialdata": {"view_history": [{"page_index": 0, "viewing_time": 33120}], "rt": 33126, "trial_id": "exp_instructions_control", "trial_type": "instructions", "trial_index": 1, "time_elapsed": 46372, "internal_node_id": "0.0-1.0"}}, {"uniqueid": "w36371727:a91497197", "current_trial": 2, "dateTime": 1693482680196, "trialdata": {"view_history": [{"page_index": 0, "viewing_time": 97924}, {"page_index": 1, "viewing_time": 1442}, {"page_index": 0, "viewing_time": 15146}, {"page_index": 1, "viewing_time": 216478}, {"page_index": 2, "viewing_time": 346714}, {"page_index": 3, "viewing_time": 32820}], "rt": 710524, "trial_id": "mouselab_instructions_1_control", "trial_type": "instructions", "trial_index": 2, "time_elapsed": 756904, "internal_node_id": "0.0-2.0-1.0"}}, {"uniqueid": "w36371727:a91497197", "current_trial": 3, "dateTime": 1693482718349, "trialdata": {"revealed_states": [], "clicked_states": ["13", "15", "16", "19", "20"], "num_clicks_accrued": [0, 0, 0, 0, 0, 0, 0, 0, 0, 0, 0, 0, 0], "stateRewards": ["", 10, 10, -10, 10, -10, 10, -10, 10, 10, -10, -10, -10, 10, 10, 10, -10, -10, -10, 10, -10, -10, -10, -10, 10, -10, 10, -10, 10, -10, -10, -10, 10, -10], "withholdReward": false, "trial_id": "practice_1", "block": "test", "trialIndex": 0, "score": 11, "costs": -2.5, "simulationMode": [null, null, null, null, null], "rewards": [-10, 10, 10, 10, -10], "path": ["0", "0", "12", "13", "14", "15", "17"], "rt": [21365, 624, 533, 139, 342], "actions": ["right", "right", "right", "up", "right"], "actionTimes": [27107, 28298, 29386, 30222, 31115], "queries": {"click": {"state": {"target": ["13", "15", "16", "19", "20"], "time": [11926, 17683, 19689, 22432, 24506]}, "edge": {"target": [], "time": []}}, "mouseover": {"state": {"target": ["0", "13", "15", "14", "15", "16", "14", "19", "20"], "time": [7312, 11242, 15154, 16687, 16986, 18919, 21190, 21797, 23962]}, "edge": {"target": [], "time": []}}, "mouseout": {"state": {"target": ["0", "0", "13", "15", "14", "15", "16", "16", "15", "14", "19"], "time": [4147, 7353, 14938, 16569, 16934, 18838, 19923, 21031, 21099, 21647, 23521]}, "edge": {"target": [], "time": []}}}, "displayed_time": "31.65", "trialTime": 35984, "trial_type": "mouselab-mdp", "trial_index": 3, "time_elapsed": 795056, "internal_node_id": "0.0-2.0-2.0-0.0"}}, {"uniqueid": "w36371727:a91497197", "current_trial": 4, "dateTime": 1693482737643, "trialdata": {"revealed_states": [], "clicked_states": [], "num_clicks_accrued": [0, 0, 0, 0, 0, 0, 0, 0, 0, 0, 0, 0, 0], "stateRewards": ["", 10, 10, 10, -10, 10, 10, -10, -10, -10, 10, 10, 10, -10, 10, 10, 10, 10, 10, -10, 10, 10, 10, 10, -10, 10, -10, -10, -10, -10, 10, 10, 10, -10], "withholdReward": false, "trial_id": "practice_2", "block": "test", "trialIndex": 1, "score": 13.5, "costs": 0, "simulationMode": [null, null, null, null, null], "rewards": [10, 10, 10, -10, -10], "path": ["0", "0", "1", "2", "3", "8", "9"], "rt": [7424, 629, 236, 409, 117], "actions": ["up", "up", "up", "left", "up"], "actionTimes": [11008, 12171, 12978, 13930, 14589], "queries": {"click": {"state": {"target": [], "time": []}, "edge": {"target": [], "time": []}}, "mouseover": {"state": {"target": [], "time": []}, "edge": {"target": [], "time": []}}, "mouseout": {"state": {"target": ["20", "19", "12"], "time": [1705, 1739, 1805]}, "edge": {"target": [], "time": []}}}, "displayed_time": "15.15", "trialTime": 18022, "trial_type": "mouselab-mdp", "trial_index": 4, "time_elapsed": 814350, "internal_node_id": "0.0-2.0-2.0-1.0"}}, {"uniqueid": "w36371727:a91497197", "current_trial": 5, "dateTime": 1693482756770, "trialdata": {"view_history": [{"page_index": 0, "viewing_time": 4844}, {"page_index": 1, "viewing_time": 14280}], "rt": 19124, "trial_id": "mouselab_instructions_2_control", "trial_type": "instructions", "trial_index": 5, "time_elapsed": 833478, "internal_node_id": "0.0-2.0-3.0"}}, {"uniqueid": "w36371727:a91497197", "current_trial": 6, "dateTime": 1693482818175, "trialdata": {"rt": 61393, "response": {"Q0": "The cost for clicking on nodes may vary between nodes.", "Q1": "The better I perform the higher my bonus will be.", "Q2": "No, the amount of cash at each node of the web may be different each time.", "Q3": "To get the highest total score.", "Q4": "Only before moving the spider.", "Q5": "3 seconds"}, "question_order": [0, 1, 2, 3, 4, 5], "correct": {"Q0": "The cost for clicking on nodes may vary between nodes.", "Q1": "The better I perform the higher my bonus will be.", "Q2": "No, the amount of cash at each node of the web may be different each time.", "Q3": "To get the highest total score.", "Q4": "Only before moving the spider.", "Q5": "3 seconds"}, "trial_id": "mouselab_quiz_control", "trial_type": "survey-multi-choice", "trial_index": 6, "time_elapsed": 894883, "internal_node_id": "0.0-2.0-4.0"}}, {"uniqueid": "w36371727:a91497197", "current_trial": 7, "dateTime": 1693482830141, "trialdata": {"rt": 11950, "response": {"Q0": "No"}, "question_order": [0], "trial_id": "repeat_check", "trial_type": "survey-multi-choice", "trial_index": 7, "time_elapsed": 906848, "internal_node_id": "0.0-4.0-0.0"}}, {"uniqueid": "w36371727:a91497197", "current_trial": 8, "dateTime": 1693482847869, "trialdata": {"rt": 17720, "stimulus": "\n<h1> Get ready to start the game! </h1>\n\nThank you for reading the instructions. Get ready start with the 40 rounds of this game.\n<br><br>\nIf you need to take a break, feel free to take one after the end of a round, before continuing to the next one.\n<br><br>\nRemember, the more money the spider gets, the bigger your bonus will be!\n<br><br>\n<div style='text-align: center;'>Press <code>space</code> to begin.</div>\n\n<br><br>\n(If, at any point, the <code>space</code> key does not take you to the next page, click once on the text and try again.)", "response": " ", "trial_id": "mdp_ready", "trial_type": "html-keyboard-response", "trial_index": 8, "time_elapsed": 924576, "internal_node_id": "0.0-6.0-0.0"}}, {"uniqueid": "w36371727:a91497197", "current_trial": 9, "dateTime": 1693482872491, "trialdata": {"revealed_states": [], "clicked_states": [], "num_clicks_accrued": [0, 0, 0, 0, 0, 0, 0, 0, 0, 0, 0, 0, 0], "stateRewards": ["", 1, -2, 7, -14, 88, -56, -44, -14, 64, -51, -57, -2, 3, -4, -9, -11, 19, -77, -1, 68, 75, -67, -1, 1, -2, 5, -37, 70, -34, -10, -72, 63, -41], "withholdReward": false, "trial_id": "mdp_trial_1", "block": "test", "trialIndex": 2, "score": 73, "costs": 0, "simulationMode": [null, null, null, null, null], "rewards": [-1, 1, -2, 5, 70], "path": ["0", "0", "23", "24", "25", "26", "28"], "rt": [5075, 227, 219, 275, 245], "actions": ["left", "left", "left", "up", "right"], "actionTimes": [11808, 12610, 13503, 14355, 15176], "queries": {"click": {"state": {"target": [], "time": []}, "edge": {"target": [], "time": []}}, "mouseover": {"state": {"target": [], "time": []}, "edge": {"target": [], "time": []}}, "mouseout": {"state": {"target": ["0"], "time": [5578]}, "edge": {"target": [], "time": []}}}, "displayed_time": "20.74", "trialTime": 23161, "trial_type": "mouselab-mdp", "trial_index": 9, "time_elapsed": 949198, "internal_node_id": "0.0-6.0-1.0-0.0"}}, {"uniqueid": "w36371727:a91497197", "current_trial": 10, "dateTime": 1693482894397, "trialdata": {"revealed_states": [], "clicked_states": [], "num_clicks_accrued": [0, 0, 0, 0, 0, 0, 0, 0, 0, 0, 0, 0, 0], "stateRewards": ["", -2, -3, 8, -4, -30, 31, 69, 9, 66, 87, 64, -2, 2, 8, 5, 47, 16, -39, -8, -54, 51, -19, 1, -2, -2, -11, -25, -26, 43, -9, 19, -84, 86], "withholdReward": false, "trial_id": "mdp_trial_2", "block": "test", "trialIndex": 3, "score": -96, "costs": 0, "simulationMode": [null, null, null, null, null], "rewards": [1, -2, -2, -9, -84], "path": ["0", "0", "23", "24", "25", "30", "32"], "rt": [3923, 77, 860, 665, 537], "actions": ["left", "left", "left", "down", "down"], "actionTimes": [6188, 6828, 8249, 9447, 10566], "queries": {"click": {"state": {"target": [], "time": []}, "edge": {"target": [], "time": []}}, "mouseover": {"state": {"target": [], "time": []}, "edge": {"target": [], "time": []}}, "mouseout": {"state": {"target": ["0"], "time": [1481]}, "edge": {"target": [], "time": []}}}, "displayed_time": "16.27", "trialTime": 20567, "trial_type": "mouselab-mdp", "trial_index": 10, "time_elapsed": 971104, "internal_node_id": "0.0-6.0-1.0-1.0"}}, {"uniqueid": "w36371727:a91497197", "current_trial": 11, "dateTime": 1693482917606, "trialdata": {"revealed_states": [], "clicked_states": [], "num_clicks_accrued": [0, 0, 0, 0, 0, 0, 0, 0, 0, 0, 0, 0, 0], "stateRewards": ["", -2, 1, 6, -2, -10, -78, -69, 14, -15, 7, -1, 1, -1, -2, 13, 77, 32, 87, 5, -74, 30, -26, 1, 3, 4, 12, 39, 54, -43, 2, 10, 23, 13], "withholdReward": false, "trial_id": "mdp_trial_3", "block": "test", "trialIndex": 4, "score": -7, "costs": 0, "simulationMode": [null, null, null, null, null], "rewards": [-2, 1, 6, -2, -10], "path": ["0", "0", "1", "2", "3", "4", "5"], "rt": [10541, 75, 2445, 754, 167], "actions": ["up", "up", "up", "right", "up"], "actionTimes": [13075, 13722, 16816, 18153, 18864], "queries": {"click": {"state": {"target": [], "time": []}, "edge": {"target": [], "time": []}}, "mouseover": {"state": {"target": ["23"], "time": [5960]}, "edge": {"target": [], "time": []}}, "mouseout": {"state": {"target": ["0"], "time": [1793]}, "edge": {"target": [], "time": []}}}, "displayed_time": "19.41", "trialTime": 21784, "trial_type": "mouselab-mdp", "trial_index": 11, "time_elapsed": 994313, "internal_node_id": "0.0-6.0-1.0-2.0"}}, {"uniqueid": "w36371727:a91497197", "current_trial": 12, "dateTime": 1693482944381, "trialdata": {"revealed_states": [], "clicked_states": ["24", "25", "26", "29"], "num_clicks_accrued": [0, 0, 0, 0, 0, 0, 0, 0, 0, 0, 0, 0, 0], "stateRewards": ["", 2, 3, -1, 16, -78, -11, 46, 2, -20, 79, -67, 2, 3, 2, 11, -83, -42, -58, -11, -67, -22, 55, 2, -1, -1, -16, -83, -82, 23, -11, -29, 13, 13], "withholdReward": false, "trial_id": "mdp_trial_4", "block": "test", "trialIndex": 5, "score": -104.6, "costs": -5.6, "simulationMode": [null, null, null, null, null], "rewards": [2, -1, -1, -16, -83], "path": ["0", "0", "23", "24", "25", "26", "27"], "rt": [14319, 564, 421, 388, 400], "actions": ["left", "left", "left", "up", "up"], "actionTimes": [17269, 18392, 19406, 20348, 21292], "queries": {"click": {"state": {"target": ["24", "25", "26", "29"], "time": [4356, 7051, 8898, 11194]}, "edge": {"target": [], "time": []}}, "mouseover": {"state": {"target": ["23", "24", "25", "26", "29"], "time": [3404, 3892, 5292, 8252, 10791]}, "edge": {"target": [], "time": []}}, "mouseout": {"state": {"target": ["23", "0", "23", "24", "25", "26"], "time": [905, 3090, 3505, 5180, 7264, 9112]}, "edge": {"target": [], "time": []}}}, "displayed_time": "21.81", "trialTime": 25323, "trial_type": "mouselab-mdp", "trial_index": 12, "time_elapsed": 1021089, "internal_node_id": "0.0-6.0-1.0-3.0"}}, {"uniqueid": "w36371727:a91497197", "current_trial": 13, "dateTime": 1693482989328, "trialdata": {"revealed_states": [], "clicked_states": [], "num_clicks_accrued": [0, 0, 0, 0, 0, 0, 0, 0, 0, 0, 0, 0, 0], "stateRewards": ["", -2, -3, 4, 1, 33, -53, 15, 9, -12, 61, -6, -2, 4, 6, -11, 47, -43, -7, -11, 46, 23, -28, -1, -1, 3, -10, 11, 76, -76, 10, 18, -38, 87], "withholdReward": false, "trial_id": "mdp_trial_5", "block": "test", "trialIndex": 6, "score": 29, "costs": 0, "simulationMode": [null, null, null, null, null], "rewards": [-1, -1, 3, 10, 18], "path": ["0", "0", "23", "24", "25", "30", "31"], "rt": [4541, 39, 761, 127, 538], "actions": ["left", "left", "left", "down", "right"], "actionTimes": [32038, 32625, 33944, 34611, 35708], "queries": {"click": {"state": {"target": [], "time": []}, "edge": {"target": [], "time": []}}, "mouseover": {"state": {"target": [], "time": []}, "edge": {"target": [], "time": []}}, "mouseout": {"state": {"target": ["29", "26", "28", "23"], "time": [25462, 25512, 25545, 25644]}, "edge": {"target": [], "time": []}}}, "displayed_time": "41.50", "trialTime": 43631, "trial_type": "mouselab-mdp", "trial_index": 13, "time_elapsed": 1066035, "internal_node_id": "0.0-6.0-1.0-4.0"}}, {"uniqueid": "w36371727:a91497197", "current_trial": 14, "dateTime": 1693483008394, "trialdata": {"revealed_states": [], "clicked_states": [], "num_clicks_accrued": [0, 0, 0, 0, 0, 0, 0, 0, 0, 0, 0, 0, 0], "stateRewards": ["", 2, -2, -8, 9, -20, 55, -58, 14, 42, 2, 36, 1, -3, -5, 5, -58, 57, 60, 16, 57, 30, -70, -2, 1, 3, 10, 59, 23, 77, -13, -26, 88, -72], "withholdReward": false, "trial_id": "mdp_trial_6", "block": "test", "trialIndex": 7, "score": -57, "costs": 0, "simulationMode": [null, null, null, null, null], "rewards": [2, -2, -8, 9, -58], "path": ["0", "0", "1", "2", "3", "4", "7"], "rt": [2651, 217, 279, 150, 357], "actions": ["up", "up", "up", "right", "down"], "actionTimes": [4948, 5736, 6579, 7281, 8189], "queries": {"click": {"state": {"target": [], "time": []}, "edge": {"target": [], "time": []}}, "mouseover": {"state": {"target": [], "time": []}, "edge": {"target": [], "time": []}}, "mouseout": {"state": {"target": [], "time": []}, "edge": {"target": [], "time": []}}}, "displayed_time": "16.30", "trialTime": 17581, "trial_type": "mouselab-mdp", "trial_index": 14, "time_elapsed": 1085101, "internal_node_id": "0.0-6.0-1.0-5.0"}}, {"uniqueid": "w36371727:a91497197", "current_trial": 15, "dateTime": 1693483075727, "trialdata": {"revealed_states": [], "clicked_states": [], "num_clicks_accrued": [0, 0, 0, 0, 0, 0, 0, 0, 0, 0, 0, 0, 0], "stateRewards": ["", 2, 4, 4, -8, -36, -33, 38, 16, -51, 57, 57, 1, 3, 4, -6, 45, 68, 87, 1, 63, 24, -55, -2, 2, -6, -13, -63, -50, 8, 2, 80, 6, 60], "withholdReward": false, "trial_id": "mdp_trial_7", "block": "test", "trialIndex": 8, "score": -11, "costs": 0, "simulationMode": [null, null, null, null, null], "rewards": [-2, 2, -6, -13, 8], "path": ["0", "0", "23", "24", "25", "26", "29"], "rt": [4318, 65, 334, 292, 154], "actions": ["left", "left", "left", "up", "left"], "actionTimes": [52938, 53563, 54456, 55305, 56076], "queries": {"click": {"state": {"target": [], "time": []}, "edge": {"target": [], "time": []}}, "mouseover": {"state": {"target": [], "time": []}, "edge": {"target": [], "time": []}}, "mouseout": {"state": {"target": [], "time": []}, "edge": {"target": [], "time": []}}}, "displayed_time": "62.62", "trialTime": 65966, "trial_type": "mouselab-mdp", "trial_index": 15, "time_elapsed": 1152434, "internal_node_id": "0.0-6.0-1.0-6.0"}}, {"uniqueid": "w36371727:a91497197", "current_trial": 16, "dateTime": 1693483097217, "trialdata": {"revealed_states": [], "clicked_states": [], "num_clicks_accrued": [0, 0, 0, 0, 0, 0, 0, 0, 0, 0, 0, 0, 0], "stateRewards": ["", -2, 2, 3, -7, -31, -33, 29, -8, -57, 50, -83, -1, -1, 5, 13, -23, -62, 25, 5, -66, -85, 14, 1, -2, -1, 16, 71, 33, -19, -14, 5, -43, 79], "withholdReward": false, "trial_id": "mdp_trial_8", "block": "test", "trialIndex": 9, "score": -58, "costs": 0, "simulationMode": [null, null, null, null, null], "rewards": [-1, -1, 5, 5, -66], "path": ["0", "0", "12", "13", "14", "19", "20"], "rt": [3217, 984, 328, 482, 326], "actions": ["right", "right", "right", "down", "right"], "actionTimes": [6857, 8392, 9269, 10343, 11230], "queries": {"click": {"state": {"target": [], "time": []}, "edge": {"target": [], "time": []}}, "mouseover": {"state": {"target": [], "time": []}, "edge": {"target": [], "time": []}}, "mouseout": {"state": {"target": [], "time": []}, "edge": {"target": [], "time": []}}}, "displayed_time": "17.65", "trialTime": 19676, "trial_type": "mouselab-mdp", "trial_index": 16, "time_elapsed": 1173925, "internal_node_id": "0.0-6.0-1.0-7.0"}}, {"uniqueid": "w36371727:a91497197", "current_trial": 17, "dateTime": 1693483127042, "trialdata": {"revealed_states": [], "clicked_states": [], "num_clicks_accrued": [0, 0, 0, 0, 0, 0, 0, 0, 0, 0, 0, 0, 0], "stateRewards": ["", 1, -4, -6, 11, -20, 8, -30, 1, -38, 88, 42, 2, 3, 5, -12, -8, -74, 30, -8, 67, -19, 42, 2, -1, 4, 13, 50, -68, 2, -8, -15, 87, -46], "withholdReward": false, "trial_id": "mdp_trial_9", "block": "test", "trialIndex": 10, "score": -50, "costs": 0, "simulationMode": [null, null, null, null, null], "rewards": [2, -1, 4, 13, -68], "path": ["0", "0", "23", "24", "25", "26", "28"], "rt": [1989, 199, 366, 104, 178], "actions": ["left", "left", "left", "up", "right"], "actionTimes": [14499, 15282, 16209, 16896, 17601], "queries": {"click": {"state": {"target": [], "time": []}, "edge": {"target": [], "time": []}}, "mouseover": {"state": {"target": [], "time": []}, "edge": {"target": [], "time": []}}, "mouseout": {"state": {"target": [], "time": []}, "edge": {"target": [], "time": []}}}, "displayed_time": "26.51", "trialTime": 28234, "trial_type": "mouselab-mdp", "trial_index": 17, "time_elapsed": 1203749, "internal_node_id": "0.0-6.0-1.0-8.0"}}, {"uniqueid": "w36371727:a91497197", "current_trial": 18, "dateTime": 1693483157525, "trialdata": {"revealed_states": [], "clicked_states": ["2", "28", "15", "30", "31"], "num_clicks_accrued": [0, 0, 0, 0, 0, 0, 0, 0, 0, 0, 0, 0, 0], "stateRewards": ["", 1, -3, -4, -11, -56, 61, -47, -16, -28, -9, 69, -2, -3, -4, -8, 40, -86, 59, -4, 80, 27, 54, -1, 3, -1, 8, 67, 23, 50, 6, 83, -43, -29], "withholdReward": false, "trial_id": "mdp_trial_10", "block": "test", "trialIndex": 11, "score": 83, "costs": -7, "simulationMode": [null, null, null, null, null], "rewards": [-1, 3, -1, 6, 83], "path": ["0", "0", "23", "24", "25", "30", "31"], "rt": [15901, 456, 422, 479, 435], "actions": ["left", "left", "left", "down", "right"], "actionTimes": [18559, 19578, 20566, 21629, 22636], "queries": {"click": {"state": {"target": ["2", "28", "15", "30", "31"], "time": [4348, 7936, 10747, 14213, 16310]}, "edge": {"target": [], "time": []}}, "mouseover": {"state": {"target": ["1", "2", "2", "10", "26", "28", "1", "15", "4", "9", "8", "28", "25", "30", "31", "31"], "time": [3441, 3507, 3807, 5332, 6027, 6427, 9105, 9802, 12122, 12397, 12488, 12836, 13149, 13749, 15099, 15768]}, "edge": {"target": [], "time": []}}, "mouseout": {"state": {"target": ["0", "1", "2", "2", "10", "26", "28", "1", "15", "4", "9", "8", "28", "25", "30", "31"], "time": [3407, 3476, 3691, 5195, 5396, 6341, 8142, 9133, 12045, 12163, 12412, 12541, 12868, 13232, 14460, 15146]}, "edge": {"target": [], "time": []}}}, "displayed_time": "23.18", "trialTime": 29041, "trial_type": "mouselab-mdp", "trial_index": 18, "time_elapsed": 1234233, "internal_node_id": "0.0-6.0-1.0-9.0"}}, {"uniqueid": "w36371727:a91497197", "current_trial": 19, "dateTime": 1693483182621, "trialdata": {"revealed_states": [], "clicked_states": ["7", "22", "31", "28"], "num_clicks_accrued": [0, 0, 0, 0, 0, 0, 0, 0, 0, 0, 0, 0, 0], "stateRewards": ["", 2, 4, 7, 7, -79, -2, -21, -5, -53, 47, -21, 1, -3, -1, 7, 83, 7, 84, -7, 80, -37, 69, 2, -4, 5, 2, 4, -20, -30, 7, 71, 44, -81], "withholdReward": false, "trial_id": "mdp_trial_11", "block": "test", "trialIndex": 12, "score": 75.4, "costs": -5.6, "simulationMode": [null, null, null, null, null], "rewards": [2, -4, 5, 7, 71], "path": ["0", "0", "23", "24", "25", "30", "31"], "rt": [13355, 75, 298, 254, 250], "actions": ["left", "left", "left", "down", "right"], "actionTimes": [17953, 18596, 19448, 20281, 21098], "queries": {"click": {"state": {"target": ["7", "22", "31", "28"], "time": [6429, 9392, 12324, 14907]}, "edge": {"target": [], "time": []}}, "mouseover": {"state": {"target": ["1", "1", "7", "12", "13", "19", "22", "31", "31", "24", "28"], "time": [4886, 5184, 5551, 7390, 7869, 8451, 8774, 11354, 11481, 13806, 13988]}, "edge": {"target": [], "time": []}}, "mouseout": {"state": {"target": ["31", "23", "0", "1", "1", "7", "12", "13", "19", "22", "31", "31", "24"], "time": [2785, 2820, 4635, 4922, 5206, 7147, 7840, 8023, 8568, 10233, 11401, 12664, 13856]}, "edge": {"target": [], "time": []}}}, "displayed_time": "21.65", "trialTime": 23627, "trial_type": "mouselab-mdp", "trial_index": 19, "time_elapsed": 1259328, "internal_node_id": "0.0-6.0-1.0-10.0"}}, {"uniqueid": "w36371727:a91497197", "current_trial": 20, "dateTime": 1693483205410, "trialdata": {"revealed_states": [], "clicked_states": ["22", "28", "7", "31"], "num_clicks_accrued": [0, 0, 0, 0, 0, 0, 0, 0, 0, 0, 0, 0, 0], "stateRewards": ["", -1, -4, -1, -11, 43, 69, 39, 4, 17, -20, -82, -2, -1, 4, 8, -79, 24, -79, 11, 36, 64, 41, 2, 4, -1, 11, -79, -47, 75, -3, 63, -36, -19], "withholdReward": false, "trial_id": "mdp_trial_12", "block": "test", "trialIndex": 13, "score": 59.4, "costs": -5.6, "simulationMode": [null, null, null, null, null], "rewards": [2, 4, -1, -3, 63], "path": ["0", "0", "23", "24", "25", "30", "31"], "rt": [12077, 447, 201, 198, 781], "actions": ["left", "left", "left", "down", "right"], "actionTimes": [15214, 16231, 16966, 17707, 19057], "queries": {"click": {"state": {"target": ["22", "28", "7", "31"], "time": [4960, 7014, 9646, 11611]}, "edge": {"target": [], "time": []}}, "mouseover": {"state": {"target": ["12", "13", "22", "24", "28", "10", "2", "7", "24", "31"], "time": [3684, 4062, 4411, 5929, 6125, 7947, 8389, 8582, 10727, 11128]}, "edge": {"target": [], "time": []}}, "mouseout": {"state": {"target": ["28", "0", "0", "12", "13", "22", "24", "28", "10", "2", "7", "24", "31"], "time": [1430, 1562, 1928, 3746, 4249, 5191, 6116, 7798, 8198, 8480, 10388, 10874, 13787]}, "edge": {"target": [], "time": []}}}, "displayed_time": "19.59", "trialTime": 21297, "trial_type": "mouselab-mdp", "trial_index": 20, "time_elapsed": 1282118, "internal_node_id": "0.0-6.0-1.0-11.0"}}, {"uniqueid": "w36371727:a91497197", "current_trial": 21, "dateTime": 1693483227195, "trialdata": {"revealed_states": [], "clicked_states": ["7", "28", "31", "18", "22"], "num_clicks_accrued": [0, 0, 0, 0, 0, 0, 0, 0, 0, 0, 0, 0, 0], "stateRewards": ["", 1, 3, -2, 15, 51, 15, -19, 11, 67, -45, -73, 2, 4, -2, -13, 36, 9, -28, 10, -30, 31, 16, 1, 2, -1, -16, 14, -22, 36, -1, 88, -5, 45], "withholdReward": false, "trial_id": "mdp_trial_13", "block": "test", "trialIndex": 14, "score": 82, "costs": -7, "simulationMode": [null, null, null, null, null], "rewards": [1, 2, -1, -1, 88], "path": ["0", "0", "23", "24", "25", "30", "31"], "rt": [12711, 151, 246, 276, 205], "actions": ["left", "left", "left", "down", "right"], "actionTimes": [14763, 15459, 16271, 17089, 17845], "queries": {"click": {"state": {"target": ["7", "28", "31", "18", "22"], "time": [3521, 5468, 7502, 10212, 12189]}, "edge": {"target": [], "time": []}}, "mouseover": {"state": {"target": ["7", "28", "24", "31", "13", "18", "18", "13", "22"], "time": [3078, 4604, 6411, 6814, 9323, 9441, 9839, 11094, 11396]}, "edge": {"target": [], "time": []}}, "mouseout": {"state": {"target": ["0", "0", "7", "28", "24", "31", "13", "18", "18", "18", "13"], "time": [413, 2412, 4184, 6232, 6734, 8212, 9405, 9523, 10420, 11043, 11125]}, "edge": {"target": [], "time": []}}}, "displayed_time": "18.40", "trialTime": 20235, "trial_type": "mouselab-mdp", "trial_index": 21, "time_elapsed": 1303903, "internal_node_id": "0.0-6.0-1.0-12.0"}}, {"uniqueid": "w36371727:a91497197", "current_trial": 22, "dateTime": 1693483246496, "trialdata": {"revealed_states": [], "clicked_states": [], "num_clicks_accrued": [0, 0, 0, 0, 0, 0, 0, 0, 0, 0, 0, 0, 0], "stateRewards": ["", -2, 1, -7, 9, 8, 25, 61, -7, -17, 69, -81, 1, 4, -4, -11, 16, 67, 44, 3, 6, -45, -54, -2, 3, 6, -11, -15, 32, -47, 3, -39, -6, -88], "withholdReward": false, "trial_id": "mdp_trial_14", "block": "test", "trialIndex": 15, "score": -29, "costs": 0, "simulationMode": [null, null, null, null, null], "rewards": [-2, 3, 6, 3, -39], "path": ["0", "0", "23", "24", "25", "30", "31"], "rt": [1098, 21, 158, 59, 155], "actions": ["left", "left", "left", "down", "right"], "actionTimes": [3964, 4523, 5248, 5857, 6602], "queries": {"click": {"state": {"target": [], "time": []}, "edge": {"target": [], "time": []}}, "mouseover": {"state": {"target": [], "time": []}, "edge": {"target": [], "time": []}}, "mouseout": {"state": {"target": ["22", "12"], "time": [1424, 1609]}, "edge": {"target": [], "time": []}}}, "displayed_time": "16.87", "trialTime": 17937, "trial_type": "mouselab-mdp", "trial_index": 22, "time_elapsed": 1323204, "internal_node_id": "0.0-6.0-1.0-13.0"}}, {"uniqueid": "w36371727:a91497197", "current_trial": 23, "dateTime": 1693483270132, "trialdata": {"revealed_states": [], "clicked_states": ["22", "31", "7", "28", "10"], "num_clicks_accrued": [0, 0, 0, 0, 0, 0, 0, 0, 0, 0, 0, 0, 0], "stateRewards": ["", 2, -4, -8, -15, 71, -43, -41, 7, -17, 20, 67, -1, -1, -4, 6, 37, -24, -47, 9, 34, 57, 45, 1, 2, -4, -5, -23, 88, -5, 13, -40, 43, 44], "withholdReward": false, "trial_id": "mdp_trial_15", "block": "test", "trialIndex": 16, "score": 75, "costs": -7, "simulationMode": [null, null, null, null, null], "rewards": [1, 2, -4, -5, 88], "path": ["0", "0", "23", "24", "25", "26", "28"], "rt": [11166, 112, 940, 333, 140], "actions": ["left", "left", "left", "up", "right"], "actionTimes": [14979, 15638, 17117, 17992, 18689], "queries": {"click": {"state": {"target": ["22", "31", "7", "28", "10"], "time": [5474, 7089, 9097, 10744, 13320]}, "edge": {"target": [], "time": []}}, "mouseover": {"state": {"target": ["12", "12", "22", "31", "7", "28", "10", "10"], "time": [4208, 4541, 5107, 6594, 8512, 10136, 12239, 12636]}, "edge": {"target": [], "time": []}}, "mouseout": {"state": {"target": ["0", "0", "0", "12", "12", "22", "31", "7", "28", "10", "10", "10", "1"], "time": [1392, 1459, 3909, 4243, 4924, 6064, 7844, 9610, 12007, 12369, 13536, 21309, 21392]}, "edge": {"target": [], "time": []}}}, "displayed_time": "19.22", "trialTime": 22141, "trial_type": "mouselab-mdp", "trial_index": 23, "time_elapsed": 1346839, "internal_node_id": "0.0-6.0-1.0-14.0"}}, {"uniqueid": "w36371727:a91497197", "current_trial": 24, "dateTime": 1693483304909, "trialdata": {"revealed_states": [], "clicked_states": ["18", "17", "20", "22", "10", "7"], "num_clicks_accrued": [0, 0, 0, 0, 0, 0, 0, 0, 0, 0, 0, 0, 0], "stateRewards": ["", -2, 4, 3, 5, -61, 4, 30, 1, -47, 83, 10, 1, 4, 7, -14, 19, -74, -83, 6, -2, -2, -65, -1, -2, 4, -11, 12, -1, -68, 11, -38, -28, 66], "withholdReward": false, "trial_id": "mdp_trial_16", "block": "test", "trialIndex": 17, "score": 80.6, "costs": -8.4, "simulationMode": [null, null, null, null, null], "rewards": [-2, 4, 3, 1, 83], "path": ["0", "0", "1", "2", "3", "8", "10"], "rt": [17011, 64, 336, 295, 351], "actions": ["up", "up", "up", "left", "down"], "actionTimes": [25381, 26018, 26899, 27752, 28646], "queries": {"click": {"state": {"target": ["18", "17", "20", "22", "10", "7"], "time": [10111, 12331, 14629, 16882, 19109, 21344]}, "edge": {"target": [], "time": []}}, "mouseover": {"state": {"target": ["12", "18", "18", "17", "20", "19", "22", "12", "10", "2", "7"], "time": [9236, 9338, 9701, 11801, 13593, 15586, 16038, 17685, 18365, 20599, 20696]}, "edge": {"target": [], "time": []}}, "mouseout": {"state": {"target": ["0", "12", "18", "18", "17", "20", "19", "22", "12", "10", "2", "7"], "time": [7002, 9302, 9402, 10321, 13062, 14848, 15718, 17601, 17732, 20564, 20649, 22700]}, "edge": {"target": [], "time": []}}}, "displayed_time": "29.21", "trialTime": 33055, "trial_type": "mouselab-mdp", "trial_index": 24, "time_elapsed": 1381616, "internal_node_id": "0.0-6.0-1.0-15.0"}}, {"uniqueid": "w36371727:a91497197", "current_trial": 25, "dateTime": 1693483335866, "trialdata": {"revealed_states": [], "clicked_states": ["9", "5", "11", "10", "6", "7", "28", "31"], "num_clicks_accrued": [0, 0, 0, 0, 0, 0, 0, 0, 0, 0, 0, 0, 0], "stateRewards": ["", -2, -2, -3, -6, -15, -11, 41, -12, -63, -76, 2, -2, -3, 8, 9, -36, -2, -18, -16, -32, -85, -17, -2, 1, 5, -16, 82, 35, -88, -1, 80, -82, -20], "withholdReward": false, "trial_id": "mdp_trial_17", "block": "test", "trialIndex": 18, "score": 71.8, "costs": -11.200000000000001, "simulationMode": [null, null, null, null, null], "rewards": [-2, 1, 5, -1, 80], "path": ["0", "0", "23", "24", "25", "30", "31"], "rt": [21193, 5, 148, 121, 251], "actions": ["left", "left", "left", "down", "right"], "actionTimes": [23660, 24206, 24865, 25517, 26314], "queries": {"click": {"state": {"target": ["9", "5", "11", "10", "6", "7", "28", "31"], "time": [5445, 7631, 9703, 11689, 13742, 15828, 18173, 20511]}, "edge": {"target": [], "time": []}}, "mouseover": {"state": {"target": ["0", "2", "3", "8", "9", "5", "10", "11", "10", "6", "7", "1", "28", "24", "31"], "time": [2496, 3689, 3859, 4123, 4972, 6592, 8731, 9040, 10809, 12446, 14921, 17087, 17565, 19542, 19642]}, "edge": {"target": [], "time": []}}, "mouseout": {"state": {"target": ["10", "1", "0", "2", "3", "8", "9", "5", "10", "11", "10", "6", "7", "1", "28", "28", "24"], "time": [675, 1024, 3457, 3741, 4076, 4923, 6085, 8673, 8777, 10499, 12326, 14346, 16979, 17241, 18421, 19513, 19613]}, "edge": {"target": [], "time": []}}}, "displayed_time": "26.92", "trialTime": 28290, "trial_type": "mouselab-mdp", "trial_index": 25, "time_elapsed": 1412572, "internal_node_id": "0.0-6.0-1.0-16.0"}}, {"uniqueid": "w36371727:a91497197", "current_trial": 26, "dateTime": 1693483365446, "trialdata": {"revealed_states": [], "clicked_states": ["28", "22", "18", "31", "10", "7"], "num_clicks_accrued": [0, 0, 0, 0, 0, 0, 0, 0, 0, 0, 0, 0, 0], "stateRewards": ["", -2, 1, -5, 2, -68, 80, 33, 10, 67, -59, 20, -1, -3, 3, 14, 74, -2, 24, -16, 63, 80, 46, -1, 4, 6, 12, 83, -38, -43, -4, 43, 14, -79], "withholdReward": false, "trial_id": "mdp_trial_18", "block": "test", "trialIndex": 19, "score": 39.6, "costs": -8.4, "simulationMode": [null, null, null, null, null], "rewards": [-1, 4, 6, -4, 43], "path": ["0", "0", "23", "24", "25", "30", "31"], "rt": [19976, 402, 16, 102, 294], "actions": ["left", "left", "left", "down", "right"], "actionTimes": [23175, 24125, 24709, 25425, 26248], "queries": {"click": {"state": {"target": ["28", "22", "18", "31", "10", "7"], "time": [5037, 8345, 9889, 11651, 15631, 17752]}, "edge": {"target": [], "time": []}}, "mouseover": {"state": {"target": ["0", "23", "28", "24", "31", "22", "13", "18", "12", "31", "10", "2", "7"], "time": [3943, 3973, 4717, 5515, 5924, 7768, 9049, 9301, 10364, 11053, 14953, 16272, 16859]}, "edge": {"target": [], "time": []}}, "mouseout": {"state": {"target": ["31", "1", "0", "23", "28", "24", "31", "22", "13", "18", "12", "31", "10", "2"], "time": [1490, 1548, 3968, 4028, 5495, 5582, 7090, 8968, 9208, 10331, 10417, 11870, 16236, 16411]}, "edge": {"target": [], "time": []}}}, "displayed_time": "26.82", "trialTime": 28200, "trial_type": "mouselab-mdp", "trial_index": 26, "time_elapsed": 1442153, "internal_node_id": "0.0-6.0-1.0-17.0"}}, {"uniqueid": "w36371727:a91497197", "current_trial": 27, "dateTime": 1693483387128, "trialdata": {"revealed_states": [], "clicked_states": ["22"], "num_clicks_accrued": [0, 0, 0, 0, 0, 0, 0, 0, 0, 0, 0, 0, 0], "stateRewards": ["", 1, 1, -3, 7, 49, 78, 26, -5, 26, 48, -43, -1, -3, 2, -5, 4, -1, -60, 10, -35, 51, 81, -2, 1, -7, -5, -39, -86, -54, 4, -3, 74, 77], "withholdReward": false, "trial_id": "mdp_trial_19", "block": "test", "trialIndex": 20, "score": 87.6, "costs": -1.4, "simulationMode": [null, null, null, null, null], "rewards": [-1, -3, 2, 10, 81], "path": ["0", "0", "12", "13", "14", "19", "22"], "rt": [5965, 17, 302, 985, 20], "actions": ["right", "right", "right", "down", "left"], "actionTimes": [10448, 10998, 11842, 13403, 14005], "queries": {"click": {"state": {"target": ["22"], "time": [6211]}, "edge": {"target": [], "time": []}}, "mouseover": {"state": {"target": ["12", "22", "21", "32"], "time": [5465, 5730, 6959, 9044]}, "edge": {"target": [], "time": []}}, "mouseout": {"state": {"target": ["7", "12", "22", "22", "21", "32"], "time": [1949, 5564, 6397, 6830, 8179, 9283]}, "edge": {"target": [], "time": []}}}, "displayed_time": "18.49", "trialTime": 20280, "trial_type": "mouselab-mdp", "trial_index": 27, "time_elapsed": 1463834, "internal_node_id": "0.0-6.0-1.0-18.0"}}, {"uniqueid": "w36371727:a91497197", "current_trial": 28, "dateTime": 1693483406890, "trialdata": {"revealed_states": [], "clicked_states": ["22", "20", "21"], "num_clicks_accrued": [0, 0, 0, 0, 0, 0, 0, 0, 0, 0, 0, 0, 0], "stateRewards": ["", 1, -1, 8, 4, 76, -33, -17, -3, -1, -54, -74, -2, 2, -5, 13, -51, 63, 83, 1, 84, 29, -36, 2, -1, 7, -12, -10, -44, -43, -14, 8, -69, 19], "withholdReward": false, "trial_id": "mdp_trial_20", "block": "test", "trialIndex": 21, "score": 75.8, "costs": -4.199999999999999, "simulationMode": [null, null, null, null, null], "rewards": [-2, 2, -5, 1, 84], "path": ["0", "0", "12", "13", "14", "19", "20"], "rt": [9300, 251, 304, 468, 345], "actions": ["right", "right", "right", "down", "right"], "actionTimes": [11505, 12291, 13171, 14223, 15115], "queries": {"click": {"state": {"target": ["22", "20", "21"], "time": [4036, 7222, 9245]}, "edge": {"target": [], "time": []}}, "mouseover": {"state": {"target": ["22", "21", "20", "21"], "time": [3451, 4732, 6281, 8053]}, "edge": {"target": [], "time": []}}, "mouseout": {"state": {"target": ["0", "22", "21", "20", "21"], "time": [3105, 4657, 6168, 7945, 9438]}, "edge": {"target": [], "time": []}}}, "displayed_time": "16.21", "trialTime": 18496, "trial_type": "mouselab-mdp", "trial_index": 28, "time_elapsed": 1483596, "internal_node_id": "0.0-6.0-1.0-19.0"}}, {"uniqueid": "w36371727:a91497197", "current_trial": 29, "dateTime": 1693483427108, "trialdata": {"revealed_states": [], "clicked_states": [], "num_clicks_accrued": [0, 0, 0, 0, 0, 0, 0, 0, 0, 0, 0, 0, 0], "stateRewards": ["", 1, 1, -2, 7, -31, -6, 76, 1, -36, -16, -53, 2, 1, 7, 13, -47, -10, 47, -7, 72, 46, -56, -2, -2, -2, 11, -80, 44, 38, 16, 67, 85, -78], "withholdReward": false, "trial_id": "mdp_trial_21", "block": "test", "trialIndex": 22, "score": -24, "costs": 0, "simulationMode": [null, null, null, null, null], "rewards": [1, 1, -2, 7, -31], "path": ["0", "0", "1", "2", "3", "4", "5"], "rt": [6702, 308, 234, 235, 176], "actions": ["up", "up", "up", "right", "up"], "actionTimes": [10077, 10911, 11709, 12475, 13213], "queries": {"click": {"state": {"target": [], "time": []}, "edge": {"target": [], "time": []}}, "mouseover": {"state": {"target": ["17"], "time": [4887]}, "edge": {"target": [], "time": []}}, "mouseout": {"state": {"target": ["21", "22", "12"], "time": [1870, 1940, 2120]}, "edge": {"target": [], "time": []}}}, "displayed_time": "17.38", "trialTime": 18824, "trial_type": "mouselab-mdp", "trial_index": 29, "time_elapsed": 1503815, "internal_node_id": "0.0-6.0-1.0-20.0"}}, {"uniqueid": "w36371727:a91497197", "current_trial": 30, "dateTime": 1693483471197, "trialdata": {"revealed_states": [], "clicked_states": ["25", "22", "21", "17", "16", "18", "7", "10", "31", "28", "29", "33"], "num_clicks_accrued": [0, 0, 0, 0, 0, 0, 0, 0, 0, 0, 0, 0, 0], "stateRewards": ["", -1, 1, 8, -3, -24, 11, -65, -6, -77, 48, 44, -2, 1, -2, -7, -55, -35, 33, 8, -28, 19, -53, -1, -1, -5, -5, -70, 10, 44, 8, -58, -70, 51], "withholdReward": false, "trial_id": "mdp_trial_22", "block": "test", "trialIndex": 23, "score": 35.2, "costs": -16.8, "simulationMode": [null, null, null, null, null], "rewards": [-1, -1, -5, 8, 51], "path": ["0", "0", "23", "24", "25", "30", "33"], "rt": [32415, 257, 11, 67, 138], "actions": ["left", "left", "left", "down", "left"], "actionTimes": [35956, 36746, 37317, 37914, 38581], "queries": {"click": {"state": {"target": ["25", "22", "21", "17", "16", "18", "7", "10", "31", "28", "29", "33"], "time": [5062, 9205, 11272, 13659, 15851, 18170, 20558, 22859, 25270, 27559, 30085, 32439]}, "edge": {"target": [], "time": []}}, "mouseover": {"state": {"target": ["23", "24", "25", "30", "33", "31", "22", "21", "19", "14", "17", "15", "16", "18", "7", "2", "10", "28", "24", "31", "28", "26", "29", "33"], "time": [4083, 4110, 4141, 5679, 5938, 7273, 8157, 10544, 12492, 12600, 12893, 14674, 15091, 17103, 19683, 22016, 22149, 24197, 24347, 24675, 26579, 29198, 29250, 31667]}, "edge": {"target": [], "time": []}}, "mouseout": {"state": {"target": ["17", "19", "21", "0", "23", "24", "25", "30", "33", "31", "22", "21", "19", "14", "17", "15", "16", "16", "18", "7", "2", "10", "28", "24", "31", "28", "26", "29", "33", "33"], "time": [1329, 1459, 1595, 4030, 4104, 4126, 5645, 5714, 7229, 7307, 10346, 12459, 12593, 12645, 14609, 14775, 16051, 16703, 19514, 21981, 22053, 24148, 24340, 24375, 25491, 29191, 29243, 31510, 32630, 35132]}, "edge": {"target": [], "time": []}}}, "displayed_time": "39.12", "trialTime": 42453, "trial_type": "mouselab-mdp", "trial_index": 30, "time_elapsed": 1547903, "internal_node_id": "0.0-6.0-1.0-21.0"}}, {"uniqueid": "w36371727:a91497197", "current_trial": 31, "dateTime": 1693483491900, "trialdata": {"revealed_states": [], "clicked_states": ["32", "21", "18", "28"], "num_clicks_accrued": [0, 0, 0, 0, 0, 0, 0, 0, 0, 0, 0, 0, 0], "stateRewards": ["", -1, 1, -6, -1, 80, 23, 2, -11, 73, -81, 59, 1, 3, 5, -1, -26, 28, -3, 16, -59, -13, -50, -2, -2, 2, 15, -50, 86, 17, -4, 37, 35, 44], "withholdReward": false, "trial_id": "mdp_trial_23", "block": "test", "trialIndex": 24, "score": 93.4, "costs": -5.6, "simulationMode": [null, null, null, null, null], "rewards": [-2, -2, 2, 15, 86], "path": ["0", "0", "23", "24", "25", "26", "28"], "rt": [11500, 39, 86, 173, 78], "actions": ["left", "left", "left", "up", "right"], "actionTimes": [14400, 14985, 15704, 16421, 17052], "queries": {"click": {"state": {"target": ["32", "21", "18", "28"], "time": [4343, 6424, 8634, 11023]}, "edge": {"target": [], "time": []}}, "mouseover": {"state": {"target": ["0", "31", "30", "32", "21", "13", "18", "1", "28", "24", "31"], "time": [2953, 3559, 3663, 3896, 5745, 7428, 7784, 9913, 10549, 12342, 12752]}, "edge": {"target": [], "time": []}}, "mouseout": {"state": {"target": ["33", "24", "23", "0", "31", "30", "32", "21", "13", "18", "1", "28", "28", "24"], "time": [1116, 1395, 1461, 3479, 3594, 3760, 4526, 7175, 7738, 9847, 9956, 11229, 12278, 12489]}, "edge": {"target": [], "time": []}}}, "displayed_time": "17.66", "trialTime": 19080, "trial_type": "mouselab-mdp", "trial_index": 31, "time_elapsed": 1568606, "internal_node_id": "0.0-6.0-1.0-22.0"}}, {"uniqueid": "w36371727:a91497197", "current_trial": 32, "dateTime": 1693483512206, "trialdata": {"revealed_states": [], "clicked_states": ["28", "22", "31"], "num_clicks_accrued": [0, 0, 0, 0, 0, 0, 0, 0, 0, 0, 0, 0, 0], "stateRewards": ["", -1, 3, -7, 16, -32, -74, -48, 2, 10, 15, -30, 1, 1, -2, 10, 12, -83, 67, 13, -66, 47, 65, -2, 4, 2, -14, -8, -57, 24, 9, 65, 12, 46], "withholdReward": false, "trial_id": "mdp_trial_24", "block": "test", "trialIndex": 25, "score": 73.8, "costs": -4.199999999999999, "simulationMode": [null, null, null, null, null], "rewards": [-2, 4, 2, 9, 65], "path": ["0", "0", "23", "24", "25", "30", "31"], "rt": [10600, 313, 523, 153, 111], "actions": ["left", "left", "left", "down", "right"], "actionTimes": [13449, 14284, 15367, 16079, 16736], "queries": {"click": {"state": {"target": ["28", "22", "31"], "time": [4985, 8247, 10146]}, "edge": {"target": [], "time": []}}, "mouseover": {"state": {"target": ["28", "28", "24", "31", "22", "22", "31"], "time": [4192, 4526, 5605, 5673, 7461, 7769, 9707]}, "edge": {"target": [], "time": []}}, "mouseout": {"state": {"target": ["31", "0", "28", "28", "28", "24", "31", "22", "22"], "time": [1411, 4098, 4214, 5174, 5573, 5635, 7251, 7539, 9310]}, "edge": {"target": [], "time": []}}}, "displayed_time": "17.29", "trialTime": 18892, "trial_type": "mouselab-mdp", "trial_index": 32, "time_elapsed": 1588914, "internal_node_id": "0.0-6.0-1.0-23.0"}}, {"uniqueid": "w36371727:a91497197", "current_trial": 33, "dateTime": 1693483532106, "trialdata": {"revealed_states": [], "clicked_states": [], "num_clicks_accrued": [0, 0, 0, 0, 0, 0, 0, 0, 0, 0, 0, 0, 0], "stateRewards": ["", -1, -4, -6, -15, 21, -67, -63, 9, 51, 69, -14, -1, 3, 8, -8, 39, 72, 63, 15, 19, 47, 15, 1, 4, 5, 16, -18, 34, 35, -14, -80, 40, 1], "withholdReward": false, "trial_id": "mdp_trial_25", "block": "test", "trialIndex": 26, "score": 8, "costs": 0, "simulationMode": [null, null, null, null, null], "rewards": [1, 4, 5, 16, -18], "path": ["0", "0", "23", "24", "25", "26", "27"], "rt": [5306, 249, 233, 188, 206], "actions": ["left", "left", "left", "up", "up"], "actionTimes": [8112, 8894, 9681, 10418, 11156], "queries": {"click": {"state": {"target": [], "time": []}, "edge": {"target": [], "time": []}}, "mouseover": {"state": {"target": ["28"], "time": [5055]}, "edge": {"target": [], "time": []}}, "mouseout": {"state": {"target": ["31", "23", "0", "28"], "time": [1346, 1628, 1795, 6688]}, "edge": {"target": [], "time": []}}}, "displayed_time": "16.81", "trialTime": 18391, "trial_type": "mouselab-mdp", "trial_index": 33, "time_elapsed": 1608812, "internal_node_id": "0.0-6.0-1.0-24.0"}}, {"uniqueid": "w36371727:a91497197", "current_trial": 34, "dateTime": 1693483552630, "trialdata": {"revealed_states": [], "clicked_states": ["28", "31", "22", "18"], "num_clicks_accrued": [0, 0, 0, 0, 0, 0, 0, 0, 0, 0, 0, 0, 0], "stateRewards": ["", -1, 4, -6, -5, -22, -38, -38, -2, -56, 88, 14, -1, -1, -7, -6, 61, -60, 21, 11, 57, 31, -30, -2, -2, 6, -9, -44, -70, -44, -15, 34, 16, -78], "withholdReward": false, "trial_id": "mdp_trial_26", "block": "test", "trialIndex": 27, "score": 15.399999999999999, "costs": -5.6, "simulationMode": [null, null, null, null, null], "rewards": [-2, -2, 6, -15, 34], "path": ["0", "0", "23", "24", "25", "30", "31"], "rt": [10944, 430, 754, 106, 6], "actions": ["left", "left", "left", "down", "right"], "actionTimes": [13436, 14406, 15714, 16371, 16917], "queries": {"click": {"state": {"target": ["28", "31", "22", "18"], "time": [3866, 5405, 7522, 9565]}, "edge": {"target": [], "time": []}}, "mouseover": {"state": {"target": ["28", "24", "31", "22", "13", "18"], "time": [2518, 4416, 4609, 6511, 8820, 8959]}, "edge": {"target": [], "time": []}}, "mouseout": {"state": {"target": ["28", "28", "24", "31", "22", "13", "18"], "time": [650, 4384, 4537, 6016, 8730, 8887, 11574]}, "edge": {"target": [], "time": []}}}, "displayed_time": "17.46", "trialTime": 18606, "trial_type": "mouselab-mdp", "trial_index": 34, "time_elapsed": 1629337, "internal_node_id": "0.0-6.0-1.0-25.0"}}, {"uniqueid": "w36371727:a91497197", "current_trial": 35, "dateTime": 1693483574699, "trialdata": {"revealed_states": [], "clicked_states": ["21", "31", "32", "28"], "num_clicks_accrued": [0, 0, 0, 0, 0, 0, 0, 0, 0, 0, 0, 0, 0], "stateRewards": ["", -1, 3, -4, -14, 78, 67, 2, 13, -32, 28, 39, -2, 1, -4, -4, -4, -42, -86, 11, 64, -29, -32, -1, -4, 2, -7, 5, 68, -61, 2, -21, 85, 50], "withholdReward": false, "trial_id": "mdp_trial_27", "block": "test", "trialIndex": 28, "score": 78.4, "costs": -5.6, "simulationMode": [null, null, null, null, null], "rewards": [-1, -4, 2, 2, 85], "path": ["0", "0", "23", "24", "25", "30", "32"], "rt": [11042, 171, 110, 181, 122], "actions": ["left", "left", "left", "down", "down"], "actionTimes": [13406, 14088, 14760, 15499, 16245], "queries": {"click": {"state": {"target": ["21", "31", "32", "28"], "time": [4050, 7287, 8855, 11151]}, "edge": {"target": [], "time": []}}, "mouseover": {"state": {"target": ["12", "22", "21", "32", "31", "32", "24", "24", "28"], "time": [3250, 3315, 3683, 4901, 6680, 8099, 9814, 10231, 10644]}, "edge": {"target": [], "time": []}}, "mouseout": {"state": {"target": ["12", "22", "21", "32", "31", "32", "24", "24"], "time": [3283, 3364, 4466, 6382, 7902, 9730, 9879, 10635]}, "edge": {"target": [], "time": []}}}, "displayed_time": "16.78", "trialTime": 20413, "trial_type": "mouselab-mdp", "trial_index": 35, "time_elapsed": 1651405, "internal_node_id": "0.0-6.0-1.0-26.0"}}, {"uniqueid": "w36371727:a91497197", "current_trial": 36, "dateTime": 1693483598812, "trialdata": {"revealed_states": [], "clicked_states": ["18", "22", "28", "31", "27", "29"], "num_clicks_accrued": [0, 0, 0, 0, 0, 0, 0, 0, 0, 0, 0, 0, 0], "stateRewards": ["", 2, -4, 1, -12, -59, -53, -74, 16, -88, -66, 66, 1, -2, 8, -9, -14, 22, 25, -1, -39, 47, -14, -1, -1, -2, 1, -4, 52, -26, 15, -7, 46, 43], "withholdReward": false, "trial_id": "mdp_trial_28", "block": "test", "trialIndex": 29, "score": 40.6, "costs": -8.4, "simulationMode": [null, null, null, null, null], "rewards": [-1, -1, -2, 1, 52], "path": ["0", "0", "23", "24", "25", "26", "28"], "rt": [14429, 301, 94, 80, 1460], "actions": ["left", "left", "left", "up", "right"], "actionTimes": [16497, 17319, 18025, 18662, 20687], "queries": {"click": {"state": {"target": ["18", "22", "28", "31", "27", "29"], "time": [3487, 5026, 7390, 9128, 11463, 13020]}, "edge": {"target": [], "time": []}}, "mouseover": {"state": {"target": ["18", "13", "22", "28", "24", "31", "25", "26", "27", "29"], "time": [2965, 4110, 4472, 6799, 7972, 8386, 10259, 10335, 10813, 12184]}, "edge": {"target": [], "time": []}}, "mouseout": {"state": {"target": ["28", "18", "13", "22", "28", "24", "31", "25", "26", "27", "29"], "time": [433, 4044, 4168, 5804, 7964, 8042, 9326, 10286, 10417, 12034, 13248]}, "edge": {"target": [], "time": []}}}, "displayed_time": "21.25", "trialTime": 22567, "trial_type": "mouselab-mdp", "trial_index": 36, "time_elapsed": 1675518, "internal_node_id": "0.0-6.0-1.0-27.0"}}, {"uniqueid": "w36371727:a91497197", "current_trial": 37, "dateTime": 1693483626601, "trialdata": {"revealed_states": [], "clicked_states": ["9", "27", "28", "31", "33", "32", "29"], "num_clicks_accrued": [0, 0, 0, 0, 0, 0, 0, 0, 0, 0, 0, 0, 0], "stateRewards": ["", 2, 4, -5, 7, 81, 35, 6, 11, 14, -72, 42, -1, 2, 3, -7, -77, -44, -40, -15, -85, 51, -32, -2, -1, -5, 7, -74, 47, 52, 16, -49, 48, -46], "withholdReward": false, "trial_id": "mdp_trial_29", "block": "test", "trialIndex": 30, "score": 41.2, "costs": -9.8, "simulationMode": [null, null, null, null, null], "rewards": [-2, -1, -5, 7, 52], "path": ["0", "0", "23", "24", "25", "26", "29"], "rt": [17672, 142, 222, 106, 715], "actions": ["left", "left", "left", "up", "left"], "actionTimes": [20770, 21451, 22212, 22926, 24188], "queries": {"click": {"state": {"target": ["9", "27", "28", "31", "33", "32", "29"], "time": [5193, 7336, 9131, 11379, 13608, 15636, 17685]}, "edge": {"target": [], "time": []}}, "mouseover": {"state": {"target": ["1", "2", "9", "11", "27", "28", "24", "31", "33", "32", "29"], "time": [4316, 4350, 4771, 6043, 6823, 8159, 10469, 11001, 13022, 14338, 16541]}, "edge": {"target": [], "time": []}}, "mouseout": {"state": {"target": ["0", "1", "2", "9", "11", "27", "28", "24", "31", "31", "33", "32"], "time": [4300, 4334, 4378, 5984, 6651, 8047, 10381, 10624, 11571, 12621, 14231, 16175]}, "edge": {"target": [], "time": []}}}, "displayed_time": "24.72", "trialTime": 26388, "trial_type": "mouselab-mdp", "trial_index": 37, "time_elapsed": 1703307, "internal_node_id": "0.0-6.0-1.0-28.0"}}, {"uniqueid": "w36371727:a91497197", "current_trial": 38, "dateTime": 1693483702136, "trialdata": {"revealed_states": [], "clicked_states": ["28", "31", "18", "22"], "num_clicks_accrued": [0, 0, 0, 0, 0, 0, 0, 0, 0, 0, 0, 0, 0], "stateRewards": ["", -1, 1, 3, -8, -23, -15, -14, -11, -23, 58, 68, 1, 3, 5, 12, -17, -41, -7, -10, -4, 82, 10, 1, 4, -4, 11, 73, 55, -55, -1, -86, -86, 54], "withholdReward": false, "trial_id": "mdp_trial_30", "block": "test", "trialIndex": 31, "score": 61.4, "costs": -5.6, "simulationMode": [null, null, null, null, null], "rewards": [1, 4, -4, 11, 55], "path": ["0", "0", "23", "24", "25", "26", "28"], "rt": [10569, 345, 242, 229, 210], "actions": ["left", "left", "left", "up", "right"], "actionTimes": [68556, 69456, 70234, 71010, 71783], "queries": {"click": {"state": {"target": ["28", "31", "18", "22"], "time": [59934, 62410, 64534, 66233]}, "edge": {"target": [], "time": []}}, "mouseover": {"state": {"target": ["23", "24", "28", "24", "31", "0", "12", "18", "13", "22"], "time": [59047, 59225, 59327, 60428, 60536, 63185, 63408, 63852, 65068, 65412]}, "edge": {"target": [], "time": []}}, "mouseout": {"state": {"target": ["29", "26", "28", "0", "23", "24", "28", "24", "31", "0", "12", "18", "13"], "time": [32141, 32183, 32247, 59011, 59141, 59295, 60394, 60524, 63038, 63301, 63508, 65025, 65238]}, "edge": {"target": [], "time": []}}}, "displayed_time": "72.34", "trialTime": 74161, "trial_type": "mouselab-mdp", "trial_index": 38, "time_elapsed": 1778842, "internal_node_id": "0.0-6.0-1.0-29.0"}}, {"uniqueid": "w36371727:a91497197", "current_trial": 39, "dateTime": 1693483725884, "trialdata": {"revealed_states": [], "clicked_states": ["28", "31"], "num_clicks_accrued": [0, 0, 0, 0, 0, 0, 0, 0, 0, 0, 0, 0, 0], "stateRewards": ["", 1, -1, 1, -14, -10, 67, -28, -11, 72, 40, -65, -1, 1, 1, -2, 8, -55, 34, -10, 61, 33, -15, 2, -4, 7, 4, -75, 63, -21, -16, 61, 19, 21], "withholdReward": false, "trial_id": "mdp_trial_31", "block": "test", "trialIndex": 32, "score": 69.2, "costs": -2.8, "simulationMode": [null, null, null, null, null], "rewards": [2, -4, 7, 4, 63], "path": ["0", "0", "23", "24", "25", "26", "28"], "rt": [6151, 13, 181, 59, 39], "actions": ["left", "left", "left", "up", "right"], "actionTimes": [9560, 10140, 10872, 11495, 12064], "queries": {"click": {"state": {"target": ["28", "31"], "time": [5357, 7381]}, "edge": {"target": [], "time": []}}, "mouseover": {"state": {"target": ["28", "24", "31"], "time": [4855, 5998, 6136]}, "edge": {"target": [], "time": []}}, "mouseout": {"state": {"target": ["22", "0", "28", "24", "31"], "time": [1803, 4473, 5968, 6064, 7606]}, "edge": {"target": [], "time": []}}}, "displayed_time": "17.42", "trialTime": 21794, "trial_type": "mouselab-mdp", "trial_index": 39, "time_elapsed": 1802590, "internal_node_id": "0.0-6.0-1.0-30.0"}}, {"uniqueid": "w36371727:a91497197", "current_trial": 40, "dateTime": 1693483747891, "trialdata": {"revealed_states": [], "clicked_states": ["18", "22", "31", "28"], "num_clicks_accrued": [0, 0, 0, 0, 0, 0, 0, 0, 0, 0, 0, 0, 0], "stateRewards": ["", 1, 4, -4, 14, 35, 51, 19, -13, 54, 78, -74, -2, -1, -3, 13, -11, -42, -73, -15, -24, -3, -69, 2, -1, 5, 16, -27, 73, 58, 9, -60, 5, -60], "withholdReward": false, "trial_id": "mdp_trial_32", "block": "test", "trialIndex": 33, "score": 89.4, "costs": -5.6, "simulationMode": [null, null, null, null, null], "rewards": [2, -1, 5, 16, 73], "path": ["0", "0", "23", "24", "25", "26", "28"], "rt": [11360, 518, 185, 491, 28], "actions": ["left", "left", "left", "up", "right"], "actionTimes": [14254, 15313, 16057, 17108, 17697], "queries": {"click": {"state": {"target": ["18", "22", "31", "28"], "time": [4190, 6536, 8569, 10831]}, "edge": {"target": [], "time": []}}, "mouseover": {"state": {"target": ["18", "13", "22", "31", "24", "28", "26", "27"], "time": [3734, 4638, 4734, 7821, 9131, 9303, 12009, 12467]}, "edge": {"target": [], "time": []}}, "mouseout": {"state": {"target": ["18", "12", "18", "18", "13", "22", "31", "24", "28", "26"], "time": [86, 985, 4419, 4606, 4700, 7068, 9075, 9297, 11888, 12045]}, "edge": {"target": [], "time": []}}}, "displayed_time": "18.21", "trialTime": 20226, "trial_type": "mouselab-mdp", "trial_index": 40, "time_elapsed": 1824599, "internal_node_id": "0.0-6.0-1.0-31.0"}}, {"uniqueid": "w36371727:a91497197", "current_trial": 41, "dateTime": 1693483773461, "trialdata": {"revealed_states": [], "clicked_states": ["28", "31", "18", "22"], "num_clicks_accrued": [0, 0, 0, 0, 0, 0, 0, 0, 0, 0, 0, 0, 0], "stateRewards": ["", -1, 1, 8, -8, -49, 62, -78, 16, 28, -81, 78, -2, -3, -1, -4, 67, 49, -2, -13, -16, -39, 83, 1, -4, 4, -5, -20, 7, 84, 7, -32, -59, 19], "withholdReward": false, "trial_id": "mdp_trial_33", "block": "test", "trialIndex": 34, "score": 58.4, "costs": -5.6, "simulationMode": [null, null, null, null, null], "rewards": [-2, -3, -1, -13, 83], "path": ["0", "0", "12", "13", "14", "19", "22"], "rt": [12307, 909, 849, 347, 214], "actions": ["right", "right", "right", "down", "left"], "actionTimes": [17081, 18518, 19929, 20810, 21559], "queries": {"click": {"state": {"target": ["28", "31", "18", "22"], "time": [6702, 9209, 11288, 13342]}, "edge": {"target": [], "time": []}}, "mouseover": {"state": {"target": ["28", "24", "31", "18", "13", "22", "0"], "time": [6283, 7289, 7389, 10293, 11861, 11959, 14990]}, "edge": {"target": [], "time": []}}, "mouseout": {"state": {"target": ["27", "28", "24", "31", "18", "18", "13", "22", "0"], "time": [2885, 7280, 7328, 9830, 11501, 11827, 11927, 14882, 15019]}, "edge": {"target": [], "time": []}}}, "displayed_time": "22.09", "trialTime": 23939, "trial_type": "mouselab-mdp", "trial_index": 41, "time_elapsed": 1850168, "internal_node_id": "0.0-6.0-1.0-32.0"}}, {"uniqueid": "w36371727:a91497197", "current_trial": 42, "dateTime": 1693483806662, "trialdata": {"revealed_states": [], "clicked_states": ["28", "31", "18", "22"], "num_clicks_accrued": [0, 0, 0, 0, 0, 0, 0, 0, 0, 0, 0, 0, 0], "stateRewards": ["", 1, -1, 8, -3, 38, 85, -20, -4, 8, 23, 73, 2, -4, 6, -13, 44, 7, -28, -11, -77, 45, -69, 1, -1, -7, -11, 75, -51, -87, 7, 36, -53, -26], "withholdReward": false, "trial_id": "mdp_trial_34", "block": "test", "trialIndex": 35, "score": 30.4, "costs": -5.6, "simulationMode": [null, null, null, null, null], "rewards": [1, -1, -7, 7, 36], "path": ["0", "0", "23", "24", "25", "30", "31"], "rt": [15094, 82, 518, 186, 131], "actions": ["left", "left", "left", "down", "right"], "actionTimes": [23594, 24212, 25274, 26003, 26688], "queries": {"click": {"state": {"target": ["28", "31", "18", "22"], "time": [10478, 12360, 15210, 17581]}, "edge": {"target": [], "time": []}}, "mouseover": {"state": {"target": ["28", "31", "13", "18", "18", "18", "13", "22", "12", "27"], "time": [9823, 11528, 13333, 13620, 14113, 14449, 16621, 17151, 21648, 21932]}, "edge": {"target": [], "time": []}}, "mouseout": {"state": {"target": ["1", "1", "0", "0", "28", "28", "31", "13", "18", "18", "18", "13", "22", "12"], "time": [5119, 6152, 6574, 9307, 10659, 11047, 12575, 13613, 13648, 14169, 16585, 16768, 17770, 21670]}, "edge": {"target": [], "time": []}}}, "displayed_time": "27.27", "trialTime": 31559, "trial_type": "mouselab-mdp", "trial_index": 42, "time_elapsed": 1883368, "internal_node_id": "0.0-6.0-1.0-33.0"}}, {"uniqueid": "w36371727:a91497197", "current_trial": 43, "dateTime": 1693483860006, "trialdata": {"revealed_states": [], "clicked_states": ["28", "31", "22", "18", "16"], "num_clicks_accrued": [0, 0, 0, 0, 0, 0, 0, 0, 0, 0, 0, 0, 0], "stateRewards": ["", -1, -2, -8, 8, -27, -82, 19, -14, -62, 4, 1, -2, 2, 6, 10, 73, -51, -2, 2, 73, -48, 54, -1, 2, -4, 11, -25, 47, 86, 15, 33, 43, -42], "withholdReward": false, "trial_id": "mdp_trial_35", "block": "test", "trialIndex": 36, "score": 82, "costs": -7, "simulationMode": [null, null, null, null, null], "rewards": [-2, 2, 6, 10, 73], "path": ["0", "0", "12", "13", "14", "15", "16"], "rt": [15773, 98, 242, 133, 62], "actions": ["right", "right", "right", "up", "up"], "actionTimes": [41092, 41725, 42535, 43228, 43845], "queries": {"click": {"state": {"target": ["28", "31", "22", "18", "16"], "time": [28116, 30641, 32773, 34891, 37379]}, "edge": {"target": [], "time": []}}, "mouseover": {"state": {"target": ["23", "24", "28", "31", "22", "13", "18", "16", "17"], "time": [26624, 26753, 27668, 28874, 31502, 33476, 33660, 36843, 38663]}, "edge": {"target": [], "time": []}}, "mouseout": {"state": {"target": ["27", "10", "1", "23", "24", "28", "31", "22", "13", "18", "16"], "time": [23503, 23636, 23893, 26701, 27500, 28720, 31205, 32984, 33620, 36587, 38331]}, "edge": {"target": [], "time": []}}}, "displayed_time": "44.41", "trialTime": 51832, "trial_type": "mouselab-mdp", "trial_index": 43, "time_elapsed": 1936712, "internal_node_id": "0.0-6.0-1.0-34.0"}}, {"uniqueid": "w36371727:a91497197", "current_trial": 44, "dateTime": 1693483884901, "trialdata": {"revealed_states": [], "clicked_states": ["10", "7", "18", "22"], "num_clicks_accrued": [0, 0, 0, 0, 0, 0, 0, 0, 0, 0, 0, 0, 0], "stateRewards": ["", -1, 1, -2, 5, 73, 15, 61, 8, 7, 38, 76, 2, 2, -4, -6, -6, -26, 43, -5, -45, -85, -35, -2, 1, -4, 15, -10, 69, 72, -11, 84, -49, -38], "withholdReward": false, "trial_id": "mdp_trial_36", "block": "test", "trialIndex": 37, "score": 58.4, "costs": -5.6, "simulationMode": [null, null, null, null, null], "rewards": [-1, 1, -2, 5, 61], "path": ["0", "0", "1", "2", "3", "4", "7"], "rt": [10343, 108, 153, 88, 251], "actions": ["up", "up", "up", "right", "down"], "actionTimes": [17781, 18439, 19204, 19874, 20684], "queries": {"click": {"state": {"target": ["10", "7", "18", "22"], "time": [9301, 10957, 12941, 14968]}, "edge": {"target": [], "time": []}}, "mouseover": {"state": {"target": ["10", "10", "7", "18", "13", "22"], "time": [8310, 8888, 10143, 12326, 13930, 14145]}, "edge": {"target": [], "time": []}}, "mouseout": {"state": {"target": ["17", "23", "0", "10", "10", "7", "7", "18", "13"], "time": [5559, 5989, 7581, 8329, 9489, 11165, 11805, 13891, 14062]}, "edge": {"target": [], "time": []}}}, "displayed_time": "21.44", "trialTime": 22932, "trial_type": "mouselab-mdp", "trial_index": 44, "time_elapsed": 1961606, "internal_node_id": "0.0-6.0-1.0-35.0"}}, {"uniqueid": "w36371727:a91497197", "current_trial": 45, "dateTime": 1693483922614, "trialdata": {"revealed_states": [], "clicked_states": ["18", "28", "31", "22", "21", "27", "10", "32", "33", "29"], "num_clicks_accrued": [0, 0, 0, 0, 0, 0, 0, 0, 0, 0, 0, 0, 0], "stateRewards": ["", -1, 2, -6, 6, -82, -19, -39, -16, -83, 11, -33, -2, -2, 4, -6, -82, -1, -19, -6, -10, -67, -41, -2, 1, -7, 16, -23, -78, -52, 14, 31, -71, 74], "withholdReward": false, "trial_id": "mdp_trial_37", "block": "test", "trialIndex": 38, "score": 66, "costs": -14.000000000000002, "simulationMode": [null, null, null, null, null], "rewards": [-2, 1, -7, 14, 74], "path": ["0", "0", "23", "24", "25", "30", "33"], "rt": [26637, 183, 252, 99, 76], "actions": ["left", "left", "left", "down", "left"], "actionTimes": [30584, 31318, 32151, 32890, 33501], "queries": {"click": {"state": {"target": ["18", "28", "31", "22", "21", "27", "10", "32", "33", "29"], "time": [6798, 10317, 12260, 14082, 16563, 19012, 21153, 23660, 26140, 28540]}, "edge": {"target": [], "time": []}}, "mouseover": {"state": {"target": ["12", "13", "18", "13", "22", "23", "24", "28", "24", "31", "31", "22", "21", "27", "10", "24", "32", "33", "29"], "time": [5504, 5637, 5914, 7524, 7838, 8983, 9233, 9652, 11008, 11143, 11520, 13472, 16022, 18441, 20594, 22296, 22761, 25493, 28171]}, "edge": {"target": [], "time": []}}, "mouseout": {"state": {"target": ["22", "12", "12", "13", "18", "13", "22", "23", "24", "28", "24", "31", "31", "22", "21", "27", "10", "24", "32", "33"], "time": [2114, 2359, 5589, 5704, 7437, 7678, 8857, 9034, 9384, 10999, 11040, 11383, 12470, 15618, 17424, 20129, 22146, 22358, 23899, 27045]}, "edge": {"target": [], "time": []}}}, "displayed_time": "34.04", "trialTime": 35759, "trial_type": "mouselab-mdp", "trial_index": 45, "time_elapsed": 1999321, "internal_node_id": "0.0-6.0-1.0-36.0"}}, {"uniqueid": "w36371727:a91497197", "current_trial": 46, "dateTime": 1693483943788, "trialdata": {"revealed_states": [], "clicked_states": ["7", "10"], "num_clicks_accrued": [0, 0, 0, 0, 0, 0, 0, 0, 0, 0, 0, 0, 0], "stateRewards": ["", -1, -1, 4, -16, -75, 81, -51, -7, -84, 73, -30, -2, 1, -3, -16, -77, 33, 14, 1, 45, 87, -66, 2, 2, -5, -7, -19, -17, 79, -3, 8, 49, 47], "withholdReward": false, "trial_id": "mdp_trial_38", "block": "test", "trialIndex": 39, "score": 65.2, "costs": -2.8, "simulationMode": [null, null, null, null, null], "rewards": [-1, -1, 4, -7, 73], "path": ["0", "0", "1", "2", "3", "8", "10"], "rt": [8190, 140, 353, 30, 87], "actions": ["up", "up", "up", "left", "down"], "actionTimes": [11884, 12551, 13435, 14025, 14670], "queries": {"click": {"state": {"target": ["7", "10"], "time": [6504, 8339]}, "edge": {"target": [], "time": []}}, "mouseover": {"state": {"target": ["7", "2", "10", "11", "11"], "time": [6090, 7572, 7719, 9815, 10257]}, "edge": {"target": [], "time": []}}, "mouseout": {"state": {"target": ["29", "28", "7", "2", "10", "11"], "time": [1718, 1797, 7563, 7604, 9382, 10103]}, "edge": {"target": [], "time": []}}}, "displayed_time": "17.70", "trialTime": 19260, "trial_type": "mouselab-mdp", "trial_index": 46, "time_elapsed": 2020494, "internal_node_id": "0.0-6.0-1.0-37.0"}}, {"uniqueid": "w36371727:a91497197", "current_trial": 47, "dateTime": 1693483965069, "trialdata": {"revealed_states": [], "clicked_states": ["28", "32", "31"], "num_clicks_accrued": [0, 0, 0, 0, 0, 0, 0, 0, 0, 0, 0, 0, 0], "stateRewards": ["", 1, 1, -6, -2, 7, 77, 3, 16, -16, 66, 31, -1, 3, -8, -6, 33, -50, -48, 7, -60, -66, 36, 2, -3, 3, -7, -12, -61, -79, -4, 8, 74, -70], "withholdReward": false, "trial_id": "mdp_trial_39", "block": "test", "trialIndex": 40, "score": 67.8, "costs": -4.199999999999999, "simulationMode": [null, null, null, null, null], "rewards": [2, -3, 3, -4, 74], "path": ["0", "0", "23", "24", "25", "30", "32"], "rt": [8372, 254, 73, 203, 135], "actions": ["left", "left", "left", "down", "down"], "actionTimes": [10574, 11372, 12117, 12861, 13551], "queries": {"click": {"state": {"target": ["28", "32", "31"], "time": [3855, 7122, 8938]}, "edge": {"target": [], "time": []}}, "mouseover": {"state": {"target": ["23", "28", "24", "31", "32", "32", "32", "31"], "time": [3118, 3315, 4407, 4795, 6104, 6362, 6715, 7954]}, "edge": {"target": [], "time": []}}, "mouseout": {"state": {"target": ["11", "10", "23", "28", "28", "24", "31", "32", "32", "32"], "time": [160, 400, 3236, 4047, 4373, 4487, 6047, 6213, 6479, 7688]}, "edge": {"target": [], "time": []}}}, "displayed_time": "16.21", "trialTime": 18268, "trial_type": "mouselab-mdp", "trial_index": 47, "time_elapsed": 2041775, "internal_node_id": "0.0-6.0-1.0-38.0"}}, {"uniqueid": "w36371727:a91497197", "current_trial": 48, "dateTime": 1693483990034, "trialdata": {"revealed_states": [], "clicked_states": ["18", "22", "21", "20", "17"], "num_clicks_accrued": [0, 0, 0, 0, 0, 0, 0, 0, 0, 0, 0, 0, 0], "stateRewards": ["", 1, 1, -5, 8, -6, 45, 16, -6, -7, -22, -38, -1, -4, 8, -11, -16, 21, -45, -15, -59, -32, 42, -1, 3, 6, 11, -7, 34, -27, -8, 85, 43, -9], "withholdReward": false, "trial_id": "mdp_trial_40", "block": "test", "trialIndex": 41, "score": 23, "costs": -7, "simulationMode": [null, null, null, null, null], "rewards": [-1, -4, 8, -15, 42], "path": ["0", "0", "12", "13", "14", "19", "22"], "rt": [12316, 486, 247, 279, 311], "actions": ["right", "right", "right", "down", "left"], "actionTimes": [14540, 15648, 16456, 17272, 18145], "queries": {"click": {"state": {"target": ["18", "22", "21", "20", "17"], "time": [3912, 5728, 7630, 9758, 11738]}, "edge": {"target": [], "time": []}}, "mouseover": {"state": {"target": ["18", "13", "22", "21", "20", "17"], "time": [3362, 4601, 4773, 6935, 8714, 10827]}, "edge": {"target": [], "time": []}}, "mouseout": {"state": {"target": ["31", "0", "18", "13", "22", "21", "20"], "time": [826, 987, 4564, 4664, 6660, 8330, 10489]}, "edge": {"target": [], "time": []}}}, "displayed_time": "18.69", "trialTime": 23282, "trial_type": "mouselab-mdp", "trial_index": 48, "time_elapsed": 2066740, "internal_node_id": "0.0-6.0-1.0-39.0"}}, {"uniqueid": "w36371727:a91497197", "current_trial": 49, "dateTime": 1693484106023, "trialdata": {"rt": 115962, "response": {"Q0": "$-16 to 16", "Q1": "$-32 to $32", "Q2": "$-88 to $88", "Q3": "The cost for clicking on nodes varied between nodes.", "Q4": "Very motivated"}, "question_order": [0, 1, 2, 3, 4], "trial_id": "final_quiz_control", "trial_type": "survey-multi-choice", "trial_index": 49, "time_elapsed": 2182730, "internal_node_id": "0.0-6.0-2.0"}}, {"uniqueid": "w36371727:a91497197", "current_trial": 50, "dateTime": 1693484361009, "trialdata": {"rt": 254955, "response": {"Q0": "I just used the given strategy of revealing the nodes from the get go", "Q1": "no", "Q2": "it wasnt very difficult"}, "trial_id": "self_report_control", "trial_type": "survey-text", "trial_index": 50, "time_elapsed": 2437717, "internal_node_id": "0.0-6.0-3.0"}}, {"uniqueid": "w36371727:a91497197", "current_trial": 51, "dateTime": 1693484405152, "trialdata": {"rt": 44131, "response": {"gender": "male", "age": "28", "colorblind": "0", "effort": "0"}, "trial_type": "survey-html-form", "trial_index": 51, "time_elapsed": 2481860, "internal_node_id": "0.0-6.0-4.0"}}, {"uniqueid": "w36371727:a91497197", "current_trial": 52, "dateTime": 1693484436736, "trialdata": {"rt": 31545, "response": {"Q0": "no", "Q1": "no", "Q2": "none"}, "trial_type": "survey-text", "trial_index": 52, "time_elapsed": 2513443, "internal_node_id": "0.0-6.0-5.0"}}, {"uniqueid": "w36371727:a91497197", "current_trial": 53, "dateTime": 1693484468858, "trialdata": {"rt": 32103, "stimulus": "<h1>Completion Code Instructions (1/2)</h1>\n<br><br><br><br>\nYou have reached the end of the experiment! The completion code consists of two parts: (1) a code with 2 characters (2) a code with 6 characters. On this page, you will receive the second part of the code. The first part of the completion code will be on the next page.\n<br><br>\nThe second part of your completion code is: <b>EWEK22</b>\n<br><br>\nPlease note this down. Then, press 'Finish HIT' in order to find the first part of your completion code. Once the data has been saved, you will receive this code either in this window or in the original browser window where you started the experiment.\n", "response": 0, "trial_type": "html-button-response", "trial_index": 53, "time_elapsed": 2545566, "internal_node_id": "0.0-6.0-6.0"}}, {"uniqueid": "w36371727:a91497197", "current_trial": 54, "dateTime": 1693484469868, "trialdata": {"success": true, "trial_type": "fullscreen", "trial_index": 54, "time_elapsed": 2546576, "internal_node_id": "0.0-7.0"}}], "questiondata": {"params": {"CODE": "C6DMOQA6", "MIN_TIME": 14, "inspectCost": 1, "startTime": "Thu Aug 31 2023 13:38:39 GMT+0200 (South Africa Standard Time)", "bonusRate": 0.002, "variance": "1_2_4_8_44", "branching": "31123"}, "final_score": 1452.8}, "eventdata": [{"eventtype": "initialized", "value": null, "timestamp": 1693481918557, "interval": 0}, {"eventtype": "window_resize", "value": [1028, 744], "timestamp": 1693481918557, "interval": 0}, {"eventtype": "window_resize", "value": [1028, 744], "timestamp": 1693481919115, "interval": 558}, {"eventtype": "window_resize", "value": [1536, 864], "timestamp": 1693481935767, "interval": 16652}, {"eventtype": "window_resize", "value": [1028, 744], "timestamp": 1693484469290, "interval": 2533523}, {"eventtype": "focus", "value": "off", "timestamp": 1693484494501, "interval": 25211}, {"eventtype": "focus", "value": "on", "timestamp": 1693484525108, "interval": 30607}, {"eventtype": "focus", "value": "off", "timestamp": 1693484525326, "interval": 218}, {"eventtype": "focus", "value": "on", "timestamp": 1693484544258, "interval": 18932}, {"eventtype": "focus", "value": "off", "timestamp": 1693484553115, "interval": 8857}, {"eventtype": "focus", "value": "on", "timestamp": 1693484553138, "interval": 23}, {"eventtype": "focus", "value": "off", "timestamp": 1693484553138, "interval": 0}, {"eventtype": "focus", "value": "on", "timestamp": 1693484558160, "interval": 5022}], "useragent": "Mozilla/5.0 (Windows NT 10.0; Win64; x64) AppleWebKit/537.36 (KHTML, like Gecko) Chrome/116.0.0.0 Safari/537.36", "mode": "live", "id": "w36371727:a91497197", "status": "user data saved", "Beginhit": "2023-08-31 11:38:04.110152", "Beginexp": "2023-08-31 11:38:33.942448", "Endhit": null, "psiturkStatus": 6, "browser": "<redacted>", "platform": "windows", "language": "en-GB"}