{"condition": 1, "counterbalance": 0, "assignmentId": "a19949151", "workerId": "w93219678", "hitId": "h67605870", "currenttrial": 62, "bonus": 0, "data": [{"uniqueid": "w93219678:a19949151", "current_trial": 0, "dateTime": 1693481020743, "trialdata": {"success": true, "trial_type": "fullscreen", "trial_index": 0, "time_elapsed": 14938, "internal_node_id": "0.0-0.0"}}, {"uniqueid": "w93219678:a19949151", "current_trial": 1, "dateTime": 1693481046274, "trialdata": {"view_history": [{"page_index": 0, "viewing_time": 25526}], "rt": 25527, "trial_id": "exp_instructions_misaligned", "trial_type": "instructions", "trial_index": 1, "time_elapsed": 40469, "internal_node_id": "0.0-1.0"}}, {"uniqueid": "w93219678:a19949151", "current_trial": 2, "dateTime": 1693481315917, "trialdata": {"view_history": [{"page_index": 0, "viewing_time": 125204}, {"page_index": 1, "viewing_time": 59961}, {"page_index": 2, "viewing_time": 37222}, {"page_index": 3, "viewing_time": 47256}], "rt": 269642, "trial_id": "mouselab_instructions_1_misaligned", "trial_type": "instructions", "trial_index": 2, "time_elapsed": 310112, "internal_node_id": "0.0-2.0-1.0"}}, {"uniqueid": "w93219678:a19949151", "current_trial": 3, "dateTime": 1693481411470, "trialdata": {"revealed_states": [], "clicked_states": ["23", "24", "25", "26", "27", "30", "33", "12", "13", "14", "15", "18", "1", "2", "3", "8", "9"], "num_clicks_accrued": [0, 0, 0, 0, 0, 0, 0, 0, 0, 0, 0, 0, 0], "stateRewards": ["", 10, 10, -10, 10, 10, 10, -10, 10, -10, -10, -10, 10, -10, -10, -10, -10, 10, -10, -10, 10, -10, -10, 10, 10, 10, 10, -10, -10, -10, -10, 10, 10, -10], "withholdReward": false, "trial_id": "practice_1", "block": "test", "trialIndex": 0, "score": -35, "costs": -8.5, "simulationMode": [null, null, null, null, null], "rewards": [10, -10, -10, -10, -10], "path": ["0", "0", "12", "13", "14", "19", "21"], "rt": [74036, 1393, 696, 1136, 608], "actions": ["right", "right", "right", "down", "down"], "actionTimes": [75632, 77538, 78755, 80412, 81534], "queries": {"click": {"state": {"target": ["23", "24", "25", "26", "27", "30", "33", "12", "13", "14", "15", "18", "1", "2", "3", "8", "9"], "time": [3646, 4863, 5885, 10309, 12306, 16062, 17495, 19402, 20652, 24485, 26028, 27347, 30158, 32083, 34191, 37469, 39508]}, "edge": {"target": [], "time": []}}, "mouseover": {"state": {"target": ["23", "24", "25", "30", "32", "30", "25", "26", "27", "25", "30", "32", "33", "24", "23", "12", "13", "14", "15", "18", "12", "0", "1", "2", "3", "8", "9", "7", "18", "13", "12", "11", "10", "2", "3", "2", "1", "12", "13", "12", "22", "22", "22", "0", "23", "24", "25", "25", "1", "18", "14", "12", "1", "22", "22"], "time": [3265, 4234, 5549, 6249, 7137, 9347, 9915, 9964, 10698, 12881, 13016, 16616, 17181, 18548, 18568, 18980, 19814, 21046, 25746, 27030, 27896, 29430, 29746, 30646, 33895, 37012, 39277, 39961, 41694, 41826, 44060, 44644, 45126, 47960, 48443, 49009, 49159, 51160, 56225, 56611, 57707, 58776, 60009, 62841, 64024, 64707, 65807, 66890, 67557, 67607, 71206, 71589, 71640, 72586, 73039]}, "edge": {"target": [], "time": []}}, "mouseout": {"state": {"target": ["0", "23", "24", "25", "30", "32", "30", "25", "26", "27", "26", "25", "30", "32", "33", "24", "23", "12", "13", "14", "15", "18", "12", "0", "1", "2", "3", "3", "3", "8", "9", "7", "18", "13", "12", "11", "10", "2", "3", "2", "1", "12", "13", "12", "22", "22", "22", "0", "23", "24", "25", "25", "1", "18", "14", "12", "1", "22", "22", "29", "26", "29", "25", "1", "0", "23"], "time": [1815, 3983, 5299, 6166, 6900, 9165, 9899, 9932, 10596, 12682, 12815, 12948, 16415, 16981, 18481, 18565, 18597, 19764, 20776, 25679, 26931, 27780, 27996, 29512, 30496, 32346, 34579, 35744, 36278, 39077, 39811, 39978, 41760, 44026, 44126, 44929, 45143, 48160, 48743, 49043, 49493, 56175, 56475, 57459, 57774, 58859, 60126, 63858, 64639, 65724, 66658, 67025, 67574, 67624, 71223, 71606, 72157, 72806, 73240, 86770, 86820, 88804, 88921, 89171, 89386, 91254]}, "edge": {"target": [], "time": []}}}, "displayed_time": "82.04", "trialTime": 93662, "trial_type": "mouselab-mdp", "trial_index": 3, "time_elapsed": 405664, "internal_node_id": "0.0-2.0-2.0-0.0"}}, {"uniqueid": "w93219678:a19949151", "current_trial": 4, "dateTime": 1693481428118, "trialdata": {"revealed_states": [], "clicked_states": [], "num_clicks_accrued": [0, 0, 0, 0, 0, 0, 0, 0, 0, 0, 0, 0, 0], "stateRewards": ["", -10, 10, 10, 10, -10, 10, -10, 10, -10, 10, -10, -10, -10, -10, -10, 10, 10, -10, -10, -10, 10, -10, -10, -10, -10, 10, -10, -10, -10, -10, -10, -10, -10], "withholdReward": false, "trial_id": "practice_2", "block": "test", "trialIndex": 1, "score": 33.5, "costs": 0, "simulationMode": [null, null, null, null, null], "rewards": [-10, 10, 10, 10, 10], "path": ["0", "0", "1", "2", "3", "4", "6"], "rt": [3024, 603, 805, 908, 662], "actions": ["up", "up", "up", "right", "right"], "actionTimes": [6648, 7765, 9084, 10504, 11673], "queries": {"click": {"state": {"target": [], "time": []}, "edge": {"target": [], "time": []}}, "mouseover": {"state": {"target": ["23"], "time": [3974]}, "edge": {"target": [], "time": []}}, "mouseout": {"state": {"target": ["23", "0", "23", "30"], "time": [3041, 3875, 4258, 14557]}, "edge": {"target": [], "time": []}}}, "displayed_time": "12.19", "trialTime": 16482, "trial_type": "mouselab-mdp", "trial_index": 4, "time_elapsed": 422312, "internal_node_id": "0.0-2.0-2.0-1.0"}}, {"uniqueid": "w93219678:a19949151", "current_trial": 5, "dateTime": 1693481462458, "trialdata": {"view_history": [{"page_index": 0, "viewing_time": 15312}, {"page_index": 1, "viewing_time": 19022}], "rt": 34334, "trial_id": "mouselab_instructions_2_misaligned", "trial_type": "instructions", "trial_index": 5, "time_elapsed": 456653, "internal_node_id": "0.0-2.0-3.0"}}, {"uniqueid": "w93219678:a19949151", "current_trial": 6, "dateTime": 1693481527675, "trialdata": {"rt": 65215, "response": {"Q0": "There is no cost for clicking on nodes.", "Q1": "The better I perform the higher my bonus will be.", "Q2": "No, the amount of cash at each node of the web may be different each time.", "Q3": "To get the highest total score.", "Q4": "Only before moving the spider.", "Q5": "3 seconds"}, "question_order": [0, 1, 2, 3, 4, 5], "correct": {"Q0": "The cost for clicking on nodes may vary between nodes.", "Q1": "The better I perform the higher my bonus will be.", "Q2": "No, the amount of cash at each node of the web may be different each time.", "Q3": "To get the highest total score.", "Q4": "Only before moving the spider.", "Q5": "3 seconds"}, "trial_id": "mouselab_quiz_misaligned", "trial_type": "survey-multi-choice", "trial_index": 6, "time_elapsed": 521870, "internal_node_id": "0.0-2.0-4.0"}}, {"uniqueid": "w93219678:a19949151", "current_trial": 7, "dateTime": 1693481536190, "trialdata": {"success": true, "trial_type": "fullscreen", "trial_index": 7, "time_elapsed": 530385, "internal_node_id": "0.0-2.1-0.1-0.1"}}, {"uniqueid": "w93219678:a19949151", "current_trial": 8, "dateTime": 1693481574283, "trialdata": {"view_history": [{"page_index": 0, "viewing_time": 22806}, {"page_index": 1, "viewing_time": 9562}, {"page_index": 2, "viewing_time": 2848}, {"page_index": 3, "viewing_time": 2874}], "rt": 38090, "trial_id": "mouselab_instructions_1_misaligned", "trial_type": "instructions", "trial_index": 8, "time_elapsed": 568478, "internal_node_id": "0.0-2.1-1.1"}}, {"uniqueid": "w93219678:a19949151", "current_trial": 9, "dateTime": 1693481589202, "trialdata": {"revealed_states": [], "clicked_states": [], "num_clicks_accrued": [0, 0, 0, 0, 0, 0, 0, 0, 0, 0, 0, 0, 0], "stateRewards": ["", 10, 10, -10, 10, 10, 10, -10, 10, -10, -10, -10, 10, -10, -10, -10, -10, 10, -10, -10, 10, -10, -10, 10, 10, 10, 10, -10, -10, -10, -10, 10, 10, -10], "withholdReward": false, "trial_id": "practice_1", "block": "test", "trialIndex": 2, "score": 13.5, "costs": 0, "simulationMode": [null, null, null, null, null], "rewards": [10, 10, -10, 10, -10], "path": ["0", "0", "1", "2", "3", "8", "11"], "rt": [2406, 139, 188, 794, 470], "actions": ["up", "up", "up", "left", "left"], "actionTimes": [7662, 8320, 9023, 10325, 11317], "queries": {"click": {"state": {"target": [], "time": []}, "edge": {"target": [], "time": []}}, "mouseover": {"state": {"target": ["23", "24"], "time": [5726, 5763]}, "edge": {"target": [], "time": []}}, "mouseout": {"state": {"target": ["0", "0", "0", "0", "23", "24"], "time": [1660, 3411, 3659, 4659, 5760, 5778]}, "edge": {"target": [], "time": []}}}, "displayed_time": "11.83", "trialTime": 14789, "trial_type": "mouselab-mdp", "trial_index": 9, "time_elapsed": 583396, "internal_node_id": "0.0-2.1-2.1-0.1"}}, {"uniqueid": "w93219678:a19949151", "current_trial": 10, "dateTime": 1693481605376, "trialdata": {"revealed_states": [], "clicked_states": [], "num_clicks_accrued": [0, 0, 0, 0, 0, 0, 0, 0, 0, 0, 0, 0, 0], "stateRewards": ["", -10, 10, 10, 10, -10, 10, -10, 10, -10, 10, -10, -10, -10, -10, -10, 10, 10, -10, -10, -10, 10, -10, -10, -10, -10, 10, -10, -10, -10, -10, -10, -10, -10], "withholdReward": false, "trial_id": "practice_2", "block": "test", "trialIndex": 3, "score": 13.5, "costs": 0, "simulationMode": [null, null, null, null, null], "rewards": [-10, 10, 10, 10, -10], "path": ["0", "0", "1", "2", "3", "4", "5"], "rt": [5234, 143, 169, 229, 1369], "actions": ["up", "up", "up", "right", "up"], "actionTimes": [9553, 10221, 10897, 11624, 13513], "queries": {"click": {"state": {"target": [], "time": []}, "edge": {"target": [], "time": []}}, "mouseover": {"state": {"target": ["23"], "time": [7540]}, "edge": {"target": [], "time": []}}, "mouseout": {"state": {"target": ["29", "26", "28", "23", "12", "23"], "time": [1707, 1740, 1807, 2123, 2606, 7590]}, "edge": {"target": [], "time": []}}}, "displayed_time": "14.03", "trialTime": 15995, "trial_type": "mouselab-mdp", "trial_index": 10, "time_elapsed": 599570, "internal_node_id": "0.0-2.1-2.1-1.1"}}, {"uniqueid": "w93219678:a19949151", "current_trial": 11, "dateTime": 1693481634879, "trialdata": {"view_history": [{"page_index": 0, "viewing_time": 27395}, {"page_index": 1, "viewing_time": 2104}], "rt": 29500, "trial_id": "mouselab_instructions_2_misaligned", "trial_type": "instructions", "trial_index": 11, "time_elapsed": 629074, "internal_node_id": "0.0-2.1-3.1"}}, {"uniqueid": "w93219678:a19949151", "current_trial": 12, "dateTime": 1693481850582, "trialdata": {"rt": 215700, "response": {"Q0": "The cost for clicking on nodes may vary between nodes.", "Q1": "The better I perform the higher my bonus will be.", "Q2": "No, the amount of cash at each node of the web may be different each time.", "Q3": "To get the highest total score.", "Q4": "Only before moving the spider.", "Q5": "3 seconds"}, "question_order": [0, 1, 2, 3, 4, 5], "correct": {"Q0": "The cost for clicking on nodes may vary between nodes.", "Q1": "The better I perform the higher my bonus will be.", "Q2": "No, the amount of cash at each node of the web may be different each time.", "Q3": "To get the highest total score.", "Q4": "Only before moving the spider.", "Q5": "3 seconds"}, "trial_id": "mouselab_quiz_misaligned", "trial_type": "survey-multi-choice", "trial_index": 12, "time_elapsed": 844777, "internal_node_id": "0.0-2.1-4.1"}}, {"uniqueid": "w93219678:a19949151", "current_trial": 13, "dateTime": 1693481859691, "trialdata": {"rt": 9100, "response": {"Q0": "No"}, "question_order": [0], "trial_id": "repeat_check", "trial_type": "survey-multi-choice", "trial_index": 13, "time_elapsed": 853886, "internal_node_id": "0.0-4.0-0.0"}}, {"uniqueid": "w93219678:a19949151", "current_trial": 14, "dateTime": 1693481909365, "trialdata": {"rt": 49670, "stimulus": "\n<h1> Get ready to start the game! </h1>\n\nThank you for reading the instructions. Get ready start with the 40 rounds of this game.\n<br><br>\nIf you need to take a break, feel free to take one after the end of a round, before continuing to the next one.\n<br><br>\nRemember, the more money the spider gets, the bigger your bonus will be!\n<br><br>\n<div style='text-align: center;'>Press <code>space</code> to begin.</div>\n\n<br><br>\n(If, at any point, the <code>space</code> key does not take you to the next page, click once on the text and try again.)", "response": " ", "trial_id": "mdp_ready", "trial_type": "html-keyboard-response", "trial_index": 14, "time_elapsed": 903560, "internal_node_id": "0.0-6.0-0.0"}}, {"uniqueid": "w93219678:a19949151", "current_trial": 15, "dateTime": 1693481928258, "trialdata": {"revealed_states": [], "clicked_states": [], "num_clicks_accrued": [0, 0, 0, 0, 0, 0, 0, 0, 0, 0, 0, 0, 0], "stateRewards": ["", -2, 2, -5, 1, 42, -63, -58, -6, 2, 16, 81, -2, 4, 7, -10, 33, 3, -33, -2, -52, -84, -27, 2, -3, -3, 15, -74, -14, -5, -5, -84, 79, -31], "withholdReward": false, "trial_id": "mdp_trial_1", "block": "test", "trialIndex": 4, "score": 2, "costs": 0, "simulationMode": [null, null, null, null, null], "rewards": [-2, 4, 7, -10, 3], "path": ["0", "0", "12", "13", "14", "15", "17"], "rt": [1933, 1472, 368, 490, 244], "actions": ["right", "right", "right", "up", "right"], "actionTimes": [3637, 5635, 6524, 7529, 8283], "queries": {"click": {"state": {"target": [], "time": []}, "edge": {"target": [], "time": []}}, "mouseover": {"state": {"target": [], "time": []}, "edge": {"target": [], "time": []}}, "mouseout": {"state": {"target": ["1", "0", "0", "0"], "time": [1137, 5148, 10987, 11438]}, "edge": {"target": [], "time": []}}}, "displayed_time": "15.71", "trialTime": 18734, "trial_type": "mouselab-mdp", "trial_index": 15, "time_elapsed": 922452, "internal_node_id": "0.0-6.0-1.0-0.0"}}, {"uniqueid": "w93219678:a19949151", "current_trial": 16, "dateTime": 1693481946643, "trialdata": {"revealed_states": [], "clicked_states": [], "num_clicks_accrued": [0, 0, 0, 0, 0, 0, 0, 0, 0, 0, 0, 0, 0], "stateRewards": ["", -2, -4, -6, 12, -58, -70, -80, 2, 16, -88, -62, 1, 2, -5, 11, 77, -35, -44, -5, 18, -83, 87, 1, -3, -5, 13, -44, -21, -86, 10, -52, 8, 29], "withholdReward": false, "trial_id": "mdp_trial_2", "block": "test", "trialIndex": 5, "score": 11, "costs": 0, "simulationMode": [null, null, null, null, null], "rewards": [1, -3, -5, 10, 8], "path": ["0", "0", "23", "24", "25", "30", "32"], "rt": [2123, 516, 308, 700, 231], "actions": ["left", "left", "left", "down", "down"], "actionTimes": [4612, 5620, 6448, 7657, 8400], "queries": {"click": {"state": {"target": [], "time": []}, "edge": {"target": [], "time": []}}, "mouseover": {"state": {"target": [], "time": []}, "edge": {"target": [], "time": []}}, "mouseout": {"state": {"target": ["1", "0"], "time": [1869, 10635]}, "edge": {"target": [], "time": []}}}, "displayed_time": "16.49", "trialTime": 18219, "trial_type": "mouselab-mdp", "trial_index": 16, "time_elapsed": 940838, "internal_node_id": "0.0-6.0-1.0-1.0"}}, {"uniqueid": "w93219678:a19949151", "current_trial": 17, "dateTime": 1693481963601, "trialdata": {"revealed_states": [], "clicked_states": [], "num_clicks_accrued": [0, 0, 0, 0, 0, 0, 0, 0, 0, 0, 0, 0, 0], "stateRewards": ["", -2, 1, -5, 2, -68, 80, 33, 10, 67, -59, 20, -1, -3, 3, 14, 74, -2, 24, -16, 63, 80, 46, -1, 4, 6, 12, 83, -38, -43, -4, 43, 14, -79], "withholdReward": false, "trial_id": "mdp_trial_3", "block": "test", "trialIndex": 6, "score": 71, "costs": 0, "simulationMode": [null, null, null, null, null], "rewards": [-2, 1, -5, 10, 67], "path": ["0", "0", "1", "2", "3", "8", "9"], "rt": [1731, 256, 241, 786, 1406], "actions": ["up", "up", "up", "left", "up"], "actionTimes": [3244, 4020, 4773, 6083, 8002], "queries": {"click": {"state": {"target": [], "time": []}, "edge": {"target": [], "time": []}}, "mouseover": {"state": {"target": [], "time": []}, "edge": {"target": [], "time": []}}, "mouseout": {"state": {"target": ["0", "0"], "time": [1225, 9777]}, "edge": {"target": [], "time": []}}}, "displayed_time": "15.52", "trialTime": 16786, "trial_type": "mouselab-mdp", "trial_index": 17, "time_elapsed": 957795, "internal_node_id": "0.0-6.0-1.0-2.0"}}, {"uniqueid": "w93219678:a19949151", "current_trial": 18, "dateTime": 1693481981319, "trialdata": {"revealed_states": [], "clicked_states": [], "num_clicks_accrued": [0, 0, 0, 0, 0, 0, 0, 0, 0, 0, 0, 0, 0], "stateRewards": ["", 2, -1, 5, 8, 75, -35, -77, 1, -9, -81, -58, 1, 2, -7, 5, 77, -16, 19, 16, -10, -18, 40, -2, 3, 7, -5, 64, 1, -62, 10, 27, 10, 65], "withholdReward": false, "trial_id": "mdp_trial_4", "block": "test", "trialIndex": 7, "score": 4, "costs": 0, "simulationMode": [null, null, null, null, null], "rewards": [-2, 3, 7, -5, 1], "path": ["0", "0", "23", "24", "25", "26", "28"], "rt": [2515, 365, 326, 445, 275], "actions": ["left", "left", "left", "up", "right"], "actionTimes": [4666, 5540, 6384, 7351, 8145], "queries": {"click": {"state": {"target": [], "time": []}, "edge": {"target": [], "time": []}}, "mouseover": {"state": {"target": ["0"], "time": [2838]}, "edge": {"target": [], "time": []}}, "mouseout": {"state": {"target": ["0", "0", "0"], "time": [555, 1982, 3122]}, "edge": {"target": [], "time": []}}}, "displayed_time": "16.15", "trialTime": 17551, "trial_type": "mouselab-mdp", "trial_index": 18, "time_elapsed": 975513, "internal_node_id": "0.0-6.0-1.0-3.0"}}, {"uniqueid": "w93219678:a19949151", "current_trial": 19, "dateTime": 1693481999047, "trialdata": {"revealed_states": [], "clicked_states": [], "num_clicks_accrued": [0, 0, 0, 0, 0, 0, 0, 0, 0, 0, 0, 0, 0], "stateRewards": ["", -1, 2, -2, 13, -56, -28, 10, 14, 53, -80, -29, 1, -3, -3, -14, 14, 9, -40, -9, 18, 18, 48, 1, 1, 1, -9, 64, -39, -9, 7, -52, -78, 7], "withholdReward": false, "trial_id": "mdp_trial_5", "block": "test", "trialIndex": 8, "score": 34, "costs": 0, "simulationMode": [null, null, null, null, null], "rewards": [1, -3, -3, -9, 48], "path": ["0", "0", "12", "13", "14", "19", "22"], "rt": [2347, 177, 338, 790, 544], "actions": ["right", "right", "right", "down", "left"], "actionTimes": [5037, 5724, 6582, 7885, 8940], "queries": {"click": {"state": {"target": [], "time": []}, "edge": {"target": [], "time": []}}, "mouseover": {"state": {"target": [], "time": []}, "edge": {"target": [], "time": []}}, "mouseout": {"state": {"target": [], "time": []}, "edge": {"target": [], "time": []}}}, "displayed_time": "16.69", "trialTime": 17536, "trial_type": "mouselab-mdp", "trial_index": 19, "time_elapsed": 993241, "internal_node_id": "0.0-6.0-1.0-4.0"}}, {"uniqueid": "w93219678:a19949151", "current_trial": 20, "dateTime": 1693482016437, "trialdata": {"revealed_states": [], "clicked_states": [], "num_clicks_accrued": [0, 0, 0, 0, 0, 0, 0, 0, 0, 0, 0, 0, 0], "stateRewards": ["", 1, -2, 4, 7, -43, -83, -60, -5, -86, -80, 83, -1, -2, 6, 11, -15, 21, 13, 9, 29, -49, 11, -1, 4, -6, -11, 87, 40, 63, -8, -39, -11, 62], "withholdReward": false, "trial_id": "mdp_trial_6", "block": "test", "trialIndex": 9, "score": -73, "costs": 0, "simulationMode": [null, null, null, null, null], "rewards": [1, -2, 4, 7, -83], "path": ["0", "0", "1", "2", "3", "4", "6"], "rt": [3093, 781, 1089, 197, 470], "actions": ["up", "up", "up", "right", "right"], "actionTimes": [5151, 6474, 8079, 8791, 9777], "queries": {"click": {"state": {"target": [], "time": []}, "edge": {"target": [], "time": []}}, "mouseover": {"state": {"target": ["12", "13"], "time": [2537, 2573]}, "edge": {"target": [], "time": []}}, "mouseout": {"state": {"target": ["12", "12", "13"], "time": [905, 2554, 11439]}, "edge": {"target": [], "time": []}}}, "displayed_time": "16.06", "trialTime": 17224, "trial_type": "mouselab-mdp", "trial_index": 20, "time_elapsed": 1010631, "internal_node_id": "0.0-6.0-1.0-5.0"}}, {"uniqueid": "w93219678:a19949151", "current_trial": 21, "dateTime": 1693482033225, "trialdata": {"revealed_states": [], "clicked_states": [], "num_clicks_accrued": [0, 0, 0, 0, 0, 0, 0, 0, 0, 0, 0, 0, 0], "stateRewards": ["", -2, 2, 3, -7, 76, 63, 21, 15, 35, -8, -44, 1, 1, -2, -12, 23, 24, 76, -9, 46, 66, -49, -2, -1, 7, 12, 40, -71, -45, -6, 38, -49, 46], "withholdReward": false, "trial_id": "mdp_trial_7", "block": "test", "trialIndex": 10, "score": -55, "costs": 0, "simulationMode": [null, null, null, null, null], "rewards": [-2, -1, 7, 12, -71], "path": ["0", "0", "23", "24", "25", "26", "28"], "rt": [1880, 152, 270, 1298, 511], "actions": ["left", "left", "left", "up", "right"], "actionTimes": [3517, 4180, 4963, 6774, 7804], "queries": {"click": {"state": {"target": [], "time": []}, "edge": {"target": [], "time": []}}, "mouseover": {"state": {"target": [], "time": []}, "edge": {"target": [], "time": []}}, "mouseout": {"state": {"target": ["13", "12", "0", "0"], "time": [875, 925, 1175, 8842]}, "edge": {"target": [], "time": []}}}, "displayed_time": "15.64", "trialTime": 16618, "trial_type": "mouselab-mdp", "trial_index": 21, "time_elapsed": 1027419, "internal_node_id": "0.0-6.0-1.0-6.0"}}, {"uniqueid": "w93219678:a19949151", "current_trial": 22, "dateTime": 1693482051736, "trialdata": {"revealed_states": [], "clicked_states": [], "num_clicks_accrued": [0, 0, 0, 0, 0, 0, 0, 0, 0, 0, 0, 0, 0], "stateRewards": ["", -1, 2, -6, 6, 43, 78, 78, -2, 55, -29, -17, -2, -4, 1, -15, 13, 7, -79, 8, -28, -68, 36, -1, -3, 3, -16, 84, -18, 87, 10, 32, 13, -81], "withholdReward": false, "trial_id": "mdp_trial_8", "block": "test", "trialIndex": 11, "score": 79, "costs": 0, "simulationMode": [null, null, null, null, null], "rewards": [-1, 2, -6, 6, 78], "path": ["0", "0", "1", "2", "3", "4", "7"], "rt": [1579, 175, 280, 751, 687], "actions": ["up", "up", "up", "right", "down"], "actionTimes": [5346, 6037, 6828, 8095, 9299], "queries": {"click": {"state": {"target": [], "time": []}, "edge": {"target": [], "time": []}}, "mouseover": {"state": {"target": [], "time": []}, "edge": {"target": [], "time": []}}, "mouseout": {"state": {"target": ["0", "0", "0"], "time": [1579, 2809, 13359]}, "edge": {"target": [], "time": []}}}, "displayed_time": "17.77", "trialTime": 18332, "trial_type": "mouselab-mdp", "trial_index": 22, "time_elapsed": 1045930, "internal_node_id": "0.0-6.0-1.0-7.0"}}, {"uniqueid": "w93219678:a19949151", "current_trial": 23, "dateTime": 1693482072958, "trialdata": {"revealed_states": [], "clicked_states": [], "num_clicks_accrued": [0, 0, 0, 0, 0, 0, 0, 0, 0, 0, 0, 0, 0], "stateRewards": ["", -1, -4, -3, 1, -45, -67, -24, 14, 32, 22, 22, -1, 1, -5, -7, 72, 84, -79, -5, 19, -40, -2, -1, -2, 8, -3, 84, -25, -28, 11, 64, -66, 77], "withholdReward": false, "trial_id": "mdp_trial_9", "block": "test", "trialIndex": 12, "score": -91, "costs": 0, "simulationMode": [null, null, null, null, null], "rewards": [-1, 1, -5, -7, -79], "path": ["0", "0", "12", "13", "14", "15", "18"], "rt": [2195, 208, 286, 745, 158], "actions": ["right", "right", "right", "up", "left"], "actionTimes": [7746, 8483, 9278, 10536, 11198], "queries": {"click": {"state": {"target": [], "time": []}, "edge": {"target": [], "time": []}}, "mouseover": {"state": {"target": [], "time": []}, "edge": {"target": [], "time": []}}, "mouseout": {"state": {"target": ["0", "0", "0", "0", "0"], "time": [1683, 2673, 3923, 5048, 12874]}, "edge": {"target": [], "time": []}}}, "displayed_time": "19.55", "trialTime": 21021, "trial_type": "mouselab-mdp", "trial_index": 23, "time_elapsed": 1067152, "internal_node_id": "0.0-6.0-1.0-8.0"}}, {"uniqueid": "w93219678:a19949151", "current_trial": 24, "dateTime": 1693482092349, "trialdata": {"revealed_states": [], "clicked_states": [], "num_clicks_accrued": [0, 0, 0, 0, 0, 0, 0, 0, 0, 0, 0, 0, 0], "stateRewards": ["", -2, -3, 7, -13, 60, 9, 37, -6, 37, 20, 1, 2, -2, -8, 6, -80, -31, -10, -7, 70, -65, -44, -1, 1, 7, 6, -11, 73, -85, 16, -21, 47, 34], "withholdReward": false, "trial_id": "mdp_trial_10", "block": "test", "trialIndex": 13, "score": -59, "costs": 0, "simulationMode": [null, null, null, null, null], "rewards": [2, -2, -8, -7, -44], "path": ["0", "0", "12", "13", "14", "19", "22"], "rt": [1613, 151, 151, 763, 338], "actions": ["right", "right", "right", "down", "left"], "actionTimes": [6019, 6677, 7344, 8626, 9482], "queries": {"click": {"state": {"target": [], "time": []}, "edge": {"target": [], "time": []}}, "mouseover": {"state": {"target": [], "time": []}, "edge": {"target": [], "time": []}}, "mouseout": {"state": {"target": ["0", "0", "0"], "time": [1498, 3689, 11224]}, "edge": {"target": [], "time": []}}}, "displayed_time": "18.41", "trialTime": 19214, "trial_type": "mouselab-mdp", "trial_index": 24, "time_elapsed": 1086543, "internal_node_id": "0.0-6.0-1.0-9.0"}}, {"uniqueid": "w93219678:a19949151", "current_trial": 25, "dateTime": 1693482110170, "trialdata": {"revealed_states": [], "clicked_states": [], "num_clicks_accrued": [0, 0, 0, 0, 0, 0, 0, 0, 0, 0, 0, 0, 0], "stateRewards": ["", 2, -4, 4, 9, 69, 9, -75, 12, -86, 66, 25, -1, 3, 2, -13, -88, -3, 1, 4, -69, 49, -84, 2, -1, 4, 2, -18, -81, -52, -15, -69, -54, 25], "withholdReward": false, "trial_id": "mdp_trial_11", "block": "test", "trialIndex": 14, "score": -12, "costs": 0, "simulationMode": [null, null, null, null, null], "rewards": [-1, 3, 2, -13, -3], "path": ["0", "0", "12", "13", "14", "15", "17"], "rt": [1269, 117, 36, 747, 124], "actions": ["right", "right", "right", "up", "right"], "actionTimes": [4174, 4798, 5349, 6628, 7272], "queries": {"click": {"state": {"target": [], "time": []}, "edge": {"target": [], "time": []}}, "mouseover": {"state": {"target": ["12"], "time": [3362]}, "edge": {"target": [], "time": []}}, "mouseout": {"state": {"target": ["0", "12"], "time": [2562, 9883]}, "edge": {"target": [], "time": []}}}, "displayed_time": "16.91", "trialTime": 17643, "trial_type": "mouselab-mdp", "trial_index": 25, "time_elapsed": 1104364, "internal_node_id": "0.0-6.0-1.0-10.0"}}, {"uniqueid": "w93219678:a19949151", "current_trial": 26, "dateTime": 1693482128798, "trialdata": {"revealed_states": [], "clicked_states": [], "num_clicks_accrued": [0, 0, 0, 0, 0, 0, 0, 0, 0, 0, 0, 0, 0], "stateRewards": ["", 1, -4, 6, -3, 40, 76, -51, 5, -24, -63, 44, -2, -2, 8, 1, 76, -85, -58, 10, 59, 20, 11, -2, 3, -3, 3, -82, -10, 54, -7, -57, -6, -32], "withholdReward": false, "trial_id": "mdp_trial_12", "block": "test", "trialIndex": 15, "score": 81, "costs": 0, "simulationMode": [null, null, null, null, null], "rewards": [-2, -2, 8, 1, 76], "path": ["0", "0", "12", "13", "14", "15", "16"], "rt": [829, 248, 50, 519, 151], "actions": ["right", "right", "right", "up", "up"], "actionTimes": [4518, 5281, 5851, 6870, 7534], "queries": {"click": {"state": {"target": [], "time": []}, "edge": {"target": [], "time": []}}, "mouseover": {"state": {"target": [], "time": []}, "edge": {"target": [], "time": []}}, "mouseout": {"state": {"target": ["12", "0"], "time": [3099, 8616]}, "edge": {"target": [], "time": []}}}, "displayed_time": "17.69", "trialTime": 18444, "trial_type": "mouselab-mdp", "trial_index": 26, "time_elapsed": 1122992, "internal_node_id": "0.0-6.0-1.0-11.0"}}, {"uniqueid": "w93219678:a19949151", "current_trial": 27, "dateTime": 1693482146305, "trialdata": {"revealed_states": [], "clicked_states": [], "num_clicks_accrued": [0, 0, 0, 0, 0, 0, 0, 0, 0, 0, 0, 0, 0], "stateRewards": ["", 1, -2, -2, 10, -31, -77, 35, 9, -47, 8, 48, -2, 1, -4, -3, -26, -50, 43, -11, 76, -38, 17, 1, -1, 6, 10, 15, -9, 12, -8, 85, 11, -55], "withholdReward": false, "trial_id": "mdp_trial_13", "block": "test", "trialIndex": 16, "score": -54, "costs": 0, "simulationMode": [null, null, null, null, null], "rewards": [-2, 1, -4, -11, -38], "path": ["0", "0", "12", "13", "14", "19", "21"], "rt": [2321, 2, 80, 675, 5], "actions": ["right", "right", "right", "down", "down"], "actionTimes": [4796, 5312, 5926, 7117, 7633], "queries": {"click": {"state": {"target": [], "time": []}, "edge": {"target": [], "time": []}}, "mouseover": {"state": {"target": [], "time": []}, "edge": {"target": [], "time": []}}, "mouseout": {"state": {"target": ["0"], "time": [2481]}, "edge": {"target": [], "time": []}}}, "displayed_time": "16.48", "trialTime": 17311, "trial_type": "mouselab-mdp", "trial_index": 27, "time_elapsed": 1140499, "internal_node_id": "0.0-6.0-1.0-12.0"}}, {"uniqueid": "w93219678:a19949151", "current_trial": 28, "dateTime": 1693482165056, "trialdata": {"revealed_states": [], "clicked_states": [], "num_clicks_accrued": [0, 0, 0, 0, 0, 0, 0, 0, 0, 0, 0, 0, 0], "stateRewards": ["", -2, -1, 3, -3, 71, -58, -21, 7, -10, -75, -37, 2, 4, -1, -12, -79, -29, -48, 3, -41, -10, -30, -1, -2, 1, -15, 13, 66, 22, -1, -42, -86, -55], "withholdReward": false, "trial_id": "mdp_trial_14", "block": "test", "trialIndex": 17, "score": -45, "costs": 0, "simulationMode": [null, null, null, null, null], "rewards": [-1, -2, 1, -1, -42], "path": ["0", "0", "23", "24", "25", "30", "31"], "rt": [1435, 159, 292, 1021, 648], "actions": ["left", "left", "left", "down", "right"], "actionTimes": [5130, 5809, 6593, 8123, 9282], "queries": {"click": {"state": {"target": [], "time": []}, "edge": {"target": [], "time": []}}, "mouseover": {"state": {"target": [], "time": []}, "edge": {"target": [], "time": []}}, "mouseout": {"state": {"target": ["0", "0"], "time": [3172, 11665]}, "edge": {"target": [], "time": []}}}, "displayed_time": "17.70", "trialTime": 18539, "trial_type": "mouselab-mdp", "trial_index": 28, "time_elapsed": 1159250, "internal_node_id": "0.0-6.0-1.0-13.0"}}, {"uniqueid": "w93219678:a19949151", "current_trial": 29, "dateTime": 1693482183106, "trialdata": {"revealed_states": [], "clicked_states": [], "num_clicks_accrued": [0, 0, 0, 0, 0, 0, 0, 0, 0, 0, 0, 0, 0], "stateRewards": ["", -1, 3, 1, -7, 56, 76, 57, 3, 11, -9, 14, 1, -2, 2, 8, -77, -3, 79, -5, 88, 24, -66, -2, -1, 7, -7, -30, 14, -76, 11, -36, 28, -6], "withholdReward": false, "trial_id": "mdp_trial_15", "block": "test", "trialIndex": 18, "score": 9, "costs": 0, "simulationMode": [null, null, null, null, null], "rewards": [-2, -1, 7, 11, -6], "path": ["0", "0", "23", "24", "25", "30", "33"], "rt": [1519, 573, 327, 827, 576], "actions": ["left", "left", "left", "down", "left"], "actionTimes": [4165, 5255, 6096, 7445, 8544], "queries": {"click": {"state": {"target": [], "time": []}, "edge": {"target": [], "time": []}}, "mouseover": {"state": {"target": [], "time": []}, "edge": {"target": [], "time": []}}, "mouseout": {"state": {"target": ["0"], "time": [10381]}, "edge": {"target": [], "time": []}}}, "displayed_time": "16.65", "trialTime": 17857, "trial_type": "mouselab-mdp", "trial_index": 29, "time_elapsed": 1177301, "internal_node_id": "0.0-6.0-1.0-14.0"}}, {"uniqueid": "w93219678:a19949151", "current_trial": 30, "dateTime": 1693482202626, "trialdata": {"revealed_states": [], "clicked_states": [], "num_clicks_accrued": [0, 0, 0, 0, 0, 0, 0, 0, 0, 0, 0, 0, 0], "stateRewards": ["", -1, -2, 4, 9, 10, -75, 39, 16, -43, 88, -19, -1, 1, 2, 4, -31, 10, 73, 12, 41, -64, -81, -2, 2, -6, 1, -81, -1, -26, 3, -59, -3, -20], "withholdReward": false, "trial_id": "mdp_trial_16", "block": "test", "trialIndex": 19, "score": -31, "costs": 0, "simulationMode": [null, null, null, null, null], "rewards": [-2, 2, -6, 1, -26], "path": ["0", "0", "23", "24", "25", "26", "29"], "rt": [2330, 587, 296, 1443, 411], "actions": ["left", "left", "left", "up", "left"], "actionTimes": [6927, 8034, 8838, 10819, 11737], "queries": {"click": {"state": {"target": [], "time": []}, "edge": {"target": [], "time": []}}, "mouseover": {"state": {"target": [], "time": []}, "edge": {"target": [], "time": []}}, "mouseout": {"state": {"target": ["0", "0"], "time": [1325, 13448]}, "edge": {"target": [], "time": []}}}, "displayed_time": "18.60", "trialTime": 19308, "trial_type": "mouselab-mdp", "trial_index": 30, "time_elapsed": 1196821, "internal_node_id": "0.0-6.0-1.0-15.0"}}, {"uniqueid": "w93219678:a19949151", "current_trial": 31, "dateTime": 1693482219060, "trialdata": {"revealed_states": [], "clicked_states": [], "num_clicks_accrued": [0, 0, 0, 0, 0, 0, 0, 0, 0, 0, 0, 0, 0], "stateRewards": ["", 1, -1, 1, -14, -10, 67, -28, -11, 72, 40, -65, -1, 1, 1, -2, 8, -55, 34, -10, 61, 33, -15, 2, -4, 7, 4, -75, 63, -21, -16, 61, 19, 21], "withholdReward": false, "trial_id": "mdp_trial_17", "block": "test", "trialIndex": 20, "score": 72, "costs": 0, "simulationMode": [null, null, null, null, null], "rewards": [2, -4, 7, 4, 63], "path": ["0", "0", "23", "24", "25", "26", "28"], "rt": [1174, 506, 259, 379, 225], "actions": ["left", "left", "left", "up", "right"], "actionTimes": [2520, 3539, 4307, 5190, 5926], "queries": {"click": {"state": {"target": [], "time": []}, "edge": {"target": [], "time": []}}, "mouseover": {"state": {"target": [], "time": []}, "edge": {"target": [], "time": []}}, "mouseout": {"state": {"target": ["0", "0", "1"], "time": [777, 6927, 6977]}, "edge": {"target": [], "time": []}}}, "displayed_time": "15.35", "trialTime": 16245, "trial_type": "mouselab-mdp", "trial_index": 31, "time_elapsed": 1213254, "internal_node_id": "0.0-6.0-1.0-16.0"}}, {"uniqueid": "w93219678:a19949151", "current_trial": 32, "dateTime": 1693482236901, "trialdata": {"revealed_states": [], "clicked_states": [], "num_clicks_accrued": [0, 0, 0, 0, 0, 0, 0, 0, 0, 0, 0, 0, 0], "stateRewards": ["", -2, -3, 8, -4, -30, 31, 69, 9, 66, 87, 64, -2, 2, 8, 5, 47, 16, -39, -8, -54, 51, -19, 1, -2, -2, -11, -25, -26, 43, -9, 19, -84, 86], "withholdReward": false, "trial_id": "mdp_trial_18", "block": "test", "trialIndex": 21, "score": -39, "costs": 0, "simulationMode": [null, null, null, null, null], "rewards": [1, -2, -2, -11, -25], "path": ["0", "0", "23", "24", "25", "26", "27"], "rt": [570, 137, 225, 358, 233], "actions": ["left", "left", "left", "up", "up"], "actionTimes": [2378, 3032, 3768, 4635, 5376], "queries": {"click": {"state": {"target": [], "time": []}, "edge": {"target": [], "time": []}}, "mouseover": {"state": {"target": [], "time": []}, "edge": {"target": [], "time": []}}, "mouseout": {"state": {"target": ["1", "0", "1"], "time": [1141, 6593, 6793]}, "edge": {"target": [], "time": []}}}, "displayed_time": "15.81", "trialTime": 17636, "trial_type": "mouselab-mdp", "trial_index": 32, "time_elapsed": 1231095, "internal_node_id": "0.0-6.0-1.0-17.0"}}, {"uniqueid": "w93219678:a19949151", "current_trial": 33, "dateTime": 1693482255493, "trialdata": {"revealed_states": [], "clicked_states": [], "num_clicks_accrued": [0, 0, 0, 0, 0, 0, 0, 0, 0, 0, 0, 0, 0], "stateRewards": ["", -2, -1, -6, -14, -55, 78, -13, 11, 14, -71, 59, 2, 2, 6, -6, 9, 38, 14, 7, 85, 11, 68, 1, -4, -1, -3, -63, -85, 9, -2, 63, -86, -10], "withholdReward": false, "trial_id": "mdp_trial_19", "block": "test", "trialIndex": 22, "score": -69, "costs": 0, "simulationMode": [null, null, null, null, null], "rewards": [-2, -1, -6, 11, -71], "path": ["0", "0", "1", "2", "3", "8", "10"], "rt": [2509, 122, 409, 1039, 684], "actions": ["up", "up", "up", "left", "down"], "actionTimes": [6136, 6774, 7694, 9241, 10435], "queries": {"click": {"state": {"target": [], "time": []}, "edge": {"target": [], "time": []}}, "mouseover": {"state": {"target": [], "time": []}, "edge": {"target": [], "time": []}}, "mouseout": {"state": {"target": ["1", "2", "3", "2", "1", "0", "0"], "time": [1267, 1367, 2750, 2949, 3049, 11719, 12084]}, "edge": {"target": [], "time": []}}}, "displayed_time": "17.63", "trialTime": 18373, "trial_type": "mouselab-mdp", "trial_index": 33, "time_elapsed": 1249687, "internal_node_id": "0.0-6.0-1.0-18.0"}}, {"uniqueid": "w93219678:a19949151", "current_trial": 34, "dateTime": 1693482272911, "trialdata": {"revealed_states": [], "clicked_states": [], "num_clicks_accrued": [0, 0, 0, 0, 0, 0, 0, 0, 0, 0, 0, 0, 0], "stateRewards": ["", -1, 3, -4, -14, 78, 67, 2, 13, -32, 28, 39, -2, 1, -4, -4, -4, -42, -86, 11, 64, -29, -32, -1, -4, 2, -7, 5, 68, -61, 2, -21, 85, 50], "withholdReward": false, "trial_id": "mdp_trial_20", "block": "test", "trialIndex": 23, "score": 50, "costs": 0, "simulationMode": [null, null, null, null, null], "rewards": [-1, 3, -4, 13, 39], "path": ["0", "0", "1", "2", "3", "8", "11"], "rt": [1262, 178, 215, 682, 211], "actions": ["up", "up", "up", "left", "left"], "actionTimes": [3582, 4272, 4997, 6192, 6923], "queries": {"click": {"state": {"target": [], "time": []}, "edge": {"target": [], "time": []}}, "mouseover": {"state": {"target": [], "time": []}, "edge": {"target": [], "time": []}}, "mouseout": {"state": {"target": ["0"], "time": [8828]}, "edge": {"target": [], "time": []}}}, "displayed_time": "16.32", "trialTime": 17186, "trial_type": "mouselab-mdp", "trial_index": 34, "time_elapsed": 1267105, "internal_node_id": "0.0-6.0-1.0-19.0"}}, {"uniqueid": "w93219678:a19949151", "current_trial": 35, "dateTime": 1693482290393, "trialdata": {"revealed_states": [], "clicked_states": [], "num_clicks_accrued": [0, 0, 0, 0, 0, 0, 0, 0, 0, 0, 0, 0, 0], "stateRewards": ["", 2, -4, 1, -12, -59, -53, -74, 16, -88, -66, 66, 1, -2, 8, -9, -14, 22, 25, -1, -39, 47, -14, -1, -1, -2, 1, -4, 52, -26, 15, -7, 46, 43], "withholdReward": false, "trial_id": "mdp_trial_21", "block": "test", "trialIndex": 24, "score": -73, "costs": 0, "simulationMode": [null, null, null, null, null], "rewards": [2, -4, 1, 16, -88], "path": ["0", "0", "1", "2", "3", "8", "9"], "rt": [1421, 166, 237, 513, 256], "actions": ["up", "up", "up", "left", "up"], "actionTimes": [3416, 4095, 4850, 5874, 6671], "queries": {"click": {"state": {"target": [], "time": []}, "edge": {"target": [], "time": []}}, "mouseover": {"state": {"target": [], "time": []}, "edge": {"target": [], "time": []}}, "mouseout": {"state": {"target": ["0"], "time": [12861]}, "edge": {"target": [], "time": []}}}, "displayed_time": "15.99", "trialTime": 17254, "trial_type": "mouselab-mdp", "trial_index": 35, "time_elapsed": 1284587, "internal_node_id": "0.0-6.0-1.0-20.0"}}, {"uniqueid": "w93219678:a19949151", "current_trial": 36, "dateTime": 1693482306960, "trialdata": {"revealed_states": [], "clicked_states": [], "num_clicks_accrued": [0, 0, 0, 0, 0, 0, 0, 0, 0, 0, 0, 0, 0], "stateRewards": ["", -1, 1, 3, -8, -23, -15, -14, -11, -23, 58, 68, 1, 3, 5, 12, -17, -41, -7, -10, -4, 82, 10, 1, 4, -4, 11, 73, 55, -55, -1, -86, -86, 54], "withholdReward": false, "trial_id": "mdp_trial_22", "block": "test", "trialIndex": 25, "score": -19, "costs": 0, "simulationMode": [null, null, null, null, null], "rewards": [-1, 1, 3, -8, -14], "path": ["0", "0", "1", "2", "3", "4", "7"], "rt": [1023, 186, 146, 150, 369], "actions": ["up", "up", "up", "right", "down"], "actionTimes": [2622, 3322, 3986, 4636, 5521], "queries": {"click": {"state": {"target": [], "time": []}, "edge": {"target": [], "time": []}}, "mouseover": {"state": {"target": [], "time": []}, "edge": {"target": [], "time": []}}, "mouseout": {"state": {"target": ["0"], "time": [7068]}, "edge": {"target": [], "time": []}}}, "displayed_time": "15.60", "trialTime": 16314, "trial_type": "mouselab-mdp", "trial_index": 36, "time_elapsed": 1301154, "internal_node_id": "0.0-6.0-1.0-21.0"}}, {"uniqueid": "w93219678:a19949151", "current_trial": 37, "dateTime": 1693482323565, "trialdata": {"revealed_states": [], "clicked_states": [], "num_clicks_accrued": [0, 0, 0, 0, 0, 0, 0, 0, 0, 0, 0, 0, 0], "stateRewards": ["", -1, -4, 8, 8, -68, 47, 24, -7, -61, 49, -69, -1, -1, 8, -7, 42, 1, -45, -11, 10, -63, -6, 1, 4, 6, -16, 79, -37, -58, -12, 81, 18, -53], "withholdReward": false, "trial_id": "mdp_trial_23", "block": "test", "trialIndex": 26, "score": 58, "costs": 0, "simulationMode": [null, null, null, null, null], "rewards": [-1, -4, 8, 8, 47], "path": ["0", "0", "1", "2", "3", "4", "6"], "rt": [1282, 540, 279, 201, 236], "actions": ["up", "up", "up", "right", "right"], "actionTimes": [2752, 3804, 4588, 5294, 6049], "queries": {"click": {"state": {"target": [], "time": []}, "edge": {"target": [], "time": []}}, "mouseover": {"state": {"target": [], "time": []}, "edge": {"target": [], "time": []}}, "mouseout": {"state": {"target": ["0", "0", "1"], "time": [1308, 7975, 8509]}, "edge": {"target": [], "time": []}}}, "displayed_time": "15.47", "trialTime": 16362, "trial_type": "mouselab-mdp", "trial_index": 37, "time_elapsed": 1317759, "internal_node_id": "0.0-6.0-1.0-22.0"}}, {"uniqueid": "w93219678:a19949151", "current_trial": 38, "dateTime": 1693482340233, "trialdata": {"revealed_states": [], "clicked_states": [], "num_clicks_accrued": [0, 0, 0, 0, 0, 0, 0, 0, 0, 0, 0, 0, 0], "stateRewards": ["", -2, -3, -7, 7, -54, -69, -4, -14, -77, 22, 40, -2, -1, 5, 6, -35, 50, -60, 10, -28, 75, 57, 1, -4, -2, 2, 68, 34, -18, 12, 3, -21, -43], "withholdReward": false, "trial_id": "mdp_trial_24", "block": "test", "trialIndex": 27, "score": -59, "costs": 0, "simulationMode": [null, null, null, null, null], "rewards": [-2, -3, -7, 7, -54], "path": ["0", "0", "1", "2", "3", "4", "5"], "rt": [1384, 141, 144, 205, 383], "actions": ["up", "up", "up", "right", "up"], "actionTimes": [2983, 3633, 4287, 5014, 5908], "queries": {"click": {"state": {"target": [], "time": []}, "edge": {"target": [], "time": []}}, "mouseover": {"state": {"target": ["12"], "time": [1924]}, "edge": {"target": [], "time": []}}, "mouseout": {"state": {"target": ["1", "0", "12"], "time": [938, 1655, 1957]}, "edge": {"target": [], "time": []}}}, "displayed_time": "15.60", "trialTime": 16430, "trial_type": "mouselab-mdp", "trial_index": 38, "time_elapsed": 1334427, "internal_node_id": "0.0-6.0-1.0-23.0"}}, {"uniqueid": "w93219678:a19949151", "current_trial": 39, "dateTime": 1693482357698, "trialdata": {"revealed_states": [], "clicked_states": [], "num_clicks_accrued": [0, 0, 0, 0, 0, 0, 0, 0, 0, 0, 0, 0, 0], "stateRewards": ["", -2, 2, 2, -6, 9, 37, 50, -13, -7, -18, -75, -2, -4, 4, 7, 23, -57, -66, -7, -81, -48, -76, 1, 1, -8, 1, 51, -2, 70, 14, 59, 71, -37], "withholdReward": false, "trial_id": "mdp_trial_25", "block": "test", "trialIndex": 28, "score": 28, "costs": 0, "simulationMode": [null, null, null, null, null], "rewards": [-2, -4, 4, 7, 23], "path": ["0", "0", "12", "13", "14", "15", "16"], "rt": [3069, 179, 246, 331, 151], "actions": ["right", "right", "right", "up", "up"], "actionTimes": [4717, 5393, 6161, 7012, 7684], "queries": {"click": {"state": {"target": [], "time": []}, "edge": {"target": [], "time": []}}, "mouseover": {"state": {"target": [], "time": []}, "edge": {"target": [], "time": []}}, "mouseout": {"state": {"target": ["7", "0", "0"], "time": [695, 1261, 8729]}, "edge": {"target": [], "time": []}}}, "displayed_time": "15.65", "trialTime": 17237, "trial_type": "mouselab-mdp", "trial_index": 39, "time_elapsed": 1351892, "internal_node_id": "0.0-6.0-1.0-24.0"}}, {"uniqueid": "w93219678:a19949151", "current_trial": 40, "dateTime": 1693482375204, "trialdata": {"revealed_states": [], "clicked_states": [], "num_clicks_accrued": [0, 0, 0, 0, 0, 0, 0, 0, 0, 0, 0, 0, 0], "stateRewards": ["", 1, 4, -8, -5, -15, -7, 21, 13, -30, 40, -65, 1, 1, 5, -14, 35, 27, -38, -11, 36, -58, -47, -2, 4, -3, 13, -16, -49, 22, 15, -56, -44, -10], "withholdReward": false, "trial_id": "mdp_trial_26", "block": "test", "trialIndex": 29, "score": -15, "costs": 0, "simulationMode": [null, null, null, null, null], "rewards": [1, 4, -8, -5, -7], "path": ["0", "0", "1", "2", "3", "4", "6"], "rt": [1534, 162, 81, 155, 320], "actions": ["up", "up", "up", "right", "right"], "actionTimes": [3928, 4601, 5201, 5876, 6706], "queries": {"click": {"state": {"target": [], "time": []}, "edge": {"target": [], "time": []}}, "mouseover": {"state": {"target": [], "time": []}, "edge": {"target": [], "time": []}}, "mouseout": {"state": {"target": ["0", "0", "1"], "time": [1701, 8169, 8203]}, "edge": {"target": [], "time": []}}}, "displayed_time": "16.39", "trialTime": 17268, "trial_type": "mouselab-mdp", "trial_index": 40, "time_elapsed": 1369398, "internal_node_id": "0.0-6.0-1.0-25.0"}}, {"uniqueid": "w93219678:a19949151", "current_trial": 41, "dateTime": 1693482392109, "trialdata": {"revealed_states": [], "clicked_states": [], "num_clicks_accrued": [0, 0, 0, 0, 0, 0, 0, 0, 0, 0, 0, 0, 0], "stateRewards": ["", 2, -1, -2, -5, -47, -57, -33, -11, 31, -18, -72, -2, 1, -4, -8, -46, -53, -50, 15, -85, -9, 39, -2, -2, 1, 14, -1, -8, 53, -12, -41, -74, 62], "withholdReward": false, "trial_id": "mdp_trial_27", "block": "test", "trialIndex": 30, "score": 64, "costs": 0, "simulationMode": [null, null, null, null, null], "rewards": [-2, -2, 1, 14, 53], "path": ["0", "0", "23", "24", "25", "26", "29"], "rt": [1434, 581, 257, 366, 1038], "actions": ["left", "left", "left", "up", "left"], "actionTimes": [3185, 4276, 5051, 5926, 7481], "queries": {"click": {"state": {"target": [], "time": []}, "edge": {"target": [], "time": []}}, "mouseover": {"state": {"target": [], "time": []}, "edge": {"target": [], "time": []}}, "mouseout": {"state": {"target": ["0", "0", "12"], "time": [1845, 8624, 8741]}, "edge": {"target": [], "time": []}}}, "displayed_time": "15.75", "trialTime": 16648, "trial_type": "mouselab-mdp", "trial_index": 41, "time_elapsed": 1386304, "internal_node_id": "0.0-6.0-1.0-26.0"}}, {"uniqueid": "w93219678:a19949151", "current_trial": 42, "dateTime": 1693482410671, "trialdata": {"revealed_states": [], "clicked_states": [], "num_clicks_accrued": [0, 0, 0, 0, 0, 0, 0, 0, 0, 0, 0, 0, 0], "stateRewards": ["", 1, -1, -7, -7, -22, 15, -13, 13, 26, -32, 38, -1, 1, -7, -4, 16, -62, 86, 12, -54, 56, 64, -2, -1, 6, 14, -57, 37, 62, -6, -25, 50, -70], "withholdReward": false, "trial_id": "mdp_trial_28", "block": "test", "trialIndex": 31, "score": 54, "costs": 0, "simulationMode": [null, null, null, null, null], "rewards": [-2, -1, 6, 14, 37], "path": ["0", "0", "23", "24", "25", "26", "28"], "rt": [1842, 163, 44, 809, 34], "actions": ["left", "left", "left", "up", "right"], "actionTimes": [3309, 3984, 4553, 5898, 6442], "queries": {"click": {"state": {"target": [], "time": []}, "edge": {"target": [], "time": []}}, "mouseover": {"state": {"target": [], "time": []}, "edge": {"target": [], "time": []}}, "mouseout": {"state": {"target": ["0", "0", "0"], "time": [1604, 10286, 10692]}, "edge": {"target": [], "time": []}}}, "displayed_time": "15.47", "trialTime": 18326, "trial_type": "mouselab-mdp", "trial_index": 42, "time_elapsed": 1404865, "internal_node_id": "0.0-6.0-1.0-27.0"}}, {"uniqueid": "w93219678:a19949151", "current_trial": 43, "dateTime": 1693482427402, "trialdata": {"revealed_states": [], "clicked_states": [], "num_clicks_accrued": [0, 0, 0, 0, 0, 0, 0, 0, 0, 0, 0, 0, 0], "stateRewards": ["", 2, -1, -4, -13, 74, 77, 3, 2, -43, -2, -11, 2, 3, 7, 11, -26, -29, -33, -3, -3, -13, -3, 1, 3, -7, 14, -59, 33, 9, -5, 34, 79, 68], "withholdReward": false, "trial_id": "mdp_trial_29", "block": "test", "trialIndex": 32, "score": 71, "costs": 0, "simulationMode": [null, null, null, null, null], "rewards": [1, 3, -7, -5, 79], "path": ["0", "0", "23", "24", "25", "30", "32"], "rt": [1656, 88, 105, 464, 619], "actions": ["left", "left", "left", "down", "down"], "actionTimes": [3175, 3773, 4388, 5347, 6488], "queries": {"click": {"state": {"target": [], "time": []}, "edge": {"target": [], "time": []}}, "mouseover": {"state": {"target": [], "time": []}, "edge": {"target": [], "time": []}}, "mouseout": {"state": {"target": [], "time": []}, "edge": {"target": [], "time": []}}}, "displayed_time": "15.52", "trialTime": 16452, "trial_type": "mouselab-mdp", "trial_index": 43, "time_elapsed": 1421596, "internal_node_id": "0.0-6.0-1.0-28.0"}}, {"uniqueid": "w93219678:a19949151", "current_trial": 44, "dateTime": 1693482444400, "trialdata": {"revealed_states": [], "clicked_states": [], "num_clicks_accrued": [0, 0, 0, 0, 0, 0, 0, 0, 0, 0, 0, 0, 0], "stateRewards": ["", -1, 2, 6, 11, 21, -21, -21, -6, 48, -71, 88, -1, -3, 3, 7, 64, 2, 9, -4, 37, -67, 72, 2, 2, -8, -8, -10, 71, -40, -3, 73, 80, 47], "withholdReward": false, "trial_id": "mdp_trial_30", "block": "test", "trialIndex": 33, "score": -72, "costs": 0, "simulationMode": [null, null, null, null, null], "rewards": [-1, -3, 3, -4, -67], "path": ["0", "0", "12", "13", "14", "19", "21"], "rt": [1152, 139, 164, 430, 114], "actions": ["right", "right", "right", "down", "down"], "actionTimes": [3090, 3758, 4419, 5369, 6002], "queries": {"click": {"state": {"target": [], "time": []}, "edge": {"target": [], "time": []}}, "mouseover": {"state": {"target": ["12"], "time": [2254]}, "edge": {"target": [], "time": []}}, "mouseout": {"state": {"target": ["0", "1", "0", "12"], "time": [892, 1187, 2137, 9670]}, "edge": {"target": [], "time": []}}}, "displayed_time": "15.94", "trialTime": 16742, "trial_type": "mouselab-mdp", "trial_index": 44, "time_elapsed": 1438595, "internal_node_id": "0.0-6.0-1.0-29.0"}}, {"uniqueid": "w93219678:a19949151", "current_trial": 45, "dateTime": 1693482462026, "trialdata": {"revealed_states": [], "clicked_states": [], "num_clicks_accrued": [0, 0, 0, 0, 0, 0, 0, 0, 0, 0, 0, 0, 0], "stateRewards": ["", 2, -4, 7, 3, 23, -42, 4, 7, -81, -33, 7, -2, -4, 5, -1, 50, -57, -14, -13, -14, 44, 55, -2, -2, 5, -2, 33, 1, 57, -13, -7, 58, 87], "withholdReward": false, "trial_id": "mdp_trial_31", "block": "test", "trialIndex": 34, "score": 48, "costs": 0, "simulationMode": [null, null, null, null, null], "rewards": [-2, -4, 5, -1, 50], "path": ["0", "0", "12", "13", "14", "15", "16"], "rt": [1376, 83, 166, 342, 125], "actions": ["right", "right", "right", "up", "up"], "actionTimes": [3790, 4382, 5049, 5906, 6540], "queries": {"click": {"state": {"target": [], "time": []}, "edge": {"target": [], "time": []}}, "mouseover": {"state": {"target": [], "time": []}, "edge": {"target": [], "time": []}}, "mouseout": {"state": {"target": ["12", "0", "1"], "time": [1746, 7514, 7613]}, "edge": {"target": [], "time": []}}}, "displayed_time": "16.42", "trialTime": 17346, "trial_type": "mouselab-mdp", "trial_index": 45, "time_elapsed": 1456220, "internal_node_id": "0.0-6.0-1.0-30.0"}}, {"uniqueid": "w93219678:a19949151", "current_trial": 46, "dateTime": 1693482479618, "trialdata": {"revealed_states": [], "clicked_states": [], "num_clicks_accrued": [0, 0, 0, 0, 0, 0, 0, 0, 0, 0, 0, 0, 0], "stateRewards": ["", 1, -3, -2, 14, 49, -40, -39, 2, 26, -61, 73, 1, -4, -8, 12, 79, 29, -65, -13, 55, -26, 27, -1, 3, 3, 9, -17, -60, -18, -8, 35, -88, 69], "withholdReward": false, "trial_id": "mdp_trial_32", "block": "test", "trialIndex": 35, "score": 24, "costs": 0, "simulationMode": [null, null, null, null, null], "rewards": [1, -3, -2, 2, 26], "path": ["0", "0", "1", "2", "3", "8", "9"], "rt": [1128, 149, 234, 284, 234], "actions": ["up", "up", "up", "left", "up"], "actionTimes": [3600, 4265, 5014, 5814, 6564], "queries": {"click": {"state": {"target": [], "time": []}, "edge": {"target": [], "time": []}}, "mouseover": {"state": {"target": [], "time": []}, "edge": {"target": [], "time": []}}, "mouseout": {"state": {"target": ["1", "0", "0"], "time": [1929, 8114, 8346]}, "edge": {"target": [], "time": []}}}, "displayed_time": "16.47", "trialTime": 17323, "trial_type": "mouselab-mdp", "trial_index": 46, "time_elapsed": 1473812, "internal_node_id": "0.0-6.0-1.0-31.0"}}, {"uniqueid": "w93219678:a19949151", "current_trial": 47, "dateTime": 1693482496313, "trialdata": {"revealed_states": [], "clicked_states": [], "num_clicks_accrued": [0, 0, 0, 0, 0, 0, 0, 0, 0, 0, 0, 0, 0], "stateRewards": ["", 2, -1, 3, -12, -83, 6, -33, 9, 28, 24, -50, -2, -1, -2, -5, -87, 37, 82, 12, 80, -5, 10, -2, -3, -6, 9, 22, -1, 16, 9, 77, -62, 58], "withholdReward": false, "trial_id": "mdp_trial_33", "block": "test", "trialIndex": 36, "score": 14, "costs": 0, "simulationMode": [null, null, null, null, null], "rewards": [-2, -3, -6, 9, 16], "path": ["0", "0", "23", "24", "25", "26", "29"], "rt": [1439, 427, 268, 1081, 798], "actions": ["left", "left", "left", "up", "left"], "actionTimes": [3221, 4161, 4951, 6548, 7862], "queries": {"click": {"state": {"target": [], "time": []}, "edge": {"target": [], "time": []}}, "mouseover": {"state": {"target": [], "time": []}, "edge": {"target": [], "time": []}}, "mouseout": {"state": {"target": ["0", "0", "7"], "time": [1790, 8930, 9548]}, "edge": {"target": [], "time": []}}}, "displayed_time": "15.79", "trialTime": 16438, "trial_type": "mouselab-mdp", "trial_index": 47, "time_elapsed": 1490507, "internal_node_id": "0.0-6.0-1.0-32.0"}}, {"uniqueid": "w93219678:a19949151", "current_trial": 48, "dateTime": 1693482513597, "trialdata": {"revealed_states": [], "clicked_states": [], "num_clicks_accrued": [0, 0, 0, 0, 0, 0, 0, 0, 0, 0, 0, 0, 0], "stateRewards": ["", -1, -4, -6, -15, 21, -67, -63, 9, 51, 69, -14, -1, 3, 8, -8, 39, 72, 63, 15, 19, 47, 15, 1, 4, 5, 16, -18, 34, 35, -14, -80, 40, 1], "withholdReward": false, "trial_id": "mdp_trial_34", "block": "test", "trialIndex": 37, "score": -5, "costs": 0, "simulationMode": [null, null, null, null, null], "rewards": [-1, -4, -6, -15, 21], "path": ["0", "0", "1", "2", "3", "4", "5"], "rt": [1537, 134, 181, 903, 980], "actions": ["up", "up", "up", "right", "up"], "actionTimes": [3084, 3724, 4423, 5844, 7339], "queries": {"click": {"state": {"target": [], "time": []}, "edge": {"target": [], "time": []}}, "mouseover": {"state": {"target": [], "time": []}, "edge": {"target": [], "time": []}}, "mouseout": {"state": {"target": ["7", "0", "0"], "time": [772, 11705, 12283]}, "edge": {"target": [], "time": []}}}, "displayed_time": "15.55", "trialTime": 17033, "trial_type": "mouselab-mdp", "trial_index": 48, "time_elapsed": 1507791, "internal_node_id": "0.0-6.0-1.0-33.0"}}, {"uniqueid": "w93219678:a19949151", "current_trial": 49, "dateTime": 1693482530067, "trialdata": {"revealed_states": [], "clicked_states": [], "num_clicks_accrued": [0, 0, 0, 0, 0, 0, 0, 0, 0, 0, 0, 0, 0], "stateRewards": ["", 2, -1, 8, -2, -16, 69, -39, -7, -13, -27, -86, 2, -2, 2, 13, -34, -16, -20, -5, 19, 81, 32, -2, -1, 2, -14, 20, 80, 58, 4, 70, 12, 73], "withholdReward": false, "trial_id": "mdp_trial_35", "block": "test", "trialIndex": 38, "score": 29, "costs": 0, "simulationMode": [null, null, null, null, null], "rewards": [2, -2, 2, -5, 32], "path": ["0", "0", "12", "13", "14", "19", "22"], "rt": [2338, 595, 212, 190, 374], "actions": ["right", "right", "right", "down", "left"], "actionTimes": [3961, 5066, 5803, 6509, 7398], "queries": {"click": {"state": {"target": [], "time": []}, "edge": {"target": [], "time": []}}, "mouseover": {"state": {"target": [], "time": []}, "edge": {"target": [], "time": []}}, "mouseout": {"state": {"target": ["0", "1"], "time": [8518, 8736]}, "edge": {"target": [], "time": []}}}, "displayed_time": "15.62", "trialTime": 16201, "trial_type": "mouselab-mdp", "trial_index": 49, "time_elapsed": 1524261, "internal_node_id": "0.0-6.0-1.0-34.0"}}, {"uniqueid": "w93219678:a19949151", "current_trial": 50, "dateTime": 1693482549249, "trialdata": {"revealed_states": [], "clicked_states": [], "num_clicks_accrued": [0, 0, 0, 0, 0, 0, 0, 0, 0, 0, 0, 0, 0], "stateRewards": ["", -2, 3, -1, -9, 44, 48, -37, -3, 71, -39, 87, -1, 3, -4, 4, -21, 59, -15, -8, -1, 28, -38, 2, 4, 4, 8, -85, -72, -63, 14, 58, 63, -46], "withholdReward": false, "trial_id": "mdp_trial_36", "block": "test", "trialIndex": 39, "score": 82, "costs": 0, "simulationMode": [null, null, null, null, null], "rewards": [2, 4, 4, 14, 58], "path": ["0", "0", "23", "24", "25", "30", "31"], "rt": [3644, 113, 148, 58, 198], "actions": ["left", "left", "left", "down", "right"], "actionTimes": [7284, 7909, 8573, 9150, 9858], "queries": {"click": {"state": {"target": [], "time": []}, "edge": {"target": [], "time": []}}, "mouseover": {"state": {"target": [], "time": []}, "edge": {"target": [], "time": []}}, "mouseout": {"state": {"target": ["1", "0", "0", "1", "0"], "time": [2975, 4726, 10625, 10792, 11479]}, "edge": {"target": [], "time": []}}}, "displayed_time": "17.64", "trialTime": 18909, "trial_type": "mouselab-mdp", "trial_index": 50, "time_elapsed": 1543443, "internal_node_id": "0.0-6.0-1.0-35.0"}}, {"uniqueid": "w93219678:a19949151", "current_trial": 51, "dateTime": 1693482566933, "trialdata": {"revealed_states": [], "clicked_states": [], "num_clicks_accrued": [0, 0, 0, 0, 0, 0, 0, 0, 0, 0, 0, 0, 0], "stateRewards": ["", 2, 3, 8, 11, 25, -80, 6, -4, -56, 84, -23, -2, -4, -3, 4, -51, -9, -61, -15, -64, 67, -35, 1, -1, -7, -6, 83, 59, -15, 12, -79, 56, 41], "withholdReward": false, "trial_id": "mdp_trial_37", "block": "test", "trialIndex": 40, "score": -28, "costs": 0, "simulationMode": [null, null, null, null, null], "rewards": [1, -1, -7, -6, -15], "path": ["0", "0", "23", "24", "25", "26", "29"], "rt": [1415, 92, 191, 670, 1084], "actions": ["left", "left", "left", "up", "left"], "actionTimes": [4092, 4704, 5402, 6581, 8177], "queries": {"click": {"state": {"target": [], "time": []}, "edge": {"target": [], "time": []}}, "mouseover": {"state": {"target": [], "time": []}, "edge": {"target": [], "time": []}}, "mouseout": {"state": {"target": ["1", "0"], "time": [2142, 11492]}, "edge": {"target": [], "time": []}}}, "displayed_time": "16.68", "trialTime": 17412, "trial_type": "mouselab-mdp", "trial_index": 51, "time_elapsed": 1561127, "internal_node_id": "0.0-6.0-1.0-36.0"}}, {"uniqueid": "w93219678:a19949151", "current_trial": 52, "dateTime": 1693482585415, "trialdata": {"revealed_states": [], "clicked_states": [], "num_clicks_accrued": [0, 0, 0, 0, 0, 0, 0, 0, 0, 0, 0, 0, 0], "stateRewards": ["", 1, 1, -2, 7, -31, -6, 76, 1, -36, -16, -53, 2, 1, 7, 13, -47, -10, 47, -7, 72, 46, -56, -2, -2, -2, 11, -80, 44, 38, 16, 67, 85, -78], "withholdReward": false, "trial_id": "mdp_trial_38", "block": "test", "trialIndex": 41, "score": -24, "costs": 0, "simulationMode": [null, null, null, null, null], "rewards": [2, 1, 7, 13, -47], "path": ["0", "0", "12", "13", "14", "15", "16"], "rt": [1298, 81, 187, 1778, 132], "actions": ["right", "right", "right", "up", "up"], "actionTimes": [4317, 4909, 5618, 7910, 8561], "queries": {"click": {"state": {"target": [], "time": []}, "edge": {"target": [], "time": []}}, "mouseover": {"state": {"target": [], "time": []}, "edge": {"target": [], "time": []}}, "mouseout": {"state": {"target": ["0"], "time": [9641]}, "edge": {"target": [], "time": []}}}, "displayed_time": "17.02", "trialTime": 18196, "trial_type": "mouselab-mdp", "trial_index": 52, "time_elapsed": 1579609, "internal_node_id": "0.0-6.0-1.0-37.0"}}, {"uniqueid": "w93219678:a19949151", "current_trial": 53, "dateTime": 1693482606514, "trialdata": {"revealed_states": [], "clicked_states": [], "num_clicks_accrued": [0, 0, 0, 0, 0, 0, 0, 0, 0, 0, 0, 0, 0], "stateRewards": ["", -2, -1, -5, 10, -36, -70, 68, -9, 86, 71, -10, 2, -4, 7, -7, 66, 44, -66, -13, -69, 43, 15, -2, 2, 6, -13, 62, 57, 50, -10, -69, 42, -72], "withholdReward": false, "trial_id": "mdp_trial_39", "block": "test", "trialIndex": 42, "score": -68, "costs": 0, "simulationMode": [null, null, null, null, null], "rewards": [-2, -1, -5, 10, -70], "path": ["0", "0", "1", "2", "3", "4", "6"], "rt": [2310, 216, 62, 25, 731], "actions": ["up", "up", "up", "right", "right"], "actionTimes": [8613, 9338, 9916, 10461, 11699], "queries": {"click": {"state": {"target": [], "time": []}, "edge": {"target": [], "time": []}}, "mouseover": {"state": {"target": [], "time": []}, "edge": {"target": [], "time": []}}, "mouseout": {"state": {"target": ["0", "1"], "time": [13167, 13335]}, "edge": {"target": [], "time": []}}}, "displayed_time": "20.30", "trialTime": 20823, "trial_type": "mouselab-mdp", "trial_index": 53, "time_elapsed": 1600708, "internal_node_id": "0.0-6.0-1.0-38.0"}}, {"uniqueid": "w93219678:a19949151", "current_trial": 54, "dateTime": 1693482623061, "trialdata": {"revealed_states": [], "clicked_states": [], "num_clicks_accrued": [0, 0, 0, 0, 0, 0, 0, 0, 0, 0, 0, 0, 0], "stateRewards": ["", 2, 4, -5, 7, 81, 35, 6, 11, 14, -72, 42, -1, 2, 3, -7, -77, -44, -40, -15, -85, 51, -32, -2, -1, -5, 7, -74, 47, 52, 16, -49, 48, -46], "withholdReward": false, "trial_id": "mdp_trial_40", "block": "test", "trialIndex": 43, "score": -38, "costs": 0, "simulationMode": [null, null, null, null, null], "rewards": [-2, -1, -5, 16, -46], "path": ["0", "0", "23", "24", "25", "30", "33"], "rt": [1577, 618, 270, 694, 182], "actions": ["left", "left", "left", "down", "left"], "actionTimes": [3309, 4450, 5232, 6443, 7155], "queries": {"click": {"state": {"target": [], "time": []}, "edge": {"target": [], "time": []}}, "mouseover": {"state": {"target": [], "time": []}, "edge": {"target": [], "time": []}}, "mouseout": {"state": {"target": ["1", "0", "0", "1"], "time": [1210, 1908, 8428, 8526]}, "edge": {"target": [], "time": []}}}, "displayed_time": "15.73", "trialTime": 16265, "trial_type": "mouselab-mdp", "trial_index": 54, "time_elapsed": 1617255, "internal_node_id": "0.0-6.0-1.0-39.0"}}, {"uniqueid": "w93219678:a19949151", "current_trial": 55, "dateTime": 1693482690299, "trialdata": {"rt": 67229, "response": {"Q0": "$-16 to 16", "Q1": "$-4 to $4", "Q2": "$-88 to $88", "Q3": "The cost for clicking on nodes varied between nodes.", "Q4": "Very motivated"}, "question_order": [0, 1, 2, 3, 4], "trial_id": "final_quiz_control", "trial_type": "survey-multi-choice", "trial_index": 55, "time_elapsed": 1684493, "internal_node_id": "0.0-6.0-2.0"}}, {"uniqueid": "w93219678:a19949151", "current_trial": 56, "dateTime": 1693482740420, "trialdata": {"rt": 50111, "response": {"Q0": "I checked al, the sides how much money i get", "Q1": "yes i tried", "Q2": "it was very difficult"}, "trial_id": "self_report_control", "trial_type": "survey-text", "trial_index": 56, "time_elapsed": 1734615, "internal_node_id": "0.0-6.0-3.0"}}, {"uniqueid": "w93219678:a19949151", "current_trial": 57, "dateTime": 1693482784069, "trialdata": {"rt": 43645, "response": {"Q0": "Agree", "Q1": "Neither disagree nor agree", "Q2": "Neither disagree nor agree", "Q3": "Disagree", "Q4": "Disagree", "Q5": "Strongly agree", "Q6": "Disagree"}, "question_order": [0, 1, 2, 3, 4, 5, 6], "trial_id": "self_report_2", "trial_type": "survey-multi-choice", "trial_index": 57, "time_elapsed": 1778264, "internal_node_id": "0.0-6.0-4.0"}}, {"uniqueid": "w93219678:a19949151", "current_trial": 58, "dateTime": 1693482803363, "trialdata": {"rt": 19279, "response": {"gender": "female", "age": "40", "colorblind": "0", "effort": "0"}, "trial_type": "survey-html-form", "trial_index": 58, "time_elapsed": 1797558, "internal_node_id": "0.0-6.0-5.0"}}, {"uniqueid": "w93219678:a19949151", "current_trial": 59, "dateTime": 1693482822598, "trialdata": {"rt": 19230, "response": {"Q0": "not at all", "Q1": "no", "Q2": "none"}, "trial_type": "survey-text", "trial_index": 59, "time_elapsed": 1816793, "internal_node_id": "0.0-6.0-6.0"}}, {"uniqueid": "w93219678:a19949151", "current_trial": 60, "dateTime": 1693482831684, "trialdata": {"rt": 9082, "stimulus": "<h1>Completion Code Instructions (1/2)</h1>\n<br><br><br><br>\nYou have reached the end of the experiment! The completion code consists of two parts: (1) a code with 2 characters (2) a code with 6 characters. On this page, you will receive the second part of the code. The first part of the completion code will be on the next page.\n<br><br>\nThe second part of your completion code is: <b>EWEK22</b>\n<br><br>\nPlease note this down. Then, press 'Finish HIT' in order to find the first part of your completion code. Once the data has been saved, you will receive this code either in this window or in the original browser window where you started the experiment.\n", "response": 0, "trial_type": "html-button-response", "trial_index": 60, "time_elapsed": 1825879, "internal_node_id": "0.0-6.0-7.0"}}, {"uniqueid": "w93219678:a19949151", "current_trial": 61, "dateTime": 1693482832698, "trialdata": {"success": true, "trial_type": "fullscreen", "trial_index": 61, "time_elapsed": 1826893, "internal_node_id": "0.0-7.0"}}], "questiondata": {"params": {"CODE": "C6DMOQA6", "MIN_TIME": 14, "inspectCost": 1, "startTime": "Thu Aug 31 2023 13:23:24 GMT+0200 (South Africa Standard Time)", "bonusRate": 0.002, "variance": "1_2_4_8_44", "branching": "31123"}, "final_score": -44}, "eventdata": [{"eventtype": "initialized", "value": null, "timestamp": 1693481003382, "interval": 0}, {"eventtype": "window_resize", "value": [1032, 600], "timestamp": 1693481003382, "interval": 0}, {"eventtype": "window_resize", "value": [1032, 600], "timestamp": 1693481003875, "interval": 493}, {"eventtype": "window_resize", "value": [1280, 720], "timestamp": 1693481019980, "interval": 16105}, {"eventtype": "focus", "value": "off", "timestamp": 1693481532263, "interval": 512283}, {"eventtype": "focus", "value": "on", "timestamp": 1693481532264, "interval": 1}, {"eventtype": "window_resize", "value": [1032, 600], "timestamp": 1693481532471, "interval": 207}, {"eventtype": "window_resize", "value": [1280, 720], "timestamp": 1693481535407, "interval": 2936}, {"eventtype": "window_resize", "value": [1032, 600], "timestamp": 1693482831928, "interval": 1296521}], "useragent": "Mozilla/5.0 (Windows NT 10.0; Win64; x64) AppleWebKit/537.36 (KHTML, like Gecko) Chrome/116.0.0.0 Safari/537.36", "mode": "live", "id": "w93219678:a19949151", "status": "user data saved", "Beginhit": "2023-08-31 11:23:19.373362", "Beginexp": "2023-08-31 11:23:40.887842", "Endhit": "2023-08-31 11:53:53.738117", "psiturkStatus": 3, "browser": "<redacted>", "platform": "windows", "language": "en-GB"}