{"condition": 1, "counterbalance": 0, "assignmentId": "a63677118", "workerId": "w12329079", "hitId": "h77385190", "currenttrial": 13, "bonus": 0, "data": [{"uniqueid": "w12329079:a63677118", "current_trial": 0, "dateTime": 1693660684726, "trialdata": {"success": true, "trial_type": "fullscreen", "trial_index": 0, "time_elapsed": 4143, "internal_node_id": "0.0-0.0"}}, {"uniqueid": "w12329079:a63677118", "current_trial": 1, "dateTime": 1693660697735, "trialdata": {"view_history": [{"page_index": 0, "viewing_time": 12989}], "rt": 12991, "trial_id": "exp_instructions_misaligned", "trial_type": "instructions", "trial_index": 1, "time_elapsed": 17154, "internal_node_id": "0.0-1.0"}}, {"uniqueid": "w12329079:a63677118", "current_trial": 2, "dateTime": 1693660793005, "trialdata": {"view_history": [{"page_index": 0, "viewing_time": 29968}, {"page_index": 1, "viewing_time": 33721}, {"page_index": 2, "viewing_time": 17200}, {"page_index": 3, "viewing_time": 14376}], "rt": 95265, "trial_id": "mouselab_instructions_1_misaligned", "trial_type": "instructions", "trial_index": 2, "time_elapsed": 112424, "internal_node_id": "0.0-2.0-1.0"}}, {"uniqueid": "w12329079:a63677118", "current_trial": 3, "dateTime": 1693660811773, "trialdata": {"revealed_states": [], "clicked_states": [], "num_clicks_accrued": [0, 0, 0, 0, 0, 0, 0, 0, 0, 0, 0, 0, 0], "stateRewards": ["", -10, -10, 10, 10, -10, 10, -10, -10, -10, -10, 10, 10, -10, 10, -10, -10, -10, 10, 10, 10, -10, -10, 10, 10, -10, 10, -10, -10, -10, 10, 10, 10, 10], "withholdReward": false, "trial_id": "practice_1", "block": "test", "trialIndex": 0, "score": 13.5, "costs": 0, "simulationMode": [null, null, null, null, null], "rewards": [10, 10, -10, 10, -10], "path": ["0", "0", "23", "24", "25", "26", "27"], "rt": [3122, 1035, 269, 171, 990], "actions": ["left", "left", "left", "up", "up"], "actionTimes": [6195, 7783, 8571, 9285, 10790], "queries": {"click": {"state": {"target": [], "time": []}, "edge": {"target": [], "time": []}}, "mouseover": {"state": {"target": [], "time": []}, "edge": {"target": [], "time": []}}, "mouseout": {"state": {"target": ["0"], "time": [1068]}, "edge": {"target": [], "time": []}}}, "displayed_time": "11.32", "trialTime": 17856, "trial_type": "mouselab-mdp", "trial_index": 3, "time_elapsed": 131189, "internal_node_id": "0.0-2.0-2.0-0.0"}}, {"uniqueid": "w12329079:a63677118", "current_trial": 4, "dateTime": 1693660828989, "trialdata": {"revealed_states": [], "clicked_states": [], "num_clicks_accrued": [0, 0, 0, 0, 0, 0, 0, 0, 0, 0, 0, 0, 0], "stateRewards": ["", 10, -10, -10, -10, -10, 10, -10, -10, 10, -10, 10, -10, -10, 10, -10, -10, 10, 10, 10, 10, 10, -10, -10, 10, 10, -10, 10, 10, -10, 10, -10, 10, 10], "withholdReward": false, "trial_id": "practice_2", "block": "test", "trialIndex": 1, "score": -6.5, "costs": 0, "simulationMode": [null, null, null, null, null], "rewards": [10, -10, -10, -10, 10], "path": ["0", "0", "1", "2", "3", "8", "11"], "rt": [1832, 100, 188, 44, 250], "actions": ["up", "up", "up", "left", "left"], "actionTimes": [9779, 10418, 11109, 11690, 12456], "queries": {"click": {"state": {"target": [], "time": []}, "edge": {"target": [], "time": []}}, "mouseover": {"state": {"target": [], "time": []}, "edge": {"target": [], "time": []}}, "mouseout": {"state": {"target": [], "time": []}, "edge": {"target": [], "time": []}}}, "displayed_time": "12.98", "trialTime": 16458, "trial_type": "mouselab-mdp", "trial_index": 4, "time_elapsed": 148405, "internal_node_id": "0.0-2.0-2.0-1.0"}}, {"uniqueid": "w12329079:a63677118", "current_trial": 5, "dateTime": 1693660857289, "trialdata": {"view_history": [{"page_index": 0, "viewing_time": 18461}, {"page_index": 1, "viewing_time": 9825}], "rt": 28287, "trial_id": "mouselab_instructions_2_misaligned", "trial_type": "instructions", "trial_index": 5, "time_elapsed": 176708, "internal_node_id": "0.0-2.0-3.0"}}, {"uniqueid": "w12329079:a63677118", "current_trial": 6, "dateTime": 1693660906766, "trialdata": {"rt": 49460, "response": {"Q0": "The cost for clicking on nodes may vary between nodes.", "Q1": "The better I perform the higher my bonus will be.", "Q2": "No, the amount of cash at each node of the web may be different each time.", "Q3": "To get the highest total score.", "Q4": "Any time during the round.", "Q5": "3 seconds"}, "question_order": [0, 1, 2, 3, 4, 5], "correct": {"Q0": "The cost for clicking on nodes may vary between nodes.", "Q1": "The better I perform the higher my bonus will be.", "Q2": "No, the amount of cash at each node of the web may be different each time.", "Q3": "To get the highest total score.", "Q4": "Only before moving the spider.", "Q5": "3 seconds"}, "trial_id": "mouselab_quiz_misaligned", "trial_type": "survey-multi-choice", "trial_index": 6, "time_elapsed": 226185, "internal_node_id": "0.0-2.0-4.0"}}, {"uniqueid": "w12329079:a63677118", "current_trial": 7, "dateTime": 1693660914124, "trialdata": {"success": true, "trial_type": "fullscreen", "trial_index": 7, "time_elapsed": 233543, "internal_node_id": "0.0-2.1-0.1-0.1"}}, {"uniqueid": "w12329079:a63677118", "current_trial": 8, "dateTime": 1693660947812, "trialdata": {"view_history": [{"page_index": 0, "viewing_time": 14532}, {"page_index": 1, "viewing_time": 7568}, {"page_index": 2, "viewing_time": 6368}, {"page_index": 3, "viewing_time": 5208}], "rt": 33677, "trial_id": "mouselab_instructions_1_misaligned", "trial_type": "instructions", "trial_index": 8, "time_elapsed": 267231, "internal_node_id": "0.0-2.1-1.1"}}, {"uniqueid": "w12329079:a63677118", "current_trial": 9, "dateTime": 1693660958494, "trialdata": {"revealed_states": [], "clicked_states": [], "num_clicks_accrued": [0, 0, 0, 0, 0, 0, 0, 0, 0, 0, 0, 0, 0], "stateRewards": ["", -10, -10, 10, 10, -10, 10, -10, -10, -10, -10, 10, 10, -10, 10, -10, -10, -10, 10, 10, 10, -10, -10, 10, 10, -10, 10, -10, -10, -10, 10, 10, 10, 10], "withholdReward": false, "trial_id": "practice_1", "block": "test", "trialIndex": 2, "score": 13.5, "costs": 0, "simulationMode": [null, null, null, null, null], "rewards": [10, 10, -10, 10, -10], "path": ["0", "0", "23", "24", "25", "26", "27"], "rt": [1474, 66, 80, 774, 42], "actions": ["left", "left", "left", "up", "up"], "actionTimes": [3065, 3661, 4302, 5610, 6203], "queries": {"click": {"state": {"target": [], "time": []}, "edge": {"target": [], "time": []}}, "mouseover": {"state": {"target": [], "time": []}, "edge": {"target": [], "time": []}}, "mouseout": {"state": {"target": [], "time": []}, "edge": {"target": [], "time": []}}}, "displayed_time": "6.76", "trialTime": 9967, "trial_type": "mouselab-mdp", "trial_index": 9, "time_elapsed": 277909, "internal_node_id": "0.0-2.1-2.1-0.1"}}, {"uniqueid": "w12329079:a63677118", "current_trial": 10, "dateTime": 1693660969256, "trialdata": {"revealed_states": [], "clicked_states": [], "num_clicks_accrued": [0, 0, 0, 0, 0, 0, 0, 0, 0, 0, 0, 0, 0], "stateRewards": ["", 10, -10, -10, -10, -10, 10, -10, -10, 10, -10, 10, -10, -10, 10, -10, -10, 10, 10, 10, 10, 10, -10, -10, 10, 10, -10, 10, 10, -10, 10, -10, 10, 10], "withholdReward": false, "trial_id": "practice_2", "block": "test", "trialIndex": 3, "score": -26.5, "costs": 0, "simulationMode": [null, null, null, null, null], "rewards": [-10, -10, 10, -10, -10], "path": ["0", "0", "12", "13", "14", "15", "16"], "rt": [1776, 688, 148, 170, 114], "actions": ["right", "right", "right", "up", "up"], "actionTimes": [3629, 4832, 5518, 6206, 6859], "queries": {"click": {"state": {"target": [], "time": []}, "edge": {"target": [], "time": []}}, "mouseover": {"state": {"target": ["0"], "time": [2517]}, "edge": {"target": [], "time": []}}, "mouseout": {"state": {"target": ["0"], "time": [2166]}, "edge": {"target": [], "time": []}}}, "displayed_time": "7.39", "trialTime": 10016, "trial_type": "mouselab-mdp", "trial_index": 10, "time_elapsed": 288673, "internal_node_id": "0.0-2.1-2.1-1.1"}}, {"uniqueid": "w12329079:a63677118", "current_trial": 11, "dateTime": 1693660977094, "trialdata": {"view_history": [{"page_index": 0, "viewing_time": 5109}, {"page_index": 1, "viewing_time": 2712}], "rt": 7822, "trial_id": "mouselab_instructions_2_misaligned", "trial_type": "instructions", "trial_index": 11, "time_elapsed": 296513, "internal_node_id": "0.0-2.1-3.1"}}, {"uniqueid": "w12329079:a63677118", "current_trial": 12, "dateTime": 1693661014704, "trialdata": {"rt": 37604, "response": {"Q0": "There is no cost for clicking on nodes.", "Q1": "The better I perform the higher my bonus will be.", "Q2": "No, the amount of cash at each node of the web may be different each time.", "Q3": "To get the highest total score.", "Q4": "Only after moving the spider.", "Q5": "3 seconds"}, "question_order": [0, 1, 2, 3, 4, 5], "correct": {"Q0": "The cost for clicking on nodes may vary between nodes.", "Q1": "The better I perform the higher my bonus will be.", "Q2": "No, the amount of cash at each node of the web may be different each time.", "Q3": "To get the highest total score.", "Q4": "Only before moving the spider.", "Q5": "3 seconds"}, "trial_id": "mouselab_quiz_misaligned", "trial_type": "survey-multi-choice", "trial_index": 12, "time_elapsed": 334123, "internal_node_id": "0.0-2.1-4.1"}}], "questiondata": {"params": {"CODE": "C6DMOQA6", "MIN_TIME": 14, "inspectCost": 1, "startTime": "Sat Sep 02 2023 14:17:59 GMT+0100 (British Summer Time)", "bonusRate": 0.002, "variance": "1_2_4_8_44", "branching": "31123"}}, "eventdata": [{"eventtype": "initialized", "value": null, "timestamp": 1693660679403, "interval": 0}, {"eventtype": "window_resize", "value": [1024, 654], "timestamp": 1693660679403, "interval": 0}, {"eventtype": "window_resize", "value": [1024, 654], "timestamp": 1693660679730, "interval": 327}, {"eventtype": "window_resize", "value": [1366, 768], "timestamp": 1693660683992, "interval": 4262}, {"eventtype": "focus", "value": "off", "timestamp": 1693660911689, "interval": 227697}, {"eventtype": "focus", "value": "on", "timestamp": 1693660911690, "interval": 1}, {"eventtype": "window_resize", "value": [1024, 654], "timestamp": 1693660911912, "interval": 222}, {"eventtype": "window_resize", "value": [1366, 768], "timestamp": 1693660913385, "interval": 1473}, {"eventtype": "focus", "value": "off", "timestamp": 1693661017087, "interval": 103702}, {"eventtype": "focus", "value": "on", "timestamp": 1693661017088, "interval": 1}, {"eventtype": "window_resize", "value": [1024, 654], "timestamp": 1693661017313, "interval": 225}], "useragent": "Mozilla/5.0 (Windows NT 10.0; Win64; x64) AppleWebKit/537.36 (KHTML, like Gecko) Chrome/116.0.0.0 Safari/537.36", "mode": "live", "id": "w12329079:a63677118", "status": "user data saved", "Beginhit": "2023-09-02 13:17:59.513914", "Beginexp": "2023-09-02 13:18:06.31752", "Endhit": null, "psiturkStatus": 6, "browser": "<redacted>", "platform": "windows", "language": "en-GB", "excludeReason": "quizfail"}