{"condition": 0, "counterbalance": 0, "assignmentId": "a79005631", "workerId": "w15585591", "hitId": "h20330469", "currenttrial": 36, "bonus": 0, "data": [{"uniqueid": "w15585591:a79005631", "current_trial": 0, "dateTime": 1691159517066, "trialdata": {"success": true, "trial_type": "fullscreen", "trial_index": 0, "time_elapsed": 65561, "internal_node_id": "0.0-0.0"}}, {"uniqueid": "w15585591:a79005631", "current_trial": 1, "dateTime": 1691159587158, "trialdata": {"view_history": [{"page_index": 0, "viewing_time": 70070}], "rt": 70073, "trial_id": "exp_instructions_control", "trial_type": "instructions", "trial_index": 1, "time_elapsed": 135655, "internal_node_id": "0.0-1.0"}}, {"uniqueid": "w15585591:a79005631", "current_trial": 2, "dateTime": 1691159592363, "trialdata": {"success": true, "trial_type": "fullscreen", "trial_index": 2, "time_elapsed": 140860, "internal_node_id": "0.0-2.0-0.0"}}, {"uniqueid": "w15585591:a79005631", "current_trial": 3, "dateTime": 1691159862974, "trialdata": {"view_history": [{"page_index": 0, "viewing_time": 126324}, {"page_index": 1, "viewing_time": 93771}, {"page_index": 2, "viewing_time": 18001}, {"page_index": 3, "viewing_time": 32505}], "rt": 270602, "trial_id": "mouselab_instructions_1_control", "trial_type": "instructions", "trial_index": 3, "time_elapsed": 411471, "internal_node_id": "0.0-2.0-1.0"}}, {"uniqueid": "w15585591:a79005631", "current_trial": 4, "dateTime": 1691159911990, "trialdata": {"revealed_states": [], "clicked_states": [], "num_clicks_accrued": [0, 0, 0, 0, 0, 0, 0, 0, 0, 0, 0, 0, 0], "stateRewards": ["", -10, -10, 10, 10, 10, -10, 10, 10, -10, -10, 10, 10, 10, 10, -10, 10, -10, -10, -10, 10, -10, -10, -10, 10, 10, 10, -10, -10, 10, 10, -10, -10, -10], "withholdReward": false, "trial_id": "practice_1", "block": "test", "trialIndex": 0, "score": -6.5, "costs": 0, "simulationMode": [null, null, null, null, null], "rewards": [-10, -10, 10, 10, -10], "path": ["0", "0", "1", "2", "3", "8", "9"], "rt": [19592, 842, 452, 405, 1018], "actions": ["up", "up", "up", "left", "up"], "actionTimes": [27277, 28676, 29668, 30619, 32183], "queries": {"click": {"state": {"target": [], "time": []}, "edge": {"target": [], "time": []}}, "mouseover": {"state": {"target": ["1", "12", "0"], "time": [17225, 23891, 25837]}, "edge": {"target": [], "time": []}}, "mouseout": {"state": {"target": ["0", "1", "12", "0"], "time": [5909, 23398, 25474, 26038]}, "edge": {"target": [], "time": []}}}, "displayed_time": "32.73", "trialTime": 46425, "trial_type": "mouselab-mdp", "trial_index": 4, "time_elapsed": 460485, "internal_node_id": "0.0-2.0-2.0-0.0"}}, {"uniqueid": "w15585591:a79005631", "current_trial": 5, "dateTime": 1691159941509, "trialdata": {"revealed_states": [], "clicked_states": [], "num_clicks_accrued": [0, 0, 0, 0, 0, 0, 0, 0, 0, 0, 0, 0, 0], "stateRewards": ["", -10, -10, -10, 10, 10, -10, 10, 10, -10, 10, 10, -10, 10, -10, 10, -10, 10, -10, -10, -10, -10, -10, -10, 10, 10, 10, -10, -10, -10, -10, -10, 10, -10], "withholdReward": false, "trial_id": "practice_2", "block": "test", "trialIndex": 1, "score": -26.5, "costs": 0, "simulationMode": [null, null, null, null, null], "rewards": [-10, 10, -10, -10, -10], "path": ["0", "0", "12", "13", "14", "19", "21"], "rt": [3263, 332, 330, 1117, 273], "actions": ["right", "right", "right", "down", "down"], "actionTimes": [6822, 7677, 8569, 10224, 11015], "queries": {"click": {"state": {"target": [], "time": []}, "edge": {"target": [], "time": []}}, "mouseover": {"state": {"target": [], "time": []}, "edge": {"target": [], "time": []}}, "mouseout": {"state": {"target": ["0", "0"], "time": [1553, 22547]}, "edge": {"target": [], "time": []}}}, "displayed_time": "11.56", "trialTime": 27967, "trial_type": "mouselab-mdp", "trial_index": 5, "time_elapsed": 490005, "internal_node_id": "0.0-2.0-2.0-1.0"}}, {"uniqueid": "w15585591:a79005631", "current_trial": 6, "dateTime": 1691159989689, "trialdata": {"view_history": [{"page_index": 0, "viewing_time": 34372}, {"page_index": 1, "viewing_time": 13793}], "rt": 48166, "trial_id": "mouselab_instructions_2_control", "trial_type": "instructions", "trial_index": 6, "time_elapsed": 538186, "internal_node_id": "0.0-2.0-3.0"}}, {"uniqueid": "w15585591:a79005631", "current_trial": 7, "dateTime": 1691160077077, "trialdata": {"rt": 87291, "response": {"Q0": "The cost for clicking on nodes may vary between nodes.", "Q1": "The better I perform the higher my bonus will be.", "Q2": "No, the structure of the web will be different each time.", "Q3": "To get the highest total score.", "Q4": "Any time during the round.", "Q5": "3 seconds"}, "question_order": [0, 1, 2, 3, 4, 5], "correct": {"Q0": "The cost for clicking on nodes may vary between nodes.", "Q1": "The better I perform the higher my bonus will be.", "Q2": "No, the amount of cash at each node of the web may be different each time.", "Q3": "To get the highest total score.", "Q4": "Only before moving the spider.", "Q5": "3 seconds"}, "trial_id": "mouselab_quiz_control", "trial_type": "survey-multi-choice", "trial_index": 7, "time_elapsed": 625574, "internal_node_id": "0.0-2.0-4.0"}}, {"uniqueid": "w15585591:a79005631", "current_trial": 8, "dateTime": 1691160089749, "trialdata": {"success": true, "trial_type": "fullscreen", "trial_index": 8, "time_elapsed": 638246, "internal_node_id": "0.0-2.1-0.1"}}, {"uniqueid": "w15585591:a79005631", "current_trial": 9, "dateTime": 1691160281495, "trialdata": {"view_history": [{"page_index": 0, "viewing_time": 147861}, {"page_index": 1, "viewing_time": 22858}, {"page_index": 2, "viewing_time": 5735}, {"page_index": 3, "viewing_time": 15278}], "rt": 191735, "trial_id": "mouselab_instructions_1_control", "trial_type": "instructions", "trial_index": 9, "time_elapsed": 829991, "internal_node_id": "0.0-2.1-1.1"}}, {"uniqueid": "w15585591:a79005631", "current_trial": 10, "dateTime": 1691160315678, "trialdata": {"revealed_states": [], "clicked_states": ["23"], "num_clicks_accrued": [0, 0, 0, 0, 0, 0, 0, 0, 0, 0, 0, 0, 0], "stateRewards": ["", -10, -10, 10, 10, 10, -10, 10, 10, -10, -10, 10, 10, 10, 10, -10, 10, -10, -10, -10, 10, -10, -10, -10, 10, 10, 10, -10, -10, 10, 10, -10, -10, -10], "withholdReward": false, "trial_id": "practice_1", "block": "test", "trialIndex": 2, "score": 33, "costs": -0.5, "simulationMode": [null, null, null, null, null], "rewards": [10, 10, 10, -10, 10], "path": ["0", "0", "12", "13", "14", "15", "16"], "rt": [12283, 1136, 385, 785, 303], "actions": ["right", "right", "right", "up", "up"], "actionTimes": [20850, 22510, 23441, 24781, 25632], "queries": {"click": {"state": {"target": ["23"], "time": [12615]}, "edge": {"target": [], "time": []}}, "mouseover": {"state": {"target": ["23", "23", "0", "12"], "time": [11674, 17722, 18386, 19075]}, "edge": {"target": [], "time": []}}, "mouseout": {"state": {"target": ["22", "20", "0", "23", "23", "0", "12", "19"], "time": [2046, 4202, 11556, 15422, 18157, 19037, 28487, 28532]}, "edge": {"target": [], "time": []}}}, "displayed_time": "26.17", "trialTime": 32647, "trial_type": "mouselab-mdp", "trial_index": 10, "time_elapsed": 864172, "internal_node_id": "0.0-2.1-2.1-0.1"}}, {"uniqueid": "w15585591:a79005631", "current_trial": 11, "dateTime": 1691160341103, "trialdata": {"revealed_states": [], "clicked_states": ["12"], "num_clicks_accrued": [0, 0, 0, 0, 0, 0, 0, 0, 0, 0, 0, 0, 0], "stateRewards": ["", -10, -10, -10, 10, 10, -10, 10, 10, -10, 10, 10, -10, 10, -10, 10, -10, 10, -10, -10, -10, -10, -10, -10, 10, 10, 10, -10, -10, -10, -10, -10, 10, -10], "withholdReward": false, "trial_id": "practice_2", "block": "test", "trialIndex": 3, "score": -7, "costs": -0.5, "simulationMode": [null, null, null, null, null], "rewards": [-10, -10, -10, 10, 10], "path": ["0", "0", "1", "2", "3", "4", "5"], "rt": [5546, 1251, 947, 1820, 2153], "actions": ["up", "up", "up", "right", "up"], "actionTimes": [9401, 11213, 12690, 15067, 17765], "queries": {"click": {"state": {"target": ["12"], "time": [6063]}, "edge": {"target": [], "time": []}}, "mouseover": {"state": {"target": ["12", "1"], "time": [5408, 7769]}, "edge": {"target": [], "time": []}}, "mouseout": {"state": {"target": ["12", "1", "14"], "time": [7033, 20472, 20571]}, "edge": {"target": [], "time": []}}}, "displayed_time": "18.32", "trialTime": 23825, "trial_type": "mouselab-mdp", "trial_index": 11, "time_elapsed": 889599, "internal_node_id": "0.0-2.1-2.1-1.1"}}, {"uniqueid": "w15585591:a79005631", "current_trial": 12, "dateTime": 1691160354032, "trialdata": {"view_history": [{"page_index": 0, "viewing_time": 10783}, {"page_index": 1, "viewing_time": 2131}], "rt": 12916, "trial_id": "mouselab_instructions_2_control", "trial_type": "instructions", "trial_index": 12, "time_elapsed": 902529, "internal_node_id": "0.0-2.1-3.1"}}, {"uniqueid": "w15585591:a79005631", "current_trial": 13, "dateTime": 1691160422657, "trialdata": {"rt": 68613, "response": {"Q0": "The cost for clicking on nodes may vary between nodes.", "Q1": "The better I perform the higher my bonus will be.", "Q2": "No, the structure of the web will be different each time.", "Q3": "To get the highest total score.", "Q4": "Only before moving the spider.", "Q5": "3 seconds"}, "question_order": [0, 1, 2, 3, 4, 5], "correct": {"Q0": "The cost for clicking on nodes may vary between nodes.", "Q1": "The better I perform the higher my bonus will be.", "Q2": "No, the amount of cash at each node of the web may be different each time.", "Q3": "To get the highest total score.", "Q4": "Only before moving the spider.", "Q5": "3 seconds"}, "trial_id": "mouselab_quiz_control", "trial_type": "survey-multi-choice", "trial_index": 13, "time_elapsed": 971154, "internal_node_id": "0.0-2.1-4.1"}}, {"uniqueid": "w15585591:a79005631", "current_trial": 14, "dateTime": 1691160440327, "trialdata": {"success": true, "trial_type": "fullscreen", "trial_index": 14, "time_elapsed": 988824, "internal_node_id": "0.0-2.2-0.2"}}, {"uniqueid": "w15585591:a79005631", "current_trial": 15, "dateTime": 1691160623729, "trialdata": {"view_history": [{"page_index": 0, "viewing_time": 24579}, {"page_index": 1, "viewing_time": 46903}, {"page_index": 2, "viewing_time": 46556}, {"page_index": 3, "viewing_time": 65351}], "rt": 183391, "trial_id": "mouselab_instructions_1_control", "trial_type": "instructions", "trial_index": 15, "time_elapsed": 1172225, "internal_node_id": "0.0-2.2-1.2"}}, {"uniqueid": "w15585591:a79005631", "current_trial": 16, "dateTime": 1691160651477, "trialdata": {"revealed_states": [], "clicked_states": [], "num_clicks_accrued": [0, 0, 0, 0, 0, 0, 0, 0, 0, 0, 0, 0, 0], "stateRewards": ["", -10, -10, 10, 10, 10, -10, 10, 10, -10, -10, 10, 10, 10, 10, -10, 10, -10, -10, -10, 10, -10, -10, -10, 10, 10, 10, -10, -10, 10, 10, -10, -10, -10], "withholdReward": false, "trial_id": "practice_1", "block": "test", "trialIndex": 4, "score": -6.5, "costs": 0, "simulationMode": [null, null, null, null, null], "rewards": [-10, -10, 10, 10, -10], "path": ["0", "0", "1", "2", "3", "8", "9"], "rt": [4636, 1558, 1603, 1479, 1010], "actions": ["up", "up", "up", "left", "up"], "actionTimes": [10300, 12416, 14548, 16565, 18115], "queries": {"click": {"state": {"target": [], "time": []}, "edge": {"target": [], "time": []}}, "mouseover": {"state": {"target": ["1"], "time": [9012]}, "edge": {"target": [], "time": []}}, "mouseout": {"state": {"target": ["0", "1", "21"], "time": [8916, 21612, 22117]}, "edge": {"target": [], "time": []}}}, "displayed_time": "18.65", "trialTime": 26045, "trial_type": "mouselab-mdp", "trial_index": 16, "time_elapsed": 1199972, "internal_node_id": "0.0-2.2-2.2-0.2"}}, {"uniqueid": "w15585591:a79005631", "current_trial": 17, "dateTime": 1691160695610, "trialdata": {"revealed_states": [], "clicked_states": ["12", "23", "1", "2", "3", "5", "9", "21", "32"], "num_clicks_accrued": [0, 0, 0, 0, 0, 0, 0, 0, 0, 0, 0, 0, 0], "stateRewards": ["", -10, -10, -10, 10, 10, -10, 10, 10, -10, 10, 10, -10, 10, -10, 10, -10, 10, -10, -10, -10, -10, -10, -10, 10, 10, 10, -10, -10, -10, -10, -10, 10, -10], "withholdReward": false, "trial_id": "practice_2", "block": "test", "trialIndex": 5, "score": -11, "costs": -4.5, "simulationMode": [null, null, null, null, null], "rewards": [-10, -10, -10, 10, 10], "path": ["0", "0", "1", "2", "3", "4", "5"], "rt": [23346, 408, 119, 831, 1104], "actions": ["up", "up", "up", "right", "up"], "actionTimes": [28003, 28941, 29615, 30998, 32650], "queries": {"click": {"state": {"target": ["12", "23", "1", "2", "3", "5", "9", "21", "32"], "time": [7115, 9885, 13417, 15509, 16910, 18890, 20505, 23719, 25683]}, "edge": {"target": [], "time": []}}, "mouseover": {"state": {"target": ["12", "0", "23", "1", "2", "3", "5", "5", "9", "8", "7", "18", "19", "21", "32", "1"], "time": [6325, 8805, 9020, 12682, 14941, 16342, 17978, 18286, 19997, 21775, 21938, 22354, 22570, 23143, 25087, 26972]}, "edge": {"target": [], "time": []}}, "mouseout": {"state": {"target": ["12", "12", "0", "23", "1", "2", "3", "5", "5", "5", "9", "8", "7", "18", "19", "21", "32", "1", "1", "21"], "time": [2585, 8759, 8917, 12321, 14874, 15654, 17852, 18036, 19021, 19797, 21721, 21826, 21983, 22410, 22675, 24517, 26613, 27071, 38987, 39488]}, "edge": {"target": [], "time": []}}}, "displayed_time": "33.19", "trialTime": 42302, "trial_type": "mouselab-mdp", "trial_index": 17, "time_elapsed": 1244104, "internal_node_id": "0.0-2.2-2.2-1.2"}}, {"uniqueid": "w15585591:a79005631", "current_trial": 18, "dateTime": 1691160710404, "trialdata": {"view_history": [{"page_index": 0, "viewing_time": 12275}, {"page_index": 1, "viewing_time": 2506}], "rt": 14782, "trial_id": "mouselab_instructions_2_control", "trial_type": "instructions", "trial_index": 18, "time_elapsed": 1258901, "internal_node_id": "0.0-2.2-3.2"}}, {"uniqueid": "w15585591:a79005631", "current_trial": 19, "dateTime": 1691160793807, "trialdata": {"rt": 83390, "response": {"Q0": "The cost for clicking on nodes may vary between nodes.", "Q1": "The better I perform the higher my bonus will be.", "Q2": "No, the amount of cash at each node of the web may be different each time.", "Q3": "To get the highest total score.", "Q4": "Only before moving the spider.", "Q5": "3 seconds"}, "question_order": [0, 1, 2, 3, 4, 5], "correct": {"Q0": "The cost for clicking on nodes may vary between nodes.", "Q1": "The better I perform the higher my bonus will be.", "Q2": "No, the amount of cash at each node of the web may be different each time.", "Q3": "To get the highest total score.", "Q4": "Only before moving the spider.", "Q5": "3 seconds"}, "trial_id": "mouselab_quiz_control", "trial_type": "survey-multi-choice", "trial_index": 19, "time_elapsed": 1342304, "internal_node_id": "0.0-2.2-4.2"}}, {"uniqueid": "w15585591:a79005631", "current_trial": 20, "dateTime": 1691160800478, "trialdata": {"rt": 6638, "stimulus": "\n<h1> Get ready to start the game! </h1>\n\nThank you for reading the instructions. Get ready start with the 40 rounds of this game.\n<br><br>\nIf you need to take a break, feel free to take one after the end of a round, before continuing to the next one.\n<br><br>\nRemember, the more money the spider gets, the bigger your bonus will be!\n<br><br>\n<div style='text-align: center;'>Press <code>space</code> to begin.</div>\n\n<br><br>\n(If, at any point, the <code>space</code> key does not take you to the next page, click once on the text and try again.)", "response": " ", "trial_id": "mdp_ready", "trial_type": "html-keyboard-response", "trial_index": 20, "time_elapsed": 1348975, "internal_node_id": "0.0-4.0-0.0"}}, {"uniqueid": "w15585591:a79005631", "current_trial": 21, "dateTime": 1691160841604, "trialdata": {"revealed_states": [], "clicked_states": ["5", "9", "32", "21", "27", "16"], "num_clicks_accrued": [0, 0, 0, 0, 0, 0, 0, 0, 0, 0, 0, 0, 0], "stateRewards": ["", -1, -1, 7, -15, -43, -21, -84, -9, -45, -66, 2, 1, -2, 2, 8, -27, 44, -52, -5, -84, 11, 53, 1, 4, -4, 16, 83, -82, -15, -16, 68, -43, 81], "withholdReward": false, "trial_id": "mdp_trial_1", "block": "test", "trialIndex": 6, "score": -61.4, "costs": -8.4, "simulationMode": [null, null, null, null, null], "rewards": [-1, -1, 7, -15, -43], "path": ["0", "0", "1", "2", "3", "4", "5"], "rt": [22081, 180, 1053, 97, 947], "actions": ["up", "up", "up", "right", "up"], "actionTimes": [28240, 28961, 30580, 31213, 32712], "queries": {"click": {"state": {"target": ["5", "9", "32", "21", "27", "16"], "time": [8744, 10695, 14187, 16011, 18548, 21041]}, "edge": {"target": [], "time": []}}, "mouseover": {"state": {"target": ["1", "5", "5", "9", "8", "28", "32", "21", "24", "29", "27", "7", "16", "0", "0", "1"], "time": [7546, 7632, 8091, 9877, 12203, 12352, 13625, 15433, 17023, 17397, 18059, 19211, 19435, 22456, 22846, 24047]}, "edge": {"target": [], "time": []}}, "mouseout": {"state": {"target": ["19", "0", "1", "5", "5", "9", "8", "28", "32", "21", "24", "29", "27", "7", "16", "0", "0", "1", "14", "20"], "time": [3504, 4303, 7588, 7673, 8862, 10857, 12303, 12405, 14939, 16892, 17298, 17701, 19111, 19267, 22348, 22521, 22941, 35719, 35778, 36129]}, "edge": {"target": [], "time": []}}}, "displayed_time": "33.27", "trialTime": 39080, "trial_type": "mouselab-mdp", "trial_index": 21, "time_elapsed": 1390099, "internal_node_id": "0.0-4.0-1.0-0.0"}}, {"uniqueid": "w15585591:a79005631", "current_trial": 22, "dateTime": 1691160868718, "trialdata": {"revealed_states": [], "clicked_states": ["24", "25", "13"], "num_clicks_accrued": [0, 0, 0, 0, 0, 0, 0, 0, 0, 0, 0, 0, 0], "stateRewards": ["", 1, 2, 8, -2, 23, -69, -18, -16, 54, -21, 71, -1, -4, 7, 11, 43, -6, 88, 6, -55, 72, 43, 1, -3, -2, -1, 68, -31, -54, 4, -8, 25, -2], "withholdReward": false, "trial_id": "mdp_trial_2", "block": "test", "trialIndex": 7, "score": 58.8, "costs": -4.199999999999999, "simulationMode": [null, null, null, null, null], "rewards": [1, -3, -2, -1, 68], "path": ["0", "0", "23", "24", "25", "26", "27"], "rt": [12851, 22, 113, 268, 457], "actions": ["left", "left", "left", "up", "up"], "actionTimes": [17162, 17709, 18374, 19188, 20200], "queries": {"click": {"state": {"target": ["24", "25", "13"], "time": [6261, 8016, 11290]}, "edge": {"target": [], "time": []}}, "mouseover": {"state": {"target": ["23", "24", "25", "26", "28", "1", "12", "13", "12"], "time": [5223, 5590, 7212, 9616, 10131, 10218, 10296, 10711, 13208]}, "edge": {"target": [], "time": []}}, "mouseout": {"state": {"target": ["0", "23", "24", "25", "26", "28", "1", "12", "13", "12", "0"], "time": [2316, 5259, 7137, 8135, 10073, 10166, 10262, 10654, 13153, 13293, 22087]}, "edge": {"target": [], "time": []}}}, "displayed_time": "20.74", "trialTime": 24887, "trial_type": "mouselab-mdp", "trial_index": 22, "time_elapsed": 1417214, "internal_node_id": "0.0-4.0-1.0-1.0"}}, {"uniqueid": "w15585591:a79005631", "current_trial": 23, "dateTime": 1691160896061, "trialdata": {"revealed_states": [], "clicked_states": [], "num_clicks_accrued": [0, 0, 0, 0, 0, 0, 0, 0, 0, 0, 0, 0, 0], "stateRewards": ["", 1, -2, 7, -14, 88, -56, -44, -14, 64, -51, -57, -2, 3, -4, -9, -11, 19, -77, -1, 68, 75, -67, -1, 1, -2, 5, -37, 70, -34, -10, -72, 63, -41], "withholdReward": false, "trial_id": "mdp_trial_3", "block": "test", "trialIndex": 8, "score": 56, "costs": 0, "simulationMode": [null, null, null, null, null], "rewards": [1, -2, 7, -14, 64], "path": ["0", "0", "1", "2", "3", "8", "9"], "rt": [5250, 211, 2498, 506, 695], "actions": ["up", "up", "up", "left", "up"], "actionTimes": [8533, 9268, 12297, 13333, 14573], "queries": {"click": {"state": {"target": [], "time": []}, "edge": {"target": [], "time": []}}, "mouseover": {"state": {"target": [], "time": []}, "edge": {"target": [], "time": []}}, "mouseout": {"state": {"target": ["0", "23", "10", "11", "8", "17"], "time": [18171, 18438, 18904, 21841, 21876, 22340]}, "edge": {"target": [], "time": []}}}, "displayed_time": "17.28", "trialTime": 25244, "trial_type": "mouselab-mdp", "trial_index": 23, "time_elapsed": 1444556, "internal_node_id": "0.0-4.0-1.0-2.0"}}, {"uniqueid": "w15585591:a79005631", "current_trial": 24, "dateTime": 1691160920730, "trialdata": {"revealed_states": [], "clicked_states": [], "num_clicks_accrued": [0, 0, 0, 0, 0, 0, 0, 0, 0, 0, 0, 0, 0], "stateRewards": ["", 2, 3, -6, -5, -3, 55, 40, 11, 61, 11, 51, 2, -4, -6, 9, -25, 29, -15, -6, 7, -77, -2, -2, -4, 1, 14, -43, -1, 56, -12, -54, 41, -74], "withholdReward": false, "trial_id": "mdp_trial_4", "block": "test", "trialIndex": 9, "score": -34, "costs": 0, "simulationMode": [null, null, null, null, null], "rewards": [-2, -4, 1, 14, -43], "path": ["0", "0", "23", "24", "25", "26", "27"], "rt": [3164, 493, 170, 442, 1472], "actions": ["left", "left", "left", "up", "up"], "actionTimes": [9568, 10607, 11319, 12285, 14291], "queries": {"click": {"state": {"target": [], "time": []}, "edge": {"target": [], "time": []}}, "mouseover": {"state": {"target": [], "time": []}, "edge": {"target": [], "time": []}}, "mouseout": {"state": {"target": ["0"], "time": [18077]}, "edge": {"target": [], "time": []}}}, "displayed_time": "20.41", "trialTime": 22454, "trial_type": "mouselab-mdp", "trial_index": 24, "time_elapsed": 1469225, "internal_node_id": "0.0-4.0-1.0-3.0"}}, {"uniqueid": "w15585591:a79005631", "current_trial": 25, "dateTime": 1691160942916, "trialdata": {"revealed_states": [], "clicked_states": [], "num_clicks_accrued": [0, 0, 0, 0, 0, 0, 0, 0, 0, 0, 0, 0, 0], "stateRewards": ["", 1, 2, -5, 14, 54, -14, -25, 16, -5, -87, 78, -1, 1, 3, -3, 52, 53, 53, -10, 73, -69, -48, 2, 3, 1, 8, -62, -7, 85, 7, 82, 52, -28], "withholdReward": false, "trial_id": "mdp_trial_5", "block": "test", "trialIndex": 10, "score": -76, "costs": 0, "simulationMode": [null, null, null, null, null], "rewards": [-1, 1, 3, -10, -69], "path": ["0", "0", "12", "13", "14", "19", "21"], "rt": [4449, 80, 174, 1269, 79], "actions": ["right", "right", "right", "down", "down"], "actionTimes": [7650, 8273, 8974, 10773, 11404], "queries": {"click": {"state": {"target": [], "time": []}, "edge": {"target": [], "time": []}}, "mouseover": {"state": {"target": [], "time": []}, "edge": {"target": [], "time": []}}, "mouseout": {"state": {"target": ["0", "13", "14"], "time": [14607, 14677, 14748]}, "edge": {"target": [], "time": []}}}, "displayed_time": "17.20", "trialTime": 19921, "trial_type": "mouselab-mdp", "trial_index": 25, "time_elapsed": 1491411, "internal_node_id": "0.0-4.0-1.0-4.0"}}, {"uniqueid": "w15585591:a79005631", "current_trial": 26, "dateTime": 1691160967152, "trialdata": {"revealed_states": [], "clicked_states": [], "num_clicks_accrued": [0, 0, 0, 0, 0, 0, 0, 0, 0, 0, 0, 0, 0], "stateRewards": ["", -1, -4, 8, 8, -68, 47, 24, -7, -61, 49, -69, -1, -1, 8, -7, 42, 1, -45, -11, 10, -63, -6, 1, 4, 6, -16, 79, -37, -58, -12, 81, 18, -53], "withholdReward": false, "trial_id": "mdp_trial_6", "block": "test", "trialIndex": 11, "score": -57, "costs": 0, "simulationMode": [null, null, null, null, null], "rewards": [-1, -4, 8, 8, -68], "path": ["0", "0", "1", "2", "3", "4", "5"], "rt": [3455, 278, 249, 498, 600], "actions": ["up", "up", "up", "right", "up"], "actionTimes": [8222, 9028, 9824, 10850, 11990], "queries": {"click": {"state": {"target": [], "time": []}, "edge": {"target": [], "time": []}}, "mouseover": {"state": {"target": [], "time": []}, "edge": {"target": [], "time": []}}, "mouseout": {"state": {"target": ["14", "23", "0", "14"], "time": [1726, 2518, 18414, 18470]}, "edge": {"target": [], "time": []}}}, "displayed_time": "18.77", "trialTime": 21957, "trial_type": "mouselab-mdp", "trial_index": 26, "time_elapsed": 1515647, "internal_node_id": "0.0-4.0-1.0-5.0"}}, {"uniqueid": "w15585591:a79005631", "current_trial": 27, "dateTime": 1691160988999, "trialdata": {"revealed_states": [], "clicked_states": [], "num_clicks_accrued": [0, 0, 0, 0, 0, 0, 0, 0, 0, 0, 0, 0, 0], "stateRewards": ["", -1, -3, -7, -7, -76, 30, -49, 11, -70, 56, 2, 1, 4, -3, -14, -59, -83, -25, -9, -21, -67, -73, -2, 4, 4, -9, -11, -32, 60, 9, -87, 22, -64], "withholdReward": false, "trial_id": "mdp_trial_7", "block": "test", "trialIndex": 12, "score": 57, "costs": 0, "simulationMode": [null, null, null, null, null], "rewards": [-2, 4, 4, -9, 60], "path": ["0", "0", "23", "24", "25", "26", "29"], "rt": [4367, 221, 1565, 775, 221], "actions": ["left", "left", "left", "up", "left"], "actionTimes": [7684, 8451, 10550, 11875, 12634], "queries": {"click": {"state": {"target": [], "time": []}, "edge": {"target": [], "time": []}}, "mouseover": {"state": {"target": [], "time": []}, "edge": {"target": [], "time": []}}, "mouseout": {"state": {"target": ["0", "0", "12"], "time": [1346, 15585, 15638]}, "edge": {"target": [], "time": []}}}, "displayed_time": "17.32", "trialTime": 19457, "trial_type": "mouselab-mdp", "trial_index": 27, "time_elapsed": 1537494, "internal_node_id": "0.0-4.0-1.0-6.0"}}, {"uniqueid": "w15585591:a79005631", "current_trial": 28, "dateTime": 1691161012357, "trialdata": {"revealed_states": [], "clicked_states": [], "num_clicks_accrued": [0, 0, 0, 0, 0, 0, 0, 0, 0, 0, 0, 0, 0], "stateRewards": ["", -1, 2, -2, 13, -56, -28, 10, 14, 53, -80, -29, 1, -3, -3, -14, 14, 9, -40, -9, 18, 18, 48, 1, 1, 1, -9, 64, -39, -9, 7, -52, -78, 7], "withholdReward": false, "trial_id": "mdp_trial_8", "block": "test", "trialIndex": 13, "score": -10, "costs": 0, "simulationMode": [null, null, null, null, null], "rewards": [1, -3, -3, -14, 9], "path": ["0", "0", "12", "13", "14", "15", "17"], "rt": [2760, 304, 580, 76, 76], "actions": ["right", "right", "right", "up", "right"], "actionTimes": [7452, 8313, 9431, 10060, 10683], "queries": {"click": {"state": {"target": [], "time": []}, "edge": {"target": [], "time": []}}, "mouseover": {"state": {"target": [], "time": []}, "edge": {"target": [], "time": []}}, "mouseout": {"state": {"target": ["19", "14", "13", "12", "0", "12"], "time": [2009, 2172, 2491, 2589, 12243, 12304]}, "edge": {"target": [], "time": []}}}, "displayed_time": "18.70", "trialTime": 20977, "trial_type": "mouselab-mdp", "trial_index": 28, "time_elapsed": 1560852, "internal_node_id": "0.0-4.0-1.0-7.0"}}, {"uniqueid": "w15585591:a79005631", "current_trial": 29, "dateTime": 1691161034635, "trialdata": {"revealed_states": [], "clicked_states": [], "num_clicks_accrued": [0, 0, 0, 0, 0, 0, 0, 0, 0, 0, 0, 0, 0], "stateRewards": ["", 2, -4, -8, -15, 71, -43, -41, 7, -17, 20, 67, -1, -1, -4, 6, 37, -24, -47, 9, 34, 57, 45, 1, 2, -4, -5, -23, 88, -5, 13, -40, 43, 44], "withholdReward": false, "trial_id": "mdp_trial_9", "block": "test", "trialIndex": 14, "score": 56, "costs": 0, "simulationMode": [null, null, null, null, null], "rewards": [1, 2, -4, 13, 44], "path": ["0", "0", "23", "24", "25", "30", "33"], "rt": [2923, 513, 583, 500, 1628], "actions": ["left", "left", "left", "down", "left"], "actionTimes": [7089, 8163, 9337, 10398, 12610], "queries": {"click": {"state": {"target": [], "time": []}, "edge": {"target": [], "time": []}}, "mouseover": {"state": {"target": [], "time": []}, "edge": {"target": [], "time": []}}, "mouseout": {"state": {"target": ["12", "0"], "time": [1844, 14078]}, "edge": {"target": [], "time": []}}}, "displayed_time": "18.17", "trialTime": 19800, "trial_type": "mouselab-mdp", "trial_index": 29, "time_elapsed": 1583131, "internal_node_id": "0.0-4.0-1.0-8.0"}}, {"uniqueid": "w15585591:a79005631", "current_trial": 30, "dateTime": 1691161061418, "trialdata": {"revealed_states": [], "clicked_states": [], "num_clicks_accrued": [0, 0, 0, 0, 0, 0, 0, 0, 0, 0, 0, 0, 0], "stateRewards": ["", 1, 4, 7, -16, -84, -6, -46, -12, -7, -49, -26, -1, 2, -4, 2, 22, 37, -64, 1, 88, -13, -10, 1, -4, -2, 5, 2, -10, -34, 9, 66, 55, 38], "withholdReward": false, "trial_id": "mdp_trial_10", "block": "test", "trialIndex": 15, "score": -26, "costs": 0, "simulationMode": [null, null, null, null, null], "rewards": [1, 4, 7, -12, -26], "path": ["0", "0", "1", "2", "3", "8", "11"], "rt": [2885, 37, 129, 396, 512], "actions": ["up", "up", "up", "left", "left"], "actionTimes": [9115, 9695, 10393, 11359, 12417], "queries": {"click": {"state": {"target": [], "time": []}, "edge": {"target": [], "time": []}}, "mouseover": {"state": {"target": [], "time": []}, "edge": {"target": [], "time": []}}, "mouseout": {"state": {"target": ["33", "33", "24", "23", "0"], "time": [3265, 3483, 3800, 3844, 14151]}, "edge": {"target": [], "time": []}}}, "displayed_time": "20.23", "trialTime": 24462, "trial_type": "mouselab-mdp", "trial_index": 30, "time_elapsed": 1609913, "internal_node_id": "0.0-4.0-1.0-9.0"}}, {"uniqueid": "w15585591:a79005631", "current_trial": 31, "dateTime": 1691161087091, "trialdata": {"revealed_states": [], "clicked_states": [], "num_clicks_accrued": [0, 0, 0, 0, 0, 0, 0, 0, 0, 0, 0, 0, 0], "stateRewards": ["", 2, -1, -1, 7, 11, -40, -22, -2, 69, 37, 8, -2, 4, -8, -12, -2, -72, -3, -12, 17, 63, 12, 1, 3, -7, 6, 25, 61, 61, -9, 28, -17, 27], "withholdReward": false, "trial_id": "mdp_trial_11", "block": "test", "trialIndex": 16, "score": -20, "costs": 0, "simulationMode": [null, null, null, null, null], "rewards": [-2, 4, -8, -12, -2], "path": ["0", "0", "12", "13", "14", "15", "16"], "rt": [2133, 349, 396, 400, 507], "actions": ["right", "right", "right", "up", "up"], "actionTimes": [9776, 10661, 11581, 12524, 13558], "queries": {"click": {"state": {"target": [], "time": []}, "edge": {"target": [], "time": []}}, "mouseover": {"state": {"target": [], "time": []}, "edge": {"target": [], "time": []}}, "mouseout": {"state": {"target": ["15", "18", "0", "0", "19"], "time": [4780, 5082, 5179, 15402, 15460]}, "edge": {"target": [], "time": []}}}, "displayed_time": "21.65", "trialTime": 23148, "trial_type": "mouselab-mdp", "trial_index": 31, "time_elapsed": 1635586, "internal_node_id": "0.0-4.0-1.0-10.0"}}, {"uniqueid": "w15585591:a79005631", "current_trial": 32, "dateTime": 1691161112803, "trialdata": {"revealed_states": [], "clicked_states": [], "num_clicks_accrued": [0, 0, 0, 0, 0, 0, 0, 0, 0, 0, 0, 0, 0], "stateRewards": ["", -2, -2, -3, -6, -15, -11, 41, -12, -63, -76, 2, -2, -3, 8, 9, -36, -2, -18, -16, -32, -85, -17, -2, 1, 5, -16, 82, 35, -88, -1, 80, -82, -20], "withholdReward": false, "trial_id": "mdp_trial_12", "block": "test", "trialIndex": 17, "score": -79, "costs": 0, "simulationMode": [null, null, null, null, null], "rewards": [-2, 1, 5, -1, -82], "path": ["0", "0", "23", "24", "25", "30", "32"], "rt": [3260, 20, 1373, 105, 70], "actions": ["left", "left", "left", "down", "down"], "actionTimes": [9212, 9771, 11711, 12342, 12968], "queries": {"click": {"state": {"target": [], "time": []}, "edge": {"target": [], "time": []}}, "mouseover": {"state": {"target": ["23"], "time": [7707]}, "edge": {"target": [], "time": []}}, "mouseout": {"state": {"target": ["0", "23", "1"], "time": [7439, 15320, 15368]}, "edge": {"target": [], "time": []}}}, "displayed_time": "19.95", "trialTime": 22948, "trial_type": "mouselab-mdp", "trial_index": 32, "time_elapsed": 1661299, "internal_node_id": "0.0-4.0-1.0-11.0"}}, {"uniqueid": "w15585591:a79005631", "current_trial": 33, "dateTime": 1691161135150, "trialdata": {"revealed_states": [], "clicked_states": ["12"], "num_clicks_accrued": [0, 0, 0, 0, 0, 0, 0, 0, 0, 0, 0, 0, 0], "stateRewards": ["", -2, 3, -5, -7, 66, 43, -60, -4, -70, -75, 4, -1, 2, 2, -13, 54, 11, -40, -1, 77, 32, 15, -2, 3, -8, -9, -35, 83, -27, 6, -74, -34, 44], "withholdReward": false, "trial_id": "mdp_trial_13", "block": "test", "trialIndex": 18, "score": -51.4, "costs": -1.4, "simulationMode": [null, null, null, null, null], "rewards": [-1, 2, 2, -13, -40], "path": ["0", "0", "12", "13", "14", "15", "18"], "rt": [6076, 193, 1620, 770, 416], "actions": ["right", "right", "right", "up", "left"], "actionTimes": [10099, 10839, 13028, 14340, 15311], "queries": {"click": {"state": {"target": ["12"], "time": [6769]}, "edge": {"target": [], "time": []}}, "mouseover": {"state": {"target": ["12"], "time": [5145]}, "edge": {"target": [], "time": []}}, "mouseout": {"state": {"target": ["20", "12", "0", "12", "13"], "time": [1294, 1674, 2006, 17313, 17373]}, "edge": {"target": [], "time": []}}}, "displayed_time": "18.02", "trialTime": 19735, "trial_type": "mouselab-mdp", "trial_index": 33, "time_elapsed": 1683646, "internal_node_id": "0.0-4.0-1.0-12.0"}}, {"uniqueid": "w15585591:a79005631", "current_trial": 34, "dateTime": 1691161158410, "trialdata": {"revealed_states": [], "clicked_states": [], "num_clicks_accrued": [0, 0, 0, 0, 0, 0, 0, 0, 0, 0, 0, 0, 0], "stateRewards": ["", 2, 3, -3, 12, -43, 81, -82, -15, 58, -7, -75, -1, -1, 3, -5, 50, -25, -8, 4, 66, 65, -66, 2, -4, 2, -1, -10, 10, 37, 11, 88, -37, 8], "withholdReward": false, "trial_id": "mdp_trial_14", "block": "test", "trialIndex": 19, "score": 95, "costs": 0, "simulationMode": [null, null, null, null, null], "rewards": [2, 3, -3, 12, 81], "path": ["0", "0", "1", "2", "3", "4", "6"], "rt": [3756, 383, 1095, 1318, 382], "actions": ["up", "up", "up", "right", "right"], "actionTimes": [7637, 8559, 10208, 12100, 13030], "queries": {"click": {"state": {"target": [], "time": []}, "edge": {"target": [], "time": []}}, "mouseover": {"state": {"target": [], "time": []}, "edge": {"target": [], "time": []}}, "mouseout": {"state": {"target": ["24", "1", "0", "22"], "time": [1535, 1819, 15509, 15569]}, "edge": {"target": [], "time": []}}}, "displayed_time": "17.88", "trialTime": 20654, "trial_type": "mouselab-mdp", "trial_index": 34, "time_elapsed": 1706905, "internal_node_id": "0.0-4.0-1.0-13.0"}}, {"uniqueid": "w15585591:a79005631", "current_trial": 35, "dateTime": 1691161187673, "trialdata": {"revealed_states": [], "clicked_states": [], "num_clicks_accrued": [0, 0, 0, 0, 0, 0, 0, 0, 0, 0, 0, 0, 0], "stateRewards": ["", 1, 1, -5, 10, -31, 73, 14, -8, -23, 63, -70, -1, 2, 8, 7, 25, -59, 27, -10, -40, -71, -15, -2, 3, -8, -5, -19, 77, -34, 7, 67, 63, 19], "withholdReward": false, "trial_id": "mdp_trial_15", "block": "test", "trialIndex": 20, "score": 80, "costs": 0, "simulationMode": [null, null, null, null, null], "rewards": [1, 1, -5, 10, 73], "path": ["0", "0", "1", "2", "3", "4", "6"], "rt": [1833, 11, 684, 629, 280], "actions": ["up", "up", "up", "right", "right"], "actionTimes": [9584, 10133, 11367, 12544, 13393], "queries": {"click": {"state": {"target": [], "time": []}, "edge": {"target": [], "time": []}}, "mouseover": {"state": {"target": [], "time": []}, "edge": {"target": [], "time": []}}, "mouseout": {"state": {"target": ["20", "19", "0", "12"], "time": [5049, 5097, 19026, 19072]}, "edge": {"target": [], "time": []}}}, "displayed_time": "21.75", "trialTime": 26514, "trial_type": "mouselab-mdp", "trial_index": 35, "time_elapsed": 1736169, "internal_node_id": "0.0-4.0-1.0-14.0"}}], "questiondata": {"params": {"CODE": "C6DMOQA6", "MIN_TIME": 14, "inspectCost": 1, "startTime": "Fri Aug 04 2023 16:30:44 GMT+0200 (South Africa Standard Time)", "bonusRate": 0.002, "variance": "1_2_4_8_44", "branching": "31123"}}, "eventdata": [{"eventtype": "initialized", "value": null, "timestamp": 1691159443852, "interval": 0}, {"eventtype": "window_resize", "value": [1366, 714], "timestamp": 1691159443852, "interval": 0}, {"eventtype": "window_resize", "value": [1366, 714], "timestamp": 1691159444556, "interval": 704}, {"eventtype": "window_resize", "value": [1366, 768], "timestamp": 1691159516593, "interval": 72037}, {"eventtype": "focus", "value": "off", "timestamp": 1691160085384, "interval": 568791}, {"eventtype": "focus", "value": "on", "timestamp": 1691160085388, "interval": 4}, {"eventtype": "window_resize", "value": [1366, 714], "timestamp": 1691160085611, "interval": 223}, {"eventtype": "window_resize", "value": [1366, 768], "timestamp": 1691160089047, "interval": 3436}, {"eventtype": "focus", "value": "off", "timestamp": 1691160437345, "interval": 348298}, {"eventtype": "focus", "value": "on", "timestamp": 1691160437353, "interval": 8}, {"eventtype": "window_resize", "value": [1366, 714], "timestamp": 1691160437589, "interval": 236}, {"eventtype": "window_resize", "value": [1366, 768], "timestamp": 1691160439590, "interval": 2001}], "useragent": "Mozilla/5.0 (Windows NT 10.0; Win64; x64) AppleWebKit/537.36 (KHTML, like Gecko) Chrome/114.0.0.0 Safari/537.36", "mode": "live", "id": "w15585591:a79005631", "status": "user data saved", "Beginhit": "2023-08-04 14:30:25.475382", "Beginexp": "2023-08-04 14:31:57.88628", "Endhit": null, "psiturkStatus": 2, "browser": "<redacted>", "platform": "windows", "language": "en-ZA", "excludeReason": "dataincomplete"}