{"condition": 1, "counterbalance": 0, "assignmentId": "a19996437", "workerId": "w69986083", "hitId": "h49488011", "currenttrial": 56, "bonus": 0, "data": [{"uniqueid": "w69986083:a19996437", "current_trial": 0, "dateTime": 1693660423650, "trialdata": {"success": true, "trial_type": "fullscreen", "trial_index": 0, "time_elapsed": 10057, "internal_node_id": "0.0-0.0"}}, {"uniqueid": "w69986083:a19996437", "current_trial": 1, "dateTime": 1693660435781, "trialdata": {"view_history": [{"page_index": 0, "viewing_time": 12117}], "rt": 12118, "trial_id": "exp_instructions_misaligned", "trial_type": "instructions", "trial_index": 1, "time_elapsed": 22189, "internal_node_id": "0.0-1.0"}}, {"uniqueid": "w69986083:a19996437", "current_trial": 2, "dateTime": 1693660542390, "trialdata": {"view_history": [{"page_index": 0, "viewing_time": 31290}, {"page_index": 1, "viewing_time": 39640}, {"page_index": 2, "viewing_time": 12729}, {"page_index": 3, "viewing_time": 22943}], "rt": 106603, "trial_id": "mouselab_instructions_1_misaligned", "trial_type": "instructions", "trial_index": 2, "time_elapsed": 128798, "internal_node_id": "0.0-2.0-1.0"}}, {"uniqueid": "w69986083:a19996437", "current_trial": 3, "dateTime": 1693660588625, "trialdata": {"revealed_states": [], "clicked_states": ["12", "13", "14"], "num_clicks_accrued": [0, 0, 0, 0, 0, 0, 0, 0, 0, 0, 0, 0, 0], "stateRewards": ["", -10, -10, -10, 10, 10, 10, -10, -10, -10, 10, -10, 10, 10, -10, 10, -10, 10, -10, 10, -10, 10, 10, -10, 10, 10, 10, -10, 10, -10, -10, -10, 10, -10], "withholdReward": false, "trial_id": "practice_1", "block": "test", "trialIndex": 0, "score": 12, "costs": -1.5, "simulationMode": [null, null, null, null, null], "rewards": [10, 10, -10, 10, -10], "path": ["0", "0", "12", "13", "14", "15", "16"], "rt": [18368, 2994, 1122, 8320, 2718], "actions": ["right", "right", "right", "up", "up"], "actionTimes": [23586, 27087, 28730, 37572, 40813], "queries": {"click": {"state": {"target": ["12", "13", "14"], "time": [10368, 14137, 19033]}, "edge": {"target": [], "time": []}}, "mouseover": {"state": {"target": ["20", "17", "13", "12", "12", "13", "22", "22", "14", "19", "19", "22", "12"], "time": [5253, 6812, 7044, 7160, 9200, 13701, 14517, 16808, 17606, 19282, 19776, 19840, 20817]}, "edge": {"target": [], "time": []}}, "mouseout": {"state": {"target": ["20", "19", "13", "0", "0", "20", "17", "13", "12", "12", "13", "22", "22", "13", "14", "19", "19", "22", "12", "18", "15", "15", "16", "19"], "time": [null, 782, 1912, 4350, 5249, 5317, 6850, 7094, 8916, 11133, 14478, 14733, 16857, 17358, 19084, 19360, 19802, 19882, 22898, 29729, 29813, 39215, 43067, 44113]}, "edge": {"target": [], "time": []}}}, "displayed_time": "41.33", "trialTime": 45287, "trial_type": "mouselab-mdp", "trial_index": 3, "time_elapsed": 175032, "internal_node_id": "0.0-2.0-2.0-0.0"}}, {"uniqueid": "w69986083:a19996437", "current_trial": 4, "dateTime": 1693660608070, "trialdata": {"revealed_states": [], "clicked_states": ["12", "13", "14", "15", "16"], "num_clicks_accrued": [0, 0, 0, 0, 0, 0, 0, 0, 0, 0, 0, 0, 0], "stateRewards": ["", -10, -10, -10, 10, 10, 10, -10, -10, 10, -10, -10, -10, 10, 10, 10, -10, 10, 10, -10, -10, 10, 10, -10, -10, -10, 10, -10, 10, -10, -10, -10, 10, -10], "withholdReward": false, "trial_id": "practice_2", "block": "test", "trialIndex": 1, "score": 11, "costs": -2.5, "simulationMode": [null, null, null, null, null], "rewards": [-10, 10, 10, 10, -10], "path": ["0", "0", "12", "13", "14", "15", "16"], "rt": [10773, 22, 471, 79, 91], "actions": ["right", "right", "right", "up", "up"], "actionTimes": [13092, 13651, 14655, 15243, 15879], "queries": {"click": {"state": {"target": ["12", "13", "14", "15", "16"], "time": [3345, 5293, 8573, 10309, 11951]}, "edge": {"target": [], "time": []}}, "mouseover": {"state": {"target": ["18", "13", "12", "13", "0", "14", "15", "16"], "time": [2920, 3002, 3218, 3799, 5898, 8307, 9167, 10631]}, "edge": {"target": [], "time": []}}, "mouseout": {"state": {"target": ["13", "13", "12", "0", "0", "18", "13", "12", "13", "0", "14", "15", "16", "21"], "time": [558, 1340, 1356, 1438, 2343, 2937, 3102, 3650, 5699, 7168, 8637, 10361, 12202, 17958]}, "edge": {"target": [], "time": []}}}, "displayed_time": "16.43", "trialTime": 18881, "trial_type": "mouselab-mdp", "trial_index": 4, "time_elapsed": 194476, "internal_node_id": "0.0-2.0-2.0-1.0"}}, {"uniqueid": "w69986083:a19996437", "current_trial": 5, "dateTime": 1693660628066, "trialdata": {"view_history": [{"page_index": 0, "viewing_time": 12485}, {"page_index": 1, "viewing_time": 7503}], "rt": 19989, "trial_id": "mouselab_instructions_2_misaligned", "trial_type": "instructions", "trial_index": 5, "time_elapsed": 214474, "internal_node_id": "0.0-2.0-3.0"}}, {"uniqueid": "w69986083:a19996437", "current_trial": 6, "dateTime": 1693660657470, "trialdata": {"rt": 29391, "response": {"Q0": "The cost for clicking on nodes may vary between nodes.", "Q1": "The better I perform the higher my bonus will be.", "Q2": "No, the amount of cash at each node of the web may be different each time.", "Q3": "To get the highest total score.", "Q4": "Only before moving the spider.", "Q5": "3 seconds"}, "question_order": [0, 1, 2, 3, 4, 5], "correct": {"Q0": "The cost for clicking on nodes may vary between nodes.", "Q1": "The better I perform the higher my bonus will be.", "Q2": "No, the amount of cash at each node of the web may be different each time.", "Q3": "To get the highest total score.", "Q4": "Only before moving the spider.", "Q5": "3 seconds"}, "trial_id": "mouselab_quiz_misaligned", "trial_type": "survey-multi-choice", "trial_index": 6, "time_elapsed": 243878, "internal_node_id": "0.0-2.0-4.0"}}, {"uniqueid": "w69986083:a19996437", "current_trial": 7, "dateTime": 1693660662423, "trialdata": {"rt": 4936, "response": {"Q0": "No"}, "question_order": [0], "trial_id": "repeat_check", "trial_type": "survey-multi-choice", "trial_index": 7, "time_elapsed": 248831, "internal_node_id": "0.0-4.0-0.0"}}, {"uniqueid": "w69986083:a19996437", "current_trial": 8, "dateTime": 1693660671877, "trialdata": {"rt": 9439, "stimulus": "\n<h1> Get ready to start the game! </h1>\n\nThank you for reading the instructions. Get ready start with the 40 rounds of this game.\n<br><br>\nIf you need to take a break, feel free to take one after the end of a round, before continuing to the next one.\n<br><br>\nRemember, the more money the spider gets, the bigger your bonus will be!\n<br><br>\n<div style='text-align: center;'>Press <code>space</code> to begin.</div>\n\n<br><br>\n(If, at any point, the <code>space</code> key does not take you to the next page, click once on the text and try again.)", "response": " ", "trial_id": "mdp_ready", "trial_type": "html-keyboard-response", "trial_index": 8, "time_elapsed": 258284, "internal_node_id": "0.0-6.0-0.0"}}, {"uniqueid": "w69986083:a19996437", "current_trial": 9, "dateTime": 1693660692309, "trialdata": {"revealed_states": [], "clicked_states": ["12", "13", "14", "15", "16"], "num_clicks_accrued": [0, 0, 0, 0, 0, 0, 0, 0, 0, 0, 0, 0, 0], "stateRewards": ["", 2, -1, -3, 16, -3, -16, -62, -1, 13, -26, 43, -1, 4, 3, -9, -54, -37, -3, -12, -71, -68, -57, 1, -3, 2, -9, 2, -2, -9, -11, 84, -52, 55], "withholdReward": false, "trial_id": "mdp_trial_1", "block": "test", "trialIndex": 2, "score": -78.75, "costs": -4.75, "simulationMode": [null, null, null, null, null], "rewards": [-1, 4, 3, -12, -68], "path": ["0", "0", "12", "13", "14", "19", "21"], "rt": [8459, 132, 89, 72, 50], "actions": ["right", "right", "right", "down", "down"], "actionTimes": [11382, 12033, 12660, 13277, 13855], "queries": {"click": {"state": {"target": ["12", "13", "14", "15", "16"], "time": [3999, 4901, 5772, 6585, 8394]}, "edge": {"target": [], "time": []}}, "mouseover": {"state": {"target": ["13", "12", "0", "12", "13", "14", "15", "16", "20"], "time": [2960, 3032, 3100, 3365, 4420, 5581, 6372, 8164, 9064]}, "edge": {"target": [], "time": []}}, "mouseout": {"state": {"target": ["12", "17", "15", "13", "12", "0", "12", "13", "14", "14", "15", "16", "20", "19", "22"], "time": [1364, 1997, 2015, 3014, 3064, 3332, 4255, 5313, 6052, 6320, 7019, 8627, 9117, 19300, 19323]}, "edge": {"target": [], "time": []}}}, "displayed_time": "16.93", "trialTime": 19924, "trial_type": "mouselab-mdp", "trial_index": 9, "time_elapsed": 278716, "internal_node_id": "0.0-6.0-1.0-0.0"}}, {"uniqueid": "w69986083:a19996437", "current_trial": 10, "dateTime": 1693660726504, "trialdata": {"revealed_states": [], "clicked_states": ["23", "24", "25", "30", "32", "1", "2", "10", "8", "9"], "num_clicks_accrued": [0, 0, 0, 0, 0, 0, 0, 0, 0, 0, 0, 0, 0], "stateRewards": ["", -1, -3, -7, -4, -85, -70, 79, 8, 84, -66, 42, 2, -2, -3, -16, -54, -66, 68, -3, 21, -14, 7, -2, -1, -3, -8, 75, 80, 86, -7, -84, 73, -16], "withholdReward": false, "trial_id": "mdp_trial_2", "block": "test", "trialIndex": 3, "score": -110.7, "costs": -10.700000000000001, "simulationMode": [null, null, null, null, null], "rewards": [-1, -3, -7, -4, -85], "path": ["0", "0", "1", "2", "3", "4", "5"], "rt": [25866, 100, 80, 618, 137], "actions": ["up", "up", "up", "right", "up"], "actionTimes": [28588, 29215, 29824, 30959, 31612], "queries": {"click": {"state": {"target": ["23", "24", "25", "30", "32", "1", "2", "10", "8", "9"], "time": [5181, 6172, 7274, 8088, 8895, 12556, 13290, 14089, 17221, 18258]}, "edge": {"target": [], "time": []}}, "mouseover": {"state": {"target": ["18", "1", "23", "24", "25", "30", "32", "0", "1", "2", "10", "8", "9", "8", "8", "2", "8", "9", "3", "4", "3", "4", "3", "4", "6"], "time": [2778, 3374, 3642, 5561, 6858, 7553, 8675, 10233, 10326, 12852, 13838, 14488, 15045, 15355, 15954, 16921, 17033, 18002, 18987, 19111, 21053, 22217, 24945, 25462, 27013]}, "edge": {"target": [], "time": []}}, "mouseout": {"state": {"target": ["12", "13", "14", "13", "0", "18", "1", "23", "24", "25", "30", "32", "0", "1", "2", "10", "8", "9", "8", "8", "2", "8", "8", "9", "3", "4", "3", "4", "3", "4", "6"], "time": [364, 410, 943, 1777, 2761, 2861, 3509, 5457, 6546, 7459, 8446, 9095, 10271, 12680, 13814, 14450, 14963, 15327, 15403, 16657, 16945, 17758, 17956, 18652, 19054, 19401, 22184, 22963, 25363, 26990, 27031]}, "edge": {"target": [], "time": []}}}, "displayed_time": "32.14", "trialTime": 33726, "trial_type": "mouselab-mdp", "trial_index": 10, "time_elapsed": 312911, "internal_node_id": "0.0-6.0-1.0-1.0"}}, {"uniqueid": "w69986083:a19996437", "current_trial": 11, "dateTime": 1693660746474, "trialdata": {"revealed_states": [], "clicked_states": ["12", "13", "14", "19", "21"], "num_clicks_accrued": [0, 0, 0, 0, 0, 0, 0, 0, 0, 0, 0, 0, 0], "stateRewards": ["", -1, -3, -3, 1, -38, 2, -53, -2, -1, -81, 70, -1, 1, -5, -9, 46, 15, 35, -1, -22, 38, 59, -2, 4, -8, 13, 1, -83, -43, 4, 76, 13, 48], "withholdReward": false, "trial_id": "mdp_trial_3", "block": "test", "trialIndex": 4, "score": 27.25, "costs": -4.75, "simulationMode": [null, null, null, null, null], "rewards": [-1, 1, -5, -1, 38], "path": ["0", "0", "12", "13", "14", "19", "21"], "rt": [9099, 96, 13, 132, 99], "actions": ["right", "right", "right", "down", "down"], "actionTimes": [11764, 12366, 12905, 13572, 14199], "queries": {"click": {"state": {"target": ["12", "13", "14", "19", "21"], "time": [4844, 5736, 6434, 7112, 7588]}, "edge": {"target": [], "time": []}}, "mouseover": {"state": {"target": ["12", "20", "19", "22", "13", "12", "13", "14", "19", "21", "20", "20"], "time": [2705, 3924, 3955, 4425, 4497, 4664, 5334, 6238, 6920, 7461, 9108, 9853]}, "edge": {"target": [], "time": []}}, "mouseout": {"state": {"target": ["14", "13", "0", "12", "20", "19", "22", "13", "12", "13", "14", "19", "21", "20", "20"], "time": [1748, 1780, 2699, 2754, 3947, 3977, 4465, 4549, 5052, 6107, 6662, 7374, 7855, 9551, 11217]}, "edge": {"target": [], "time": []}}}, "displayed_time": "16.68", "trialTime": 19357, "trial_type": "mouselab-mdp", "trial_index": 11, "time_elapsed": 332881, "internal_node_id": "0.0-6.0-1.0-2.0"}}, {"uniqueid": "w69986083:a19996437", "current_trial": 12, "dateTime": 1693660768535, "trialdata": {"revealed_states": [], "clicked_states": [], "num_clicks_accrued": [0, 0, 0, 0, 0, 0, 0, 0, 0, 0, 0, 0, 0], "stateRewards": ["", -1, 2, -2, 13, -56, -28, 10, 14, 53, -80, -29, 1, -3, -3, -14, 14, 9, -40, -9, 18, 18, 48, 1, 1, 1, -9, 64, -39, -9, 7, -52, -78, 7], "withholdReward": false, "trial_id": "mdp_trial_4", "block": "test", "trialIndex": 5, "score": -16, "costs": 0, "simulationMode": [null, null, null, null, null], "rewards": [-1, 2, -2, 13, -28], "path": ["0", "0", "1", "2", "3", "4", "6"], "rt": [5720, 407, 544, 128, 15], "actions": ["up", "up", "up", "right", "right"], "actionTimes": [10979, 11904, 12969, 13612, 14151], "queries": {"click": {"state": {"target": [], "time": []}, "edge": {"target": [], "time": []}}, "mouseover": {"state": {"target": ["22", "19", "19", "23", "0", "13", "14"], "time": [5288, 5977, 6666, 7397, 10318, 10356, 10387]}, "edge": {"target": [], "time": []}}, "mouseout": {"state": {"target": ["23", "0", "12", "13", "12", "0", "22", "19", "19", "23", "0", "13", "14", "14"], "time": [313, 345, 401, 4317, 4400, 5283, 5958, 6009, 6689, 10299, 10349, 10378, 10418, 20607]}, "edge": {"target": [], "time": []}}}, "displayed_time": "19.28", "trialTime": 21427, "trial_type": "mouselab-mdp", "trial_index": 12, "time_elapsed": 354942, "internal_node_id": "0.0-6.0-1.0-3.0"}}, {"uniqueid": "w69986083:a19996437", "current_trial": 13, "dateTime": 1693660787200, "trialdata": {"revealed_states": [], "clicked_states": ["23", "24", "25", "30", "32"], "num_clicks_accrued": [0, 0, 0, 0, 0, 0, 0, 0, 0, 0, 0, 0, 0], "stateRewards": ["", 1, -4, -6, 11, -20, 8, -30, 1, -38, 88, 42, 2, 3, 5, -12, -8, -74, 30, -8, 67, -19, 42, 2, -1, 4, 13, 50, -68, 2, -8, -15, 87, -46], "withholdReward": false, "trial_id": "mdp_trial_5", "block": "test", "trialIndex": 6, "score": 79.25, "costs": -4.75, "simulationMode": [null, null, null, null, null], "rewards": [2, -1, 4, -8, 87], "path": ["0", "0", "23", "24", "25", "30", "32"], "rt": [10132, 211, 59, 125, 84], "actions": ["left", "left", "left", "down", "down"], "actionTimes": [12011, 12754, 13333, 13982, 14586], "queries": {"click": {"state": {"target": ["23", "24", "25", "30", "32"], "time": [4217, 5278, 6782, 7393, 7883]}, "edge": {"target": [], "time": []}}, "mouseover": {"state": {"target": ["16", "13", "23", "23", "24", "25", "30", "32", "33", "31"], "time": [1962, 3401, 3444, 4035, 5035, 5954, 7240, 7718, 8901, 11501]}, "edge": {"target": [], "time": []}}, "mouseout": {"state": {"target": ["20", "17", "15", "18", "0", "16", "13", "23", "23", "24", "25", "30", "32", "30", "33", "31", "15", "20", "21"], "time": [32, 446, 466, 484, 1901, 1981, 3424, 3469, 4959, 5687, 7086, 7686, 8262, 8863, 11464, 11518, 15549, 17140, 17190]}, "edge": {"target": [], "time": []}}}, "displayed_time": "15.88", "trialTime": 17942, "trial_type": "mouselab-mdp", "trial_index": 13, "time_elapsed": 373606, "internal_node_id": "0.0-6.0-1.0-4.0"}}, {"uniqueid": "w69986083:a19996437", "current_trial": 14, "dateTime": 1693660808415, "trialdata": {"revealed_states": [], "clicked_states": ["23", "24", "25", "26", "27", "28"], "num_clicks_accrued": [0, 0, 0, 0, 0, 0, 0, 0, 0, 0, 0, 0, 0], "stateRewards": ["", -1, 2, -7, -12, -62, 12, -13, 5, 77, -71, 83, 1, -4, 7, 15, -42, -87, -4, 5, -25, 44, 88, -1, 4, -5, -8, 14, 51, 8, -5, 83, -24, -19], "withholdReward": false, "trial_id": "mdp_trial_6", "block": "test", "trialIndex": 7, "score": 34.1, "costs": -6.9, "simulationMode": [null, null, null, null, null], "rewards": [-1, 4, -5, -8, 51], "path": ["0", "0", "23", "24", "25", "26", "28"], "rt": [11239, 51, 40, 157, 45], "actions": ["left", "left", "left", "up", "right"], "actionTimes": [14897, 15483, 16082, 16776, 17349], "queries": {"click": {"state": {"target": ["23", "24", "25", "26", "27", "28"], "time": [4711, 5399, 5961, 6695, 7380, 10305]}, "edge": {"target": [], "time": []}}, "mouseover": {"state": {"target": ["23", "24", "25", "26", "27", "28", "26", "29", "23"], "time": [4531, 5141, 5848, 6419, 7139, 8112, 11016, 11200, 14148]}, "edge": {"target": [], "time": []}}, "mouseout": {"state": {"target": ["0", "23", "24", "25", "26", "27", "27", "28", "26", "29", "23", "18", "14"], "time": [3846, 4977, 5752, 6359, 7069, 7413, 7753, 10992, 11078, 14042, 18356, 18388, 19038]}, "edge": {"target": [], "time": []}}}, "displayed_time": "17.89", "trialTime": 20512, "trial_type": "mouselab-mdp", "trial_index": 14, "time_elapsed": 394821, "internal_node_id": "0.0-6.0-1.0-5.0"}}, {"uniqueid": "w69986083:a19996437", "current_trial": 15, "dateTime": 1693660844713, "trialdata": {"revealed_states": [], "clicked_states": ["23", "24", "25", "30", "32", "33", "31", "21", "19", "14", "13", "12"], "num_clicks_accrued": [0, 0, 0, 0, 0, 0, 0, 0, 0, 0, 0, 0, 0], "stateRewards": ["", -1, -4, -6, -15, 21, -67, -63, 9, 51, 69, -14, -1, 3, 8, -8, 39, 72, 63, 15, 19, 47, 15, 1, 4, 5, 16, -18, 34, 35, -14, -80, 40, 1], "withholdReward": false, "trial_id": "mdp_trial_7", "block": "test", "trialIndex": 8, "score": 58.2, "costs": -13.8, "simulationMode": [null, null, null, null, null], "rewards": [-1, 3, 8, 15, 47], "path": ["0", "0", "12", "13", "14", "19", "21"], "rt": [22807, 89, 726, 83, 88], "actions": ["right", "right", "right", "down", "down"], "actionTimes": [26535, 27156, 28431, 29020, 29639], "queries": {"click": {"state": {"target": ["23", "24", "25", "30", "32", "33", "31", "21", "19", "14", "13", "12"], "time": [6041, 7335, 8039, 8677, 9312, 12608, 16171, 19239, 22361, 23721, 24897, 25607]}, "edge": {"target": [], "time": []}}, "mouseover": {"state": {"target": ["22", "23", "24", "25", "30", "32", "33", "30", "31", "22", "13", "19", "21", "19", "14", "13", "12"], "time": [3755, 5689, 7140, 7774, 8547, 9165, 9992, 13118, 13274, 18139, 18230, 18863, 18999, 19985, 23419, 24293, 25443]}, "edge": {"target": [], "time": []}}, "mouseout": {"state": {"target": ["0", "1", "2", "7", "14", "12", "0", "22", "23", "24", "25", "30", "30", "32", "33", "30", "31", "22", "13", "19", "21", "19", "19", "14", "13", "12", "22"], "time": [62, 128, 178, 624, 2737, 2988, 3070, 3805, 6412, 7697, 8397, 8703, 9012, 9847, 13083, 13189, 16538, 18164, 18389, 18915, 19931, 22914, 23180, 24262, 25437, 25868, 34976]}, "edge": {"target": [], "time": []}}}, "displayed_time": "30.17", "trialTime": 35498, "trial_type": "mouselab-mdp", "trial_index": 15, "time_elapsed": 431120, "internal_node_id": "0.0-6.0-1.0-6.0"}}, {"uniqueid": "w69986083:a19996437", "current_trial": 16, "dateTime": 1693660875392, "trialdata": {"revealed_states": [], "clicked_states": ["12", "13", "14", "19", "21", "20", "22", "15", "17", "16"], "num_clicks_accrued": [0, 0, 0, 0, 0, 0, 0, 0, 0, 0, 0, 0, 0], "stateRewards": ["", 1, 2, -3, 6, -88, 74, -45, 7, -46, 40, -77, 1, -4, 4, 3, 22, -25, -59, 8, -83, 19, -60, -1, -1, -1, -8, 26, -29, 64, -7, -88, -51, -55], "withholdReward": false, "trial_id": "mdp_trial_8", "block": "test", "trialIndex": 9, "score": 13.099999999999998, "costs": -14.900000000000002, "simulationMode": [null, null, null, null, null, null], "rewards": [1, -4, 4, 8, 19], "path": ["0", "0", "12", "13", "14", "19", "21"], "rt": [19000, 2043, 101, 15, 962, 119], "actions": ["right", "right", "right", "right", "down", "down"], "actionTimes": [21718, 23780, 24406, 24943, 26449, 27084], "queries": {"click": {"state": {"target": ["12", "13", "14", "19", "21", "20", "22", "15", "17", "16"], "time": [3808, 4795, 5492, 6337, 7060, 10450, 13631, 16421, 17719, 20601]}, "edge": {"target": [], "time": []}}, "mouseover": {"state": {"target": ["13", "13", "12", "13", "14", "19", "21", "20", "20", "22", "19", "15", "17", "16"], "time": [3074, 3391, 3576, 4268, 5319, 6000, 6969, 7909, 9507, 11080, 14075, 15547, 17118, 18845]}, "edge": {"target": [], "time": []}}, "mouseout": {"state": {"target": ["22", "14", "22", "0", "13", "13", "12", "13", "14", "19", "21", "20", "20", "22", "19", "15", "17", "16"], "time": [527, 559, 1329, 2808, 3159, 3459, 4126, 5258, 5913, 6780, 7492, 9164, 10791, 14002, 14141, 16956, 18194, 20988]}, "edge": {"target": [], "time": []}}}, "displayed_time": "27.61", "trialTime": 29840, "trial_type": "mouselab-mdp", "trial_index": 16, "time_elapsed": 461799, "internal_node_id": "0.0-6.0-1.0-7.0"}}, {"uniqueid": "w69986083:a19996437", "current_trial": 17, "dateTime": 1693660900124, "trialdata": {"revealed_states": [], "clicked_states": ["23", "24", "25", "26", "29", "28", "27"], "num_clicks_accrued": [0, 0, 0, 0, 0, 0, 0, 0, 0, 0, 0, 0, 0], "stateRewards": ["", -1, -4, -3, 1, -45, -67, -24, 14, 32, 22, 22, -1, 1, -5, -7, 72, 84, -79, -5, 19, -40, -2, -1, -2, 8, -3, 84, -25, -28, 11, 64, -66, 77], "withholdReward": false, "trial_id": "mdp_trial_9", "block": "test", "trialIndex": 10, "score": 76.95, "costs": -9.05, "simulationMode": [null, null, null, null, null], "rewards": [-1, -2, 8, -3, 84], "path": ["0", "0", "23", "24", "25", "26", "27"], "rt": [17039, 341, 63, 247, 85], "actions": ["left", "left", "left", "up", "up"], "actionTimes": [18840, 19703, 20281, 21074, 21673], "queries": {"click": {"state": {"target": ["23", "24", "25", "26", "29", "28", "27"], "time": [3614, 5028, 5997, 6869, 7457, 11317, 14809]}, "edge": {"target": [], "time": []}}, "mouseover": {"state": {"target": ["12", "12", "0", "23", "24", "23", "24", "25", "26", "29", "28", "26", "27"], "time": [1962, 2938, 2969, 3001, 3054, 3304, 4826, 5633, 6580, 7319, 9073, 11811, 11927]}, "edge": {"target": [], "time": []}}, "mouseout": {"state": {"target": ["1", "12", "12", "12", "0", "23", "24", "23", "23", "24", "25", "26", "29", "25", "28", "26", "27", "31"], "time": [943, 1143, 1981, 2960, 2991, 3023, 3254, 3635, 3882, 5559, 6473, 7287, 7915, 8979, 11780, 11843, 15226, 23159]}, "edge": {"target": [], "time": []}}}, "displayed_time": "22.19", "trialTime": 23836, "trial_type": "mouselab-mdp", "trial_index": 17, "time_elapsed": 486530, "internal_node_id": "0.0-6.0-1.0-8.0"}}, {"uniqueid": "w69986083:a19996437", "current_trial": 18, "dateTime": 1693660934776, "trialdata": {"revealed_states": [], "clicked_states": ["9", "5", "6", "11", "10", "7"], "num_clicks_accrued": [0, 0, 0, 0, 0, 0, 0, 0, 0, 0, 0, 0, 0], "stateRewards": ["", 2, -3, -8, 14, -7, -51, 73, 2, 36, 36, -43, -1, 3, -4, 1, 6, 87, -65, 15, 61, -42, -83, -1, 3, -2, -7, 30, -48, 35, 13, 26, 60, 78], "withholdReward": false, "trial_id": "mdp_trial_10", "block": "test", "trialIndex": 11, "score": 65.1, "costs": -12.9, "simulationMode": [null, null, null, null, null], "rewards": [2, -3, -8, 14, 73], "path": ["0", "0", "1", "2", "3", "4", "7"], "rt": [25674, 202, 391, 69, 86], "actions": ["up", "up", "up", "right", "down"], "actionTimes": [28001, 28724, 29659, 30236, 30868], "queries": {"click": {"state": {"target": ["9", "5", "6", "11", "10", "7"], "time": [4063, 8725, 12561, 15811, 20850, 24756]}, "edge": {"target": [], "time": []}}, "mouseover": {"state": {"target": ["1", "7", "16", "3", "8", "9", "8", "8", "3", "5", "6", "27", "11", "10", "2", "7"], "time": [2597, 2680, 3644, 3697, 3749, 3813, 4363, 7697, 7754, 7918, 12368, 13095, 13551, 20426, 24209, 24476]}, "edge": {"target": [], "time": []}}, "mouseout": {"state": {"target": ["14", "13", "12", "0", "1", "7", "16", "3", "8", "9", "8", "8", "3", "5", "6", "27", "11", "10", "2", "7", "7", "19", "22"], "time": [1185, 1236, 1627, 2496, 2615, 2700, 3666, 3722, 3780, 4278, 4509, 7722, 7773, 9098, 12958, 13441, 16083, 21156, 24259, 24814, 25056, 32963, 32987]}, "edge": {"target": [], "time": []}}}, "displayed_time": "31.39", "trialTime": 33880, "trial_type": "mouselab-mdp", "trial_index": 18, "time_elapsed": 521182, "internal_node_id": "0.0-6.0-1.0-9.0"}}, {"uniqueid": "w69986083:a19996437", "current_trial": 19, "dateTime": 1693660958248, "trialdata": {"revealed_states": [], "clicked_states": ["20"], "num_clicks_accrued": [0, 0, 0, 0, 0, 0, 0, 0, 0, 0, 0, 0, 0], "stateRewards": ["", 2, 4, 7, 7, -79, -2, -21, -5, -53, 47, -21, 1, -3, -1, 7, 83, 7, 84, -7, 80, -37, 69, 2, -4, 5, 2, 4, -20, -30, 7, 71, 44, -81], "withholdReward": false, "trial_id": "mdp_trial_11", "block": "test", "trialIndex": 12, "score": 67.85, "costs": -2.15, "simulationMode": [null, null, null, null, null], "rewards": [1, -3, -1, -7, 80], "path": ["0", "0", "12", "13", "14", "19", "20"], "rt": [9163, 77, 28, 45, 4], "actions": ["right", "right", "right", "down", "right"], "actionTimes": [15822, 16424, 16971, 17537, 18085], "queries": {"click": {"state": {"target": ["20"], "time": [8057]}, "edge": {"target": [], "time": []}}, "mouseover": {"state": {"target": ["15", "18", "20", "21"], "time": [6908, 6948, 7925, 8792]}, "edge": {"target": [], "time": []}}, "mouseout": {"state": {"target": ["19", "21", "20", "20", "19", "22", "12", "15", "18", "20", "21", "21"], "time": [503, 4243, 4292, 5122, 5157, 5322, 5739, 6927, 6969, 8539, 15173, 22037]}, "edge": {"target": [], "time": []}}}, "displayed_time": "20.66", "trialTime": 22781, "trial_type": "mouselab-mdp", "trial_index": 19, "time_elapsed": 544656, "internal_node_id": "0.0-6.0-1.0-10.0"}}, {"uniqueid": "w69986083:a19996437", "current_trial": 20, "dateTime": 1693660980282, "trialdata": {"revealed_states": [], "clicked_states": ["20", "21", "22"], "num_clicks_accrued": [0, 0, 0, 0, 0, 0, 0, 0, 0, 0, 0, 0, 0], "stateRewards": ["", 1, 2, 7, 13, 88, -71, 27, 3, 60, 5, -53, -2, 2, -6, -1, -30, 79, 47, -4, -14, 46, 68, 1, 1, 8, 10, -14, 86, 48, -11, -67, -44, 5], "withholdReward": false, "trial_id": "mdp_trial_12", "block": "test", "trialIndex": 13, "score": 51.55, "costs": -6.449999999999999, "simulationMode": [null, null, null, null, null], "rewards": [-2, 2, -6, -4, 68], "path": ["0", "0", "12", "13", "14", "19", "22"], "rt": [12961, 20, 28, 26, 390], "actions": ["right", "right", "right", "down", "left"], "actionTimes": [14884, 15432, 15990, 16577, 17523], "queries": {"click": {"state": {"target": ["20", "21", "22"], "time": [3464, 8257, 11654]}, "edge": {"target": [], "time": []}}, "mouseover": {"state": {"target": ["12", "15", "20", "21", "22", "19"], "time": [2155, 2552, 3272, 7339, 9121, 12581]}, "edge": {"target": [], "time": []}}, "mouseout": {"state": {"target": ["12", "18", "14", "13", "12", "0", "12", "15", "20", "21", "22", "19"], "time": [319, 553, 1012, 1046, 1133, 1958, 2528, 2574, 3725, 9014, 12280, 12617]}, "edge": {"target": [], "time": []}}}, "displayed_time": "18.05", "trialTime": 21324, "trial_type": "mouselab-mdp", "trial_index": 20, "time_elapsed": 566689, "internal_node_id": "0.0-6.0-1.0-11.0"}}, {"uniqueid": "w69986083:a19996437", "current_trial": 21, "dateTime": 1693661001021, "trialdata": {"revealed_states": [], "clicked_states": ["33", "32", "31"], "num_clicks_accrued": [0, 0, 0, 0, 0, 0, 0, 0, 0, 0, 0, 0, 0], "stateRewards": ["", -2, -1, -6, -14, -55, 78, -13, 11, 14, -71, 59, 2, 2, 6, -6, 9, 38, 14, 7, 85, 11, 68, 1, -4, -1, -3, -63, -85, 9, -2, 63, -86, -10], "withholdReward": false, "trial_id": "mdp_trial_13", "block": "test", "trialIndex": 14, "score": 50.55, "costs": -6.449999999999999, "simulationMode": [null, null, null, null, null], "rewards": [1, -4, -1, -2, 63], "path": ["0", "0", "23", "24", "25", "30", "31"], "rt": [13287, 5, 537, 65, 71], "actions": ["left", "left", "left", "down", "right"], "actionTimes": [15123, 15637, 16724, 17304, 17889], "queries": {"click": {"state": {"target": ["33", "32", "31"], "time": [3864, 7366, 11163]}, "edge": {"target": [], "time": []}}, "mouseover": {"state": {"target": ["14", "20", "19", "31", "30", "33", "32", "31"], "time": [2407, 3027, 3063, 3117, 3451, 3621, 4275, 10875]}, "edge": {"target": [], "time": []}}, "mouseout": {"state": {"target": ["0", "14", "20", "19", "31", "30", "33", "32", "31", "19", "12"], "time": [1873, 2432, 3056, 3082, 3427, 3522, 4167, 8092, 11743, 18958, 19678]}, "edge": {"target": [], "time": []}}}, "displayed_time": "18.42", "trialTime": 20261, "trial_type": "mouselab-mdp", "trial_index": 21, "time_elapsed": 587428, "internal_node_id": "0.0-6.0-1.0-12.0"}}, {"uniqueid": "w69986083:a19996437", "current_trial": 22, "dateTime": 1693661024648, "trialdata": {"revealed_states": [], "clicked_states": ["27", "9", "5"], "num_clicks_accrued": [0, 0, 0, 0, 0, 0, 0, 0, 0, 0, 0, 0, 0], "stateRewards": ["", -1, 2, -2, 5, 80, -61, -27, 12, 44, -26, -75, -2, -4, 1, -16, 42, -49, -50, 4, -44, 2, 80, -2, -2, 5, -2, 59, 10, 24, 7, -48, -86, -44], "withholdReward": false, "trial_id": "mdp_trial_14", "block": "test", "trialIndex": 15, "score": 77.55, "costs": -6.449999999999999, "simulationMode": [null, null, null, null, null], "rewards": [-1, 2, -2, 5, 80], "path": ["0", "0", "1", "2", "3", "4", "5"], "rt": [13550, 338, 5, 529, 325], "actions": ["up", "up", "up", "right", "up"], "actionTimes": [17010, 17895, 18427, 19506, 20368], "queries": {"click": {"state": {"target": ["27", "9", "5"], "time": [4956, 8830, 12161]}, "edge": {"target": [], "time": []}}, "mouseover": {"state": {"target": ["22", "28", "26", "27", "10", "9", "5", "6"], "time": [3658, 4442, 4542, 4742, 5454, 5835, 9530, 12824]}, "edge": {"target": [], "time": []}}, "mouseout": {"state": {"target": ["0", "0", "22", "28", "26", "27", "10", "9", "5", "6", "19"], "time": [2360, 3481, 3677, 4465, 4676, 5410, 5492, 9402, 12769, 21371, 22160]}, "edge": {"target": [], "time": []}}}, "displayed_time": "20.88", "trialTime": 22872, "trial_type": "mouselab-mdp", "trial_index": 22, "time_elapsed": 611055, "internal_node_id": "0.0-6.0-1.0-13.0"}}, {"uniqueid": "w69986083:a19996437", "current_trial": 23, "dateTime": 1693661054914, "trialdata": {"revealed_states": [], "clicked_states": ["17", "20", "21", "32", "33", "31"], "num_clicks_accrued": [0, 0, 0, 0, 0, 0, 0, 0, 0, 0, 0, 0, 0], "stateRewards": ["", -1, -3, 1, 13, -64, -29, 12, -4, -33, 50, 56, 2, -3, 4, 11, -64, -58, -55, 12, 47, 38, -25, -2, 2, 5, -15, 85, 7, 84, 10, 8, 57, 26], "withholdReward": false, "trial_id": "mdp_trial_15", "block": "test", "trialIndex": 16, "score": 59.1, "costs": -12.9, "simulationMode": [null, null, null, null, null], "rewards": [-2, 2, 5, 10, 57], "path": ["0", "0", "23", "24", "25", "30", "32"], "rt": [22364, 298, 39, 315, 301], "actions": ["left", "left", "left", "down", "down"], "actionTimes": [24379, 25204, 25782, 26645, 27481], "queries": {"click": {"state": {"target": ["17", "20", "21", "32", "33", "31"], "time": [3399, 6707, 10019, 14134, 17462, 21215]}, "edge": {"target": [], "time": []}}, "mouseover": {"state": {"target": ["14", "16", "17", "20", "21", "32", "33", "30", "31"], "time": [2134, 2317, 3219, 4079, 7494, 13756, 15628, 20818, 20930]}, "edge": {"target": [], "time": []}}, "mouseout": {"state": {"target": ["13", "17", "15", "13", "12", "14", "16", "17", "20", "21", "32", "32", "33", "30", "31"], "time": [534, 999, 1021, 1050, 1232, 2183, 2341, 3846, 7181, 13308, 14483, 15432, 20793, 20864, 28900]}, "edge": {"target": [], "time": []}}}, "displayed_time": "27.98", "trialTime": 29308, "trial_type": "mouselab-mdp", "trial_index": 23, "time_elapsed": 641321, "internal_node_id": "0.0-6.0-1.0-14.0"}}, {"uniqueid": "w69986083:a19996437", "current_trial": 24, "dateTime": 1693661091693, "trialdata": {"revealed_states": [], "clicked_states": ["29", "28", "27", "10", "7", "6", "5", "9"], "num_clicks_accrued": [0, 0, 0, 0, 0, 0, 0, 0, 0, 0, 0, 0, 0], "stateRewards": ["", -2, 2, -5, 1, 42, -63, -58, -6, 2, 16, 81, -2, 4, 7, -10, 33, 3, -33, -2, -52, -84, -27, 2, -3, -3, 15, -74, -14, -5, -5, -84, 79, -31], "withholdReward": false, "trial_id": "mdp_trial_16", "block": "test", "trialIndex": 17, "score": 20.8, "costs": -17.2, "simulationMode": [null, null, null, null, null], "rewards": [-2, 2, -5, 1, 42], "path": ["0", "0", "1", "2", "3", "4", "5"], "rt": [28562, 170, 514, 249, 154], "actions": ["up", "up", "up", "right", "up"], "actionTimes": [30011, 30719, 31764, 32535, 33215], "queries": {"click": {"state": {"target": ["29", "28", "27", "10", "7", "6", "5", "9"], "time": [3187, 6948, 10586, 13842, 17137, 20350, 23574, 26808]}, "edge": {"target": [], "time": []}}, "mouseover": {"state": {"target": ["16", "18", "28", "26", "29", "26", "28", "27", "8", "3", "10", "2", "7", "6", "5", "9"], "time": [1899, 2630, 2685, 2733, 2947, 6475, 6724, 10350, 11202, 11465, 13059, 14507, 14928, 17884, 21500, 24279]}, "edge": {"target": [], "time": []}}, "mouseout": {"state": {"target": ["16", "18", "28", "26", "29", "26", "28", "28", "27", "8", "3", "10", "2", "7", "6", "5", "9", "0"], "time": [1922, 2653, 2708, 2757, 3453, 6557, 7016, 7622, 11139, 11260, 11500, 14473, 14895, 17627, 21275, 23952, 30443, 35259]}, "edge": {"target": [], "time": []}}}, "displayed_time": "33.75", "trialTime": 36049, "trial_type": "mouselab-mdp", "trial_index": 24, "time_elapsed": 678099, "internal_node_id": "0.0-6.0-1.0-15.0"}}, {"uniqueid": "w69986083:a19996437", "current_trial": 25, "dateTime": 1693661111500, "trialdata": {"revealed_states": [], "clicked_states": ["29", "28", "27"], "num_clicks_accrued": [0, 0, 0, 0, 0, 0, 0, 0, 0, 0, 0, 0, 0], "stateRewards": ["", 1, 1, -3, 2, 22, -25, -11, -5, 50, 49, 3, 1, -1, 8, 14, -85, -30, 57, -6, -39, -16, 59, -2, -1, 5, 5, 59, -16, 8, 4, 67, 56, -9], "withholdReward": false, "trial_id": "mdp_trial_17", "block": "test", "trialIndex": 18, "score": 59.55, "costs": -6.449999999999999, "simulationMode": [null, null, null, null, null], "rewards": [-2, -1, 5, 5, 59], "path": ["0", "0", "23", "24", "25", "26", "27"], "rt": [12175, 265, 52, 82, 113], "actions": ["left", "left", "left", "up", "up"], "actionTimes": [13966, 14767, 15357, 16007, 16656], "queries": {"click": {"state": {"target": ["29", "28", "27"], "time": [3416, 6710, 9931]}, "edge": {"target": [], "time": []}}, "mouseover": {"state": {"target": ["0", "12", "23", "25", "29", "26", "28", "27", "25", "30", "33"], "time": [2109, 2777, 2809, 2858, 3092, 3747, 4144, 7335, 10494, 10542, 10891]}, "edge": {"target": [], "time": []}}, "mouseout": {"state": {"target": ["0", "0", "12", "23", "25", "29", "26", "28", "27", "25", "30", "33", "23", "12", "17", "20", "19"], "time": [1812, 2245, 2797, 2836, 2885, 3668, 3932, 7173, 9981, 10529, 10696, 17563, 17609, 17642, 17674, 18424, 18445]}, "edge": {"target": [], "time": []}}}, "displayed_time": "17.20", "trialTime": 18999, "trial_type": "mouselab-mdp", "trial_index": 25, "time_elapsed": 697907, "internal_node_id": "0.0-6.0-1.0-16.0"}}, {"uniqueid": "w69986083:a19996437", "current_trial": 26, "dateTime": 1693661128770, "trialdata": {"revealed_states": [], "clicked_states": ["20"], "num_clicks_accrued": [0, 0, 0, 0, 0, 0, 0, 0, 0, 0, 0, 0, 0], "stateRewards": ["", 2, -2, -8, 9, -20, 55, -58, 14, 42, 2, 36, 1, -3, -5, 5, -58, 57, 60, 16, 57, 30, -70, -2, 1, 3, 10, 59, 23, 77, -13, -26, 88, -72], "withholdReward": false, "trial_id": "mdp_trial_18", "block": "test", "trialIndex": 19, "score": 63.85, "costs": -2.15, "simulationMode": [null, null, null, null, null], "rewards": [1, -3, -5, 16, 57], "path": ["0", "0", "12", "13", "14", "19", "20"], "rt": [5659, 375, 806, 132, 91], "actions": ["right", "right", "right", "down", "right"], "actionTimes": [7166, 8068, 9386, 10046, 10683], "queries": {"click": {"state": {"target": ["20"], "time": [3005]}, "edge": {"target": [], "time": []}}, "mouseover": {"state": {"target": ["16", "7", "2", "20", "21"], "time": [1534, 1721, 1871, 2823, 3594]}, "edge": {"target": [], "time": []}}, "mouseout": {"state": {"target": ["23", "17", "12", "0", "16", "7", "2", "20", "20", "21", "20"], "time": [236, 602, 653, 890, 1608, 1788, 1889, 3054, 3369, 11973, 12021]}, "edge": {"target": [], "time": []}}}, "displayed_time": "15.52", "trialTime": 16528, "trial_type": "mouselab-mdp", "trial_index": 26, "time_elapsed": 715177, "internal_node_id": "0.0-6.0-1.0-17.0"}}, {"uniqueid": "w69986083:a19996437", "current_trial": 27, "dateTime": 1693661146278, "trialdata": {"revealed_states": [], "clicked_states": ["17", "16"], "num_clicks_accrued": [0, 0, 0, 0, 0, 0, 0, 0, 0, 0, 0, 0, 0], "stateRewards": ["", -2, -4, -6, 12, -58, -70, -80, 2, 16, -88, -62, 1, 2, -5, 11, 77, -35, -44, -5, 18, -83, 87, 1, -3, -5, 13, -44, -21, -86, 10, -52, 8, 29], "withholdReward": false, "trial_id": "mdp_trial_19", "block": "test", "trialIndex": 20, "score": 81.7, "costs": -4.3, "simulationMode": [null, null, null, null, null], "rewards": [1, 2, -5, 11, 77], "path": ["0", "0", "12", "13", "14", "15", "16"], "rt": [8744, 77, 120, 116, 77], "actions": ["right", "right", "right", "up", "up"], "actionTimes": [10682, 11278, 11937, 12580, 13192], "queries": {"click": {"state": {"target": ["17", "16"], "time": [3248, 6958]}, "edge": {"target": [], "time": []}}, "mouseover": {"state": {"target": ["18", "15", "17", "20", "15", "16", "15", "18"], "time": [2042, 2088, 3078, 3815, 6623, 6804, 7416, 7680]}, "edge": {"target": [], "time": []}}, "mouseout": {"state": {"target": ["14", "15", "12", "0", "18", "15", "17", "20", "15", "16", "15", "18", "19", "22"], "time": [96, 992, 1226, 1971, 2063, 2115, 3739, 3864, 6651, 7383, 7456, 14466, 15315, 15335]}, "edge": {"target": [], "time": []}}}, "displayed_time": "15.94", "trialTime": 16725, "trial_type": "mouselab-mdp", "trial_index": 27, "time_elapsed": 732685, "internal_node_id": "0.0-6.0-1.0-18.0"}}, {"uniqueid": "w69986083:a19996437", "current_trial": 28, "dateTime": 1693661177746, "trialdata": {"revealed_states": [], "clicked_states": ["17", "16", "18"], "num_clicks_accrued": [0, 0, 0, 0, 0, 0, 0, 0, 0, 0, 0, 0, 0], "stateRewards": ["", 1, -3, 4, 13, -72, 52, 5, 5, -58, 5, 14, 2, 1, 3, -14, -86, -4, 73, 6, -58, -50, 49, 2, -3, -4, 2, 33, -41, 42, -11, 81, 45, 53], "withholdReward": false, "trial_id": "mdp_trial_20", "block": "test", "trialIndex": 21, "score": 58.55, "costs": -6.449999999999999, "simulationMode": [null, null, null, null, null], "rewards": [2, 1, 3, -14, 73], "path": ["0", "0", "12", "13", "14", "15", "18"], "rt": [11256, 56, 71, 152, 115], "actions": ["right", "right", "right", "up", "left"], "actionTimes": [13275, 13854, 14453, 15134, 15783], "queries": {"click": {"state": {"target": ["17", "16", "18"], "time": [3060, 6341, 9597]}, "edge": {"target": [], "time": []}}, "mouseover": {"state": {"target": ["17", "15", "16", "18", "14", "20"], "time": [2956, 3541, 3663, 7009, 10287, 10508]}, "edge": {"target": [], "time": []}}, "mouseout": {"state": {"target": ["12", "15", "17", "17", "13", "12", "0", "17", "15", "16", "18", "14", "20", "19", "22"], "time": [227, 296, 313, 1085, 1118, 1318, 2048, 3335, 3571, 6736, 10255, 10333, 30334, 30384, 30418]}, "edge": {"target": [], "time": []}}}, "displayed_time": "16.34", "trialTime": 30717, "trial_type": "mouselab-mdp", "trial_index": 28, "time_elapsed": 764153, "internal_node_id": "0.0-6.0-1.0-19.0"}}, {"uniqueid": "w69986083:a19996437", "current_trial": 29, "dateTime": 1693661197874, "trialdata": {"revealed_states": [], "clicked_states": ["31", "32", "33"], "num_clicks_accrued": [0, 0, 0, 0, 0, 0, 0, 0, 0, 0, 0, 0, 0], "stateRewards": ["", -1, -4, -1, -11, 43, 69, 39, 4, 17, -20, -82, -2, -1, 4, 8, -79, 24, -79, 11, 36, 64, 41, 2, 4, -1, 11, -79, -47, 75, -3, 63, -36, -19], "withholdReward": false, "trial_id": "mdp_trial_21", "block": "test", "trialIndex": 22, "score": 58.55, "costs": -6.449999999999999, "simulationMode": [null, null, null, null, null], "rewards": [2, 4, -1, -3, 63], "path": ["0", "0", "23", "24", "25", "30", "31"], "rt": [11549, 72, 19, 5, 640], "actions": ["left", "left", "left", "down", "right"], "actionTimes": [14117, 14707, 15252, 15797, 16982], "queries": {"click": {"state": {"target": ["31", "32", "33"], "time": [4217, 7676, 10942]}, "edge": {"target": [], "time": []}}, "mouseover": {"state": {"target": ["7", "12", "31", "31", "32", "33", "30"], "time": [2749, 3591, 3648, 3962, 5023, 8848, 11554]}, "edge": {"target": [], "time": []}}, "mouseout": {"state": {"target": ["0", "16", "13", "12", "0", "7", "12", "31", "31", "32", "33", "30", "31", "14", "14", "13"], "time": [422, 531, 1532, 1832, 2650, 2768, 3625, 3673, 4455, 8446, 11522, 11586, 18021, 18084, 18586, 18613]}, "edge": {"target": [], "time": []}}}, "displayed_time": "17.52", "trialTime": 19466, "trial_type": "mouselab-mdp", "trial_index": 29, "time_elapsed": 784281, "internal_node_id": "0.0-6.0-1.0-20.0"}}, {"uniqueid": "w69986083:a19996437", "current_trial": 30, "dateTime": 1693661218357, "trialdata": {"revealed_states": [], "clicked_states": ["29", "28", "27"], "num_clicks_accrued": [0, 0, 0, 0, 0, 0, 0, 0, 0, 0, 0, 0, 0], "stateRewards": ["", -2, -3, -7, 7, -54, -69, -4, -14, -77, 22, 40, -2, -1, 5, 6, -35, 50, -60, 10, -28, 75, 57, 1, -4, -2, 2, 68, 34, -18, 12, 3, -21, -43], "withholdReward": false, "trial_id": "mdp_trial_22", "block": "test", "trialIndex": 23, "score": 58.55, "costs": -6.449999999999999, "simulationMode": [null, null, null, null, null], "rewards": [1, -4, -2, 2, 68], "path": ["0", "0", "23", "24", "25", "26", "27"], "rt": [11718, 470, 77, 531, 132], "actions": ["left", "left", "left", "up", "up"], "actionTimes": [13435, 14456, 15067, 16135, 16795], "queries": {"click": {"state": {"target": ["29", "28", "27"], "time": [3147, 6339, 9589]}, "edge": {"target": [], "time": []}}, "mouseover": {"state": {"target": ["14", "17", "13", "23", "24", "29", "26", "28", "27"], "time": [2096, 2126, 2664, 2712, 2751, 2981, 3633, 3770, 7013]}, "edge": {"target": [], "time": []}}, "mouseout": {"state": {"target": ["0", "14", "17", "13", "23", "24", "29", "26", "28", "27", "8", "22"], "time": [1811, 2118, 2147, 2684, 2743, 2779, 3594, 3673, 6837, 17916, 17967, 18600]}, "edge": {"target": [], "time": []}}}, "displayed_time": "17.31", "trialTime": 19581, "trial_type": "mouselab-mdp", "trial_index": 30, "time_elapsed": 804764, "internal_node_id": "0.0-6.0-1.0-21.0"}}, {"uniqueid": "w69986083:a19996437", "current_trial": 31, "dateTime": 1693661247055, "trialdata": {"revealed_states": [], "clicked_states": ["7", "10", "11", "9", "5", "6"], "num_clicks_accrued": [0, 0, 0, 0, 0, 0, 0, 0, 0, 0, 0, 0, 0], "stateRewards": ["", -1, 4, -5, 9, 29, -75, -42, -16, 24, -28, -41, 2, -3, 1, 10, 60, 47, 55, -1, -53, 22, -40, 2, -3, -6, 4, -26, 44, 54, 15, -76, 42, 14], "withholdReward": false, "trial_id": "mdp_trial_23", "block": "test", "trialIndex": 24, "score": 23.1, "costs": -12.9, "simulationMode": [null, null, null, null, null], "rewards": [-1, 4, -5, 9, 29], "path": ["0", "0", "1", "2", "3", "4", "5"], "rt": [21482, 291, 52, 54, 65], "actions": ["up", "up", "up", "right", "up"], "actionTimes": [22852, 23689, 24288, 24895, 25502], "queries": {"click": {"state": {"target": ["7", "10", "11", "9", "5", "6"], "time": [3253, 6442, 9622, 12837, 16192, 19499]}, "edge": {"target": [], "time": []}}, "mouseover": {"state": {"target": ["0", "15", "18", "7", "10", "11", "9", "5", "5", "6"], "time": [1461, 2489, 2526, 2675, 3985, 7123, 10104, 13228, 13493, 16932]}, "edge": {"target": [], "time": []}}, "mouseout": {"state": {"target": ["22", "14", "13", "12", "0", "0", "15", "18", "7", "10", "11", "9", "5", "5", "6"], "time": [492, 592, 642, 693, 1043, 1497, 2516, 2574, 3885, 6890, 10028, 13161, 13299, 16708, 26672]}, "edge": {"target": [], "time": []}}}, "displayed_time": "26.04", "trialTime": 28026, "trial_type": "mouselab-mdp", "trial_index": 31, "time_elapsed": 833462, "internal_node_id": "0.0-6.0-1.0-22.0"}}, {"uniqueid": "w69986083:a19996437", "current_trial": 32, "dateTime": 1693661268764, "trialdata": {"revealed_states": [], "clicked_states": ["29", "28", "27"], "num_clicks_accrued": [0, 0, 0, 0, 0, 0, 0, 0, 0, 0, 0, 0, 0], "stateRewards": ["", -2, 2, 8, -6, -25, 3, 87, 2, -62, -2, 74, -2, -1, 2, -1, 79, 49, -37, -14, 5, 67, -9, -1, 2, -2, 5, 15, 38, 32, -14, -38, -38, 30], "withholdReward": false, "trial_id": "mdp_trial_24", "block": "test", "trialIndex": 25, "score": 35.55, "costs": -6.449999999999999, "simulationMode": [null, null, null, null, null], "rewards": [-1, 2, -2, 5, 38], "path": ["0", "0", "23", "24", "25", "26", "28"], "rt": [12138, 77, 36, 531, 46], "actions": ["left", "left", "left", "up", "right"], "actionTimes": [13767, 14366, 14931, 15993, 16592], "queries": {"click": {"state": {"target": ["29", "28", "27"], "time": [3336, 6570, 9824]}, "edge": {"target": [], "time": []}}, "mouseover": {"state": {"target": ["17", "25", "29", "26", "28", "27"], "time": [1711, 2953, 3172, 3602, 3728, 7087]}, "edge": {"target": [], "time": []}}, "mouseout": {"state": {"target": ["0", "16", "16", "17", "25", "29", "26", "28", "27"], "time": [259, 444, 676, 1747, 2977, 3570, 3665, 7011, 19424]}, "edge": {"target": [], "time": []}}}, "displayed_time": "17.14", "trialTime": 21024, "trial_type": "mouselab-mdp", "trial_index": 32, "time_elapsed": 855171, "internal_node_id": "0.0-6.0-1.0-23.0"}}, {"uniqueid": "w69986083:a19996437", "current_trial": 33, "dateTime": 1693661287242, "trialdata": {"revealed_states": [], "clicked_states": ["21", "20", "22"], "num_clicks_accrued": [0, 0, 0, 0, 0, 0, 0, 0, 0, 0, 0, 0, 0], "stateRewards": ["", -1, -2, 4, 9, 10, -75, 39, 16, -43, 88, -19, -1, 1, 2, 4, -31, 10, 73, 12, 41, -64, -81, -2, 2, -6, 1, -81, -1, -26, 3, -59, -3, -20], "withholdReward": false, "trial_id": "mdp_trial_25", "block": "test", "trialIndex": 26, "score": 48.55, "costs": -6.449999999999999, "simulationMode": [null, null, null, null, null], "rewards": [-1, 1, 2, 12, 41], "path": ["0", "0", "12", "13", "14", "19", "20"], "rt": [10523, 43, 27, 5, 985], "actions": ["right", "right", "right", "down", "right"], "actionTimes": [12280, 12848, 13416, 13948, 15483], "queries": {"click": {"state": {"target": ["21", "20", "22"], "time": [2804, 6008, 9142]}, "edge": {"target": [], "time": []}}, "mouseover": {"state": {"target": ["20", "19", "21", "20", "19", "22"], "time": [2373, 2427, 2622, 3284, 6446, 6789]}, "edge": {"target": [], "time": []}}, "mouseout": {"state": {"target": ["22", "0", "20", "19", "21", "20", "19", "22", "19"], "time": [837, 1223, 2405, 2571, 3222, 6406, 6717, 9682, 17100]}, "edge": {"target": [], "time": []}}}, "displayed_time": "16.01", "trialTime": 17919, "trial_type": "mouselab-mdp", "trial_index": 33, "time_elapsed": 873649, "internal_node_id": "0.0-6.0-1.0-24.0"}}, {"uniqueid": "w69986083:a19996437", "current_trial": 34, "dateTime": 1693661304282, "trialdata": {"revealed_states": [], "clicked_states": ["7", "6"], "num_clicks_accrued": [0, 0, 0, 0, 0, 0, 0, 0, 0, 0, 0, 0, 0], "stateRewards": ["", -1, 1, -1, 2, 19, 85, -18, 2, -3, -26, 36, 2, 4, 7, -9, -18, 70, 72, -5, 35, -20, -28, 1, -2, -4, -3, -59, -11, -63, -2, -72, 59, -69], "withholdReward": false, "trial_id": "mdp_trial_26", "block": "test", "trialIndex": 27, "score": 81.7, "costs": -4.3, "simulationMode": [null, null, null, null, null], "rewards": [-1, 1, -1, 2, 85], "path": ["0", "0", "1", "2", "3", "4", "6"], "rt": [8969, 190, 58, 296, 24], "actions": ["up", "up", "up", "right", "right"], "actionTimes": [10585, 11349, 11916, 12753, 13292], "queries": {"click": {"state": {"target": ["7", "6"], "time": [3549, 6758]}, "edge": {"target": [], "time": []}}, "mouseover": {"state": {"target": ["15", "7", "2", "10", "2", "6", "5"], "time": [2752, 2836, 3859, 3933, 5459, 5599, 7536]}, "edge": {"target": [], "time": []}}, "mouseout": {"state": {"target": ["0", "15", "7", "2", "10", "2", "6", "5", "5", "16", "20", "19"], "time": [924, 2775, 3826, 3897, 5452, 5488, 7244, 11146, 14416, 14594, 15395, 15422]}, "edge": {"target": [], "time": []}}}, "displayed_time": "15.62", "trialTime": 16471, "trial_type": "mouselab-mdp", "trial_index": 34, "time_elapsed": 890689, "internal_node_id": "0.0-6.0-1.0-25.0"}}, {"uniqueid": "w69986083:a19996437", "current_trial": 35, "dateTime": 1693661334632, "trialdata": {"revealed_states": [], "clicked_states": ["5", "9", "11", "10", "7", "6"], "num_clicks_accrued": [0, 0, 0, 0, 0, 0, 0, 0, 0, 0, 0, 0, 0], "stateRewards": ["", 2, -1, 8, -2, -16, 69, -39, -7, -13, -27, -86, 2, -2, 2, 13, -34, -16, -20, -5, 19, 81, 32, -2, -1, 2, -14, 20, 80, 58, 4, 70, 12, 73], "withholdReward": false, "trial_id": "mdp_trial_27", "block": "test", "trialIndex": 28, "score": 63.1, "costs": -12.9, "simulationMode": [null, null, null, null, null], "rewards": [2, -1, 8, -2, 69], "path": ["0", "0", "1", "2", "3", "4", "6"], "rt": [23170, 193, 625, 10, 14], "actions": ["up", "up", "up", "right", "right"], "actionTimes": [24411, 25143, 26296, 26818, 27377], "queries": {"click": {"state": {"target": ["5", "9", "11", "10", "7", "6"], "time": [2020, 5807, 9933, 13533, 16752, 20500]}, "edge": {"target": [], "time": []}}, "mouseover": {"state": {"target": ["5", "9", "3", "8", "11", "10", "10", "2", "7", "7", "6"], "time": [1886, 5541, 9265, 9465, 9548, 10213, 13333, 13830, 13929, 14220, 17396]}, "edge": {"target": [], "time": []}}, "mouseout": {"state": {"target": ["0", "5", "9", "3", "8", "11", "10", "10", "2", "7", "7", "6", "21"], "time": [1260, 2222, 6075, 9431, 9499, 10172, 10245, 13796, 13862, 14042, 17291, 20938, 29193]}, "edge": {"target": [], "time": []}}}, "displayed_time": "27.91", "trialTime": 29826, "trial_type": "mouselab-mdp", "trial_index": 35, "time_elapsed": 921039, "internal_node_id": "0.0-6.0-1.0-26.0"}}, {"uniqueid": "w69986083:a19996437", "current_trial": 36, "dateTime": 1693661366569, "trialdata": {"revealed_states": [], "clicked_states": ["32", "31", "33", "6", "7", "5"], "num_clicks_accrued": [0, 0, 0, 0, 0, 0, 0, 0, 0, 0, 0, 0, 0], "stateRewards": ["", -2, 3, -5, -7, 66, 43, -60, -4, -70, -75, 4, -1, 2, 2, -13, 54, 11, -40, -1, 77, 32, 15, -2, 3, -8, -9, -35, 83, -27, 6, -74, -34, 44], "withholdReward": false, "trial_id": "mdp_trial_28", "block": "test", "trialIndex": 29, "score": 42.1, "costs": -12.9, "simulationMode": [null, null, null, null, null], "rewards": [-2, 3, -5, -7, 66], "path": ["0", "0", "1", "2", "3", "4", "5"], "rt": [22782, 7, 27, 492, 591], "actions": ["up", "up", "up", "right", "up"], "actionTimes": [24398, 24937, 25514, 26522, 27659], "queries": {"click": {"state": {"target": ["32", "31", "33", "6", "7", "5"], "time": [3383, 7096, 10388, 14223, 17439, 21204]}, "edge": {"target": [], "time": []}}, "mouseover": {"state": {"target": ["17", "20", "31", "32", "31", "30", "33", "30", "6", "7", "4", "5", "4"], "time": [1971, 2568, 3045, 3193, 6961, 9554, 9717, 10652, 14088, 14937, 20758, 21041, 21511]}, "edge": {"target": [], "time": []}}, "mouseout": {"state": {"target": ["12", "18", "16", "15", "12", "0", "0", "17", "20", "31", "32", "31", "31", "30", "33", "30", "31", "6", "7", "4", "5", "5", "4", "22"], "time": [197, 248, 297, 582, 615, 637, 1633, 1996, 2591, 3072, 3411, 7299, 9521, 9609, 10615, 10689, 10725, 14535, 17907, 20792, 21235, 21459, 29079, 30436]}, "edge": {"target": [], "time": []}}}, "displayed_time": "28.22", "trialTime": 31139, "trial_type": "mouselab-mdp", "trial_index": 36, "time_elapsed": 952975, "internal_node_id": "0.0-6.0-1.0-27.0"}}, {"uniqueid": "w69986083:a19996437", "current_trial": 37, "dateTime": 1693661384179, "trialdata": {"revealed_states": [], "clicked_states": ["28", "27"], "num_clicks_accrued": [0, 0, 0, 0, 0, 0, 0, 0, 0, 0, 0, 0, 0], "stateRewards": ["", 1, 2, 8, -2, 23, -69, -18, -16, 54, -21, 71, -1, -4, 7, 11, 43, -6, 88, 6, -55, 72, 43, 1, -3, -2, -1, 68, -31, -54, 4, -8, 25, -2], "withholdReward": false, "trial_id": "mdp_trial_29", "block": "test", "trialIndex": 30, "score": 58.7, "costs": -4.3, "simulationMode": [null, null, null, null, null], "rewards": [1, -3, -2, -1, 68], "path": ["0", "0", "23", "24", "25", "26", "27"], "rt": [9113, 90, 6, 199, 70], "actions": ["left", "left", "left", "up", "up"], "actionTimes": [10808, 11396, 11930, 12707, 13317], "queries": {"click": {"state": {"target": ["28", "27"], "time": [3410, 6660]}, "edge": {"target": [], "time": []}}, "mouseover": {"state": {"target": ["18", "12", "26", "28", "27", "29"], "time": [2194, 2662, 2732, 3111, 5458, 7463]}, "edge": {"target": [], "time": []}}, "mouseout": {"state": {"target": ["0", "18", "12", "26", "28", "27", "29", "17"], "time": [1710, 2217, 2689, 2979, 3440, 7146, 15130, 16341]}, "edge": {"target": [], "time": []}}}, "displayed_time": "15.70", "trialTime": 16963, "trial_type": "mouselab-mdp", "trial_index": 37, "time_elapsed": 970586, "internal_node_id": "0.0-6.0-1.0-28.0"}}, {"uniqueid": "w69986083:a19996437", "current_trial": 38, "dateTime": 1693661400780, "trialdata": {"revealed_states": [], "clicked_states": ["28", "27"], "num_clicks_accrued": [0, 0, 0, 0, 0, 0, 0, 0, 0, 0, 0, 0, 0], "stateRewards": ["", 1, 1, -2, 7, -31, -6, 76, 1, -36, -16, -53, 2, 1, 7, 13, -47, -10, 47, -7, 72, 46, -56, -2, -2, -2, 11, -80, 44, 38, 16, 67, 85, -78], "withholdReward": false, "trial_id": "mdp_trial_30", "block": "test", "trialIndex": 31, "score": 44.7, "costs": -4.3, "simulationMode": [null, null, null, null, null], "rewards": [-2, -2, -2, 11, 44], "path": ["0", "0", "23", "24", "25", "26", "28"], "rt": [8729, 341, 42, 507, 47], "actions": ["left", "left", "left", "up", "right"], "actionTimes": [9847, 10717, 11273, 12364, 12950], "queries": {"click": {"state": {"target": ["28", "27"], "time": [2437, 5954]}, "edge": {"target": [], "time": []}}, "mouseover": {"state": {"target": ["14", "28", "27"], "time": [1959, 2226, 2980]}, "edge": {"target": [], "time": []}}, "mouseout": {"state": {"target": ["0", "0", "14", "28", "27", "3", "22"], "time": [475, 557, 1989, 2871, 6019, 13791, 14596]}, "edge": {"target": [], "time": []}}}, "displayed_time": "15.13", "trialTime": 16069, "trial_type": "mouselab-mdp", "trial_index": 38, "time_elapsed": 987187, "internal_node_id": "0.0-6.0-1.0-29.0"}}, {"uniqueid": "w69986083:a19996437", "current_trial": 39, "dateTime": 1693661426960, "trialdata": {"revealed_states": [], "clicked_states": ["10", "11", "9", "5", "6"], "num_clicks_accrued": [0, 0, 0, 0, 0, 0, 0, 0, 0, 0, 0, 0, 0], "stateRewards": ["", 1, 2, -3, -6, 50, -7, 7, -7, -80, 21, -1, 2, 2, 4, -1, 33, 84, 1, 14, -53, 81, 6, -2, -2, -3, -9, -87, -38, -59, -5, -74, -3, -71], "withholdReward": false, "trial_id": "mdp_trial_31", "block": "test", "trialIndex": 32, "score": 33.25, "costs": -10.75, "simulationMode": [null, null, null, null, null], "rewards": [1, 2, -3, -6, 50], "path": ["0", "0", "1", "2", "3", "4", "5"], "rt": [19062, 59, 571, 23, 88], "actions": ["up", "up", "up", "right", "up"], "actionTimes": [20545, 21144, 22271, 22824, 23444], "queries": {"click": {"state": {"target": ["10", "11", "9", "5", "6"], "time": [3239, 7349, 10718, 14140, 17395]}, "edge": {"target": [], "time": []}}, "mouseover": {"state": {"target": ["18", "2", "8", "10", "4", "6", "4", "8", "11", "11", "3", "5", "9", "4", "6", "5", "6", "6"], "time": [2643, 2743, 2860, 3092, 4139, 6682, 6714, 6751, 6944, 7179, 7595, 10243, 10410, 10993, 13776, 13926, 14496, 14731]}, "edge": {"target": [], "time": []}}, "mouseout": {"state": {"target": ["0", "18", "2", "8", "10", "4", "6", "4", "8", "11", "11", "3", "5", "9", "4", "6", "5", "6", "6"], "time": [1503, 2668, 2792, 3043, 4099, 4186, 6704, 6741, 6779, 6996, 7560, 7640, 10277, 10955, 11032, 13797, 14453, 14601, 24322]}, "edge": {"target": [], "time": []}}}, "displayed_time": "23.98", "trialTime": 25509, "trial_type": "mouselab-mdp", "trial_index": 39, "time_elapsed": 1013367, "internal_node_id": "0.0-6.0-1.0-30.0"}}, {"uniqueid": "w69986083:a19996437", "current_trial": 40, "dateTime": 1693661470562, "trialdata": {"revealed_states": [], "clicked_states": ["20", "21", "22", "17", "16", "18", "31", "32", "33", "28"], "num_clicks_accrued": [0, 0, 0, 0, 0, 0, 0, 0, 0, 0, 0, 0, 0], "stateRewards": ["", -1, -3, -6, -2, -7, 80, -45, -3, -38, -72, 76, 2, 1, 7, 4, -62, 14, -74, 14, -87, -21, -88, -2, 1, -7, -10, 66, 56, -76, 10, -29, -72, -70], "withholdReward": false, "trial_id": "mdp_trial_32", "block": "test", "trialIndex": 33, "score": 16.5, "costs": -21.499999999999996, "simulationMode": [null, null, null, null, null], "rewards": [-2, 1, -7, -10, 56], "path": ["0", "0", "23", "24", "25", "26", "28"], "rt": [35806, 388, 75, 384, 9], "actions": ["left", "left", "left", "up", "right"], "actionTimes": [37612, 38558, 39135, 40059, 40587], "queries": {"click": {"state": {"target": ["20", "21", "22", "17", "16", "18", "31", "32", "33", "28"], "time": [2986, 6253, 9677, 12947, 16156, 19378, 23976, 27180, 30464, 33758]}, "edge": {"target": [], "time": []}}, "mouseover": {"state": {"target": ["16", "20", "21", "21", "19", "22", "17", "16", "18", "24", "31", "32", "33", "30", "24", "28", "27"], "time": [1824, 2768, 4319, 4762, 8342, 8564, 12753, 13556, 16748, 23145, 23789, 26152, 30014, 32564, 32781, 33475, 35500]}, "edge": {"target": [], "time": []}}, "mouseout": {"state": {"target": ["22", "15", "18", "0", "16", "20", "21", "21", "20", "19", "22", "17", "16", "18", "24", "31", "31", "32", "33", "30", "24", "28", "27", "19"], "time": [200, 733, 757, 1821, 2117, 3341, 4569, 6784, 8232, 8449, 10101, 13202, 16549, 23073, 23198, 24038, 24330, 27768, 30821, 32603, 32921, 35103, 41422, 42289]}, "edge": {"target": [], "time": []}}}, "displayed_time": "41.15", "trialTime": 42888, "trial_type": "mouselab-mdp", "trial_index": 40, "time_elapsed": 1056968, "internal_node_id": "0.0-6.0-1.0-31.0"}}, {"uniqueid": "w69986083:a19996437", "current_trial": 41, "dateTime": 1693661490753, "trialdata": {"revealed_states": [], "clicked_states": ["11", "9", "10"], "num_clicks_accrued": [0, 0, 0, 0, 0, 0, 0, 0, 0, 0, 0, 0, 0], "stateRewards": ["", -2, -4, -2, -13, -15, 87, -19, -6, -80, 30, 12, 1, 1, -8, 2, 55, 56, 15, 11, -68, -7, 55, -2, 3, -3, -3, 48, 62, 4, 1, -3, 69, -33], "withholdReward": false, "trial_id": "mdp_trial_33", "block": "test", "trialIndex": 34, "score": 9.55, "costs": -6.449999999999999, "simulationMode": [null, null, null, null, null], "rewards": [-2, -4, -2, -6, 30], "path": ["0", "0", "1", "2", "3", "8", "10"], "rt": [11686, 390, 29, 441, 418], "actions": ["up", "up", "up", "left", "down"], "actionTimes": [13672, 14604, 15160, 16171, 17138], "queries": {"click": {"state": {"target": ["11", "9", "10"], "time": [2709, 6353, 9630]}, "edge": {"target": [], "time": []}}, "mouseover": {"state": {"target": ["2", "8", "11", "2", "8", "9", "10", "6", "7"], "time": [2259, 2359, 2592, 4438, 4908, 6154, 6871, 10106, 13026]}, "edge": {"target": [], "time": []}}, "mouseout": {"state": {"target": ["0", "2", "8", "11", "2", "8", "9", "10", "6", "7"], "time": [1341, 2295, 2460, 2737, 4846, 4938, 6565, 9665, 10145, 18548]}, "edge": {"target": [], "time": []}}}, "displayed_time": "17.65", "trialTime": 19480, "trial_type": "mouselab-mdp", "trial_index": 41, "time_elapsed": 1077160, "internal_node_id": "0.0-6.0-1.0-32.0"}}, {"uniqueid": "w69986083:a19996437", "current_trial": 42, "dateTime": 1693661510117, "trialdata": {"revealed_states": [], "clicked_states": ["6", "7", "5"], "num_clicks_accrued": [0, 0, 0, 0, 0, 0, 0, 0, 0, 0, 0, 0, 0], "stateRewards": ["", 2, 1, -3, 7, 46, 11, -36, 16, 71, 5, 1, 2, -2, -8, -3, -4, 6, 55, 7, 68, -54, 2, 1, 1, 6, -6, 42, -4, -84, -11, -65, 63, 25], "withholdReward": false, "trial_id": "mdp_trial_34", "block": "test", "trialIndex": 35, "score": 46.55, "costs": -6.449999999999999, "simulationMode": [null, null, null, null, null], "rewards": [2, 1, -3, 7, 46], "path": ["0", "0", "1", "2", "3", "4", "5"], "rt": [11661, 41, 8, 902, 119], "actions": ["up", "up", "up", "right", "up"], "actionTimes": [13155, 13738, 14268, 15719, 16378], "queries": {"click": {"state": {"target": ["6", "7", "5"], "time": [2809, 6095, 9367]}, "edge": {"target": [], "time": []}}, "mouseover": {"state": {"target": ["20", "15", "7", "6", "7", "5", "10"], "time": [1506, 2328, 2494, 2695, 3791, 9200, 10881]}, "edge": {"target": [], "time": []}}, "mouseout": {"state": {"target": ["0", "12", "12", "0", "0", "20", "15", "7", "6", "7", "5", "10", "20", "19"], "time": [35, 210, 608, 809, 959, 1743, 2367, 2546, 3084, 6465, 9747, 17220, 17896, 17924]}, "edge": {"target": [], "time": []}}}, "displayed_time": "16.92", "trialTime": 18578, "trial_type": "mouselab-mdp", "trial_index": 42, "time_elapsed": 1096524, "internal_node_id": "0.0-6.0-1.0-33.0"}}, {"uniqueid": "w69986083:a19996437", "current_trial": 43, "dateTime": 1693661532093, "trialdata": {"revealed_states": [], "clicked_states": ["28", "29", "27", "31"], "num_clicks_accrued": [0, 0, 0, 0, 0, 0, 0, 0, 0, 0, 0, 0, 0], "stateRewards": ["", 2, 3, 6, -5, -74, -53, 17, -12, 46, 44, 18, -2, 4, 1, -8, 22, -23, -49, 9, -45, 55, 81, 1, -1, -7, -16, -83, -71, -45, 2, 51, 82, 61], "withholdReward": false, "trial_id": "mdp_trial_35", "block": "test", "trialIndex": 36, "score": 37.4, "costs": -8.6, "simulationMode": [null, null, null, null, null], "rewards": [1, -1, -7, 2, 51], "path": ["0", "0", "23", "24", "25", "30", "31"], "rt": [14866, 46, 73, 453, 94], "actions": ["left", "left", "left", "down", "right"], "actionTimes": [16593, 17181, 17779, 18765, 19402], "queries": {"click": {"state": {"target": ["28", "29", "27", "31"], "time": [2895, 6143, 9389, 12661]}, "edge": {"target": [], "time": []}}, "mouseover": {"state": {"target": ["14", "0", "24", "28", "27", "29", "27", "26", "31", "31", "20", "32"], "time": [2406, 2450, 2498, 2804, 4735, 5689, 6574, 9808, 9932, 11108, 13791, 14291]}, "edge": {"target": [], "time": []}}, "mouseout": {"state": {"target": ["0", "0", "14", "0", "24", "28", "27", "29", "27", "27", "26", "31", "31", "20", "32", "14", "22"], "time": [718, 1739, 2441, 2490, 2571, 4467, 5536, 6533, 9422, 9784, 9840, 10021, 13022, 13838, 20181, 20263, 20880]}, "edge": {"target": [], "time": []}}}, "displayed_time": "19.96", "trialTime": 21429, "trial_type": "mouselab-mdp", "trial_index": 43, "time_elapsed": 1118499, "internal_node_id": "0.0-6.0-1.0-34.0"}}, {"uniqueid": "w69986083:a19996437", "current_trial": 44, "dateTime": 1693661554022, "trialdata": {"revealed_states": [], "clicked_states": ["17", "20", "21", "22"], "num_clicks_accrued": [0, 0, 0, 0, 0, 0, 0, 0, 0, 0, 0, 0, 0], "stateRewards": ["", 1, 2, -6, -13, -51, 22, -4, -12, -44, -12, 6, -2, -2, -2, -14, -46, -4, -77, -2, 36, -79, 41, 2, -4, 2, -6, -55, 59, 70, -5, 39, -19, 24], "withholdReward": false, "trial_id": "mdp_trial_36", "block": "test", "trialIndex": 37, "score": 24.4, "costs": -8.6, "simulationMode": [null, null, null, null, null], "rewards": [-2, -2, -2, -2, 41], "path": ["0", "0", "12", "13", "14", "19", "22"], "rt": [14901, 469, 95, 190, 102], "actions": ["right", "right", "right", "down", "left"], "actionTimes": [16341, 17346, 17966, 18669, 19308], "queries": {"click": {"state": {"target": ["17", "20", "21", "22"], "time": [2796, 5918, 8998, 12599]}, "edge": {"target": [], "time": []}}, "mouseover": {"state": {"target": ["17", "20", "21", "22", "15", "16", "15"], "time": [2615, 3212, 6640, 9710, 15327, 15560, 15991]}, "edge": {"target": [], "time": []}}, "mouseout": {"state": {"target": ["0", "0", "17", "20", "20", "21", "22", "15", "16", "15", "19", "22"], "time": [696, 1798, 2994, 5951, 6319, 9020, 15172, 15493, 15964, 20147, 20738, 20769]}, "edge": {"target": [], "time": []}}}, "displayed_time": "19.85", "trialTime": 21274, "trial_type": "mouselab-mdp", "trial_index": 44, "time_elapsed": 1140429, "internal_node_id": "0.0-6.0-1.0-35.0"}}, {"uniqueid": "w69986083:a19996437", "current_trial": 45, "dateTime": 1693661571854, "trialdata": {"revealed_states": [], "clicked_states": ["27", "28", "29"], "num_clicks_accrued": [0, 0, 0, 0, 0, 0, 0, 0, 0, 0, 0, 0, 0], "stateRewards": ["", 1, -4, 6, -3, 40, 76, -51, 5, -24, -63, 44, -2, -2, 8, 1, 76, -85, -58, 10, 59, 20, 11, -2, 3, -3, 3, -82, -10, 54, -7, -57, -6, -32], "withholdReward": false, "trial_id": "mdp_trial_37", "block": "test", "trialIndex": 38, "score": 48.55, "costs": -6.449999999999999, "simulationMode": [null, null, null, null, null], "rewards": [-2, 3, -3, 3, 54], "path": ["0", "0", "23", "24", "25", "26", "29"], "rt": [11331, 143, 112, 204, 41], "actions": ["left", "left", "left", "up", "left"], "actionTimes": [12635, 13317, 13967, 14703, 15292], "queries": {"click": {"state": {"target": ["27", "28", "29"], "time": [2455, 5665, 8864]}, "edge": {"target": [], "time": []}}, "mouseover": {"state": {"target": ["28", "27", "14", "28", "26", "29"], "time": [2008, 2321, 3281, 4252, 6048, 6266]}, "edge": {"target": [], "time": []}}, "mouseout": {"state": {"target": ["0", "28", "27", "14", "28", "26", "29"], "time": [1919, 2202, 2635, 3327, 6010, 6123, 9365]}, "edge": {"target": [], "time": []}}}, "displayed_time": "15.85", "trialTime": 17155, "trial_type": "mouselab-mdp", "trial_index": 45, "time_elapsed": 1158261, "internal_node_id": "0.0-6.0-1.0-36.0"}}, {"uniqueid": "w69986083:a19996437", "current_trial": 46, "dateTime": 1693661590907, "trialdata": {"revealed_states": [], "clicked_states": ["28", "29", "27"], "num_clicks_accrued": [0, 0, 0, 0, 0, 0, 0, 0, 0, 0, 0, 0, 0], "stateRewards": ["", -1, 3, 8, 9, -53, 20, -84, 2, -28, -62, -31, -1, -2, -7, 2, 51, 58, 45, -4, -17, -41, 36, 2, -2, -7, -15, 29, -54, -37, -16, -43, 65, -17], "withholdReward": false, "trial_id": "mdp_trial_38", "block": "test", "trialIndex": 39, "score": 0.5500000000000007, "costs": -6.449999999999999, "simulationMode": [null, null, null, null, null], "rewards": [2, -2, -7, -15, 29], "path": ["0", "0", "23", "24", "25", "26", "27"], "rt": [11708, 60, 562, 101, 94], "actions": ["left", "left", "left", "up", "up"], "actionTimes": [13230, 13816, 14942, 15571, 16222], "queries": {"click": {"state": {"target": ["28", "29", "27"], "time": [2898, 6073, 9237]}, "edge": {"target": [], "time": []}}, "mouseover": {"state": {"target": ["1", "10", "10", "28", "28", "26", "29", "27", "3"], "time": [1795, 1912, 2277, 2527, 2759, 3810, 3884, 6552, 9716]}, "edge": {"target": [], "time": []}}, "mouseout": {"state": {"target": ["0", "1", "10", "10", "28", "28", "26", "29", "27", "3"], "time": [1766, 1833, 2076, 2345, 2557, 3803, 3848, 6110, 9684, 9748]}, "edge": {"target": [], "time": []}}}, "displayed_time": "16.77", "trialTime": 18431, "trial_type": "mouselab-mdp", "trial_index": 46, "time_elapsed": 1177314, "internal_node_id": "0.0-6.0-1.0-37.0"}}, {"uniqueid": "w69986083:a19996437", "current_trial": 47, "dateTime": 1693661622761, "trialdata": {"revealed_states": [], "clicked_states": ["5", "6", "7", "10", "11", "9", "18"], "num_clicks_accrued": [0, 0, 0, 0, 0, 0, 0, 0, 0, 0, 0, 0, 0], "stateRewards": ["", -2, -1, -3, -1, -78, -6, 2, -1, 22, -88, 32, 2, 2, -7, -8, -51, -17, 54, 2, -44, 54, 75, 2, -2, -8, -15, -29, 12, -67, 15, -1, -47, -47], "withholdReward": false, "trial_id": "mdp_trial_39", "block": "test", "trialIndex": 40, "score": 27.95, "costs": -15.05, "simulationMode": [null, null, null, null, null], "rewards": [2, 2, -7, -8, 54], "path": ["0", "0", "12", "13", "14", "15", "18"], "rt": [25045, 39, 22, 77, 882], "actions": ["right", "right", "right", "up", "left"], "actionTimes": [26011, 26577, 27135, 27745, 29168], "queries": {"click": {"state": {"target": ["5", "6", "7", "10", "11", "9", "18"], "time": [1642, 4831, 8024, 11279, 14507, 17729, 22019]}, "edge": {"target": [], "time": []}}, "mouseover": {"state": {"target": ["7", "4", "5", "6", "6", "7", "2", "10", "11", "9", "18", "15", "17"], "time": [1217, 1389, 1521, 1893, 4500, 5275, 8479, 8747, 11825, 16328, 21981, 22662, 23414]}, "edge": {"target": [], "time": []}}, "mouseout": {"state": {"target": ["0", "1", "7", "0", "7", "4", "5", "6", "6", "7", "2", "10", "11", "9", "18", "15", "17"], "time": [138, 185, 384, 1119, 1249, 1424, 1848, 1933, 5183, 8443, 8526, 11303, 14978, 18579, 22603, 23310, 29785]}, "edge": {"target": [], "time": []}}}, "displayed_time": "29.73", "trialTime": 31110, "trial_type": "mouselab-mdp", "trial_index": 47, "time_elapsed": 1209168, "internal_node_id": "0.0-6.0-1.0-38.0"}}, {"uniqueid": "w69986083:a19996437", "current_trial": 48, "dateTime": 1693661641782, "trialdata": {"revealed_states": [], "clicked_states": ["31", "32", "33"], "num_clicks_accrued": [0, 0, 0, 0, 0, 0, 0, 0, 0, 0, 0, 0, 0], "stateRewards": ["", 1, -2, -8, -3, 31, -84, -55, -14, 15, -58, 17, -2, -3, 7, 7, -12, 48, 67, 4, -44, -68, 46, 2, 3, -5, -7, 76, 27, 5, 11, 57, 52, 59], "withholdReward": false, "trial_id": "mdp_trial_40", "block": "test", "trialIndex": 41, "score": 63.55, "costs": -6.449999999999999, "simulationMode": [null, null, null, null, null], "rewards": [2, 3, -5, 11, 59], "path": ["0", "0", "23", "24", "25", "30", "33"], "rt": [12201, 16, 175, 30, 66], "actions": ["left", "left", "left", "down", "left"], "actionTimes": [13684, 14229, 14925, 15499, 16150], "queries": {"click": {"state": {"target": ["31", "32", "33"], "time": [3596, 6840, 10223]}, "edge": {"target": [], "time": []}}, "mouseover": {"state": {"target": ["14", "1", "24", "31", "32", "33", "29"], "time": [2740, 2843, 3225, 3392, 4012, 8184, 12372]}, "edge": {"target": [], "time": []}}, "mouseout": {"state": {"target": ["0", "14", "1", "24", "31", "32", "33", "33", "29", "26", "15"], "time": [1494, 2769, 2891, 3276, 3940, 7907, 10632, 12022, 17107, 17140, 17318]}, "edge": {"target": [], "time": []}}}, "displayed_time": "16.71", "trialTime": 18392, "trial_type": "mouselab-mdp", "trial_index": 48, "time_elapsed": 1228189, "internal_node_id": "0.0-6.0-1.0-39.0"}}, {"uniqueid": "w69986083:a19996437", "current_trial": 49, "dateTime": 1693661678309, "trialdata": {"rt": 36513, "response": {"Q0": "$-2 to $2", "Q1": "$-32 to $32", "Q2": "$-88 to $88", "Q3": "The cost for clicking on nodes varied between nodes.", "Q4": "Very motivated"}, "question_order": [0, 1, 2, 3, 4], "trial_id": "final_quiz_control", "trial_type": "survey-multi-choice", "trial_index": 49, "time_elapsed": 1264716, "internal_node_id": "0.0-6.0-2.0"}}, {"uniqueid": "w69986083:a19996437", "current_trial": 50, "dateTime": 1693661769848, "trialdata": {"rt": 91517, "response": {"Q0": "Click on the furthest nodes out. Usually 5 or 6 would reveal a higher positive one. I knw that you anything above 40 would probably put me in profit so went for that.", "Q1": "Definitely first few were a disaster and I lost money, later realised not to click on all the nodes, just the furthest away ones", "Q2": "It was hard first couple of rounds, but then easier once I found a strategy I liked. It was made harder by the quick time limits. Fun game thouh!"}, "trial_id": "self_report_control", "trial_type": "survey-text", "trial_index": 50, "time_elapsed": 1356256, "internal_node_id": "0.0-6.0-3.0"}}, {"uniqueid": "w69986083:a19996437", "current_trial": 51, "dateTime": 1693661806704, "trialdata": {"rt": 36843, "response": {"Q0": "Strongly disagree", "Q1": "Strongly disagree", "Q2": "Strongly agree", "Q3": "Strongly agree", "Q4": "Strongly disagree", "Q5": "Agree", "Q6": "Strongly disagree"}, "question_order": [0, 1, 2, 3, 4, 5, 6], "trial_id": "self_report_2", "trial_type": "survey-multi-choice", "trial_index": 51, "time_elapsed": 1393112, "internal_node_id": "0.0-6.0-4.0"}}, {"uniqueid": "w69986083:a19996437", "current_trial": 52, "dateTime": 1693661831611, "trialdata": {"rt": 24890, "response": {"gender": "female", "age": "32", "colorblind": "0", "effort": "0"}, "trial_type": "survey-html-form", "trial_index": 52, "time_elapsed": 1418019, "internal_node_id": "0.0-6.0-5.0"}}, {"uniqueid": "w69986083:a19996437", "current_trial": 53, "dateTime": 1693661846320, "trialdata": {"rt": 14688, "response": {"Q0": "No, it was a fun gme", "Q1": "No", "Q2": "None"}, "trial_type": "survey-text", "trial_index": 53, "time_elapsed": 1432728, "internal_node_id": "0.0-6.0-6.0"}}, {"uniqueid": "w69986083:a19996437", "current_trial": 54, "dateTime": 1693661872062, "trialdata": {"rt": 25735, "stimulus": "<h1>Completion Code Instructions (1/2)</h1>\n<br><br><br><br>\nYou have reached the end of the experiment! The completion code consists of two parts: (1) a code with 2 characters (2) a code with 6 characters. On this page, you will receive the second part of the code. The first part of the completion code will be on the next page.\n<br><br>\nThe second part of your completion code is: <b>EWEK22</b>\n<br><br>\nPlease note this down. Then, press 'Next' in order to find the first part of your completion code. Once the data has been saved, you will receive this code either in this window or in the original browser window where you started the experiment.\n <br><br>\n<h2 style='color: red;'>Note: this is <strong>NOT</strong> the full completion code. Copy this down and click 'Next' to get the full completion code on the next page.</h2>", "response": 0, "trial_type": "html-button-response", "trial_index": 54, "time_elapsed": 1458469, "internal_node_id": "0.0-6.0-7.0"}}, {"uniqueid": "w69986083:a19996437", "current_trial": 55, "dateTime": 1693661873076, "trialdata": {"success": true, "trial_type": "fullscreen", "trial_index": 55, "time_elapsed": 1459484, "internal_node_id": "0.0-7.0"}}], "questiondata": {"params": {"CODE": "C6DMOQA6", "MIN_TIME": 14, "inspectCost": 1, "startTime": "Sat Sep 02 2023 14:13:32 GMT+0100 (British Summer Time)", "bonusRate": 0.002, "variance": "1_2_4_8_44", "branching": "31123"}, "final_score": 1562.4}, "eventdata": [{"eventtype": "initialized", "value": null, "timestamp": 1693660412117, "interval": 0}, {"eventtype": "window_resize", "value": [1280, 622], "timestamp": 1693660412117, "interval": 0}, {"eventtype": "focus", "value": "off", "timestamp": 1693660412310, "interval": 193}, {"eventtype": "window_resize", "value": [1280, 622], "timestamp": 1693660412484, "interval": 174}, {"eventtype": "focus", "value": "on", "timestamp": 1693660413405, "interval": 921}, {"eventtype": "focus", "value": "off", "timestamp": 1693660416070, "interval": 2665}, {"eventtype": "focus", "value": "on", "timestamp": 1693660416939, "interval": 869}, {"eventtype": "window_resize", "value": [1280, 720], "timestamp": 1693660418529, "interval": 1590}, {"eventtype": "window_resize", "value": [1280, 622], "timestamp": 1693660419837, "interval": 1308}, {"eventtype": "window_resize", "value": [1280, 720], "timestamp": 1693660422896, "interval": 3059}, {"eventtype": "window_resize", "value": [1280, 622], "timestamp": 1693660424807, "interval": 1911}, {"eventtype": "window_resize", "value": [1280, 720], "timestamp": 1693660426267, "interval": 1460}, {"eventtype": "window_resize", "value": [1280, 622], "timestamp": 1693661824112, "interval": 1397845}, {"eventtype": "focus", "value": "off", "timestamp": 1693661825520, "interval": 1408}, {"eventtype": "focus", "value": "on", "timestamp": 1693661829665, "interval": 4145}, {"eventtype": "window_resize", "value": [1280, 720], "timestamp": 1693661834255, "interval": 4590}, {"eventtype": "window_resize", "value": [1280, 622], "timestamp": 1693661861650, "interval": 27395}, {"eventtype": "focus", "value": "off", "timestamp": 1693661863263, "interval": 1613}, {"eventtype": "focus", "value": "on", "timestamp": 1693661871577, "interval": 8314}], "useragent": "Mozilla/5.0 (Windows NT 10.0; Win64; x64) AppleWebKit/537.36 (KHTML, like Gecko) Chrome/116.0.0.0 Safari/537.36", "mode": "live", "id": "w69986083:a19996437", "status": "user data saved", "Beginhit": "2023-09-02 13:13:30.50757", "Beginexp": "2023-09-02 13:13:43.791208", "Endhit": "2023-09-02 13:37:53.644558", "psiturkStatus": 3, "browser": "<redacted>", "platform": "windows", "language": "en-GB"}