{"condition": 0, "counterbalance": 0, "assignmentId": "a43522419", "workerId": "w63548304", "hitId": "h64006913", "currenttrial": 67, "bonus": 0, "data": [{"uniqueid": "w63548304:a43522419", "current_trial": 0, "dateTime": 1693480622974, "trialdata": {"success": true, "trial_type": "fullscreen", "trial_index": 0, "time_elapsed": 6482, "internal_node_id": "0.0-0.0"}}, {"uniqueid": "w63548304:a43522419", "current_trial": 1, "dateTime": 1693480633632, "trialdata": {"view_history": [{"page_index": 0, "viewing_time": 10654}], "rt": 10655, "trial_id": "exp_instructions_control", "trial_type": "instructions", "trial_index": 1, "time_elapsed": 17141, "internal_node_id": "0.0-1.0"}}, {"uniqueid": "w63548304:a43522419", "current_trial": 2, "dateTime": 1693480941373, "trialdata": {"view_history": [{"page_index": 0, "viewing_time": 45960}, {"page_index": 1, "viewing_time": 59539}, {"page_index": 2, "viewing_time": 82616}, {"page_index": 3, "viewing_time": 119614}], "rt": 307729, "trial_id": "mouselab_instructions_1_control", "trial_type": "instructions", "trial_index": 2, "time_elapsed": 324881, "internal_node_id": "0.0-2.0-1.0"}}, {"uniqueid": "w63548304:a43522419", "current_trial": 3, "dateTime": 1693480986372, "trialdata": {"revealed_states": [], "clicked_states": ["12", "13", "14", "15", "1", "23", "24", "2", "28", "25", "26", "3", "8", "10"], "num_clicks_accrued": [0, 0, 0, 0, 0, 0, 0, 0, 0, 0, 0, 0, 0], "stateRewards": ["", -10, -10, 10, -10, 10, -10, -10, 10, -10, 10, -10, 10, 10, -10, 10, 10, -10, 10, -10, 10, -10, -10, -10, 10, 10, -10, -10, -10, 10, 10, 10, -10, 10], "withholdReward": false, "trial_id": "practice_1", "block": "test", "trialIndex": 0, "score": 6.5, "costs": -7, "simulationMode": [null, null, null, null, null], "rewards": [-10, -10, 10, 10, 10], "path": ["0", "0", "1", "2", "3", "8", "10"], "rt": [31185, 116, 125, 60, 232], "actions": ["up", "up", "up", "left", "down"], "actionTimes": [33710, 34342, 34981, 35561, 36324], "queries": {"click": {"state": {"target": ["12", "13", "14", "15", "1", "23", "24", "2", "28", "25", "26", "3", "8", "10"], "time": [3398, 5065, 7276, 9317, 11209, 12848, 14319, 15625, 17830, 20465, 25192, 27581, 30184, 31608]}, "edge": {"target": [], "time": []}}, "mouseover": {"state": {"target": ["12", "13", "14", "15", "1", "23", "24", "2", "28", "28", "24", "23", "25", "24", "23", "28", "26", "12", "13", "18", "7", "3", "18", "2", "10", "8", "10", "2"], "time": [3073, 3998, 6000, 8240, 10345, 12428, 13929, 15291, 17248, 17559, 19456, 19521, 20257, 22121, 23656, 24772, 24903, 26472, 26535, 26872, 26970, 27456, 28251, 28498, 28670, 29982, 30989, 32387]}, "edge": {"target": [], "time": []}}, "mouseout": {"state": {"target": ["12", "12", "13", "14", "15", "1", "23", "24", "2", "28", "28", "24", "23", "25", "24", "23", "28", "26", "12", "13", "18", "7", "3", "18", "2", "10", "8", "10", "2"], "time": [1506, 3942, 5965, 8109, 9855, 12152, 13557, 14909, 17181, 17312, 19164, 19487, 19558, 22040, 23607, 24690, 24825, 25691, 26503, 26772, 26939, 27002, 28113, 28414, 28534, 29917, 30924, 32327, 32419]}, "edge": {"target": [], "time": []}}}, "displayed_time": "36.84", "trialTime": 44470, "trial_type": "mouselab-mdp", "trial_index": 3, "time_elapsed": 369879, "internal_node_id": "0.0-2.0-2.0-0.0"}}, {"uniqueid": "w63548304:a43522419", "current_trial": 4, "dateTime": 1693481025043, "trialdata": {"revealed_states": [], "clicked_states": ["1", "2", "3", "12", "23", "24", "13", "14", "25", "30", "19", "15", "16", "17", "18", "21", "20", "22"], "num_clicks_accrued": [0, 0, 0, 0, 0, 0, 0, 0, 0, 0, 0, 0, 0], "stateRewards": ["", -10, -10, -10, -10, -10, 10, 10, -10, -10, -10, 10, 10, -10, -10, 10, -10, -10, -10, 10, -10, -10, 10, -10, -10, -10, -10, 10, -10, 10, -10, -10, 10, -10], "withholdReward": false, "trial_id": "practice_2", "block": "test", "trialIndex": 1, "score": 4.5, "costs": -9, "simulationMode": [null, null, null, null, null], "rewards": [10, -10, -10, 10, 10], "path": ["0", "0", "12", "13", "14", "19", "22"], "rt": [31452, 65, 260, 358, 142], "actions": ["right", "right", "right", "down", "left"], "actionTimes": [33597, 34201, 34986, 35875, 36542], "queries": {"click": {"state": {"target": ["1", "2", "3", "12", "23", "24", "13", "14", "25", "30", "19", "15", "16", "17", "18", "21", "20", "22"], "time": [2948, 4654, 6585, 7976, 9381, 10939, 12295, 14066, 16206, 17871, 19849, 21474, 23562, 25498, 27254, 28740, 30232, 31673]}, "edge": {"target": [], "time": []}}, "mouseover": {"state": {"target": ["1", "2", "3", "1", "12", "23", "24", "13", "14", "13", "14", "25", "30", "0", "14", "19", "14", "15", "16", "17", "18", "20", "19", "21", "20", "19", "22"], "time": [2659, 3503, 6238, 7067, 7424, 8929, 10578, 11481, 11545, 11859, 13701, 14722, 17599, 18804, 18878, 19445, 20685, 20781, 23093, 25162, 26174, 27683, 27796, 27889, 29503, 30619, 30691]}, "edge": {"target": [], "time": []}}, "mouseout": {"state": {"target": ["0", "0", "1", "2", "3", "2", "1", "12", "23", "24", "23", "13", "14", "13", "14", "13", "25", "30", "0", "14", "19", "14", "15", "16", "17", "18", "20", "19", "21", "20", "19", "22"], "time": [1538, 1703, 3498, 6008, 6961, 7065, 7106, 8831, 10518, 11392, 11454, 11538, 11794, 13630, 14525, 14580, 17496, 17890, 18841, 18930, 20652, 20739, 23007, 24511, 26063, 27500, 27706, 27827, 29357, 30586, 30652, 33024]}, "edge": {"target": [], "time": []}}}, "displayed_time": "37.06", "trialTime": 38402, "trial_type": "mouselab-mdp", "trial_index": 4, "time_elapsed": 408550, "internal_node_id": "0.0-2.0-2.0-1.0"}}, {"uniqueid": "w63548304:a43522419", "current_trial": 5, "dateTime": 1693481051675, "trialdata": {"view_history": [{"page_index": 0, "viewing_time": 23719}, {"page_index": 1, "viewing_time": 2845}], "rt": 26565, "trial_id": "mouselab_instructions_2_control", "trial_type": "instructions", "trial_index": 5, "time_elapsed": 435184, "internal_node_id": "0.0-2.0-3.0"}}, {"uniqueid": "w63548304:a43522419", "current_trial": 6, "dateTime": 1693481082716, "trialdata": {"rt": 31035, "response": {"Q0": "The cost for clicking on nodes may vary between nodes.", "Q1": "The better I perform the higher my bonus will be.", "Q2": "No, the amount of cash at each node of the web may be different each time.", "Q3": "To get the highest total score.", "Q4": "Any time during the round.", "Q5": "3 seconds"}, "question_order": [0, 1, 2, 3, 4, 5], "correct": {"Q0": "The cost for clicking on nodes may vary between nodes.", "Q1": "The better I perform the higher my bonus will be.", "Q2": "No, the amount of cash at each node of the web may be different each time.", "Q3": "To get the highest total score.", "Q4": "Only before moving the spider.", "Q5": "3 seconds"}, "trial_id": "mouselab_quiz_control", "trial_type": "survey-multi-choice", "trial_index": 6, "time_elapsed": 466225, "internal_node_id": "0.0-2.0-4.0"}}, {"uniqueid": "w63548304:a43522419", "current_trial": 7, "dateTime": 1693481088991, "trialdata": {"success": true, "trial_type": "fullscreen", "trial_index": 7, "time_elapsed": 472500, "internal_node_id": "0.0-2.1-0.1-0.1"}}, {"uniqueid": "w63548304:a43522419", "current_trial": 8, "dateTime": 1693481144862, "trialdata": {"view_history": [{"page_index": 0, "viewing_time": 19666}, {"page_index": 1, "viewing_time": 32446}, {"page_index": 2, "viewing_time": 1827}, {"page_index": 3, "viewing_time": 1929}], "rt": 55868, "trial_id": "mouselab_instructions_1_control", "trial_type": "instructions", "trial_index": 8, "time_elapsed": 528371, "internal_node_id": "0.0-2.1-1.1"}}, {"uniqueid": "w63548304:a43522419", "current_trial": 9, "dateTime": 1693481152868, "trialdata": {"revealed_states": [], "clicked_states": [], "num_clicks_accrued": [0, 0, 0, 0, 0, 0, 0, 0, 0, 0, 0, 0, 0], "stateRewards": ["", -10, -10, 10, -10, 10, -10, -10, 10, -10, 10, -10, 10, 10, -10, 10, 10, -10, 10, -10, 10, -10, -10, -10, 10, 10, -10, -10, -10, 10, 10, 10, -10, 10], "withholdReward": false, "trial_id": "practice_1", "block": "test", "trialIndex": 2, "score": -6.5, "costs": 0, "simulationMode": [null, null, null, null, null], "rewards": [10, 10, -10, -10, -10], "path": ["0", "0", "12", "13", "14", "19", "22"], "rt": [748, 101, 39, 328, 901], "actions": ["right", "right", "right", "down", "left"], "actionTimes": [2478, 3115, 3674, 4515, 5951], "queries": {"click": {"state": {"target": [], "time": []}, "edge": {"target": [], "time": []}}, "mouseover": {"state": {"target": [], "time": []}, "edge": {"target": [], "time": []}}, "mouseout": {"state": {"target": ["0", "0"], "time": [1280, 1429]}, "edge": {"target": [], "time": []}}}, "displayed_time": "6.47", "trialTime": 7689, "trial_type": "mouselab-mdp", "trial_index": 9, "time_elapsed": 536376, "internal_node_id": "0.0-2.1-2.1-0.1"}}, {"uniqueid": "w63548304:a43522419", "current_trial": 10, "dateTime": 1693481161178, "trialdata": {"revealed_states": [], "clicked_states": [], "num_clicks_accrued": [0, 0, 0, 0, 0, 0, 0, 0, 0, 0, 0, 0, 0], "stateRewards": ["", -10, -10, -10, -10, -10, 10, 10, -10, -10, -10, 10, 10, -10, -10, 10, -10, -10, -10, 10, -10, -10, 10, -10, -10, -10, -10, 10, -10, 10, -10, -10, 10, -10], "withholdReward": false, "trial_id": "practice_2", "block": "test", "trialIndex": 3, "score": -26.5, "costs": 0, "simulationMode": [null, null, null, null, null], "rewards": [-10, -10, -10, -10, 10], "path": ["0", "0", "1", "2", "3", "8", "11"], "rt": [1134, 33, 649, 196, 64], "actions": ["up", "up", "up", "left", "left"], "actionTimes": [3127, 3696, 4867, 5591, 6187], "queries": {"click": {"state": {"target": [], "time": []}, "edge": {"target": [], "time": []}}, "mouseover": {"state": {"target": [], "time": []}, "edge": {"target": [], "time": []}}, "mouseout": {"state": {"target": ["0"], "time": [1814]}, "edge": {"target": [], "time": []}}}, "displayed_time": "6.71", "trialTime": 8005, "trial_type": "mouselab-mdp", "trial_index": 10, "time_elapsed": 544687, "internal_node_id": "0.0-2.1-2.1-1.1"}}, {"uniqueid": "w63548304:a43522419", "current_trial": 11, "dateTime": 1693481179446, "trialdata": {"view_history": [{"page_index": 0, "viewing_time": 16419}, {"page_index": 1, "viewing_time": 1845}], "rt": 18265, "trial_id": "mouselab_instructions_2_control", "trial_type": "instructions", "trial_index": 11, "time_elapsed": 562955, "internal_node_id": "0.0-2.1-3.1"}}, {"uniqueid": "w63548304:a43522419", "current_trial": 12, "dateTime": 1693481606578, "trialdata": {"rt": 427116, "response": {"Q0": "The cost for clicking on nodes may vary between nodes.", "Q1": "The better I perform the higher my bonus will be.", "Q2": "No, the structure of the web will be different each time.", "Q3": "To get the highest total score.", "Q4": "Any time during the round.", "Q5": "3 seconds"}, "question_order": [0, 1, 2, 3, 4, 5], "correct": {"Q0": "The cost for clicking on nodes may vary between nodes.", "Q1": "The better I perform the higher my bonus will be.", "Q2": "No, the amount of cash at each node of the web may be different each time.", "Q3": "To get the highest total score.", "Q4": "Only before moving the spider.", "Q5": "3 seconds"}, "trial_id": "mouselab_quiz_control", "trial_type": "survey-multi-choice", "trial_index": 12, "time_elapsed": 990087, "internal_node_id": "0.0-2.1-4.1"}}, {"uniqueid": "w63548304:a43522419", "current_trial": 13, "dateTime": 1693481612991, "trialdata": {"success": true, "trial_type": "fullscreen", "trial_index": 13, "time_elapsed": 996500, "internal_node_id": "0.0-2.2-0.2-0.2"}}, {"uniqueid": "w63548304:a43522419", "current_trial": 14, "dateTime": 1693481742739, "trialdata": {"view_history": [{"page_index": 0, "viewing_time": 17778}, {"page_index": 1, "viewing_time": 96593}, {"page_index": 2, "viewing_time": 11690}, {"page_index": 3, "viewing_time": 3681}], "rt": 129743, "trial_id": "mouselab_instructions_1_control", "trial_type": "instructions", "trial_index": 14, "time_elapsed": 1126248, "internal_node_id": "0.0-2.2-1.2"}}, {"uniqueid": "w63548304:a43522419", "current_trial": 15, "dateTime": 1693481752599, "trialdata": {"revealed_states": [], "clicked_states": [], "num_clicks_accrued": [0, 0, 0, 0, 0, 0, 0, 0, 0, 0, 0, 0, 0], "stateRewards": ["", -10, -10, 10, -10, 10, -10, -10, 10, -10, 10, -10, 10, 10, -10, 10, 10, -10, 10, -10, 10, -10, -10, -10, 10, 10, -10, -10, -10, 10, 10, 10, -10, 10], "withholdReward": false, "trial_id": "practice_1", "block": "test", "trialIndex": 4, "score": -6.5, "costs": 0, "simulationMode": [null, null, null, null, null], "rewards": [-10, -10, 10, -10, 10], "path": ["0", "0", "1", "2", "3", "4", "5"], "rt": [3574, 148, 128, 557, 101], "actions": ["up", "up", "up", "right", "up"], "actionTimes": [4639, 5309, 5978, 7070, 7703], "queries": {"click": {"state": {"target": [], "time": []}, "edge": {"target": [], "time": []}}, "mouseover": {"state": {"target": [], "time": []}, "edge": {"target": [], "time": []}}, "mouseout": {"state": {"target": ["0"], "time": [663]}, "edge": {"target": [], "time": []}}}, "displayed_time": "8.22", "trialTime": 9557, "trial_type": "mouselab-mdp", "trial_index": 15, "time_elapsed": 1136107, "internal_node_id": "0.0-2.2-2.2-0.2"}}, {"uniqueid": "w63548304:a43522419", "current_trial": 16, "dateTime": 1693481759251, "trialdata": {"revealed_states": [], "clicked_states": [], "num_clicks_accrued": [0, 0, 0, 0, 0, 0, 0, 0, 0, 0, 0, 0, 0], "stateRewards": ["", -10, -10, -10, -10, -10, 10, 10, -10, -10, -10, 10, 10, -10, -10, 10, -10, -10, -10, 10, -10, -10, 10, -10, -10, -10, -10, 10, -10, 10, -10, -10, 10, -10], "withholdReward": false, "trial_id": "practice_2", "block": "test", "trialIndex": 5, "score": -26.5, "costs": 0, "simulationMode": [null, null, null, null, null], "rewards": [-10, -10, -10, -10, 10], "path": ["0", "0", "23", "24", "25", "30", "32"], "rt": [607, 78, 211, 60, 187], "actions": ["left", "left", "left", "down", "down"], "actionTimes": [2416, 3014, 3743, 4342, 5080], "queries": {"click": {"state": {"target": [], "time": []}, "edge": {"target": [], "time": []}}, "mouseover": {"state": {"target": [], "time": []}, "edge": {"target": [], "time": []}}, "mouseout": {"state": {"target": ["0"], "time": [1623]}, "edge": {"target": [], "time": []}}}, "displayed_time": "5.62", "trialTime": 6357, "trial_type": "mouselab-mdp", "trial_index": 16, "time_elapsed": 1142760, "internal_node_id": "0.0-2.2-2.2-1.2"}}, {"uniqueid": "w63548304:a43522419", "current_trial": 17, "dateTime": 1693481767330, "trialdata": {"view_history": [{"page_index": 0, "viewing_time": 6690}, {"page_index": 1, "viewing_time": 1385}], "rt": 8075, "trial_id": "mouselab_instructions_2_control", "trial_type": "instructions", "trial_index": 17, "time_elapsed": 1150839, "internal_node_id": "0.0-2.2-3.2"}}, {"uniqueid": "w63548304:a43522419", "current_trial": 18, "dateTime": 1693481786192, "trialdata": {"rt": 18859, "response": {"Q0": "The cost for clicking on nodes may vary between nodes.", "Q1": "The better I perform the higher my bonus will be.", "Q2": "No, the amount of cash at each node of the web may be different each time.", "Q3": "To get the highest total score.", "Q4": "Only before moving the spider.", "Q5": "3 seconds"}, "question_order": [0, 1, 2, 3, 4, 5], "correct": {"Q0": "The cost for clicking on nodes may vary between nodes.", "Q1": "The better I perform the higher my bonus will be.", "Q2": "No, the amount of cash at each node of the web may be different each time.", "Q3": "To get the highest total score.", "Q4": "Only before moving the spider.", "Q5": "3 seconds"}, "trial_id": "mouselab_quiz_control", "trial_type": "survey-multi-choice", "trial_index": 18, "time_elapsed": 1169701, "internal_node_id": "0.0-2.2-4.2"}}, {"uniqueid": "w63548304:a43522419", "current_trial": 19, "dateTime": 1693481793800, "trialdata": {"rt": 7600, "response": {"Q0": "No"}, "question_order": [0], "trial_id": "repeat_check", "trial_type": "survey-multi-choice", "trial_index": 19, "time_elapsed": 1177308, "internal_node_id": "0.0-4.0-0.0"}}, {"uniqueid": "w63548304:a43522419", "current_trial": 20, "dateTime": 1693481812935, "trialdata": {"rt": 19129, "stimulus": "\n<h1> Get ready to start the game! </h1>\n\nThank you for reading the instructions. Get ready start with the 40 rounds of this game.\n<br><br>\nIf you need to take a break, feel free to take one after the end of a round, before continuing to the next one.\n<br><br>\nRemember, the more money the spider gets, the bigger your bonus will be!\n<br><br>\n<div style='text-align: center;'>Press <code>space</code> to begin.</div>\n\n<br><br>\n(If, at any point, the <code>space</code> key does not take you to the next page, click once on the text and try again.)", "response": " ", "trial_id": "mdp_ready", "trial_type": "html-keyboard-response", "trial_index": 20, "time_elapsed": 1196444, "internal_node_id": "0.0-6.0-0.0"}}, {"uniqueid": "w63548304:a43522419", "current_trial": 21, "dateTime": 1693481836028, "trialdata": {"revealed_states": [], "clicked_states": ["12", "23", "25", "30"], "num_clicks_accrued": [0, 0, 0, 0, 0, 0, 0, 0, 0, 0, 0, 0, 0], "stateRewards": ["", 1, 2, 8, -2, 23, -69, -18, -16, 54, -21, 71, -1, -4, 7, 11, 43, -6, 88, 6, -55, 72, 43, 1, -3, -2, -1, 68, -31, -54, 4, -8, 25, -2], "withholdReward": false, "trial_id": "mdp_trial_1", "block": "test", "trialIndex": 6, "score": -7.6, "costs": -5.6, "simulationMode": [null, null, null, null, null], "rewards": [1, -3, -2, 4, -2], "path": ["0", "0", "23", "24", "25", "30", "33"], "rt": [15981, 223, 310, 153, 203], "actions": ["left", "left", "left", "down", "left"], "actionTimes": [18152, 18886, 19733, 20400, 21128], "queries": {"click": {"state": {"target": ["12", "23", "25", "30"], "time": [3521, 5926, 8944, 12007]}, "edge": {"target": [], "time": []}}, "mouseover": {"state": {"target": ["12", "0", "23", "0", "1", "24", "25", "31", "30", "22", "31"], "time": [2942, 4151, 4519, 6667, 6752, 8012, 8312, 11379, 11679, 12943, 16495]}, "edge": {"target": [], "time": []}}, "mouseout": {"state": {"target": ["12", "0", "12", "0", "23", "0", "1", "24", "25", "31", "30", "22"], "time": [860, 2911, 4109, 4216, 6289, 6700, 7975, 8058, 9227, 11444, 12847, 12973]}, "edge": {"target": [], "time": []}}}, "displayed_time": "21.66", "trialTime": 22789, "trial_type": "mouselab-mdp", "trial_index": 21, "time_elapsed": 1219535, "internal_node_id": "0.0-6.0-1.0-0.0"}}, {"uniqueid": "w63548304:a43522419", "current_trial": 22, "dateTime": 1693481853631, "trialdata": {"revealed_states": [], "clicked_states": ["12", "14", "21"], "num_clicks_accrued": [0, 0, 0, 0, 0, 0, 0, 0, 0, 0, 0, 0, 0], "stateRewards": ["", 2, 4, 4, -8, -36, -33, 38, 16, -51, 57, 57, 1, 3, 4, -6, 45, 68, 87, 1, 63, 24, -55, -2, 2, -6, -13, -63, -50, 8, 2, 80, 6, 60], "withholdReward": false, "trial_id": "mdp_trial_2", "block": "test", "trialIndex": 7, "score": 28.8, "costs": -4.199999999999999, "simulationMode": [null, null, null, null, null], "rewards": [1, 3, 4, 1, 24], "path": ["0", "0", "12", "13", "14", "19", "21"], "rt": [9642, 100, 274, 483, 173], "actions": ["right", "right", "right", "down", "down"], "actionTimes": [10989, 11609, 12447, 13467, 14169], "queries": {"click": {"state": {"target": ["12", "14", "21"], "time": [2643, 4812, 7893]}, "edge": {"target": [], "time": []}}, "mouseover": {"state": {"target": ["12", "13", "14", "19", "19", "21"], "time": [2323, 3602, 3639, 7135, 7498, 7647]}, "edge": {"target": [], "time": []}}, "mouseout": {"state": {"target": ["31", "23", "0", "12", "13", "14", "19", "19", "21"], "time": [640, 722, 2141, 3569, 3635, 7088, 7416, 7552, 7914]}, "edge": {"target": [], "time": []}}}, "displayed_time": "15.36", "trialTime": 17336, "trial_type": "mouselab-mdp", "trial_index": 22, "time_elapsed": 1237139, "internal_node_id": "0.0-6.0-1.0-1.0"}}, {"uniqueid": "w63548304:a43522419", "current_trial": 23, "dateTime": 1693481879279, "trialdata": {"revealed_states": [], "clicked_states": ["1", "23", "12", "3", "10", "7"], "num_clicks_accrued": [0, 0, 0, 0, 0, 0, 0, 0, 0, 0, 0, 0, 0], "stateRewards": ["", -2, -2, -3, -6, -15, -11, 41, -12, -63, -76, 2, -2, -3, 8, 9, -36, -2, -18, -16, -32, -85, -17, -2, 1, 5, -16, 82, 35, -88, -1, 80, -82, -20], "withholdReward": false, "trial_id": "mdp_trial_3", "block": "test", "trialIndex": 8, "score": 19.6, "costs": -8.4, "simulationMode": [null, null, null, null, null], "rewards": [-2, -2, -3, -6, 41], "path": ["0", "0", "1", "2", "3", "4", "7"], "rt": [18230, 263, 350, 285, 472], "actions": ["up", "up", "up", "right", "down"], "actionTimes": [19621, 20398, 21273, 22083, 23084], "queries": {"click": {"state": {"target": ["1", "23", "12", "3", "10", "7"], "time": [2901, 5520, 8339, 11323, 13646, 15656]}, "edge": {"target": [], "time": []}}, "mouseover": {"state": {"target": ["1", "2", "1", "23", "0", "12", "14", "18", "3", "10", "2", "7", "4", "5", "4"], "time": [2262, 2436, 2663, 5099, 6602, 7616, 9227, 10737, 11055, 13407, 14500, 14568, 17507, 17575, 18306]}, "edge": {"target": [], "time": []}}, "mouseout": {"state": {"target": ["12", "1", "2", "1", "1", "23", "0", "12", "14", "18", "3", "10", "2", "7", "4", "5", "4"], "time": [779, 2329, 2599, 3673, 5016, 6567, 7568, 8359, 10703, 10799, 13338, 13668, 14533, 16757, 17540, 18192, 18487]}, "edge": {"target": [], "time": []}}}, "displayed_time": "23.61", "trialTime": 25383, "trial_type": "mouselab-mdp", "trial_index": 23, "time_elapsed": 1262787, "internal_node_id": "0.0-6.0-1.0-2.0"}}, {"uniqueid": "w63548304:a43522419", "current_trial": 24, "dateTime": 1693481959488, "trialdata": {"revealed_states": [], "clicked_states": ["12", "1", "23", "33", "31", "32"], "num_clicks_accrued": [0, 0, 0, 0, 0, 0, 0, 0, 0, 0, 0, 0, 0], "stateRewards": ["", -2, -3, -3, 9, 79, 67, 22, -15, -56, 27, -85, -2, 4, -4, -15, -20, -32, 60, 15, 71, 57, 17, 1, 2, -8, 15, -37, -81, 82, 15, 21, -3, 2], "withholdReward": false, "trial_id": "mdp_trial_4", "block": "test", "trialIndex": 9, "score": 22.6, "costs": -8.4, "simulationMode": [null, null, null, null, null], "rewards": [1, 2, -8, 15, 21], "path": ["0", "0", "23", "24", "25", "30", "31"], "rt": [16818, 35, 52, 175, 99], "actions": ["left", "left", "left", "down", "right"], "actionTimes": [75565, 76137, 76705, 77412, 78047], "queries": {"click": {"state": {"target": ["12", "1", "23", "33", "31", "32"], "time": [60381, 62608, 64700, 67702, 70656, 72913]}, "edge": {"target": [], "time": []}}, "mouseover": {"state": {"target": ["12", "1", "23", "24", "30", "33", "30", "31", "31", "32"], "time": [60092, 60922, 63850, 66788, 66925, 67474, 69914, 69986, 70403, 72618]}, "edge": {"target": [], "time": []}}, "mouseout": {"state": {"target": ["6", "7", "1", "23", "14", "12", "12", "1", "23", "24", "30", "33", "30", "31", "31", "32"], "time": [605, 677, 843, 2822, 12868, 41865, 60863, 63800, 66753, 66823, 67088, 69886, 69950, 70021, 71577, 72934]}, "edge": {"target": [], "time": []}}}, "displayed_time": "78.58", "trialTime": 79936, "trial_type": "mouselab-mdp", "trial_index": 24, "time_elapsed": 1342994, "internal_node_id": "0.0-6.0-1.0-3.0"}}, {"uniqueid": "w63548304:a43522419", "current_trial": 25, "dateTime": 1693482005412, "trialdata": {"revealed_states": [], "clicked_states": ["23", "1", "12", "25", "14", "21", "22", "20", "11", "6", "5", "9", "10", "7", "33"], "num_clicks_accrued": [0, 0, 0, 0, 0, 0, 0, 0, 0, 0, 0, 0, 0], "stateRewards": ["", -1, 2, -6, 6, -82, -19, -39, -16, -83, 11, -33, -2, -2, 4, -6, -82, -1, -19, -6, -10, -67, -41, -2, 1, -7, 16, -23, -78, -52, 14, 31, -71, 74], "withholdReward": false, "trial_id": "mdp_trial_5", "block": "test", "trialIndex": 10, "score": 59, "costs": -20.999999999999996, "simulationMode": [null, null, null, null, null], "rewards": [-2, 1, -7, 14, 74], "path": ["0", "0", "23", "24", "25", "30", "33"], "rt": [38881, 475, 74, 183, 96], "actions": ["left", "left", "left", "down", "left"], "actionTimes": [40417, 41422, 42037, 42750, 43359], "queries": {"click": {"state": {"target": ["23", "1", "12", "25", "14", "21", "22", "20", "11", "6", "5", "9", "10", "7", "33"], "time": [2494, 4499, 6510, 9092, 11615, 15026, 17165, 19204, 22690, 25262, 27677, 30022, 32162, 34511, 36910]}, "edge": {"target": [], "time": []}}, "mouseover": {"state": {"target": ["23", "1", "1", "12", "25", "13", "14", "10", "2", "18", "21", "22", "19", "20", "18", "7", "2", "3", "8", "11", "6", "5", "9", "8", "10", "10", "2", "7", "32", "32", "33", "30", "31"], "time": [2241, 2967, 3262, 5104, 8713, 11009, 11113, 13813, 14060, 14374, 14659, 16169, 17973, 18008, 21325, 21359, 21394, 21606, 22124, 22442, 25026, 27356, 29793, 30828, 30867, 31336, 34167, 34237, 35700, 36241, 36477, 38330, 38390]}, "edge": {"target": [], "time": []}}, "mouseout": {"state": {"target": ["1", "23", "1", "1", "12", "25", "13", "14", "10", "2", "18", "14", "21", "22", "19", "20", "18", "7", "2", "3", "8", "11", "6", "5", "9", "9", "8", "10", "10", "2", "7", "32", "32", "33", "30"], "time": [1008, 2877, 3027, 5071, 8636, 10911, 11040, 13642, 13978, 14345, 14411, 14461, 15047, 17940, 18006, 21278, 21354, 21391, 21428, 21728, 22394, 24560, 27291, 27697, 30043, 30795, 30862, 30928, 34140, 34200, 35608, 35733, 36294, 38325, 38358]}, "edge": {"target": [], "time": []}}}, "displayed_time": "43.89", "trialTime": 45622, "trial_type": "mouselab-mdp", "trial_index": 25, "time_elapsed": 1388919, "internal_node_id": "0.0-6.0-1.0-4.0"}}, {"uniqueid": "w63548304:a43522419", "current_trial": 26, "dateTime": 1693482023148, "trialdata": {"revealed_states": [], "clicked_states": ["22", "21", "20"], "num_clicks_accrued": [0, 0, 0, 0, 0, 0, 0, 0, 0, 0, 0, 0, 0], "stateRewards": ["", 2, -1, 5, 6, 10, 86, 55, 10, -45, 63, -71, 1, -2, 5, -8, -50, -72, 36, 15, 61, 12, 33, -1, -4, 6, 5, 79, -56, -21, -16, -87, 60, -81], "withholdReward": false, "trial_id": "mdp_trial_6", "block": "test", "trialIndex": 11, "score": 75.8, "costs": -4.199999999999999, "simulationMode": [null, null, null, null, null], "rewards": [1, -2, 5, 15, 61], "path": ["0", "0", "12", "13", "14", "19", "20"], "rt": [10238, 526, 240, 266, 171], "actions": ["right", "right", "right", "down", "right"], "actionTimes": [12074, 13138, 13909, 14706, 15392], "queries": {"click": {"state": {"target": ["22", "21", "20"], "time": [4634, 6708, 8730]}, "edge": {"target": [], "time": []}}, "mouseover": {"state": {"target": ["12", "14", "13", "19", "22", "21", "20", "0", "33", "25", "24"], "time": [2522, 2989, 3341, 3627, 4193, 5627, 7336, 9517, 9932, 11214, 11274]}, "edge": {"target": [], "time": []}}, "mouseout": {"state": {"target": ["31", "0", "12", "14", "13", "19", "22", "21", "20", "0", "33", "25", "24"], "time": [1092, 2488, 2559, 3046, 3408, 3662, 5233, 7302, 9482, 9555, 11140, 11272, 11306]}, "edge": {"target": [], "time": []}}}, "displayed_time": "15.93", "trialTime": 17456, "trial_type": "mouselab-mdp", "trial_index": 26, "time_elapsed": 1406655, "internal_node_id": "0.0-6.0-1.0-5.0"}}, {"uniqueid": "w63548304:a43522419", "current_trial": 27, "dateTime": 1693482041355, "trialdata": {"revealed_states": [], "clicked_states": ["33", "32", "31"], "num_clicks_accrued": [0, 0, 0, 0, 0, 0, 0, 0, 0, 0, 0, 0, 0], "stateRewards": ["", -1, 3, -7, 16, -32, -74, -48, 2, 10, 15, -30, 1, 1, -2, 10, 12, -83, 67, 13, -66, 47, 65, -2, 4, 2, -14, -8, -57, 24, 9, 65, 12, 46], "withholdReward": false, "trial_id": "mdp_trial_7", "block": "test", "trialIndex": 12, "score": 73.8, "costs": -4.199999999999999, "simulationMode": [null, null, null, null, null], "rewards": [-2, 4, 2, 9, 65], "path": ["0", "0", "23", "24", "25", "30", "31"], "rt": [8429, 47, 44, 118, 133], "actions": ["left", "left", "left", "down", "right"], "actionTimes": [10102, 10690, 11275, 11904, 12572], "queries": {"click": {"state": {"target": ["33", "32", "31"], "time": [2843, 5217, 7253]}, "edge": {"target": [], "time": []}}, "mouseover": {"state": {"target": ["25", "33", "30", "32", "31", "21"], "time": [2337, 2570, 3298, 4953, 5598, 9124]}, "edge": {"target": [], "time": []}}, "mouseout": {"state": {"target": ["20", "22", "0", "25", "33", "30", "32", "31", "21"], "time": [856, 1140, 2092, 2420, 2862, 3330, 5478, 8116, 9442]}, "edge": {"target": [], "time": []}}}, "displayed_time": "15.67", "trialTime": 17911, "trial_type": "mouselab-mdp", "trial_index": 27, "time_elapsed": 1424862, "internal_node_id": "0.0-6.0-1.0-6.0"}}, {"uniqueid": "w63548304:a43522419", "current_trial": 28, "dateTime": 1693482060921, "trialdata": {"revealed_states": [], "clicked_states": ["5"], "num_clicks_accrued": [0, 0, 0, 0, 0, 0, 0, 0, 0, 0, 0, 0, 0], "stateRewards": ["", 1, 2, 3, 16, 63, -25, 16, -4, -14, 82, -66, -1, -3, -3, -11, -14, 19, 46, 3, -34, -82, 66, -2, -3, 4, -5, -63, 77, -37, -1, -45, -41, 84], "withholdReward": false, "trial_id": "mdp_trial_8", "block": "test", "trialIndex": 13, "score": 83.6, "costs": -1.4, "simulationMode": [null, null, null, null, null], "rewards": [1, 2, 3, 16, 63], "path": ["0", "0", "1", "2", "3", "4", "5"], "rt": [4799, 22, 814, 153, 263], "actions": ["up", "up", "up", "right", "up"], "actionTimes": [7309, 7864, 9221, 9919, 10702], "queries": {"click": {"state": {"target": ["5"], "time": [4070]}, "edge": {"target": [], "time": []}}, "mouseover": {"state": {"target": ["17", "6", "4", "5", "9"], "time": [2626, 3382, 3464, 3814, 4749]}, "edge": {"target": [], "time": []}}, "mouseout": {"state": {"target": ["0", "17", "6", "4", "5"], "time": [2596, 2669, 3419, 3547, 4091]}, "edge": {"target": [], "time": []}}}, "displayed_time": "16.52", "trialTime": 19269, "trial_type": "mouselab-mdp", "trial_index": 28, "time_elapsed": 1444429, "internal_node_id": "0.0-6.0-1.0-7.0"}}, {"uniqueid": "w63548304:a43522419", "current_trial": 29, "dateTime": 1693482078053, "trialdata": {"revealed_states": [], "clicked_states": ["11", "9", "6", "20"], "num_clicks_accrued": [0, 0, 0, 0, 0, 0, 0, 0, 0, 0, 0, 0, 0], "stateRewards": ["", 1, -1, 4, 5, -32, 18, 20, 6, -88, -74, 9, -2, 1, -2, -14, 34, -77, -38, -1, 80, -36, 73, 2, 3, -8, 10, -48, -73, -71, -11, -22, 20, 54], "withholdReward": false, "trial_id": "mdp_trial_9", "block": "test", "trialIndex": 14, "score": 70.4, "costs": -5.6, "simulationMode": [null, null, null, null, null], "rewards": [-2, 1, -2, -1, 80], "path": ["0", "0", "12", "13", "14", "19", "20"], "rt": [10035, 54, 34, 111, 217], "actions": ["right", "right", "right", "down", "right"], "actionTimes": [11457, 12037, 12603, 13264, 13991], "queries": {"click": {"state": {"target": ["11", "9", "6", "20"], "time": [2223, 4379, 6485, 8574]}, "edge": {"target": [], "time": []}}, "mouseover": {"state": {"target": ["1", "8", "11", "9", "9", "5", "6", "20", "19", "22"], "time": [1617, 1693, 1896, 2618, 2989, 4997, 5427, 7523, 10468, 10509]}, "edge": {"target": [], "time": []}}, "mouseout": {"state": {"target": ["9", "2", "1", "0", "1", "8", "11", "9", "9", "5", "6", "20", "19", "22"], "time": [678, 760, 947, 1563, 1646, 1793, 2523, 2685, 4933, 5030, 6505, 10442, 10504, 10839]}, "edge": {"target": [], "time": []}}}, "displayed_time": "15.43", "trialTime": 16776, "trial_type": "mouselab-mdp", "trial_index": 29, "time_elapsed": 1461560, "internal_node_id": "0.0-6.0-1.0-8.0"}}, {"uniqueid": "w63548304:a43522419", "current_trial": 30, "dateTime": 1693482095263, "trialdata": {"revealed_states": [], "clicked_states": ["32", "33", "29", "28"], "num_clicks_accrued": [0, 0, 0, 0, 0, 0, 0, 0, 0, 0, 0, 0, 0], "stateRewards": ["", -1, 3, 2, 9, 41, 4, -46, -12, -54, -87, -25, 2, 3, -1, 11, -77, 12, -33, -9, -32, 35, 72, 1, 3, -7, 4, 37, 65, -73, 6, 77, -43, 8], "withholdReward": false, "trial_id": "mdp_trial_10", "block": "test", "trialIndex": 15, "score": 60.4, "costs": -5.6, "simulationMode": [null, null, null, null, null], "rewards": [1, 3, -7, 4, 65], "path": ["0", "0", "23", "24", "25", "26", "28"], "rt": [10333, 541, 151, 348, 135], "actions": ["left", "left", "left", "up", "right"], "actionTimes": [11698, 12767, 13423, 14287, 14952], "queries": {"click": {"state": {"target": ["32", "33", "29", "28"], "time": [2422, 4444, 6516, 8817]}, "edge": {"target": [], "time": []}}, "mouseover": {"state": {"target": ["31", "32", "33", "29", "26", "28", "28", "21"], "time": [1869, 2017, 3148, 5759, 8358, 8390, 8611, 9800]}, "edge": {"target": [], "time": []}}, "mouseout": {"state": {"target": ["0", "31", "32", "33", "29", "26", "28", "28"], "time": [1817, 1903, 3059, 4463, 6536, 8388, 8448, 9258]}, "edge": {"target": [], "time": []}}}, "displayed_time": "15.48", "trialTime": 16864, "trial_type": "mouselab-mdp", "trial_index": 30, "time_elapsed": 1478770, "internal_node_id": "0.0-6.0-1.0-9.0"}}, {"uniqueid": "w63548304:a43522419", "current_trial": 31, "dateTime": 1693482114790, "trialdata": {"revealed_states": [], "clicked_states": ["21", "16", "5", "9", "32"], "num_clicks_accrued": [0, 0, 0, 0, 0, 0, 0, 0, 0, 0, 0, 0, 0], "stateRewards": ["", 1, 1, -6, -2, 7, 77, 3, 16, -16, 66, 31, -1, 3, -8, -6, 33, -50, -48, 7, -60, -66, 36, 2, -3, 3, -7, -12, -61, -79, -4, 8, 74, -70], "withholdReward": false, "trial_id": "mdp_trial_11", "block": "test", "trialIndex": 16, "score": 65, "costs": -7, "simulationMode": [null, null, null, null, null], "rewards": [2, -3, 3, -4, 74], "path": ["0", "0", "23", "24", "25", "30", "32"], "rt": [12710, 100, 70, 95, 132], "actions": ["left", "left", "left", "down", "down"], "actionTimes": [14761, 15379, 15964, 16585, 17266], "queries": {"click": {"state": {"target": ["21", "16", "5", "9", "32"], "time": [3758, 5915, 7989, 9980, 11953]}, "edge": {"target": [], "time": []}}, "mouseover": {"state": {"target": ["17", "14", "19", "21", "21", "17", "16", "5", "9", "26", "25", "30", "32", "33", "7"], "time": [2790, 2947, 3013, 3160, 3453, 5095, 5458, 7115, 8539, 10596, 10753, 10868, 11136, 12861, 14242]}, "edge": {"target": [], "time": []}}, "mouseout": {"state": {"target": ["21", "21", "0", "17", "14", "19", "21", "21", "17", "16", "5", "9", "26", "25", "30", "32", "33", "7"], "time": [708, 806, 2110, 2817, 2978, 3050, 3242, 5000, 5128, 6888, 8468, 10468, 10664, 10835, 10928, 12766, 14158, 14271]}, "edge": {"target": [], "time": []}}}, "displayed_time": "17.79", "trialTime": 19247, "trial_type": "mouselab-mdp", "trial_index": 31, "time_elapsed": 1498296, "internal_node_id": "0.0-6.0-1.0-10.0"}}, {"uniqueid": "w63548304:a43522419", "current_trial": 32, "dateTime": 1693482132296, "trialdata": {"revealed_states": [], "clicked_states": ["20", "16", "33", "27"], "num_clicks_accrued": [0, 0, 0, 0, 0, 0, 0, 0, 0, 0, 0, 0, 0], "stateRewards": ["", -2, -3, -7, 7, -54, -69, -4, -14, -77, 22, 40, -2, -1, 5, 6, -35, 50, -60, 10, -28, 75, 57, 1, -4, -2, 2, 68, 34, -18, 12, 3, -21, -43], "withholdReward": false, "trial_id": "mdp_trial_12", "block": "test", "trialIndex": 17, "score": 59.4, "costs": -5.6, "simulationMode": [null, null, null, null, null], "rewards": [1, -4, -2, 2, 68], "path": ["0", "0", "23", "24", "25", "26", "27"], "rt": [10649, 20, 825, 242, 381], "actions": ["left", "left", "left", "up", "up"], "actionTimes": [11862, 12431, 13805, 14588, 15493], "queries": {"click": {"state": {"target": ["20", "16", "33", "27"], "time": [2103, 4277, 6898, 9287]}, "edge": {"target": [], "time": []}}, "mouseover": {"state": {"target": ["19", "20", "15", "6", "6", "16", "16", "18", "26", "29", "33", "27", "11", "27", "25", "30", "31"], "time": [1496, 1830, 2981, 3147, 3369, 3438, 3691, 5550, 6263, 6321, 6615, 8493, 8597, 9059, 10188, 10223, 10565]}, "edge": {"target": [], "time": []}}, "mouseout": {"state": {"target": ["6", "7", "1", "0", "19", "20", "15", "6", "6", "16", "16", "18", "26", "29", "33", "27", "11", "27", "25", "30"], "time": [530, 562, 612, 1447, 1530, 2878, 3019, 3206, 3406, 3473, 5483, 6181, 6313, 6460, 8429, 8517, 8655, 10122, 10221, 10256]}, "edge": {"target": [], "time": []}}}, "displayed_time": "16.01", "trialTime": 17202, "trial_type": "mouselab-mdp", "trial_index": 32, "time_elapsed": 1515803, "internal_node_id": "0.0-6.0-1.0-11.0"}}, {"uniqueid": "w63548304:a43522419", "current_trial": 33, "dateTime": 1693482158583, "trialdata": {"revealed_states": [], "clicked_states": ["9", "7", "17", "20", "22", "31", "33", "27"], "num_clicks_accrued": [0, 0, 0, 0, 0, 0, 0, 0, 0, 0, 0, 0, 0], "stateRewards": ["", 1, -1, 8, -3, 38, 85, -20, -4, 8, 23, 73, 2, -4, 6, -13, 44, 7, -28, -11, -77, 45, -69, 1, -1, -7, -11, 75, -51, -87, 7, 36, -53, -26], "withholdReward": false, "trial_id": "mdp_trial_13", "block": "test", "trialIndex": 18, "score": 45.8, "costs": -11.200000000000001, "simulationMode": [null, null, null, null, null], "rewards": [1, -1, -7, -11, 75], "path": ["0", "0", "23", "24", "25", "26", "27"], "rt": [19805, 42, 69, 404, 100], "actions": ["left", "left", "left", "up", "up"], "actionTimes": [21298, 21880, 22459, 23393, 24033], "queries": {"click": {"state": {"target": ["9", "7", "17", "20", "22", "31", "33", "27"], "time": [2365, 4327, 7102, 9140, 11080, 13087, 15600, 18588]}, "edge": {"target": [], "time": []}}, "mouseover": {"state": {"target": ["3", "9", "7", "17", "17", "20", "22", "31", "31", "30", "33", "32", "30", "25", "26", "28", "27", "28"], "time": [1810, 2111, 3334, 6394, 6828, 7986, 9847, 11784, 12051, 13566, 13645, 16298, 16918, 16954, 16987, 17239, 18334, 19960]}, "edge": {"target": [], "time": []}}, "mouseout": {"state": {"target": ["31", "0", "3", "9", "7", "17", "17", "20", "22", "31", "31", "30", "33", "33", "32", "30", "25", "26", "28", "27", "28"], "time": [627, 1661, 1842, 2897, 6312, 6476, 7917, 9782, 11685, 11850, 13563, 13643, 15623, 16263, 16916, 16951, 16984, 17020, 17540, 19746, 20740]}, "edge": {"target": [], "time": []}}}, "displayed_time": "24.56", "trialTime": 25979, "trial_type": "mouselab-mdp", "trial_index": 33, "time_elapsed": 1542090, "internal_node_id": "0.0-6.0-1.0-12.0"}}, {"uniqueid": "w63548304:a43522419", "current_trial": 34, "dateTime": 1693482176870, "trialdata": {"revealed_states": [], "clicked_states": ["9"], "num_clicks_accrued": [0, 0, 0, 0, 0, 0, 0, 0, 0, 0, 0, 0, 0], "stateRewards": ["", -2, 1, -5, 2, -68, 80, 33, 10, 67, -59, 20, -1, -3, 3, 14, 74, -2, 24, -16, 63, 80, 46, -1, 4, 6, 12, 83, -38, -43, -4, 43, 14, -79], "withholdReward": false, "trial_id": "mdp_trial_14", "block": "test", "trialIndex": 19, "score": 69.6, "costs": -1.4, "simulationMode": [null, null, null, null, null], "rewards": [-2, 1, -5, 10, 67], "path": ["0", "0", "1", "2", "3", "8", "9"], "rt": [3787, 125, 134, 163, 144], "actions": ["up", "up", "up", "left", "up"], "actionTimes": [5860, 6512, 7174, 7868, 8539], "queries": {"click": {"state": {"target": ["9"], "time": [2893]}, "edge": {"target": [], "time": []}}, "mouseover": {"state": {"target": ["1", "2", "3", "8", "9", "7"], "time": [2252, 2284, 2319, 2467, 2605, 3375]}, "edge": {"target": [], "time": []}}, "mouseout": {"state": {"target": ["1", "2", "3", "8", "9"], "time": [2280, 2317, 2356, 2534, 3190]}, "edge": {"target": [], "time": []}}}, "displayed_time": "16.08", "trialTime": 17966, "trial_type": "mouselab-mdp", "trial_index": 34, "time_elapsed": 1560379, "internal_node_id": "0.0-6.0-1.0-13.0"}}, {"uniqueid": "w63548304:a43522419", "current_trial": 35, "dateTime": 1693482237619, "trialdata": {"revealed_states": [], "clicked_states": ["5", "7", "11"], "num_clicks_accrued": [0, 0, 0, 0, 0, 0, 0, 0, 0, 0, 0, 0, 0], "stateRewards": ["", -1, 4, -8, 12, 14, 69, -8, 5, -72, -14, 56, -1, -1, -1, 9, 67, 19, 11, -9, -88, -58, 3, 2, -4, -8, 4, 62, 77, -74, 5, -31, 65, 88], "withholdReward": false, "trial_id": "mdp_trial_15", "block": "test", "trialIndex": 20, "score": 51.8, "costs": -4.199999999999999, "simulationMode": [null, null, null, null, null], "rewards": [-1, 4, -8, 5, 56], "path": ["0", "0", "1", "2", "3", "8", "11"], "rt": [8617, 19, 225, 34, 183], "actions": ["up", "up", "up", "left", "left"], "actionTimes": [9739, 10277, 11028, 11606, 12318], "queries": {"click": {"state": {"target": ["5", "7", "11"], "time": [2339, 4774, 6780]}, "edge": {"target": [], "time": []}}, "mouseover": {"state": {"target": ["1", "6", "5", "4", "7", "8", "11", "25", "33"], "time": [1657, 1755, 1902, 3324, 3490, 5357, 5828, 7539, 7670]}, "edge": {"target": [], "time": []}}, "mouseout": {"state": {"target": ["7", "1", "1", "6", "5", "5", "4", "7", "8", "11", "25"], "time": [435, 505, 1686, 1805, 2419, 3322, 3356, 5308, 5426, 7413, 7604]}, "edge": {"target": [], "time": []}}}, "displayed_time": "15.13", "trialTime": 60414, "trial_type": "mouselab-mdp", "trial_index": 35, "time_elapsed": 1621127, "internal_node_id": "0.0-6.0-1.0-14.0"}}, {"uniqueid": "w63548304:a43522419", "current_trial": 36, "dateTime": 1693482254392, "trialdata": {"revealed_states": [], "clicked_states": ["29", "21", "5", "10"], "num_clicks_accrued": [0, 0, 0, 0, 0, 0, 0, 0, 0, 0, 0, 0, 0], "stateRewards": ["", 1, -3, -1, 9, -34, -40, 22, -7, 45, 53, -11, 2, 4, 5, 15, 21, 37, -49, -3, 80, -28, -34, 1, -3, 1, 1, -40, -6, -5, -16, -85, -86, 59], "withholdReward": false, "trial_id": "mdp_trial_16", "block": "test", "trialIndex": 21, "score": 37.4, "costs": -5.6, "simulationMode": [null, null, null, null, null], "rewards": [1, -3, -1, -7, 53], "path": ["0", "0", "1", "2", "3", "8", "10"], "rt": [10020, 19, 28, 190, 133], "actions": ["up", "up", "up", "left", "down"], "actionTimes": [11389, 11942, 12501, 13236, 13883], "queries": {"click": {"state": {"target": ["29", "21", "5", "10"], "time": [2334, 4361, 6301, 8308]}, "edge": {"target": [], "time": []}}, "mouseover": {"state": {"target": ["23", "29", "21", "16", "4", "5", "2", "10", "2", "1", "7"], "time": [1644, 2028, 3185, 5051, 5150, 5463, 7011, 7290, 9769, 9916, 10328]}, "edge": {"target": [], "time": []}}, "mouseout": {"state": {"target": ["33", "30", "30", "0", "23", "29", "21", "16", "4", "5", "2", "10", "2", "1"], "time": [362, 461, 545, 661, 1677, 2806, 4760, 5085, 5185, 6957, 7047, 9732, 9808, 10229]}, "edge": {"target": [], "time": []}}}, "displayed_time": "15.38", "trialTime": 16378, "trial_type": "mouselab-mdp", "trial_index": 36, "time_elapsed": 1637900, "internal_node_id": "0.0-6.0-1.0-15.0"}}, {"uniqueid": "w63548304:a43522419", "current_trial": 37, "dateTime": 1693482283338, "trialdata": {"revealed_states": [], "clicked_states": ["33", "27", "21", "16", "5", "11", "9", "6", "7"], "num_clicks_accrued": [0, 0, 0, 0, 0, 0, 0, 0, 0, 0, 0, 0, 0], "stateRewards": ["", -2, 1, -3, -16, -39, -52, 30, -7, -41, -59, 11, 2, 1, 8, 2, -11, -26, -42, -13, 87, -59, -48, -1, -1, -1, 16, -79, 31, 50, -1, -84, 34, -82], "withholdReward": false, "trial_id": "mdp_trial_17", "block": "test", "trialIndex": 22, "score": -2.6000000000000014, "costs": -12.600000000000001, "simulationMode": [null, null, null, null, null], "rewards": [-2, 1, -3, -16, 30], "path": ["0", "0", "1", "2", "3", "4", "7"], "rt": [22737, 472, 115, 96, 170], "actions": ["up", "up", "up", "right", "down"], "actionTimes": [23735, 24741, 25389, 25999, 26705], "queries": {"click": {"state": {"target": ["33", "27", "21", "16", "5", "11", "9", "6", "7"], "time": [2869, 5112, 7690, 10132, 12089, 14263, 16488, 18568, 20557]}, "edge": {"target": [], "time": []}}, "mouseover": {"state": {"target": ["23", "24", "25", "33", "26", "27", "27", "20", "21", "17", "16", "6", "5", "5", "9", "11", "9", "5", "6", "7", "1", "23", "31", "32"], "time": [2040, 2222, 2262, 2573, 4173, 4445, 4590, 6756, 6829, 9554, 9841, 11024, 11196, 11422, 13000, 13197, 14950, 17018, 17417, 19403, 21742, 21776, 21812, 22649]}, "edge": {"target": [], "time": []}}, "mouseout": {"state": {"target": ["7", "1", "23", "24", "25", "33", "26", "27", "27", "20", "21", "17", "16", "6", "5", "5", "9", "11", "9", "5", "6", "7", "1", "23", "31"], "time": [407, 490, 2188, 2260, 2336, 4106, 4210, 4467, 6233, 6794, 9455, 9687, 10934, 11093, 11269, 12868, 13099, 14883, 16985, 17051, 19286, 21706, 21774, 21809, 21842]}, "edge": {"target": [], "time": []}}}, "displayed_time": "27.23", "trialTime": 28594, "trial_type": "mouselab-mdp", "trial_index": 37, "time_elapsed": 1666845, "internal_node_id": "0.0-6.0-1.0-16.0"}}, {"uniqueid": "w63548304:a43522419", "current_trial": 38, "dateTime": 1693482300124, "trialdata": {"revealed_states": [], "clicked_states": ["33", "17", "5"], "num_clicks_accrued": [0, 0, 0, 0, 0, 0, 0, 0, 0, 0, 0, 0, 0], "stateRewards": ["", -1, 2, 7, 8, 75, 67, -11, 6, 52, -17, 38, -1, 4, -8, 14, 74, -37, -17, -12, 52, 55, 71, -2, -1, -5, 2, 21, 6, -88, -14, 64, -61, -47], "withholdReward": false, "trial_id": "mdp_trial_18", "block": "test", "trialIndex": 23, "score": 86.8, "costs": -4.199999999999999, "simulationMode": [null, null, null, null, null], "rewards": [-1, 2, 7, 8, 75], "path": ["0", "0", "1", "2", "3", "4", "5"], "rt": [7908, 721, 189, 193, 205], "actions": ["up", "up", "up", "right", "up"], "actionTimes": [9041, 10314, 11040, 11729, 12486], "queries": {"click": {"state": {"target": ["33", "17", "5"], "time": [2114, 4120, 6276]}, "edge": {"target": [], "time": []}}, "mouseover": {"state": {"target": ["31", "30", "33", "25", "16", "17", "5", "10"], "time": [1485, 1731, 1852, 2847, 2918, 3248, 5388, 7160]}, "edge": {"target": [], "time": []}}, "mouseout": {"state": {"target": ["32", "0", "31", "30", "33", "25", "16", "17", "5"], "time": [228, 1401, 1517, 1803, 2135, 2880, 3034, 4139, 6813]}, "edge": {"target": [], "time": []}}}, "displayed_time": "15.14", "trialTime": 16426, "trial_type": "mouselab-mdp", "trial_index": 38, "time_elapsed": 1683632, "internal_node_id": "0.0-6.0-1.0-17.0"}}, {"uniqueid": "w63548304:a43522419", "current_trial": 39, "dateTime": 1693482317366, "trialdata": {"revealed_states": [], "clicked_states": ["33", "16"], "num_clicks_accrued": [0, 0, 0, 0, 0, 0, 0, 0, 0, 0, 0, 0, 0], "stateRewards": ["", -1, 4, -6, -5, -22, -38, -38, -2, -56, 88, 14, -1, -1, -7, -6, 61, -60, 21, 11, 57, 31, -30, -2, -2, 6, -9, -44, -70, -44, -15, 34, 16, -78], "withholdReward": false, "trial_id": "mdp_trial_19", "block": "test", "trialIndex": 24, "score": 43.2, "costs": -2.8, "simulationMode": [null, null, null, null, null], "rewards": [-1, -1, -7, -6, 61], "path": ["0", "0", "12", "13", "14", "15", "16"], "rt": [5996, 45, 88, 288, 97], "actions": ["right", "right", "right", "up", "up"], "actionTimes": [7310, 7887, 8510, 9319, 9942], "queries": {"click": {"state": {"target": ["33", "16"], "time": [2456, 4415]}, "edge": {"target": [], "time": []}}, "mouseover": {"state": {"target": ["23", "24", "30", "33", "17", "16", "15", "14", "19", "21"], "time": [1885, 1931, 2013, 2201, 3490, 3785, 5340, 5381, 5523, 5762]}, "edge": {"target": [], "time": []}}, "mouseout": {"state": {"target": ["10", "23", "0", "23", "24", "30", "33", "17", "16", "15", "14", "19"], "time": [617, 784, 1832, 1929, 1976, 2059, 3011, 3677, 5307, 5376, 5450, 5662]}, "edge": {"target": [], "time": []}}}, "displayed_time": "15.32", "trialTime": 16902, "trial_type": "mouselab-mdp", "trial_index": 39, "time_elapsed": 1700874, "internal_node_id": "0.0-6.0-1.0-18.0"}}, {"uniqueid": "w63548304:a43522419", "current_trial": 40, "dateTime": 1693482336597, "trialdata": {"revealed_states": [], "clicked_states": ["9", "21", "5", "33", "27"], "num_clicks_accrued": [0, 0, 0, 0, 0, 0, 0, 0, 0, 0, 0, 0, 0], "stateRewards": ["", -2, 1, 6, -2, -10, -78, -69, 14, -15, 7, -1, 1, -1, -2, 13, 77, 32, 87, 5, -74, 30, -26, 1, 3, 4, 12, 39, 54, -43, 2, 10, 23, 13], "withholdReward": false, "trial_id": "mdp_trial_20", "block": "test", "trialIndex": 25, "score": 52, "costs": -7, "simulationMode": [null, null, null, null, null], "rewards": [1, 3, 4, 12, 39], "path": ["0", "0", "23", "24", "25", "26", "27"], "rt": [12428, 19, 701, 284, 158], "actions": ["left", "left", "left", "up", "up"], "actionTimes": [13885, 14420, 15664, 16512, 17201], "queries": {"click": {"state": {"target": ["9", "21", "5", "33", "27"], "time": [2431, 4405, 6702, 8805, 11060]}, "edge": {"target": [], "time": []}}, "mouseover": {"state": {"target": ["1", "3", "9", "9", "21", "19", "5", "5", "3", "32", "33", "26", "27", "27", "26", "25", "30", "32"], "time": [1563, 1631, 1861, 2160, 3526, 5063, 5191, 5459, 7150, 7411, 7660, 9994, 10030, 10307, 12272, 12302, 12340, 12430]}, "edge": {"target": [], "time": []}}, "mouseout": {"state": {"target": ["21", "0", "1", "3", "9", "9", "21", "19", "5", "5", "3", "32", "33", "26", "27", "27", "26", "25", "30", "32"], "time": [627, 1062, 1596, 1672, 1908, 3155, 5059, 5097, 5363, 7148, 7183, 7474, 9953, 10028, 10066, 12242, 12300, 12339, 12375, 13283]}, "edge": {"target": [], "time": []}}}, "displayed_time": "17.76", "trialTime": 18882, "trial_type": "mouselab-mdp", "trial_index": 40, "time_elapsed": 1720104, "internal_node_id": "0.0-6.0-1.0-19.0"}}, {"uniqueid": "w63548304:a43522419", "current_trial": 41, "dateTime": 1693482434418, "trialdata": {"revealed_states": [], "clicked_states": ["21", "16", "27", "32", "5"], "num_clicks_accrued": [0, 0, 0, 0, 0, 0, 0, 0, 0, 0, 0, 0, 0], "stateRewards": ["", -1, 4, -3, 3, 57, -61, 5, -11, 23, -1, 34, -2, -4, -1, -13, 27, 38, -36, 4, -45, 21, 88, 1, -2, -1, 1, -69, -5, -78, -12, -9, 38, -54], "withholdReward": false, "trial_id": "mdp_trial_21", "block": "test", "trialIndex": 26, "score": 53, "costs": -7, "simulationMode": [null, null, null, null, null], "rewards": [-1, 4, -3, 3, 57], "path": ["0", "0", "1", "2", "3", "4", "5"], "rt": [14157, 102, 93, 180, 441], "actions": ["up", "up", "up", "right", "up"], "actionTimes": [16151, 16796, 17421, 18137, 19101], "queries": {"click": {"state": {"target": ["21", "16", "27", "32", "5"], "time": [4450, 6624, 8731, 10731, 13248]}, "edge": {"target": [], "time": []}}, "mouseover": {"state": {"target": ["18", "17", "20", "21", "19", "15", "16", "29", "27", "25", "30", "32", "5", "2", "10"], "time": [3646, 3811, 3948, 4079, 5750, 5852, 6097, 7803, 7968, 9559, 9597, 9997, 11398, 14250, 14556]}, "edge": {"target": [], "time": []}}, "mouseout": {"state": {"target": ["22", "19", "12", "0", "18", "17", "20", "21", "19", "15", "16", "29", "27", "25", "30", "32", "5", "2"], "time": [1112, 1232, 1380, 3545, 3678, 3865, 3976, 4470, 5785, 5948, 6643, 7866, 9495, 9593, 9630, 11095, 14120, 14283]}, "edge": {"target": [], "time": []}}}, "displayed_time": "19.64", "trialTime": 97499, "trial_type": "mouselab-mdp", "trial_index": 41, "time_elapsed": 1817924, "internal_node_id": "0.0-6.0-1.0-20.0"}}, {"uniqueid": "w63548304:a43522419", "current_trial": 42, "dateTime": 1693482451513, "trialdata": {"revealed_states": [], "clicked_states": ["9", "21", "16"], "num_clicks_accrued": [0, 0, 0, 0, 0, 0, 0, 0, 0, 0, 0, 0, 0], "stateRewards": ["", 1, 1, 1, 15, -76, 52, -32, 14, -57, 37, 49, 1, -4, -3, 6, 83, -76, 25, 9, 36, -1, -17, -1, 4, 4, -2, -22, -21, 58, -15, -57, 49, -24], "withholdReward": false, "trial_id": "mdp_trial_22", "block": "test", "trialIndex": 27, "score": 78.8, "costs": -4.199999999999999, "simulationMode": [null, null, null, null, null], "rewards": [1, -4, -3, 6, 83], "path": ["0", "0", "12", "13", "14", "15", "16"], "rt": [7502, 159, 112, 193, 171], "actions": ["right", "right", "right", "up", "up"], "actionTimes": [9134, 9826, 10500, 11220, 11924], "queries": {"click": {"state": {"target": ["9", "21", "16"], "time": [2390, 4378, 6417]}, "edge": {"target": [], "time": []}}, "mouseover": {"state": {"target": ["1", "9", "9", "19", "21", "21", "6", "16", "24", "30", "33", "32"], "time": [1689, 1786, 2138, 3114, 3345, 3622, 4847, 5481, 6840, 7003, 7192, 7751]}, "edge": {"target": [], "time": []}}, "mouseout": {"state": {"target": ["10", "1", "12", "0", "1", "9", "9", "19", "21", "21", "6", "16", "24", "30", "33", "32"], "time": [918, 968, 1087, 1688, 1714, 1821, 3006, 3339, 3387, 4400, 5016, 6740, 6874, 7125, 7684, 8623]}, "edge": {"target": [], "time": []}}}, "displayed_time": "15.64", "trialTime": 16737, "trial_type": "mouselab-mdp", "trial_index": 42, "time_elapsed": 1835022, "internal_node_id": "0.0-6.0-1.0-21.0"}}, {"uniqueid": "w63548304:a43522419", "current_trial": 43, "dateTime": 1693482468084, "trialdata": {"revealed_states": [], "clicked_states": ["27", "33", "20", "16"], "num_clicks_accrued": [0, 0, 0, 0, 0, 0, 0, 0, 0, 0, 0, 0, 0], "stateRewards": ["", -1, 4, -5, 9, 29, -75, -42, -16, 24, -28, -41, 2, -3, 1, 10, 60, 47, 55, -1, -53, 22, -40, 2, -3, -6, 4, -26, 44, 54, 15, -76, 42, 14], "withholdReward": false, "trial_id": "mdp_trial_23", "block": "test", "trialIndex": 28, "score": 64.4, "costs": -5.6, "simulationMode": [null, null, null, null, null], "rewards": [2, -3, 1, 10, 60], "path": ["0", "0", "12", "13", "14", "15", "16"], "rt": [9661, 22, 42, 192, 77], "actions": ["right", "right", "right", "up", "up"], "actionTimes": [10974, 11543, 12116, 12819, 13433], "queries": {"click": {"state": {"target": ["27", "33", "20", "16"], "time": [2385, 4371, 6446, 8423]}, "edge": {"target": [], "time": []}}, "mouseover": {"state": {"target": ["28", "26", "27", "29", "27", "26", "32", "33", "12", "20", "16", "6", "5"], "time": [1523, 1565, 1658, 1940, 2105, 3302, 3531, 3738, 5136, 5407, 7018, 8985, 9308]}, "edge": {"target": [], "time": []}}, "mouseout": {"state": {"target": ["0", "28", "26", "27", "29", "27", "26", "32", "33", "12", "20", "16", "6"], "time": [840, 1563, 1598, 1770, 2039, 3263, 3342, 3638, 5084, 5174, 6821, 8982, 9016]}, "edge": {"target": [], "time": []}}}, "displayed_time": "15.32", "trialTime": 16138, "trial_type": "mouselab-mdp", "trial_index": 43, "time_elapsed": 1851592, "internal_node_id": "0.0-6.0-1.0-22.0"}}, {"uniqueid": "w63548304:a43522419", "current_trial": 44, "dateTime": 1693482485253, "trialdata": {"revealed_states": [], "clicked_states": ["29", "6"], "num_clicks_accrued": [0, 0, 0, 0, 0, 0, 0, 0, 0, 0, 0, 0, 0], "stateRewards": ["", -1, 1, -5, -6, -78, 47, -13, 12, 48, -88, 20, 2, -3, -2, 13, -20, 37, -57, 14, -38, 30, 31, -2, -2, 8, 2, -23, 78, 28, 12, -74, -88, 8], "withholdReward": false, "trial_id": "mdp_trial_24", "block": "test", "trialIndex": 29, "score": 33.2, "costs": -2.8, "simulationMode": [null, null, null, null, null], "rewards": [-1, 1, -5, -6, 47], "path": ["0", "0", "1", "2", "3", "4", "6"], "rt": [6198, 527, 160, 137, 198], "actions": ["up", "up", "up", "right", "right"], "actionTimes": [7437, 8492, 9206, 9895, 10614], "queries": {"click": {"state": {"target": ["29", "6"], "time": [2594, 4625]}, "edge": {"target": [], "time": []}}, "mouseover": {"state": {"target": ["23", "24", "29", "27", "8", "5", "6", "4", "11"], "time": [1800, 1921, 2265, 3274, 3314, 3382, 3671, 5277, 5376]}, "edge": {"target": [], "time": []}}, "mouseout": {"state": {"target": ["5", "3", "2", "1", "0", "23", "24", "29", "27", "8", "5", "6", "4"], "time": [501, 562, 600, 674, 1768, 1857, 2011, 2615, 3310, 3350, 3439, 5275, 5310]}, "edge": {"target": [], "time": []}}}, "displayed_time": "15.25", "trialTime": 16753, "trial_type": "mouselab-mdp", "trial_index": 44, "time_elapsed": 1868761, "internal_node_id": "0.0-6.0-1.0-23.0"}}, {"uniqueid": "w63548304:a43522419", "current_trial": 45, "dateTime": 1693482503928, "trialdata": {"revealed_states": [], "clicked_states": ["11", "6"], "num_clicks_accrued": [0, 0, 0, 0, 0, 0, 0, 0, 0, 0, 0, 0, 0], "stateRewards": ["", 1, 2, -3, 6, -88, 74, -45, 7, -46, 40, -77, 1, -4, 4, 3, 22, -25, -59, 8, -83, 19, -60, -1, -1, -1, -8, 26, -29, 64, -7, -88, -51, -55], "withholdReward": false, "trial_id": "mdp_trial_25", "block": "test", "trialIndex": 30, "score": 77.2, "costs": -2.8, "simulationMode": [null, null, null, null, null], "rewards": [1, 2, -3, 6, 74], "path": ["0", "0", "1", "2", "3", "4", "6"], "rt": [6620, 85, 102, 115, 163], "actions": ["up", "up", "up", "right", "right"], "actionTimes": [8122, 8730, 9358, 9996, 10683], "queries": {"click": {"state": {"target": ["11", "6"], "time": [3103, 5100]}, "edge": {"target": [], "time": []}}, "mouseover": {"state": {"target": ["1", "8", "11", "4", "6", "17"], "time": [1678, 1745, 2862, 3615, 4049, 6444]}, "edge": {"target": [], "time": []}}, "mouseout": {"state": {"target": ["11", "10", "23", "0", "1", "8", "11", "4", "6"], "time": [710, 775, 1009, 1629, 1709, 1842, 3578, 3648, 5826]}, "edge": {"target": [], "time": []}}}, "displayed_time": "15.51", "trialTime": 18323, "trial_type": "mouselab-mdp", "trial_index": 45, "time_elapsed": 1887434, "internal_node_id": "0.0-6.0-1.0-24.0"}}, {"uniqueid": "w63548304:a43522419", "current_trial": 46, "dateTime": 1693482520589, "trialdata": {"revealed_states": [], "clicked_states": ["32", "5"], "num_clicks_accrued": [0, 0, 0, 0, 0, 0, 0, 0, 0, 0, 0, 0, 0], "stateRewards": ["", 1, 2, -3, -6, 50, -7, 7, -7, -80, 21, -1, 2, 2, 4, -1, 33, 84, 1, 14, -53, 81, 6, -2, -2, -3, -9, -87, -38, -59, -5, -74, -3, -71], "withholdReward": false, "trial_id": "mdp_trial_26", "block": "test", "trialIndex": 31, "score": 41.2, "costs": -2.8, "simulationMode": [null, null, null, null, null], "rewards": [1, 2, -3, -6, 50], "path": ["0", "0", "1", "2", "3", "4", "5"], "rt": [6400, 487, 209, 129, 214], "actions": ["up", "up", "up", "right", "up"], "actionTimes": [7423, 8454, 9176, 9830, 10570], "queries": {"click": {"state": {"target": ["32", "5"], "time": [2541, 4591]}, "edge": {"target": [], "time": []}}, "mouseover": {"state": {"target": ["30", "33", "32", "3", "5", "15", "21"], "time": [1648, 1934, 2335, 3195, 3615, 5396, 5804]}, "edge": {"target": [], "time": []}}, "mouseout": {"state": {"target": ["17", "13", "12", "0", "30", "33", "32", "3", "5", "15"], "time": [162, 260, 460, 1583, 1731, 2281, 2560, 3397, 5365, 5429]}, "edge": {"target": [], "time": []}}}, "displayed_time": "15.03", "trialTime": 16232, "trial_type": "mouselab-mdp", "trial_index": 46, "time_elapsed": 1904096, "internal_node_id": "0.0-6.0-1.0-25.0"}}, {"uniqueid": "w63548304:a43522419", "current_trial": 47, "dateTime": 1693482537517, "trialdata": {"revealed_states": [], "clicked_states": ["33", "20", "11", "6"], "num_clicks_accrued": [0, 0, 0, 0, 0, 0, 0, 0, 0, 0, 0, 0, 0], "stateRewards": ["", -2, -3, 8, 14, -73, 73, 84, -12, -2, -50, -17, 2, 1, -2, -9, -44, -27, -33, 16, -63, -47, -66, -2, 1, 4, -5, -33, -11, 50, 9, 38, -79, 31], "withholdReward": false, "trial_id": "mdp_trial_27", "block": "test", "trialIndex": 32, "score": 84.4, "costs": -5.6, "simulationMode": [null, null, null, null, null], "rewards": [-2, -3, 8, 14, 73], "path": ["0", "0", "1", "2", "3", "4", "6"], "rt": [10097, 20, 38, 67, 55], "actions": ["up", "up", "up", "right", "right"], "actionTimes": [11540, 12104, 12670, 13261, 13852], "queries": {"click": {"state": {"target": ["33", "20", "11", "6"], "time": [2415, 4557, 6561, 8550]}, "edge": {"target": [], "time": []}}, "mouseover": {"state": {"target": ["23", "25", "33", "0", "20", "14", "11", "6", "6", "17"], "time": [1763, 1796, 2164, 2868, 3205, 5295, 5926, 7098, 7749, 9422]}, "edge": {"target": [], "time": []}}, "mouseout": {"state": {"target": ["21", "22", "12", "23", "25", "33", "0", "20", "14", "11", "6", "6"], "time": [244, 296, 377, 1794, 1829, 2436, 2903, 5256, 5331, 7038, 7136, 9184]}, "edge": {"target": [], "time": []}}}, "displayed_time": "15.45", "trialTime": 16519, "trial_type": "mouselab-mdp", "trial_index": 47, "time_elapsed": 1921026, "internal_node_id": "0.0-6.0-1.0-26.0"}}, {"uniqueid": "w63548304:a43522419", "current_trial": 48, "dateTime": 1693482557514, "trialdata": {"revealed_states": [], "clicked_states": ["29", "6", "20", "33", "32"], "num_clicks_accrued": [0, 0, 0, 0, 0, 0, 0, 0, 0, 0, 0, 0, 0], "stateRewards": ["", -1, -4, -6, -15, 21, -67, -63, 9, 51, 69, -14, -1, 3, 8, -8, 39, 72, 63, 15, 19, 47, 15, 1, 4, 5, 16, -18, 34, 35, -14, -80, 40, 1], "withholdReward": false, "trial_id": "mdp_trial_28", "block": "test", "trialIndex": 33, "score": 29, "costs": -7, "simulationMode": [null, null, null, null, null], "rewards": [1, 4, 5, -14, 40], "path": ["0", "0", "23", "24", "25", "30", "32"], "rt": [13495, 144, 110, 116, 203], "actions": ["left", "left", "left", "down", "down"], "actionTimes": [15196, 15857, 16483, 17136, 17863], "queries": {"click": {"state": {"target": ["29", "6", "20", "33", "32"], "time": [2557, 4763, 7404, 9484, 11959]}, "edge": {"target": [], "time": []}}, "mouseover": {"state": {"target": ["27", "29", "6", "4", "17", "17", "20", "31", "33", "33", "30", "31", "23", "31", "32", "9", "11", "9"], "time": [2116, 2251, 3141, 5830, 5985, 6275, 7184, 8425, 8492, 8686, 10350, 10416, 11066, 11452, 11722, 12655, 12989, 13143]}, "edge": {"target": [], "time": []}}, "mouseout": {"state": {"target": ["17", "27", "29", "6", "4", "17", "17", "20", "31", "33", "33", "30", "31", "23", "31", "32", "9", "11"], "time": [950, 2157, 3000, 4783, 5922, 6020, 6803, 8390, 8458, 8555, 10317, 10384, 10555, 11121, 11670, 12500, 12750, 13083]}, "edge": {"target": [], "time": []}}}, "displayed_time": "18.38", "trialTime": 19621, "trial_type": "mouselab-mdp", "trial_index": 48, "time_elapsed": 1941021, "internal_node_id": "0.0-6.0-1.0-27.0"}}, {"uniqueid": "w63548304:a43522419", "current_trial": 49, "dateTime": 1693482576338, "trialdata": {"revealed_states": [], "clicked_states": ["6", "11"], "num_clicks_accrued": [0, 0, 0, 0, 0, 0, 0, 0, 0, 0, 0, 0, 0], "stateRewards": ["", 2, -4, -8, -15, 71, -43, -41, 7, -17, 20, 67, -1, -1, -4, 6, 37, -24, -47, 9, 34, 57, 45, 1, 2, -4, -5, -23, 88, -5, 13, -40, 43, 44], "withholdReward": false, "trial_id": "mdp_trial_29", "block": "test", "trialIndex": 34, "score": 61.2, "costs": -2.8, "simulationMode": [null, null, null, null, null], "rewards": [2, -4, -8, 7, 67], "path": ["0", "0", "1", "2", "3", "8", "11"], "rt": [5889, 460, 363, 172, 176], "actions": ["up", "up", "up", "left", "left"], "actionTimes": [8898, 9907, 10800, 11511, 12223], "queries": {"click": {"state": {"target": ["6", "11"], "time": [4058, 6071]}, "edge": {"target": [], "time": []}}, "mouseover": {"state": {"target": ["7", "6", "4", "8", "11", "2", "7"], "time": [3238, 3766, 4528, 4567, 4667, 6645, 6718]}, "edge": {"target": [], "time": []}}, "mouseout": {"state": {"target": ["9", "5", "3", "2", "0", "7", "6", "4", "8", "11", "2"], "time": [369, 603, 786, 852, 3085, 3453, 4524, 4562, 4618, 6548, 6682]}, "edge": {"target": [], "time": []}}}, "displayed_time": "17.02", "trialTime": 18433, "trial_type": "mouselab-mdp", "trial_index": 49, "time_elapsed": 1959845, "internal_node_id": "0.0-6.0-1.0-28.0"}}, {"uniqueid": "w63548304:a43522419", "current_trial": 50, "dateTime": 1693482595908, "trialdata": {"revealed_states": [], "clicked_states": ["32"], "num_clicks_accrued": [0, 0, 0, 0, 0, 0, 0, 0, 0, 0, 0, 0, 0], "stateRewards": ["", -2, -4, -2, -13, -15, 87, -19, -6, -80, 30, 12, 1, 1, -8, 2, 55, 56, 15, 11, -68, -7, 55, -2, 3, -3, -3, 48, 62, 4, 1, -3, 69, -33], "withholdReward": false, "trial_id": "mdp_trial_30", "block": "test", "trialIndex": 35, "score": 66.6, "costs": -1.4, "simulationMode": [null, null, null, null, null], "rewards": [-2, 3, -3, 1, 69], "path": ["0", "0", "23", "24", "25", "30", "32"], "rt": [3539, 19, 69, 156, 852], "actions": ["left", "left", "left", "down", "down"], "actionTimes": [4903, 5446, 6039, 6734, 8227], "queries": {"click": {"state": {"target": ["32"], "time": [2225]}, "edge": {"target": [], "time": []}}, "mouseover": {"state": {"target": ["23", "30", "32", "30", "26", "27"], "time": [1481, 1554, 1950, 2644, 2703, 2922]}, "edge": {"target": [], "time": []}}, "mouseout": {"state": {"target": ["7", "1", "23", "30", "32", "30", "26"], "time": [537, 654, 1510, 1590, 2607, 2701, 2734]}, "edge": {"target": [], "time": []}}}, "displayed_time": "15.37", "trialTime": 19193, "trial_type": "mouselab-mdp", "trial_index": 50, "time_elapsed": 1979415, "internal_node_id": "0.0-6.0-1.0-29.0"}}, {"uniqueid": "w63548304:a43522419", "current_trial": 51, "dateTime": 1693482612833, "trialdata": {"revealed_states": [], "clicked_states": ["29"], "num_clicks_accrued": [0, 0, 0, 0, 0, 0, 0, 0, 0, 0, 0, 0, 0], "stateRewards": ["", -1, -3, -7, -4, -85, -70, 79, 8, 84, -66, 42, 2, -2, -3, -16, -54, -66, 68, -3, 21, -14, 7, -2, -1, -3, -8, 75, 80, 86, -7, -84, 73, -16], "withholdReward": false, "trial_id": "mdp_trial_31", "block": "test", "trialIndex": 36, "score": 70.6, "costs": -1.4, "simulationMode": [null, null, null, null, null], "rewards": [-2, -1, -3, -8, 86], "path": ["0", "0", "23", "24", "25", "26", "29"], "rt": [3662, 20, 86, 512, 50], "actions": ["left", "left", "left", "up", "left"], "actionTimes": [4896, 5451, 6062, 7098, 7690], "queries": {"click": {"state": {"target": ["29"], "time": [2254]}, "edge": {"target": [], "time": []}}, "mouseover": {"state": {"target": ["28", "29", "18", "15", "17", "20"], "time": [1359, 1808, 2641, 2772, 2927, 4495]}, "edge": {"target": [], "time": []}}, "mouseout": {"state": {"target": ["27", "1", "28", "29", "18", "15", "17", "20"], "time": [473, 589, 1393, 2279, 2679, 2894, 4415, 4526]}, "edge": {"target": [], "time": []}}}, "displayed_time": "15.24", "trialTime": 16549, "trial_type": "mouselab-mdp", "trial_index": 51, "time_elapsed": 1996341, "internal_node_id": "0.0-6.0-1.0-30.0"}}, {"uniqueid": "w63548304:a43522419", "current_trial": 52, "dateTime": 1693482631400, "trialdata": {"revealed_states": [], "clicked_states": ["7", "21", "16"], "num_clicks_accrued": [0, 0, 0, 0, 0, 0, 0, 0, 0, 0, 0, 0, 0], "stateRewards": ["", 1, 1, 6, -14, -40, 37, 16, -13, 33, -68, 49, 2, 4, 3, 6, 55, 27, 32, 10, -65, 20, -87, 2, 1, -6, -5, -42, 12, 29, -8, 16, 76, -33], "withholdReward": false, "trial_id": "mdp_trial_32", "block": "test", "trialIndex": 37, "score": 65.8, "costs": -4.199999999999999, "simulationMode": [null, null, null, null, null], "rewards": [2, 4, 3, 6, 55], "path": ["0", "0", "12", "13", "14", "15", "16"], "rt": [7525, 149, 131, 343, 145], "actions": ["right", "right", "right", "up", "up"], "actionTimes": [9127, 9785, 10435, 11312, 12009], "queries": {"click": {"state": {"target": ["7", "21", "16"], "time": [2507, 4579, 6592]}, "edge": {"target": [], "time": []}}, "mouseover": {"state": {"target": ["7", "13", "21", "19", "14", "15", "16", "27"], "time": [2172, 3030, 3101, 5192, 5230, 5302, 5564, 7973]}, "edge": {"target": [], "time": []}}, "mouseout": {"state": {"target": ["21", "22", "0", "7", "13", "21", "19", "14", "15", "16", "27"], "time": [688, 893, 1025, 2994, 3068, 5157, 5224, 5265, 5431, 7537, 8726]}, "edge": {"target": [], "time": []}}}, "displayed_time": "15.61", "trialTime": 18099, "trial_type": "mouselab-mdp", "trial_index": 52, "time_elapsed": 2014909, "internal_node_id": "0.0-6.0-1.0-31.0"}}, {"uniqueid": "w63548304:a43522419", "current_trial": 53, "dateTime": 1693482648347, "trialdata": {"revealed_states": [], "clicked_states": ["27", "32"], "num_clicks_accrued": [0, 0, 0, 0, 0, 0, 0, 0, 0, 0, 0, 0, 0], "stateRewards": ["", 2, 3, -2, -8, -8, -41, 74, 15, -23, -80, 1, 1, 3, 3, -15, -63, -78, 67, 13, 75, -41, 86, 2, -2, 6, -3, -8, -49, 50, -6, 83, 74, 80], "withholdReward": false, "trial_id": "mdp_trial_33", "block": "test", "trialIndex": 38, "score": 71.2, "costs": -2.8, "simulationMode": [null, null, null, null, null], "rewards": [2, -2, 6, -6, 74], "path": ["0", "0", "23", "24", "25", "30", "32"], "rt": [5356, 179, 254, 251, 310], "actions": ["left", "left", "left", "down", "down"], "actionTimes": [6973, 7685, 8481, 9271, 10102], "queries": {"click": {"state": {"target": ["27", "32"], "time": [2345, 4339]}, "edge": {"target": [], "time": []}}, "mouseover": {"state": {"target": ["27", "27", "30", "32", "21"], "time": [1757, 2054, 3028, 3066, 5548]}, "edge": {"target": [], "time": []}}, "mouseout": {"state": {"target": ["27", "28", "23", "0", "27", "27", "30", "32", "21"], "time": [888, 911, 955, 1653, 1788, 2992, 3062, 4800, 16171]}, "edge": {"target": [], "time": []}}}, "displayed_time": "15.63", "trialTime": 16590, "trial_type": "mouselab-mdp", "trial_index": 53, "time_elapsed": 2031854, "internal_node_id": "0.0-6.0-1.0-32.0"}}, {"uniqueid": "w63548304:a43522419", "current_trial": 54, "dateTime": 1693482665244, "trialdata": {"revealed_states": [], "clicked_states": ["11"], "num_clicks_accrued": [0, 0, 0, 0, 0, 0, 0, 0, 0, 0, 0, 0, 0], "stateRewards": ["", -1, 1, -2, 5, 73, 15, 61, 8, 7, 38, 76, 2, 2, -4, -6, -6, -26, 43, -5, -45, -85, -35, -2, 1, -4, 15, -10, 69, 72, -11, 84, -49, -38], "withholdReward": false, "trial_id": "mdp_trial_34", "block": "test", "trialIndex": 39, "score": 80.6, "costs": -1.4, "simulationMode": [null, null, null, null, null], "rewards": [-1, 1, -2, 8, 76], "path": ["0", "0", "1", "2", "3", "8", "11"], "rt": [3461, 105, 266, 78, 229], "actions": ["up", "up", "up", "left", "left"], "actionTimes": [4815, 5454, 6248, 6928, 7675], "queries": {"click": {"state": {"target": ["11"], "time": [2135]}, "edge": {"target": [], "time": []}}, "mouseover": {"state": {"target": ["11", "3", "4", "6"], "time": [1874, 2498, 2535, 2570]}, "edge": {"target": [], "time": []}}, "mouseout": {"state": {"target": ["19", "0", "11", "3", "4"], "time": [593, 1440, 2156, 2530, 2569]}, "edge": {"target": [], "time": []}}}, "displayed_time": "15.37", "trialTime": 16435, "trial_type": "mouselab-mdp", "trial_index": 54, "time_elapsed": 2048751, "internal_node_id": "0.0-6.0-1.0-33.0"}}, {"uniqueid": "w63548304:a43522419", "current_trial": 55, "dateTime": 1693482681816, "trialdata": {"revealed_states": [], "clicked_states": ["21"], "num_clicks_accrued": [0, 0, 0, 0, 0, 0, 0, 0, 0, 0, 0, 0, 0], "stateRewards": ["", 1, 1, 4, 11, 83, -66, 18, -16, -23, 5, 25, 1, -3, 1, -12, 18, 24, -86, -11, -64, 36, 40, 2, 1, -6, 13, 55, 29, 72, -2, 81, -72, -41], "withholdReward": false, "trial_id": "mdp_trial_35", "block": "test", "trialIndex": 40, "score": 22.6, "costs": -1.4, "simulationMode": [null, null, null, null, null], "rewards": [1, -3, 1, -11, 36], "path": ["0", "0", "12", "13", "14", "19", "21"], "rt": [4694, 94, 86, 192, 98], "actions": ["right", "right", "right", "down", "down"], "actionTimes": [5770, 6383, 7003, 7716, 8341], "queries": {"click": {"state": {"target": ["21"], "time": [2130]}, "edge": {"target": [], "time": []}}, "mouseover": {"state": {"target": ["12", "22", "21", "19", "15", "16", "16"], "time": [1537, 1570, 1884, 2726, 2767, 2807, 3177]}, "edge": {"target": [], "time": []}}, "mouseout": {"state": {"target": ["6", "12", "22", "21", "19", "15", "16"], "time": [306, 1565, 1611, 2692, 2761, 2803, 2843]}, "edge": {"target": [], "time": []}}}, "displayed_time": "15.08", "trialTime": 16148, "trial_type": "mouselab-mdp", "trial_index": 55, "time_elapsed": 2065323, "internal_node_id": "0.0-6.0-1.0-34.0"}}, {"uniqueid": "w63548304:a43522419", "current_trial": 56, "dateTime": 1693482700027, "trialdata": {"revealed_states": [], "clicked_states": ["29"], "num_clicks_accrued": [0, 0, 0, 0, 0, 0, 0, 0, 0, 0, 0, 0, 0], "stateRewards": ["", 2, -1, 8, -2, -16, 69, -39, -7, -13, -27, -86, 2, -2, 2, 13, -34, -16, -20, -5, 19, 81, 32, -2, -1, 2, -14, 20, 80, 58, 4, 70, 12, 73], "withholdReward": false, "trial_id": "mdp_trial_36", "block": "test", "trialIndex": 41, "score": 41.6, "costs": -1.4, "simulationMode": [null, null, null, null, null], "rewards": [-2, -1, 2, -14, 58], "path": ["0", "0", "23", "24", "25", "26", "29"], "rt": [3568, 51, 30, 241, 76], "actions": ["left", "left", "left", "up", "left"], "actionTimes": [4876, 5452, 6025, 6806, 7410], "queries": {"click": {"state": {"target": ["29"], "time": [2249]}, "edge": {"target": [], "time": []}}, "mouseover": {"state": {"target": ["28", "26", "29", "24", "31", "31"], "time": [1661, 1800, 2015, 2670, 2705, 2923]}, "edge": {"target": [], "time": []}}, "mouseout": {"state": {"target": ["16", "28", "26", "29", "24", "31"], "time": [498, 1718, 1981, 2638, 2703, 2741]}, "edge": {"target": [], "time": []}}}, "displayed_time": "15.31", "trialTime": 17669, "trial_type": "mouselab-mdp", "trial_index": 56, "time_elapsed": 2083533, "internal_node_id": "0.0-6.0-1.0-35.0"}}, {"uniqueid": "w63548304:a43522419", "current_trial": 57, "dateTime": 1693482716337, "trialdata": {"revealed_states": [], "clicked_states": ["7", "9", "33", "20"], "num_clicks_accrued": [0, 0, 0, 0, 0, 0, 0, 0, 0, 0, 0, 0, 0], "stateRewards": ["", 1, -4, 6, -3, 40, 76, -51, 5, -24, -63, 44, -2, -2, 8, 1, 76, -85, -58, 10, 59, 20, 11, -2, 3, -3, 3, -82, -10, 54, -7, -57, -6, -32], "withholdReward": false, "trial_id": "mdp_trial_37", "block": "test", "trialIndex": 42, "score": 67.4, "costs": -5.6, "simulationMode": [null, null, null, null, null], "rewards": [-2, -2, 8, 10, 59], "path": ["0", "0", "12", "13", "14", "19", "20"], "rt": [9788, 72, 644, 177, 187], "actions": ["right", "right", "right", "down", "right"], "actionTimes": [10741, 11349, 12528, 13244, 13959], "queries": {"click": {"state": {"target": ["7", "9", "33", "20"], "time": [2133, 4087, 6078, 8083]}, "edge": {"target": [], "time": []}}, "mouseover": {"state": {"target": ["6", "4", "7", "7", "9", "25", "33", "21", "20", "17"], "time": [1148, 1571, 1652, 1906, 2865, 4825, 5138, 6843, 7137, 9182]}, "edge": {"target": [], "time": []}}, "mouseout": {"state": {"target": ["31", "0", "6", "4", "7", "7", "9", "25", "33", "21", "20", "17"], "time": [363, 1051, 1199, 1602, 1687, 2555, 4720, 4859, 6687, 7098, 9106, 9221]}, "edge": {"target": [], "time": []}}}, "displayed_time": "14.96", "trialTime": 15927, "trial_type": "mouselab-mdp", "trial_index": 57, "time_elapsed": 2099846, "internal_node_id": "0.0-6.0-1.0-36.0"}}, {"uniqueid": "w63548304:a43522419", "current_trial": 58, "dateTime": 1693482734730, "trialdata": {"revealed_states": [], "clicked_states": ["6"], "num_clicks_accrued": [0, 0, 0, 0, 0, 0, 0, 0, 0, 0, 0, 0, 0], "stateRewards": ["", 2, -4, -4, 13, -80, 62, 13, -11, 57, -13, -44, 1, 4, 3, -4, -29, -88, 15, 16, -58, 68, -45, -1, -3, -1, -9, -44, -86, -19, -7, -36, 59, 66], "withholdReward": false, "trial_id": "mdp_trial_38", "block": "test", "trialIndex": 43, "score": 67.6, "costs": -1.4, "simulationMode": [null, null, null, null, null], "rewards": [2, -4, -4, 13, 62], "path": ["0", "0", "1", "2", "3", "4", "6"], "rt": [3668, 64, 30, 47, 112], "actions": ["up", "up", "up", "right", "right"], "actionTimes": [4950, 5513, 6072, 6652, 7303], "queries": {"click": {"state": {"target": ["6"], "time": [2250]}, "edge": {"target": [], "time": []}}, "mouseover": {"state": {"target": ["16", "6", "4", "33"], "time": [1683, 2013, 2739, 3126]}, "edge": {"target": [], "time": []}}, "mouseout": {"state": {"target": ["20", "12", "0", "16", "6", "4"], "time": [549, 650, 913, 1881, 2271, 2773]}, "edge": {"target": [], "time": []}}}, "displayed_time": "15.29", "trialTime": 18003, "trial_type": "mouselab-mdp", "trial_index": 58, "time_elapsed": 2118237, "internal_node_id": "0.0-6.0-1.0-37.0"}}, {"uniqueid": "w63548304:a43522419", "current_trial": 59, "dateTime": 1693482751991, "trialdata": {"revealed_states": [], "clicked_states": ["29"], "num_clicks_accrued": [0, 0, 0, 0, 0, 0, 0, 0, 0, 0, 0, 0, 0], "stateRewards": ["", 2, 4, -5, 7, 81, 35, 6, 11, 14, -72, 42, -1, 2, 3, -7, -77, -44, -40, -15, -85, 51, -32, -2, -1, -5, 7, -74, 47, 52, 16, -49, 48, -46], "withholdReward": false, "trial_id": "mdp_trial_39", "block": "test", "trialIndex": 44, "score": 49.6, "costs": -1.4, "simulationMode": [null, null, null, null, null], "rewards": [-2, -1, -5, 7, 52], "path": ["0", "0", "23", "24", "25", "26", "29"], "rt": [3516, 58, 244, 310, 88], "actions": ["left", "left", "left", "up", "left"], "actionTimes": [5260, 5836, 6614, 7445, 8053], "queries": {"click": {"state": {"target": ["29"], "time": [2783]}, "edge": {"target": [], "time": []}}, "mouseover": {"state": {"target": ["28", "29", "26", "23", "21"], "time": [2241, 2592, 3367, 3407, 3848]}, "edge": {"target": [], "time": []}}, "mouseout": {"state": {"target": ["33", "30", "24", "28", "29", "26", "23"], "time": [493, 691, 741, 2274, 3364, 3404, 3443]}, "edge": {"target": [], "time": []}}}, "displayed_time": "15.75", "trialTime": 16783, "trial_type": "mouselab-mdp", "trial_index": 59, "time_elapsed": 2135499, "internal_node_id": "0.0-6.0-1.0-38.0"}}, {"uniqueid": "w63548304:a43522419", "current_trial": 60, "dateTime": 1693482769053, "trialdata": {"revealed_states": [], "clicked_states": ["9"], "num_clicks_accrued": [0, 0, 0, 0, 0, 0, 0, 0, 0, 0, 0, 0, 0], "stateRewards": ["", -2, 2, -1, -6, 22, 6, 6, -5, 70, -42, 65, 1, 3, 5, -6, -67, -9, 3, 14, 7, -62, -13, -2, 4, 1, 16, 42, -21, -52, -8, 32, 53, 81], "withholdReward": false, "trial_id": "mdp_trial_40", "block": "test", "trialIndex": 45, "score": 62.6, "costs": -1.4, "simulationMode": [null, null, null, null, null], "rewards": [-2, 2, -1, -5, 70], "path": ["0", "0", "1", "2", "3", "8", "9"], "rt": [3995, 189, 160, 236, 233], "actions": ["up", "up", "up", "left", "up"], "actionTimes": [5598, 6306, 7007, 7772, 8545], "queries": {"click": {"state": {"target": ["9"], "time": [2825]}, "edge": {"target": [], "time": []}}, "mouseover": {"state": {"target": ["1", "2", "8", "9", "3", "7", "15", "17"], "time": [2200, 2238, 2315, 2580, 3369, 3408, 3761, 3825]}, "edge": {"target": [], "time": []}}, "mouseout": {"state": {"target": ["21", "22", "0", "1", "2", "8", "9", "3", "7", "15", "17"], "time": [562, 597, 2162, 2236, 2277, 2352, 3335, 3402, 3693, 3795, 9576]}, "edge": {"target": [], "time": []}}}, "displayed_time": "15.61", "trialTime": 16614, "trial_type": "mouselab-mdp", "trial_index": 60, "time_elapsed": 2152560, "internal_node_id": "0.0-6.0-1.0-39.0"}}, {"uniqueid": "w63548304:a43522419", "current_trial": 61, "dateTime": 1693482825139, "trialdata": {"rt": 56080, "response": {"Q0": "$-2 to $2", "Q1": "$-16 to $16", "Q2": "$-88 to $88", "Q3": "The cost for clicking on nodes varied between nodes.", "Q4": "Very motivated"}, "question_order": [0, 1, 2, 3, 4], "trial_id": "final_quiz_control", "trial_type": "survey-multi-choice", "trial_index": 61, "time_elapsed": 2208648, "internal_node_id": "0.0-6.0-2.0"}}, {"uniqueid": "w63548304:a43522419", "current_trial": 62, "dateTime": 1693482931670, "trialdata": {"rt": 106520, "response": {"Q0": "I clicked on the final bubble in the sequence because they were usually the biggest amounts of money. I found that these would ultimately decide whether the journey would be profitable.", "Q1": "I started clicking the bubbles further away from the start.", "Q2": "There were so many choices and I didn't want to use the node inspector too much."}, "trial_id": "self_report_control", "trial_type": "survey-text", "trial_index": 62, "time_elapsed": 2315179, "internal_node_id": "0.0-6.0-3.0"}}, {"uniqueid": "w63548304:a43522419", "current_trial": 63, "dateTime": 1693482943040, "trialdata": {"rt": 11366, "response": {"gender": "male", "age": "25", "colorblind": "0", "effort": "0"}, "trial_type": "survey-html-form", "trial_index": 63, "time_elapsed": 2326549, "internal_node_id": "0.0-6.0-4.0"}}, {"uniqueid": "w63548304:a43522419", "current_trial": 64, "dateTime": 1693482951148, "trialdata": {"rt": 8103, "response": {"Q0": "No", "Q1": "No", "Q2": ""}, "trial_type": "survey-text", "trial_index": 64, "time_elapsed": 2334657, "internal_node_id": "0.0-6.0-5.0"}}, {"uniqueid": "w63548304:a43522419", "current_trial": 65, "dateTime": 1693482961021, "trialdata": {"rt": 9869, "stimulus": "<h1>Completion Code Instructions (1/2)</h1>\n<br><br><br><br>\nYou have reached the end of the experiment! The completion code consists of two parts: (1) a code with 2 characters (2) a code with 6 characters. On this page, you will receive the second part of the code. The first part of the completion code will be on the next page.\n<br><br>\nThe second part of your completion code is: <b>EWEK22</b>\n<br><br>\nPlease note this down. Then, press 'Finish HIT' in order to find the first part of your completion code. Once the data has been saved, you will receive this code either in this window or in the original browser window where you started the experiment.\n", "response": 0, "trial_type": "html-button-response", "trial_index": 65, "time_elapsed": 2344530, "internal_node_id": "0.0-6.0-6.0"}}, {"uniqueid": "w63548304:a43522419", "current_trial": 66, "dateTime": 1693482962033, "trialdata": {"success": true, "trial_type": "fullscreen", "trial_index": 66, "time_elapsed": 2345542, "internal_node_id": "0.0-7.0"}}], "questiondata": {"params": {"CODE": "C6DMOQA6", "MIN_TIME": 14, "inspectCost": 1, "startTime": "Thu Aug 31 2023 12:16:55 GMT+0100 (British Summer Time)", "bonusRate": 0.002, "variance": "1_2_4_8_44", "branching": "31123"}, "final_score": 2183.4}, "eventdata": [{"eventtype": "initialized", "value": null, "timestamp": 1693480615242, "interval": 0}, {"eventtype": "window_resize", "value": [1440, 815], "timestamp": 1693480615243, "interval": 1}, {"eventtype": "window_resize", "value": [1440, 815], "timestamp": 1693480615579, "interval": 336}, {"eventtype": "focus", "value": "off", "timestamp": 1693480619703, "interval": 4124}, {"eventtype": "focus", "value": "on", "timestamp": 1693480620860, "interval": 1157}, {"eventtype": "window_resize", "value": [1440, 900], "timestamp": 1693480622177, "interval": 1317}, {"eventtype": "focus", "value": "off", "timestamp": 1693481085844, "interval": 463667}, {"eventtype": "focus", "value": "on", "timestamp": 1693481086014, "interval": 170}, {"eventtype": "window_resize", "value": [1440, 815], "timestamp": 1693481086054, "interval": 40}, {"eventtype": "window_resize", "value": [1440, 900], "timestamp": 1693481088199, "interval": 2145}, {"eventtype": "focus", "value": "off", "timestamp": 1693481610749, "interval": 522550}, {"eventtype": "focus", "value": "on", "timestamp": 1693481610919, "interval": 170}, {"eventtype": "window_resize", "value": [1440, 815], "timestamp": 1693481610967, "interval": 48}, {"eventtype": "window_resize", "value": [1440, 900], "timestamp": 1693481612200, "interval": 1233}, {"eventtype": "window_resize", "value": [1440, 815], "timestamp": 1693482961251, "interval": 1349051}], "useragent": "Mozilla/5.0 (Macintosh; Intel Mac OS X 10_15_7) AppleWebKit/537.36 (KHTML, like Gecko) Chrome/116.0.0.0 Safari/537.36", "mode": "live", "id": "w63548304:a43522419", "status": "user data saved", "Beginhit": "2023-08-31 11:16:53.886681", "Beginexp": "2023-08-31 11:17:03.241705", "Endhit": "2023-08-31 11:56:02.598558", "psiturkStatus": 3, "browser": "<redacted>", "platform": "macos", "language": "en-GB"}