{"condition": 0, "counterbalance": 0, "assignmentId": "a88076886", "workerId": "w71346398", "hitId": "h63800965", "currenttrial": 55, "bonus": 0, "data": [{"uniqueid": "w71346398:a88076886", "current_trial": 0, "dateTime": 1693841895550, "trialdata": {"success": true, "trial_type": "fullscreen", "trial_index": 0, "time_elapsed": 50514, "internal_node_id": "0.0-0.0"}}, {"uniqueid": "w71346398:a88076886", "current_trial": 1, "dateTime": 1693841916116, "trialdata": {"view_history": [{"page_index": 0, "viewing_time": 20553}], "rt": 20556, "trial_id": "exp_instructions_control", "trial_type": "instructions", "trial_index": 1, "time_elapsed": 71080, "internal_node_id": "0.0-1.0"}}, {"uniqueid": "w71346398:a88076886", "current_trial": 2, "dateTime": 1693842047795, "trialdata": {"view_history": [{"page_index": 0, "viewing_time": 42002}, {"page_index": 1, "viewing_time": 52065}, {"page_index": 2, "viewing_time": 16316}, {"page_index": 3, "viewing_time": 21291}], "rt": 131675, "trial_id": "mouselab_instructions_1_control", "trial_type": "instructions", "trial_index": 2, "time_elapsed": 202759, "internal_node_id": "0.0-2.0-1.0"}}, {"uniqueid": "w71346398:a88076886", "current_trial": 3, "dateTime": 1693842075723, "trialdata": {"revealed_states": [], "clicked_states": ["26", "25"], "num_clicks_accrued": [0, 0, 0, 0, 0, 0, 0, 0, 0, 0, 0, 0, 0], "stateRewards": ["", 10, -10, -10, -10, -10, 10, 10, 10, 10, -10, -10, 10, -10, -10, 10, -10, -10, -10, -10, 10, -10, -10, -10, 10, 10, 10, 10, -10, -10, 10, 10, -10, 10], "withholdReward": false, "trial_id": "practice_1", "block": "test", "trialIndex": 0, "score": 12.5, "costs": -1, "simulationMode": [null, null, null, null, null], "rewards": [-10, 10, 10, 10, -10], "path": ["0", "0", "23", "24", "25", "26", "28"], "rt": [8223, 265, 142, 3344, 4974], "actions": ["left", "left", "left", "up", "right"], "actionTimes": [10770, 11547, 12197, 16049, 21541], "queries": {"click": {"state": {"target": ["26", "25"], "time": [6891, 8689]}, "edge": {"target": [], "time": []}}, "mouseover": {"state": {"target": ["24", "23", "23", "24", "25", "26", "25"], "time": [3863, 3907, 4279, 4879, 5614, 6280, 8264]}, "edge": {"target": [], "time": []}}, "mouseout": {"state": {"target": ["0", "24", "23", "23", "24", "25", "26", "25", "29", "26"], "time": [3416, 3888, 3978, 4630, 5112, 6218, 8029, 8930, 19736, 19783]}, "edge": {"target": [], "time": []}}}, "displayed_time": "22.05", "trialTime": 27532, "trial_type": "mouselab-mdp", "trial_index": 3, "time_elapsed": 230686, "internal_node_id": "0.0-2.0-2.0-0.0"}}, {"uniqueid": "w71346398:a88076886", "current_trial": 4, "dateTime": 1693842089911, "trialdata": {"revealed_states": [], "clicked_states": ["8"], "num_clicks_accrued": [0, 0, 0, 0, 0, 0, 0, 0, 0, 0, 0, 0, 0], "stateRewards": ["", -10, 10, 10, 10, 10, -10, 10, 10, 10, 10, 10, 10, -10, -10, 10, 10, -10, -10, 10, -10, 10, 10, -10, 10, -10, -10, -10, 10, -10, 10, 10, 10, -10], "withholdReward": false, "trial_id": "practice_2", "block": "test", "trialIndex": 1, "score": 33, "costs": -0.5, "simulationMode": [null, null, null, null, null], "rewards": [-10, 10, 10, 10, 10], "path": ["0", "0", "1", "2", "3", "8", "11"], "rt": [6644, 219, 305, 98, 48], "actions": ["up", "up", "up", "left", "left"], "actionTimes": [8748, 9501, 10324, 10924, 11478], "queries": {"click": {"state": {"target": ["8"], "time": [5187]}, "edge": {"target": [], "time": []}}, "mouseover": {"state": {"target": ["1", "2", "8"], "time": [4234, 4484, 4766]}, "edge": {"target": [], "time": []}}, "mouseout": {"state": {"target": ["0", "1", "2", "8"], "time": [3684, 4433, 4517, 6867]}, "edge": {"target": [], "time": []}}}, "displayed_time": "12.00", "trialTime": 13936, "trial_type": "mouselab-mdp", "trial_index": 4, "time_elapsed": 244874, "internal_node_id": "0.0-2.0-2.0-1.0"}}, {"uniqueid": "w71346398:a88076886", "current_trial": 5, "dateTime": 1693842269891, "trialdata": {"view_history": [{"page_index": 0, "viewing_time": 147716}, {"page_index": 1, "viewing_time": 2780}, {"page_index": 0, "viewing_time": 28209}, {"page_index": 1, "viewing_time": 1271}], "rt": 179977, "trial_id": "mouselab_instructions_2_control", "trial_type": "instructions", "trial_index": 5, "time_elapsed": 424855, "internal_node_id": "0.0-2.0-3.0"}}, {"uniqueid": "w71346398:a88076886", "current_trial": 6, "dateTime": 1693842294742, "trialdata": {"rt": 24847, "response": {"Q0": "The cost for clicking on nodes may vary between nodes.", "Q1": "The better I perform the higher my bonus will be.", "Q2": "No, the amount of cash at each node of the web may be different each time.", "Q3": "To get the highest total score.", "Q4": "Only before moving the spider.", "Q5": "3 seconds"}, "question_order": [0, 1, 2, 3, 4, 5], "correct": {"Q0": "The cost for clicking on nodes may vary between nodes.", "Q1": "The better I perform the higher my bonus will be.", "Q2": "No, the amount of cash at each node of the web may be different each time.", "Q3": "To get the highest total score.", "Q4": "Only before moving the spider.", "Q5": "3 seconds"}, "trial_id": "mouselab_quiz_control", "trial_type": "survey-multi-choice", "trial_index": 6, "time_elapsed": 449706, "internal_node_id": "0.0-2.0-4.0"}}, {"uniqueid": "w71346398:a88076886", "current_trial": 7, "dateTime": 1693842298843, "trialdata": {"rt": 4094, "response": {"Q0": "No"}, "question_order": [0], "trial_id": "repeat_check", "trial_type": "survey-multi-choice", "trial_index": 7, "time_elapsed": 453807, "internal_node_id": "0.0-4.0-0.0"}}, {"uniqueid": "w71346398:a88076886", "current_trial": 8, "dateTime": 1693842302999, "trialdata": {"rt": 4151, "stimulus": "\n<h1> Get ready to start the game! </h1>\n\nThank you for reading the instructions. Get ready start with the 40 rounds of this game.\n<br><br>\nIf you need to take a break, feel free to take one after the end of a round, before continuing to the next one.\n<br><br>\nRemember, the more money the spider gets, the bigger your bonus will be!\n<br><br>\n<div style='text-align: center;'>Press <code>space</code> to begin.</div>\n\n<br><br>\n(If, at any point, the <code>space</code> key does not take you to the next page, click once on the text and try again.)", "response": " ", "trial_id": "mdp_ready", "trial_type": "html-keyboard-response", "trial_index": 8, "time_elapsed": 457963, "internal_node_id": "0.0-6.0-0.0"}}, {"uniqueid": "w71346398:a88076886", "current_trial": 9, "dateTime": 1693842321220, "trialdata": {"revealed_states": [], "clicked_states": [], "num_clicks_accrued": [0, 0, 0, 0, 0, 0, 0, 0, 0, 0, 0, 0, 0], "stateRewards": ["", 2, 3, 6, -12, -29, 12, 87, 4, 35, -30, 67, 2, 3, -5, -9, 44, 69, -8, 1, 45, -8, 28, -2, -1, -8, 11, -12, -5, 81, 9, 87, 82, 88], "withholdReward": false, "trial_id": "mdp_trial_1", "block": "test", "trialIndex": 2, "score": 82, "costs": 0, "simulationMode": [null, null, null, null, null], "rewards": [2, 3, 6, 4, 67], "path": ["0", "0", "1", "2", "3", "8", "11"], "rt": [6483, 128, 64, 18, 18], "actions": ["up", "up", "up", "left", "left"], "actionTimes": [8699, 9343, 9920, 10453, 10987], "queries": {"click": {"state": {"target": [], "time": []}, "edge": {"target": [], "time": []}}, "mouseover": {"state": {"target": ["1", "2", "1", "2", "3", "8", "11"], "time": [3210, 3359, 3962, 4329, 4830, 5144, 5643]}, "edge": {"target": [], "time": []}}, "mouseout": {"state": {"target": ["30", "23", "0", "1", "2", "1", "2", "3", "8"], "time": [959, 1509, 2778, 3277, 3927, 4264, 4580, 5095, 5427]}, "edge": {"target": [], "time": []}}}, "displayed_time": "16.22", "trialTime": 17982, "trial_type": "mouselab-mdp", "trial_index": 9, "time_elapsed": 476183, "internal_node_id": "0.0-6.0-1.0-0.0"}}, {"uniqueid": "w71346398:a88076886", "current_trial": 10, "dateTime": 1693842340092, "trialdata": {"revealed_states": [], "clicked_states": ["15"], "num_clicks_accrued": [0, 0, 0, 0, 0, 0, 0, 0, 0, 0, 0, 0, 0], "stateRewards": ["", 2, -1, -3, 16, -3, -16, -62, -1, 13, -26, 43, -1, 4, 3, -9, -54, -37, -3, -12, -71, -68, -57, 1, -3, 2, -9, 2, -2, -9, -11, 84, -52, 55], "withholdReward": false, "trial_id": "mdp_trial_2", "block": "test", "trialIndex": 3, "score": -41.4, "costs": -1.4, "simulationMode": [null, null, null, null, null, null], "rewards": [-1, 4, 3, -9, -37], "path": ["0", "0", "12", "13", "14", "15", "17"], "rt": [3752, 334, 516, 359, 244, 41], "actions": ["right", "right", "right", "right", "up", "right"], "actionTimes": [5906, 6244, 7274, 8134, 8881, 9429], "queries": {"click": {"state": {"target": ["15"], "time": [4621]}, "edge": {"target": [], "time": []}}, "mouseover": {"state": {"target": ["15", "12", "0"], "time": [3949, 5416, 5506]}, "edge": {"target": [], "time": []}}, "mouseout": {"state": {"target": ["11", "10", "1", "15", "12", "0", "1"], "time": [783, 847, 1112, 5347, 5443, 14599, 14782]}, "edge": {"target": [], "time": []}}}, "displayed_time": "16.17", "trialTime": 18620, "trial_type": "mouselab-mdp", "trial_index": 10, "time_elapsed": 495056, "internal_node_id": "0.0-6.0-1.0-1.0"}}, {"uniqueid": "w71346398:a88076886", "current_trial": 11, "dateTime": 1693842358171, "trialdata": {"revealed_states": [], "clicked_states": ["8"], "num_clicks_accrued": [0, 0, 0, 0, 0, 0, 0, 0, 0, 0, 0, 0, 0], "stateRewards": ["", -2, 2, 5, -14, -56, 64, 84, -5, 52, 39, 85, -2, 1, 7, 8, 21, 29, -78, -9, -10, -69, 10, -2, -1, -7, 15, 72, 20, 41, -2, 52, 80, 22], "withholdReward": false, "trial_id": "mdp_trial_3", "block": "test", "trialIndex": 4, "score": 66.6, "costs": -1.4, "simulationMode": [null, null, null, null, null], "rewards": [-2, -1, -7, -2, 80], "path": ["0", "0", "23", "24", "25", "30", "32"], "rt": [3914, 532, 74, 84, 1424], "actions": ["left", "left", "left", "down", "down"], "actionTimes": [6026, 7069, 7685, 8281, 10213], "queries": {"click": {"state": {"target": ["8"], "time": [3026]}, "edge": {"target": [], "time": []}}, "mouseover": {"state": {"target": ["10", "8", "10"], "time": [2551, 2752, 5153]}, "edge": {"target": [], "time": []}}, "mouseout": {"state": {"target": ["1", "0", "10", "8", "10"], "time": [1302, 2486, 2668, 5126, 5204]}, "edge": {"target": [], "time": []}}}, "displayed_time": "16.11", "trialTime": 17833, "trial_type": "mouselab-mdp", "trial_index": 11, "time_elapsed": 513135, "internal_node_id": "0.0-6.0-1.0-2.0"}}, {"uniqueid": "w71346398:a88076886", "current_trial": 12, "dateTime": 1693842379242, "trialdata": {"revealed_states": [], "clicked_states": ["19"], "num_clicks_accrued": [0, 0, 0, 0, 0, 0, 0, 0, 0, 0, 0, 0, 0], "stateRewards": ["", -2, -3, 8, 14, -73, 73, 84, -12, -2, -50, -17, 2, 1, -2, -9, -44, -27, -33, 16, -63, -47, -66, -2, 1, 4, -5, -33, -11, 50, 9, 38, -79, 31], "withholdReward": false, "trial_id": "mdp_trial_4", "block": "test", "trialIndex": 5, "score": -31.4, "costs": -1.4, "simulationMode": [null, null, null, null, null], "rewards": [2, 1, -2, 16, -47], "path": ["0", "0", "12", "13", "14", "19", "21"], "rt": [2773, 87, 316, 465, 86], "actions": ["right", "right", "right", "down", "down"], "actionTimes": [4545, 5151, 5977, 6955, 7552], "queries": {"click": {"state": {"target": ["19"], "time": [2592]}, "edge": {"target": [], "time": []}}, "mouseover": {"state": {"target": ["0", "22", "19"], "time": [1937, 2103, 2302]}, "edge": {"target": [], "time": []}}, "mouseout": {"state": {"target": ["0", "0", "22", "19", "19"], "time": [1502, 1964, 2153, 2654, 3326]}, "edge": {"target": [], "time": []}}}, "displayed_time": "15.77", "trialTime": 20751, "trial_type": "mouselab-mdp", "trial_index": 12, "time_elapsed": 534205, "internal_node_id": "0.0-6.0-1.0-3.0"}}, {"uniqueid": "w71346398:a88076886", "current_trial": 13, "dateTime": 1693842399314, "trialdata": {"revealed_states": [], "clicked_states": ["8"], "num_clicks_accrued": [0, 0, 0, 0, 0, 0, 0, 0, 0, 0, 0, 0, 0], "stateRewards": ["", 1, -2, -2, 10, -31, -77, 35, 9, -47, 8, 48, -2, 1, -4, -3, -26, -50, 43, -11, 76, -38, 17, 1, -1, 6, 10, 15, -9, 12, -8, 85, 11, -55], "withholdReward": false, "trial_id": "mdp_trial_5", "block": "test", "trialIndex": 6, "score": 40.6, "costs": -1.4, "simulationMode": [null, null, null, null, null], "rewards": [1, -2, -2, 10, 35], "path": ["0", "0", "1", "2", "3", "4", "7"], "rt": [3984, 492, 789, 625, 1479], "actions": ["up", "up", "up", "right", "down"], "actionTimes": [8506, 9499, 10798, 11947, 13939], "queries": {"click": {"state": {"target": ["8"], "time": [6558]}, "edge": {"target": [], "time": []}}, "mouseover": {"state": {"target": ["1", "2", "3", "8"], "time": [4984, 5184, 5551, 6134]}, "edge": {"target": [], "time": []}}, "mouseout": {"state": {"target": ["31", "30", "33", "26", "8", "3", "2", "1", "0", "1", "2", "3"], "time": [599, 632, 1132, 1248, 1498, 3550, 3634, 3699, 4753, 5134, 5383, 6017]}, "edge": {"target": [], "time": []}}}, "displayed_time": "18.52", "trialTime": 19782, "trial_type": "mouselab-mdp", "trial_index": 13, "time_elapsed": 554278, "internal_node_id": "0.0-6.0-1.0-4.0"}}, {"uniqueid": "w71346398:a88076886", "current_trial": 14, "dateTime": 1693842417618, "trialdata": {"revealed_states": [], "clicked_states": ["28"], "num_clicks_accrued": [0, 0, 0, 0, 0, 0, 0, 0, 0, 0, 0, 0, 0], "stateRewards": ["", -1, -4, 8, 8, -68, 47, 24, -7, -61, 49, -69, -1, -1, 8, -7, 42, 1, -45, -11, 10, -63, -6, 1, 4, 6, -16, 79, -37, -58, -12, 81, 18, -53], "withholdReward": false, "trial_id": "mdp_trial_6", "block": "test", "trialIndex": 7, "score": -55.4, "costs": -1.4, "simulationMode": [null, null, null, null, null], "rewards": [1, 4, 6, -12, -53], "path": ["0", "0", "23", "24", "25", "30", "33"], "rt": [4717, 38, 52, 453, 146], "actions": ["left", "left", "left", "down", "left"], "actionTimes": [7305, 7853, 8417, 9408, 10054], "queries": {"click": {"state": {"target": ["28"], "time": [5222]}, "edge": {"target": [], "time": []}}, "mouseover": {"state": {"target": ["23", "26", "29", "25", "29", "26", "28"], "time": [3199, 3397, 3614, 4031, 4597, 4805, 4930]}, "edge": {"target": [], "time": []}}, "mouseout": {"state": {"target": ["8", "2", "1", "23", "26", "29", "25", "29", "26"], "time": [1863, 1929, 2145, 3220, 3430, 3983, 4214, 4782, 4849]}, "edge": {"target": [], "time": []}}}, "displayed_time": "16.59", "trialTime": 18044, "trial_type": "mouselab-mdp", "trial_index": 14, "time_elapsed": 572581, "internal_node_id": "0.0-6.0-1.0-5.0"}}, {"uniqueid": "w71346398:a88076886", "current_trial": 15, "dateTime": 1693842434810, "trialdata": {"revealed_states": [], "clicked_states": ["11"], "num_clicks_accrued": [0, 0, 0, 0, 0, 0, 0, 0, 0, 0, 0, 0, 0], "stateRewards": ["", -1, -3, 1, -4, -48, -63, -49, -2, -84, -19, 65, 2, -2, -2, -12, -4, 59, 9, 6, 75, 69, -13, -1, -3, -3, -2, -37, -68, -36, 13, 32, 18, -14], "withholdReward": false, "trial_id": "mdp_trial_7", "block": "test", "trialIndex": 8, "score": 58.6, "costs": -1.4, "simulationMode": [null, null, null, null, null], "rewards": [-1, -3, 1, -2, 65], "path": ["0", "0", "1", "2", "3", "8", "11"], "rt": [3668, 549, 123, 440, 51], "actions": ["up", "up", "up", "left", "left"], "actionTimes": [5302, 6363, 6997, 7942, 8516], "queries": {"click": {"state": {"target": ["11"], "time": [3014]}, "edge": {"target": [], "time": []}}, "mouseover": {"state": {"target": ["10", "11", "10"], "time": [2110, 2209, 4128]}, "edge": {"target": [], "time": []}}, "mouseout": {"state": {"target": ["28", "23", "0", "10", "11", "10"], "time": [862, 1059, 2049, 2144, 4077, 4152]}, "edge": {"target": [], "time": []}}}, "displayed_time": "15.64", "trialTime": 16927, "trial_type": "mouselab-mdp", "trial_index": 15, "time_elapsed": 589773, "internal_node_id": "0.0-6.0-1.0-6.0"}}, {"uniqueid": "w71346398:a88076886", "current_trial": 16, "dateTime": 1693842454443, "trialdata": {"revealed_states": [], "clicked_states": ["18"], "num_clicks_accrued": [0, 0, 0, 0, 0, 0, 0, 0, 0, 0, 0, 0, 0], "stateRewards": ["", 1, 4, -8, -13, -13, -87, -77, -10, -44, 54, 42, 2, -3, -4, 12, -9, -80, 52, 9, 84, -2, -65, 1, -4, -5, -6, 8, 80, 32, 13, -59, -5, -13], "withholdReward": false, "trial_id": "mdp_trial_8", "block": "test", "trialIndex": 9, "score": 57.6, "costs": -1.4, "simulationMode": [null, null, null, null, null], "rewards": [2, -3, -4, 12, 52], "path": ["0", "0", "12", "13", "14", "15", "18"], "rt": [2740, 384, 119, 106, 273], "actions": ["right", "right", "right", "up", "left"], "actionTimes": [6699, 7595, 8224, 8840, 9612], "queries": {"click": {"state": {"target": ["18"], "time": [4703]}, "edge": {"target": [], "time": []}}, "mouseover": {"state": {"target": ["18"], "time": [4344]}, "edge": {"target": [], "time": []}}, "mouseout": {"state": {"target": ["2", "18", "15"], "time": [509, 2378, 3347]}, "edge": {"target": [], "time": []}}}, "displayed_time": "17.96", "trialTime": 19358, "trial_type": "mouselab-mdp", "trial_index": 16, "time_elapsed": 609406, "internal_node_id": "0.0-6.0-1.0-7.0"}}, {"uniqueid": "w71346398:a88076886", "current_trial": 17, "dateTime": 1693842471539, "trialdata": {"revealed_states": [], "clicked_states": ["29"], "num_clicks_accrued": [0, 0, 0, 0, 0, 0, 0, 0, 0, 0, 0, 0, 0], "stateRewards": ["", -2, 1, -3, -16, -39, -52, 30, -7, -41, -59, 11, 2, 1, 8, 2, -11, -26, -42, -13, 87, -59, -48, -1, -1, -1, 16, -79, 31, 50, -1, -84, 34, -82], "withholdReward": false, "trial_id": "mdp_trial_9", "block": "test", "trialIndex": 10, "score": 61.6, "costs": -1.4, "simulationMode": [null, null, null, null, null], "rewards": [-1, -1, -1, 16, 50], "path": ["0", "0", "23", "24", "25", "26", "29"], "rt": [3026, 108, 110, 89, 81], "actions": ["left", "left", "left", "up", "left"], "actionTimes": [4159, 4779, 5397, 5999, 6592], "queries": {"click": {"state": {"target": ["29"], "time": [1958]}, "edge": {"target": [], "time": []}}, "mouseover": {"state": {"target": ["28", "26", "29", "29"], "time": [1335, 1358, 1423, 1787]}, "edge": {"target": [], "time": []}}, "mouseout": {"state": {"target": ["18", "0", "28", "26", "29"], "time": [387, 1278, 1355, 1391, 1517]}, "edge": {"target": [], "time": []}}}, "displayed_time": "15.14", "trialTime": 16820, "trial_type": "mouselab-mdp", "trial_index": 17, "time_elapsed": 626501, "internal_node_id": "0.0-6.0-1.0-8.0"}}, {"uniqueid": "w71346398:a88076886", "current_trial": 18, "dateTime": 1693842490734, "trialdata": {"revealed_states": [], "clicked_states": ["20"], "num_clicks_accrued": [0, 0, 0, 0, 0, 0, 0, 0, 0, 0, 0, 0, 0], "stateRewards": ["", -1, 1, -5, -6, -78, 47, -13, 12, 48, -88, 20, 2, -3, -2, 13, -20, 37, -57, 14, -38, 30, 31, -2, -2, 8, 2, -23, 78, 28, 12, -74, -88, 8], "withholdReward": false, "trial_id": "mdp_trial_10", "block": "test", "trialIndex": 11, "score": -11.4, "costs": -1.4, "simulationMode": [null, null, null, null, null], "rewards": [2, -3, -2, 13, -20], "path": ["0", "0", "12", "13", "14", "15", "16"], "rt": [3611, 291, 199, 180, 69], "actions": ["right", "right", "right", "up", "up"], "actionTimes": [5556, 6363, 7055, 7759, 8338], "queries": {"click": {"state": {"target": ["20"], "time": [2994]}, "edge": {"target": [], "time": []}}, "mouseover": {"state": {"target": ["12", "13", "19", "20"], "time": [2253, 2333, 2517, 2716]}, "edge": {"target": [], "time": []}}, "mouseout": {"state": {"target": ["29", "26", "12", "0", "12", "13", "19"], "time": [452, 482, 648, 1584, 2302, 2366, 2583]}, "edge": {"target": [], "time": []}}}, "displayed_time": "15.95", "trialTime": 18912, "trial_type": "mouselab-mdp", "trial_index": 18, "time_elapsed": 645697, "internal_node_id": "0.0-6.0-1.0-9.0"}}, {"uniqueid": "w71346398:a88076886", "current_trial": 19, "dateTime": 1693842511471, "trialdata": {"revealed_states": [], "clicked_states": ["32"], "num_clicks_accrued": [0, 0, 0, 0, 0, 0, 0, 0, 0, 0, 0, 0, 0], "stateRewards": ["", 2, 3, -1, 6, 44, -4, -59, -14, -3, 64, 16, 1, -3, 3, 6, 3, 49, 19, 3, -49, -14, -86, 1, 2, -3, -8, -33, 14, 32, -13, -77, -47, -67], "withholdReward": false, "trial_id": "mdp_trial_11", "block": "test", "trialIndex": 12, "score": 4.6, "costs": -1.4, "simulationMode": [null, null, null, null, null], "rewards": [2, 3, -1, -14, 16], "path": ["0", "0", "1", "2", "3", "8", "11"], "rt": [4376, 144, 164, 101, 98], "actions": ["up", "up", "up", "left", "left"], "actionTimes": [9264, 9902, 10593, 11211, 11814], "queries": {"click": {"state": {"target": ["32"], "time": [5825]}, "edge": {"target": [], "time": []}}, "mouseover": {"state": {"target": ["32", "31", "23", "8", "11"], "time": [5588, 8271, 8316, 8723, 9038]}, "edge": {"target": [], "time": []}}, "mouseout": {"state": {"target": ["20", "13", "12", "23", "24", "32", "31", "0", "32", "31", "23", "8", "11", "11"], "time": [552, 635, 701, 1738, 1835, 4253, 4319, 5055, 8238, 8293, 8339, 8988, 14605, 14655]}, "edge": {"target": [], "time": []}}}, "displayed_time": "18.89", "trialTime": 20462, "trial_type": "mouselab-mdp", "trial_index": 19, "time_elapsed": 666434, "internal_node_id": "0.0-6.0-1.0-10.0"}}, {"uniqueid": "w71346398:a88076886", "current_trial": 20, "dateTime": 1693842530380, "trialdata": {"revealed_states": [], "clicked_states": ["16"], "num_clicks_accrued": [0, 0, 0, 0, 0, 0, 0, 0, 0, 0, 0, 0, 0], "stateRewards": ["", -2, -1, 3, -3, 71, -58, -21, 7, -10, -75, -37, 2, 4, -1, -12, -79, -29, -48, 3, -41, -10, -30, -1, -2, 1, -15, 13, 66, 22, -1, -42, -86, -55], "withholdReward": false, "trial_id": "mdp_trial_12", "block": "test", "trialIndex": 13, "score": -59.4, "costs": -1.4, "simulationMode": [null, null, null, null, null], "rewards": [-1, -2, 1, -1, -55], "path": ["0", "0", "23", "24", "25", "30", "33"], "rt": [3286, 194, 186, 91, 222], "actions": ["left", "left", "left", "down", "left"], "actionTimes": [6150, 6863, 7563, 8180, 8909], "queries": {"click": {"state": {"target": ["16"], "time": [3652]}, "edge": {"target": [], "time": []}}, "mouseover": {"state": {"target": ["18", "16"], "time": [3167, 3440]}, "edge": {"target": [], "time": []}}, "mouseout": {"state": {"target": ["8", "2", "7", "15", "18", "18"], "time": [1163, 1396, 1564, 2179, 2213, 3198]}, "edge": {"target": [], "time": []}}}, "displayed_time": "16.86", "trialTime": 18628, "trial_type": "mouselab-mdp", "trial_index": 20, "time_elapsed": 685343, "internal_node_id": "0.0-6.0-1.0-11.0"}}, {"uniqueid": "w71346398:a88076886", "current_trial": 21, "dateTime": 1693842727100, "trialdata": {"revealed_states": [], "clicked_states": ["11"], "num_clicks_accrued": [0, 0, 0, 0, 0, 0, 0, 0, 0, 0, 0, 0, 0], "stateRewards": ["", -2, 3, -1, 2, -72, 63, 20, -1, 62, -66, 39, -2, 3, -6, 14, 22, 47, 1, 8, -49, -1, -41, 2, 2, -6, -16, -64, -60, -34, 16, 54, 22, -7], "withholdReward": false, "trial_id": "mdp_trial_13", "block": "test", "trialIndex": 14, "score": 59.6, "costs": -1.4, "simulationMode": [null, null, null, null, null], "rewards": [-2, 3, -1, -1, 62], "path": ["0", "0", "1", "2", "3", "8", "9"], "rt": [3850, 449, 98, 114, 106], "actions": ["up", "up", "up", "left", "up"], "actionTimes": [6831, 7792, 8412, 9047, 9666], "queries": {"click": {"state": {"target": ["11"], "time": [4467]}, "edge": {"target": [], "time": []}}, "mouseover": {"state": {"target": ["10", "11"], "time": [3444, 4046]}, "edge": {"target": [], "time": []}}, "mouseout": {"state": {"target": ["16", "7", "23", "0", "10"], "time": [1927, 2226, 2509, 2593, 3643]}, "edge": {"target": [], "time": []}}}, "displayed_time": "16.98", "trialTime": 196457, "trial_type": "mouselab-mdp", "trial_index": 21, "time_elapsed": 882064, "internal_node_id": "0.0-6.0-1.0-12.0"}}, {"uniqueid": "w71346398:a88076886", "current_trial": 22, "dateTime": 1693842744826, "trialdata": {"revealed_states": [], "clicked_states": ["4"], "num_clicks_accrued": [0, 0, 0, 0, 0, 0, 0, 0, 0, 0, 0, 0, 0], "stateRewards": ["", 1, -3, -4, -11, -56, 61, -47, -16, -28, -9, 69, -2, -3, -4, -8, 40, -86, 59, -4, 80, 27, 54, -1, 3, -1, 8, 67, 23, 50, 6, 83, -43, -29], "withholdReward": false, "trial_id": "mdp_trial_14", "block": "test", "trialIndex": 15, "score": 57.6, "costs": -1.4, "simulationMode": [null, null, null, null, null], "rewards": [-1, 3, -1, 8, 50], "path": ["0", "0", "23", "24", "25", "26", "29"], "rt": [5072, 301, 292, 307, 78], "actions": ["left", "left", "left", "up", "left"], "actionTimes": [7025, 7866, 8664, 9491, 10078], "queries": {"click": {"state": {"target": ["4"], "time": [3481]}, "edge": {"target": [], "time": []}}, "mouseover": {"state": {"target": ["1", "4", "1"], "time": [2276, 2811, 6043]}, "edge": {"target": [], "time": []}}, "mouseout": {"state": {"target": ["11", "10", "0", "1", "4", "1"], "time": [974, 1040, 2213, 2296, 5926, 6063]}, "edge": {"target": [], "time": []}}}, "displayed_time": "15.96", "trialTime": 17434, "trial_type": "mouselab-mdp", "trial_index": 22, "time_elapsed": 899789, "internal_node_id": "0.0-6.0-1.0-13.0"}}, {"uniqueid": "w71346398:a88076886", "current_trial": 23, "dateTime": 1693842761887, "trialdata": {"revealed_states": [], "clicked_states": ["17"], "num_clicks_accrued": [0, 0, 0, 0, 0, 0, 0, 0, 0, 0, 0, 0, 0], "stateRewards": ["", -1, 4, -3, 3, 57, -61, 5, -11, 23, -1, 34, -2, -4, -1, -13, 27, 38, -36, 4, -45, 21, 88, 1, -2, -1, 1, -69, -5, -78, -12, -9, 38, -54], "withholdReward": false, "trial_id": "mdp_trial_15", "block": "test", "trialIndex": 16, "score": 5.600000000000001, "costs": -1.4, "simulationMode": [null, null, null, null, null], "rewards": [-2, -4, -1, -13, 27], "path": ["0", "0", "12", "13", "14", "15", "16"], "rt": [3794, 372, 558, 398, 35], "actions": ["right", "right", "right", "up", "up"], "actionTimes": [4920, 5803, 6863, 7770, 8319], "queries": {"click": {"state": {"target": ["17"], "time": [2126]}, "edge": {"target": [], "time": []}}, "mouseover": {"state": {"target": ["12", "15", "17"], "time": [1351, 1542, 1877]}, "edge": {"target": [], "time": []}}, "mouseout": {"state": {"target": ["0", "12", "15"], "time": [1327, 1410, 1843]}, "edge": {"target": [], "time": []}}}, "displayed_time": "15.13", "trialTime": 16757, "trial_type": "mouselab-mdp", "trial_index": 23, "time_elapsed": 916850, "internal_node_id": "0.0-6.0-1.0-14.0"}}, {"uniqueid": "w71346398:a88076886", "current_trial": 24, "dateTime": 1693842779159, "trialdata": {"revealed_states": [], "clicked_states": ["30"], "num_clicks_accrued": [0, 0, 0, 0, 0, 0, 0, 0, 0, 0, 0, 0, 0], "stateRewards": ["", 1, -2, -8, -13, 4, 34, -84, -4, -49, 88, -70, -1, 3, -4, 10, -77, 13, -34, 15, -21, -16, 27, 1, -2, 8, -8, -6, 38, -26, 6, -15, 66, -3], "withholdReward": false, "trial_id": "mdp_trial_16", "block": "test", "trialIndex": 17, "score": 77.6, "costs": -1.4, "simulationMode": [null, null, null, null, null], "rewards": [1, -2, 8, 6, 66], "path": ["0", "0", "23", "24", "25", "30", "32"], "rt": [3544, 133, 128, 312, 454], "actions": ["left", "left", "left", "down", "down"], "actionTimes": [4987, 5618, 6252, 7070, 7991], "queries": {"click": {"state": {"target": ["30"], "time": [2485]}, "edge": {"target": [], "time": []}}, "mouseover": {"state": {"target": ["23", "30"], "time": [1959, 2124]}, "edge": {"target": [], "time": []}}, "mouseout": {"state": {"target": ["17", "12", "0", "23"], "time": [810, 907, 1910, 1979]}, "edge": {"target": [], "time": []}}}, "displayed_time": "15.44", "trialTime": 16988, "trial_type": "mouselab-mdp", "trial_index": 24, "time_elapsed": 934121, "internal_node_id": "0.0-6.0-1.0-15.0"}}, {"uniqueid": "w71346398:a88076886", "current_trial": 25, "dateTime": 1693842796905, "trialdata": {"revealed_states": [], "clicked_states": ["3"], "num_clicks_accrued": [0, 0, 0, 0, 0, 0, 0, 0, 0, 0, 0, 0, 0], "stateRewards": ["", -1, 1, 8, -3, -24, 11, -65, -6, -77, 48, 44, -2, 1, -2, -7, -55, -35, 33, 8, -28, 19, -53, -1, -1, -5, -5, -70, 10, 44, 8, -58, -70, 51], "withholdReward": false, "trial_id": "mdp_trial_17", "block": "test", "trialIndex": 18, "score": -61.4, "costs": -1.4, "simulationMode": [null, null, null, null, null], "rewards": [-1, 1, 8, -3, -65], "path": ["0", "0", "1", "2", "3", "4", "7"], "rt": [3842, 146, 261, 176, 201], "actions": ["up", "up", "up", "right", "down"], "actionTimes": [5443, 6097, 6894, 7566, 8284], "queries": {"click": {"state": {"target": ["3"], "time": [3321]}, "edge": {"target": [], "time": []}}, "mouseover": {"state": {"target": ["1", "2", "3", "3", "10"], "time": [1867, 1981, 2299, 3120, 5284]}, "edge": {"target": [], "time": []}}, "mouseout": {"state": {"target": ["30", "24", "23", "1", "2", "3", "3", "10"], "time": [647, 881, 1114, 1914, 2098, 2498, 5199, 5310]}, "edge": {"target": [], "time": []}}}, "displayed_time": "15.60", "trialTime": 17455, "trial_type": "mouselab-mdp", "trial_index": 25, "time_elapsed": 951868, "internal_node_id": "0.0-6.0-1.0-16.0"}}, {"uniqueid": "w71346398:a88076886", "current_trial": 26, "dateTime": 1693842836195, "trialdata": {"revealed_states": [], "clicked_states": ["8"], "num_clicks_accrued": [0, 0, 0, 0, 0, 0, 0, 0, 0, 0, 0, 0, 0], "stateRewards": ["", 2, -2, -3, 10, -4, -1, -11, -8, -9, -36, -78, 2, 1, 7, -7, 44, -1, -31, -1, 26, 47, 83, 2, -4, -4, -6, -52, -76, -81, -1, -59, 45, 67], "withholdReward": false, "trial_id": "mdp_trial_18", "block": "test", "trialIndex": 19, "score": 4.6, "costs": -1.4, "simulationMode": [null, null, null, null, null], "rewards": [2, -2, -3, 10, -1], "path": ["0", "0", "1", "2", "3", "4", "6"], "rt": [4421, 398, 969, 50, 172], "actions": ["up", "up", "up", "right", "right"], "actionTimes": [27816, 28719, 30210, 30760, 31447], "queries": {"click": {"state": {"target": ["8"], "time": [25127]}, "edge": {"target": [], "time": []}}, "mouseover": {"state": {"target": ["12", "2", "8"], "time": [23982, 24268, 24564]}, "edge": {"target": [], "time": []}}, "mouseout": {"state": {"target": ["1", "12", "2"], "time": [1877, 24006, 24300]}, "edge": {"target": [], "time": []}}}, "displayed_time": "37.40", "trialTime": 38970, "trial_type": "mouselab-mdp", "trial_index": 26, "time_elapsed": 991159, "internal_node_id": "0.0-6.0-1.0-17.0"}}, {"uniqueid": "w71346398:a88076886", "current_trial": 27, "dateTime": 1693842854719, "trialdata": {"revealed_states": [], "clicked_states": ["15"], "num_clicks_accrued": [0, 0, 0, 0, 0, 0, 0, 0, 0, 0, 0, 0, 0], "stateRewards": ["", -2, 2, -2, -7, -50, -62, -45, 7, 36, -24, -72, -1, -1, 8, -1, -67, 20, -52, 2, 35, -50, 80, -1, 1, 6, -6, -70, 6, 88, 8, -47, 74, -19], "withholdReward": false, "trial_id": "mdp_trial_19", "block": "test", "trialIndex": 20, "score": -43.4, "costs": -1.4, "simulationMode": [null, null, null, null, null], "rewards": [-1, -1, 8, 2, -50], "path": ["0", "0", "12", "13", "14", "19", "21"], "rt": [3635, 301, 220, 163, 129], "actions": ["right", "right", "right", "down", "down"], "actionTimes": [5875, 6708, 7451, 8144, 8791], "queries": {"click": {"state": {"target": ["15"], "time": [3375]}, "edge": {"target": [], "time": []}}, "mouseover": {"state": {"target": ["18", "15", "18"], "time": [2625, 3025, 5676]}, "edge": {"target": [], "time": []}}, "mouseout": {"state": {"target": ["8", "2", "12", "0", "18", "15"], "time": [1193, 1259, 1475, 2499, 2892, 5632]}, "edge": {"target": [], "time": []}}}, "displayed_time": "16.25", "trialTime": 18233, "trial_type": "mouselab-mdp", "trial_index": 27, "time_elapsed": 1009682, "internal_node_id": "0.0-6.0-1.0-18.0"}}, {"uniqueid": "w71346398:a88076886", "current_trial": 28, "dateTime": 1693842871608, "trialdata": {"revealed_states": [], "clicked_states": ["30"], "num_clicks_accrued": [0, 0, 0, 0, 0, 0, 0, 0, 0, 0, 0, 0, 0], "stateRewards": ["", 1, 3, -2, 15, 51, 15, -19, 11, 67, -45, -73, 2, 4, -2, -13, 36, 9, -28, 10, -30, 31, 16, 1, 2, -1, -16, 14, -22, 36, -1, 88, -5, 45], "withholdReward": false, "trial_id": "mdp_trial_20", "block": "test", "trialIndex": 21, "score": -5.4, "costs": -1.4, "simulationMode": [null, null, null, null, null], "rewards": [1, 2, -1, -1, -5], "path": ["0", "0", "23", "24", "25", "30", "32"], "rt": [4081, 235, 411, 289, 70], "actions": ["left", "left", "left", "down", "down"], "actionTimes": [5767, 6502, 7425, 8220, 8808], "queries": {"click": {"state": {"target": ["30"], "time": [3590]}, "edge": {"target": [], "time": []}}, "mouseover": {"state": {"target": ["0", "23", "30", "32", "30"], "time": [2271, 2302, 2378, 2811, 3228]}, "edge": {"target": [], "time": []}}, "mouseout": {"state": {"target": ["18", "1", "23", "0", "23", "30", "32"], "time": [677, 776, 1044, 2300, 2323, 2428, 3045]}, "edge": {"target": [], "time": []}}}, "displayed_time": "15.69", "trialTime": 16602, "trial_type": "mouselab-mdp", "trial_index": 28, "time_elapsed": 1026571, "internal_node_id": "0.0-6.0-1.0-19.0"}}, {"uniqueid": "w71346398:a88076886", "current_trial": 29, "dateTime": 1693842888785, "trialdata": {"revealed_states": [], "clicked_states": ["26"], "num_clicks_accrued": [0, 0, 0, 0, 0, 0, 0, 0, 0, 0, 0, 0, 0], "stateRewards": ["", 1, 1, -3, 2, 22, -25, -11, -5, 50, 49, 3, 1, -1, 8, 14, -85, -30, 57, -6, -39, -16, 59, -2, -1, 5, 5, 59, -16, 8, 4, 67, 56, -9], "withholdReward": false, "trial_id": "mdp_trial_21", "block": "test", "trialIndex": 22, "score": 64.6, "costs": -1.4, "simulationMode": [null, null, null, null, null], "rewards": [-2, -1, 5, 5, 59], "path": ["0", "0", "23", "24", "25", "26", "27"], "rt": [3746, 18, 666, 223, 123], "actions": ["left", "left", "left", "up", "up"], "actionTimes": [5006, 5533, 6710, 7459, 8094], "queries": {"click": {"state": {"target": ["26"], "time": [3010]}, "edge": {"target": [], "time": []}}, "mouseover": {"state": {"target": ["10", "8", "26"], "time": [1711, 1928, 2612]}, "edge": {"target": [], "time": []}}, "mouseout": {"state": {"target": ["30", "24", "23", "0", "10", "8"], "time": [448, 559, 777, 1515, 1794, 2463]}, "edge": {"target": [], "time": []}}}, "displayed_time": "15.26", "trialTime": 16875, "trial_type": "mouselab-mdp", "trial_index": 29, "time_elapsed": 1043748, "internal_node_id": "0.0-6.0-1.0-20.0"}}, {"uniqueid": "w71346398:a88076886", "current_trial": 30, "dateTime": 1693842944430, "trialdata": {"revealed_states": [], "clicked_states": ["4"], "num_clicks_accrued": [0, 0, 0, 0, 0, 0, 0, 0, 0, 0, 0, 0, 0], "stateRewards": ["", -1, 1, -1, 2, 19, 85, -18, 2, -3, -26, 36, 2, 4, 7, -9, -18, 70, 72, -5, 35, -20, -28, 1, -2, -4, -3, -59, -11, -63, -2, -72, 59, -69], "withholdReward": false, "trial_id": "mdp_trial_22", "block": "test", "trialIndex": 23, "score": 18.6, "costs": -1.4, "simulationMode": [null, null, null, null, null], "rewards": [-1, 1, -1, 2, 19], "path": ["0", "0", "1", "2", "3", "4", "5"], "rt": [2773, 437, 525, 344, 293], "actions": ["up", "up", "up", "right", "up"], "actionTimes": [6114, 7072, 8101, 8962, 9765], "queries": {"click": {"state": {"target": ["4"], "time": [4196]}, "edge": {"target": [], "time": []}}, "mouseover": {"state": {"target": ["7", "4"], "time": [3461, 3795]}, "edge": {"target": [], "time": []}}, "mouseout": {"state": {"target": ["26", "10", "3", "4", "7", "1", "7"], "time": [394, 877, 943, 1011, 2746, 2795, 3495]}, "edge": {"target": [], "time": []}}}, "displayed_time": "17.34", "trialTime": 55366, "trial_type": "mouselab-mdp", "trial_index": 30, "time_elapsed": 1099393, "internal_node_id": "0.0-6.0-1.0-21.0"}}, {"uniqueid": "w71346398:a88076886", "current_trial": 31, "dateTime": 1693842962186, "trialdata": {"revealed_states": [], "clicked_states": ["15"], "num_clicks_accrued": [0, 0, 0, 0, 0, 0, 0, 0, 0, 0, 0, 0, 0], "stateRewards": ["", -2, 2, -1, -6, 22, 6, 6, -5, 70, -42, 65, 1, 3, 5, -6, -67, -9, 3, 14, 7, -62, -13, -2, 4, 1, 16, 42, -21, -52, -8, 32, 53, 81], "withholdReward": false, "trial_id": "mdp_trial_23", "block": "test", "trialIndex": 24, "score": 46.6, "costs": -1.4, "simulationMode": [null, null, null, null, null], "rewards": [-2, 4, 1, -8, 53], "path": ["0", "0", "23", "24", "25", "30", "32"], "rt": [4656, 16, 353, 218, 18], "actions": ["left", "left", "left", "down", "down"], "actionTimes": [6171, 6694, 7560, 8287, 8826], "queries": {"click": {"state": {"target": ["15"], "time": [2808]}, "edge": {"target": [], "time": []}}, "mouseover": {"state": {"target": ["15", "14", "13", "12"], "time": [2551, 5308, 5599, 5630]}, "edge": {"target": [], "time": []}}, "mouseout": {"state": {"target": ["4", "1", "15", "14", "13", "12"], "time": [832, 1112, 5283, 5364, 5627, 5651]}, "edge": {"target": [], "time": []}}}, "displayed_time": "15.52", "trialTime": 17460, "trial_type": "mouselab-mdp", "trial_index": 31, "time_elapsed": 1117149, "internal_node_id": "0.0-6.0-1.0-22.0"}}, {"uniqueid": "w71346398:a88076886", "current_trial": 32, "dateTime": 1693842979572, "trialdata": {"revealed_states": [], "clicked_states": ["4"], "num_clicks_accrued": [0, 0, 0, 0, 0, 0, 0, 0, 0, 0, 0, 0, 0], "stateRewards": ["", -1, -2, -1, -10, -57, 73, -72, -16, 75, -14, -46, -2, -3, -7, -1, -61, -60, 76, -4, 50, 4, 14, 2, 2, -7, 12, -65, -32, 15, -8, -76, -25, -61], "withholdReward": false, "trial_id": "mdp_trial_24", "block": "test", "trialIndex": 25, "score": 32.6, "costs": -1.4, "simulationMode": [null, null, null, null, null], "rewards": [-2, -3, -7, -4, 50], "path": ["0", "0", "12", "13", "14", "19", "20"], "rt": [4298, 87, 454, 163, 1192], "actions": ["right", "right", "right", "down", "right"], "actionTimes": [6038, 6633, 7595, 8274, 9988], "queries": {"click": {"state": {"target": ["4"], "time": [3013]}, "edge": {"target": [], "time": []}}, "mouseover": {"state": {"target": ["23", "2", "4"], "time": [2208, 2474, 2676]}, "edge": {"target": [], "time": []}}, "mouseout": {"state": {"target": ["12", "0", "0", "23", "2"], "time": [540, 1041, 2176, 2229, 2557]}, "edge": {"target": [], "time": []}}}, "displayed_time": "15.74", "trialTime": 17104, "trial_type": "mouselab-mdp", "trial_index": 32, "time_elapsed": 1134535, "internal_node_id": "0.0-6.0-1.0-23.0"}}, {"uniqueid": "w71346398:a88076886", "current_trial": 33, "dateTime": 1693843074065, "trialdata": {"revealed_states": [], "clicked_states": ["4"], "num_clicks_accrued": [0, 0, 0, 0, 0, 0, 0, 0, 0, 0, 0, 0, 0], "stateRewards": ["", 1, -3, -2, 14, 49, -40, -39, 2, 26, -61, 73, 1, -4, -8, 12, 79, 29, -65, -13, 55, -26, 27, -1, 3, 3, 9, -17, -60, -18, -8, 35, -88, 69], "withholdReward": false, "trial_id": "mdp_trial_25", "block": "test", "trialIndex": 26, "score": 57.6, "costs": -1.4, "simulationMode": [null, null, null, null, null], "rewards": [1, -3, -2, 14, 49], "path": ["0", "0", "1", "2", "3", "4", "5"], "rt": [4235, 50, 196, 409, 2994], "actions": ["up", "up", "up", "right", "up"], "actionTimes": [5590, 6158, 6885, 7810, 11298], "queries": {"click": {"state": {"target": ["4"], "time": [2767]}, "edge": {"target": [], "time": []}}, "mouseover": {"state": {"target": ["4"], "time": [2367]}, "edge": {"target": [], "time": []}}, "mouseout": {"state": {"target": ["4", "7", "1"], "time": [565, 679, 813]}, "edge": {"target": [], "time": []}}}, "displayed_time": "15.36", "trialTime": 94198, "trial_type": "mouselab-mdp", "trial_index": 33, "time_elapsed": 1229028, "internal_node_id": "0.0-6.0-1.0-24.0"}}, {"uniqueid": "w71346398:a88076886", "current_trial": 34, "dateTime": 1693843090409, "trialdata": {"revealed_states": [], "clicked_states": ["30"], "num_clicks_accrued": [0, 0, 0, 0, 0, 0, 0, 0, 0, 0, 0, 0, 0], "stateRewards": ["", -1, 2, 5, -6, 13, -64, -47, 8, -79, -80, -33, 1, 2, -2, -16, 56, -71, -10, 3, 29, 44, 85, -1, 4, 5, 4, -36, -56, 19, 8, 52, -13, -2], "withholdReward": false, "trial_id": "mdp_trial_26", "block": "test", "trialIndex": 27, "score": 1.5999999999999996, "costs": -1.4, "simulationMode": [null, null, null, null, null], "rewards": [-1, 4, 5, 8, -13], "path": ["0", "0", "23", "24", "25", "30", "32"], "rt": [3813, 361, 126, 330, 73], "actions": ["left", "left", "left", "down", "down"], "actionTimes": [4857, 5722, 6366, 7219, 7803], "queries": {"click": {"state": {"target": ["30"], "time": [2074]}, "edge": {"target": [], "time": []}}, "mouseover": {"state": {"target": ["23", "24", "25", "30"], "time": [1367, 1423, 1567, 1701]}, "edge": {"target": [], "time": []}}, "mouseout": {"state": {"target": ["4", "7", "23", "24", "25", "30", "31"], "time": [303, 400, 1402, 1445, 1618, 14488, 14656]}, "edge": {"target": [], "time": []}}}, "displayed_time": "15.05", "trialTime": 16040, "trial_type": "mouselab-mdp", "trial_index": 34, "time_elapsed": 1245372, "internal_node_id": "0.0-6.0-1.0-25.0"}}, {"uniqueid": "w71346398:a88076886", "current_trial": 35, "dateTime": 1693843107329, "trialdata": {"revealed_states": [], "clicked_states": ["4"], "num_clicks_accrued": [0, 0, 0, 0, 0, 0, 0, 0, 0, 0, 0, 0, 0], "stateRewards": ["", 1, 2, 3, 16, 63, -25, 16, -4, -14, 82, -66, -1, -3, -3, -11, -14, 19, 46, 3, -34, -82, 66, -2, -3, 4, -5, -63, 77, -37, -1, -45, -41, 84], "withholdReward": false, "trial_id": "mdp_trial_27", "block": "test", "trialIndex": 28, "score": -4.399999999999999, "costs": -1.4, "simulationMode": [null, null, null, null, null], "rewards": [1, 2, 3, 16, -25], "path": ["0", "0", "1", "2", "3", "4", "6"], "rt": [3129, 168, 150, 195, 196], "actions": ["up", "up", "up", "right", "right"], "actionTimes": [4382, 5068, 5718, 6434, 7129], "queries": {"click": {"state": {"target": ["4"], "time": [2471]}, "edge": {"target": [], "time": []}}, "mouseover": {"state": {"target": ["18", "4"], "time": [1674, 2025]}, "edge": {"target": [], "time": []}}, "mouseout": {"state": {"target": ["0", "18", "4", "4", "7", "12"], "time": [1545, 1909, 2697, 8012, 8061, 8211]}, "edge": {"target": [], "time": []}}}, "displayed_time": "15.26", "trialTime": 16613, "trial_type": "mouselab-mdp", "trial_index": 35, "time_elapsed": 1262292, "internal_node_id": "0.0-6.0-1.0-26.0"}}, {"uniqueid": "w71346398:a88076886", "current_trial": 36, "dateTime": 1693843124361, "trialdata": {"revealed_states": [], "clicked_states": ["8"], "num_clicks_accrued": [0, 0, 0, 0, 0, 0, 0, 0, 0, 0, 0, 0, 0], "stateRewards": ["", -2, -3, 7, -13, 60, 9, 37, -6, 37, 20, 1, 2, -2, -8, 6, -80, -31, -10, -7, 70, -65, -44, -1, 1, 7, 6, -11, 73, -85, 16, -21, 47, 34], "withholdReward": false, "trial_id": "mdp_trial_28", "block": "test", "trialIndex": 29, "score": 0.5999999999999996, "costs": -1.4, "simulationMode": [null, null, null, null, null], "rewards": [-1, 1, 7, 6, -11], "path": ["0", "0", "23", "24", "25", "26", "27"], "rt": [4101, 16, 313, 1363, 32], "actions": ["left", "left", "left", "up", "up"], "actionTimes": [5861, 6412, 7231, 9098, 9640], "queries": {"click": {"state": {"target": ["8"], "time": [2943]}, "edge": {"target": [], "time": []}}, "mouseover": {"state": {"target": ["8", "10"], "time": [2523, 5325]}, "edge": {"target": [], "time": []}}, "mouseout": {"state": {"target": ["0", "8", "10"], "time": [1238, 5306, 5373]}, "edge": {"target": [], "time": []}}}, "displayed_time": "15.76", "trialTime": 16737, "trial_type": "mouselab-mdp", "trial_index": 36, "time_elapsed": 1279325, "internal_node_id": "0.0-6.0-1.0-27.0"}}, {"uniqueid": "w71346398:a88076886", "current_trial": 37, "dateTime": 1693843142407, "trialdata": {"revealed_states": [], "clicked_states": ["15"], "num_clicks_accrued": [0, 0, 0, 0, 0, 0, 0, 0, 0, 0, 0, 0, 0], "stateRewards": ["", 1, -3, -6, -5, 47, 80, -29, 11, -71, 10, -29, -2, 3, -6, 12, 2, -78, -6, 8, 34, -16, -5, -1, 3, 3, -13, 84, -36, -62, -3, -27, 66, 15], "withholdReward": false, "trial_id": "mdp_trial_29", "block": "test", "trialIndex": 30, "score": 7.6, "costs": -1.4, "simulationMode": [null, null, null, null, null], "rewards": [-2, 3, -6, 12, 2], "path": ["0", "0", "12", "13", "14", "15", "16"], "rt": [3791, 46, 171, 932, 958], "actions": ["right", "right", "right", "up", "up"], "actionTimes": [5819, 6367, 7071, 8510, 9995], "queries": {"click": {"state": {"target": ["15"], "time": [3337]}, "edge": {"target": [], "time": []}}, "mouseover": {"state": {"target": ["15", "14", "22"], "time": [2943, 4945, 5160]}, "edge": {"target": [], "time": []}}, "mouseout": {"state": {"target": ["0", "15", "14", "22"], "time": [2624, 4889, 5061, 5245]}, "edge": {"target": [], "time": []}}}, "displayed_time": "16.03", "trialTime": 17748, "trial_type": "mouselab-mdp", "trial_index": 37, "time_elapsed": 1297370, "internal_node_id": "0.0-6.0-1.0-28.0"}}, {"uniqueid": "w71346398:a88076886", "current_trial": 38, "dateTime": 1693843160046, "trialdata": {"revealed_states": [], "clicked_states": ["19"], "num_clicks_accrued": [0, 0, 0, 0, 0, 0, 0, 0, 0, 0, 0, 0, 0], "stateRewards": ["", 2, -2, -8, 9, -20, 55, -58, 14, 42, 2, 36, 1, -3, -5, 5, -58, 57, 60, 16, 57, 30, -70, -2, 1, 3, 10, 59, 23, 77, -13, -26, 88, -72], "withholdReward": false, "trial_id": "mdp_trial_30", "block": "test", "trialIndex": 31, "score": 37.6, "costs": -1.4, "simulationMode": [null, null, null, null, null], "rewards": [1, -3, -5, 16, 30], "path": ["0", "0", "12", "13", "14", "19", "21"], "rt": [3911, 251, 244, 68, 34], "actions": ["right", "right", "right", "down", "down"], "actionTimes": [5530, 6288, 7059, 7668, 8187], "queries": {"click": {"state": {"target": ["19"], "time": [3087]}, "edge": {"target": [], "time": []}}, "mouseover": {"state": {"target": ["12", "22", "19"], "time": [2265, 2396, 2629]}, "edge": {"target": [], "time": []}}, "mouseout": {"state": {"target": ["0", "12", "22"], "time": [2232, 2298, 2447]}, "edge": {"target": [], "time": []}}}, "displayed_time": "15.62", "trialTime": 17322, "trial_type": "mouselab-mdp", "trial_index": 38, "time_elapsed": 1315009, "internal_node_id": "0.0-6.0-1.0-29.0"}}, {"uniqueid": "w71346398:a88076886", "current_trial": 39, "dateTime": 1693843177140, "trialdata": {"revealed_states": [], "clicked_states": ["4"], "num_clicks_accrued": [0, 0, 0, 0, 0, 0, 0, 0, 0, 0, 0, 0, 0], "stateRewards": ["", -1, 4, -8, 12, 14, 69, -8, 5, -72, -14, 56, -1, -1, -1, 9, 67, 19, 11, -9, -88, -58, 3, 2, -4, -8, 4, 62, 77, -74, 5, -31, 65, 88], "withholdReward": false, "trial_id": "mdp_trial_31", "block": "test", "trialIndex": 32, "score": 19.6, "costs": -1.4, "simulationMode": [null, null, null, null, null], "rewards": [-1, 4, -8, 12, 14], "path": ["0", "0", "1", "2", "3", "4", "5"], "rt": [3753, 143, 415, 19, 5856], "actions": ["up", "up", "up", "right", "up"], "actionTimes": [4949, 5595, 6531, 7056, 13425], "queries": {"click": {"state": {"target": ["4"], "time": [2194]}, "edge": {"target": [], "time": []}}, "mouseover": {"state": {"target": ["1", "7", "4"], "time": [1544, 1627, 1793]}, "edge": {"target": [], "time": []}}, "mouseout": {"state": {"target": ["19", "13", "12", "0", "1", "7"], "time": [446, 513, 693, 1501, 1564, 1726]}, "edge": {"target": [], "time": []}}}, "displayed_time": "15.20", "trialTime": 16807, "trial_type": "mouselab-mdp", "trial_index": 39, "time_elapsed": 1332103, "internal_node_id": "0.0-6.0-1.0-30.0"}}, {"uniqueid": "w71346398:a88076886", "current_trial": 40, "dateTime": 1693843194010, "trialdata": {"revealed_states": [], "clicked_states": ["26"], "num_clicks_accrued": [0, 0, 0, 0, 0, 0, 0, 0, 0, 0, 0, 0, 0], "stateRewards": ["", 2, -3, -4, -1, 25, -16, 16, 10, -71, -20, -55, 1, 3, -4, -9, 1, 32, 11, -6, 32, -50, -41, -1, 4, 4, -8, 7, -81, 70, 2, -52, 45, -10], "withholdReward": false, "trial_id": "mdp_trial_32", "block": "test", "trialIndex": 33, "score": 21.6, "costs": -1.4, "simulationMode": [null, null, null, null, null], "rewards": [1, 3, -4, -9, 32], "path": ["0", "0", "12", "13", "14", "15", "17"], "rt": [4759, 580, 140, 321, 366], "actions": ["right", "right", "right", "up", "right"], "actionTimes": [5991, 7094, 7746, 8583, 9450], "queries": {"click": {"state": {"target": ["26"], "time": [3166]}, "edge": {"target": [], "time": []}}, "mouseover": {"state": {"target": ["23", "24", "25", "29", "26", "31"], "time": [1787, 1920, 1973, 2136, 2914, 5404]}, "edge": {"target": [], "time": []}}, "mouseout": {"state": {"target": ["4", "2", "0", "23", "24", "25", "29", "26", "31"], "time": [524, 619, 1572, 1869, 1954, 1996, 2187, 4755, 5430]}, "edge": {"target": [], "time": []}}}, "displayed_time": "15.23", "trialTime": 16566, "trial_type": "mouselab-mdp", "trial_index": 40, "time_elapsed": 1348973, "internal_node_id": "0.0-6.0-1.0-31.0"}}, {"uniqueid": "w71346398:a88076886", "current_trial": 41, "dateTime": 1693843211881, "trialdata": {"revealed_states": [], "clicked_states": ["26"], "num_clicks_accrued": [0, 0, 0, 0, 0, 0, 0, 0, 0, 0, 0, 0, 0], "stateRewards": ["", 2, -3, 5, -14, -63, -9, -24, -11, -54, -43, 68, 2, -2, -4, 7, -64, 30, 47, 12, -74, 11, 86, 1, -3, 3, 10, -71, -42, -52, -1, -29, -16, 69], "withholdReward": false, "trial_id": "mdp_trial_33", "block": "test", "trialIndex": 34, "score": -42.4, "costs": -1.4, "simulationMode": [null, null, null, null, null], "rewards": [1, -3, 3, 10, -52], "path": ["0", "0", "23", "24", "25", "26", "29"], "rt": [3859, 168, 156, 24, 208], "actions": ["left", "left", "left", "up", "left"], "actionTimes": [5339, 6052, 6708, 7236, 7964], "queries": {"click": {"state": {"target": ["26"], "time": [2739]}, "edge": {"target": [], "time": []}}, "mouseover": {"state": {"target": ["23", "26"], "time": [1766, 2095]}, "edge": {"target": [], "time": []}}, "mouseout": {"state": {"target": ["0", "23", "26"], "time": [1012, 1804, 4549]}, "edge": {"target": [], "time": []}}}, "displayed_time": "15.48", "trialTime": 17576, "trial_type": "mouselab-mdp", "trial_index": 41, "time_elapsed": 1366844, "internal_node_id": "0.0-6.0-1.0-32.0"}}, {"uniqueid": "w71346398:a88076886", "current_trial": 42, "dateTime": 1693843237620, "trialdata": {"revealed_states": [], "clicked_states": ["4"], "num_clicks_accrued": [0, 0, 0, 0, 0, 0, 0, 0, 0, 0, 0, 0, 0], "stateRewards": ["", 2, 3, -3, 12, -43, 81, -82, -15, 58, -7, -75, -1, -1, 3, -5, 50, -25, -8, 4, 66, 65, -66, 2, -4, 2, -1, -10, 10, 37, 11, 88, -37, 8], "withholdReward": false, "trial_id": "mdp_trial_34", "block": "test", "trialIndex": 35, "score": -30.4, "costs": -1.4, "simulationMode": [null, null, null, null, null], "rewards": [2, 3, -3, 12, -43], "path": ["0", "0", "1", "2", "3", "4", "5"], "rt": [4240, 241, 262, 59, 13398], "actions": ["up", "up", "up", "right", "up"], "actionTimes": [6748, 7510, 8272, 8839, 22765], "queries": {"click": {"state": {"target": ["4"], "time": [4840]}, "edge": {"target": [], "time": []}}, "mouseover": {"state": {"target": ["22", "19", "14", "15", "7", "4"], "time": [2966, 3266, 3719, 3767, 4218, 4483]}, "edge": {"target": [], "time": []}}, "mouseout": {"state": {"target": ["25", "24", "23", "0", "22", "19", "14", "15", "7"], "time": [1699, 1749, 1865, 2887, 3016, 3317, 3744, 3832, 4251]}, "edge": {"target": [], "time": []}}}, "displayed_time": "23.26", "trialTime": 25413, "trial_type": "mouselab-mdp", "trial_index": 42, "time_elapsed": 1392583, "internal_node_id": "0.0-6.0-1.0-33.0"}}, {"uniqueid": "w71346398:a88076886", "current_trial": 43, "dateTime": 1693843254495, "trialdata": {"revealed_states": [], "clicked_states": ["15"], "num_clicks_accrued": [0, 0, 0, 0, 0, 0, 0, 0, 0, 0, 0, 0, 0], "stateRewards": ["", -2, 1, -7, 9, 8, 25, 61, -7, -17, 69, -81, 1, 4, -4, -11, 16, 67, 44, 3, 6, -45, -54, -2, 3, 6, -11, -15, 32, -47, 3, -39, -6, -88], "withholdReward": false, "trial_id": "mdp_trial_35", "block": "test", "trialIndex": 36, "score": 2.5999999999999996, "costs": -1.4, "simulationMode": [null, null, null, null, null], "rewards": [-2, 3, 6, 3, -6], "path": ["0", "0", "23", "24", "25", "30", "32"], "rt": [4009, 912, 624, 215, 790], "actions": ["left", "left", "left", "down", "down"], "actionTimes": [5629, 7047, 8183, 8917, 10220], "queries": {"click": {"state": {"target": ["15"], "time": [2944]}, "edge": {"target": [], "time": []}}, "mouseover": {"state": {"target": ["12", "13", "14", "15"], "time": [2270, 2388, 2471, 2755]}, "edge": {"target": [], "time": []}}, "mouseout": {"state": {"target": ["4", "2", "23", "0", "12", "13", "14"], "time": [487, 905, 1203, 2190, 2354, 2439, 2570]}, "edge": {"target": [], "time": []}}}, "displayed_time": "15.62", "trialTime": 16572, "trial_type": "mouselab-mdp", "trial_index": 43, "time_elapsed": 1409458, "internal_node_id": "0.0-6.0-1.0-34.0"}}, {"uniqueid": "w71346398:a88076886", "current_trial": 44, "dateTime": 1693843271333, "trialdata": {"revealed_states": [], "clicked_states": ["8"], "num_clicks_accrued": [0, 0, 0, 0, 0, 0, 0, 0, 0, 0, 0, 0, 0], "stateRewards": ["", 1, 1, 1, -3, -7, -1, -41, -10, 20, -72, -63, 1, -4, -2, 2, -66, 30, -84, -2, 49, 23, 71, -1, -4, 4, -12, 67, 5, 18, -16, 88, 56, -5], "withholdReward": false, "trial_id": "mdp_trial_36", "block": "test", "trialIndex": 37, "score": -70.4, "costs": -1.4, "simulationMode": [null, null, null, null, null], "rewards": [1, -4, -2, 2, -66], "path": ["0", "0", "12", "13", "14", "15", "16"], "rt": [3929, 18, 337, 54, 888], "actions": ["right", "right", "right", "up", "up"], "actionTimes": [5062, 5594, 6451, 7008, 8434], "queries": {"click": {"state": {"target": ["8"], "time": [2114]}, "edge": {"target": [], "time": []}}, "mouseover": {"state": {"target": ["10", "8", "10", "1"], "time": [1608, 1857, 3085, 4473]}, "edge": {"target": [], "time": []}}, "mouseout": {"state": {"target": ["15", "18", "12", "10", "8", "10", "1"], "time": [390, 488, 689, 1790, 3044, 3152, 4524]}, "edge": {"target": [], "time": []}}}, "displayed_time": "15.13", "trialTime": 16508, "trial_type": "mouselab-mdp", "trial_index": 44, "time_elapsed": 1426297, "internal_node_id": "0.0-6.0-1.0-35.0"}}, {"uniqueid": "w71346398:a88076886", "current_trial": 45, "dateTime": 1693843287961, "trialdata": {"revealed_states": [], "clicked_states": ["19"], "num_clicks_accrued": [0, 0, 0, 0, 0, 0, 0, 0, 0, 0, 0, 0, 0], "stateRewards": ["", -2, 1, -7, -8, -37, -76, -87, 11, 30, -63, 80, -1, 4, 2, -1, 42, 17, 52, -3, -75, -80, -68, 2, -3, -5, -15, -48, 82, 24, -7, 5, -22, -71], "withholdReward": false, "trial_id": "mdp_trial_37", "block": "test", "trialIndex": 38, "score": -36.4, "costs": -1.4, "simulationMode": [null, null, null, null, null], "rewards": [2, -3, -5, -7, -22], "path": ["0", "0", "23", "24", "25", "30", "32"], "rt": [6593, 166, 385, 305, 476], "actions": ["left", "left", "left", "down", "down"], "actionTimes": [7721, 8408, 9308, 10129, 11107], "queries": {"click": {"state": {"target": ["19"], "time": [1989]}, "edge": {"target": [], "time": []}}, "mouseover": {"state": {"target": ["19", "22"], "time": [1735, 4144]}, "edge": {"target": [], "time": []}}, "mouseout": {"state": {"target": ["12", "0", "19", "19", "22", "0"], "time": [734, 1411, 3148, 4110, 4168, 13055]}, "edge": {"target": [], "time": []}}}, "displayed_time": "15.13", "trialTime": 16339, "trial_type": "mouselab-mdp", "trial_index": 45, "time_elapsed": 1442924, "internal_node_id": "0.0-6.0-1.0-36.0"}}, {"uniqueid": "w71346398:a88076886", "current_trial": 46, "dateTime": 1693843305227, "trialdata": {"revealed_states": [], "clicked_states": ["19", "3", "11"], "num_clicks_accrued": [0, 0, 0, 0, 0, 0, 0, 0, 0, 0, 0, 0, 0], "stateRewards": ["", -2, -2, -3, -6, -15, -11, 41, -12, -63, -76, 2, -2, -3, 8, 9, -36, -2, -18, -16, -32, -85, -17, -2, 1, 5, -16, 82, 35, -88, -1, 80, -82, -20], "withholdReward": false, "trial_id": "mdp_trial_38", "block": "test", "trialIndex": 39, "score": -104.2, "costs": -4.199999999999999, "simulationMode": [null, null, null, null, null], "rewards": [-2, 1, 5, -16, -88], "path": ["0", "0", "23", "24", "25", "26", "29"], "rt": [9366, 625, 137, 459, 24], "actions": ["left", "left", "left", "up", "left"], "actionTimes": [10623, 11761, 12402, 13372, 13925], "queries": {"click": {"state": {"target": ["19", "3", "11"], "time": [2031, 4959, 7603]}, "edge": {"target": [], "time": []}}, "mouseover": {"state": {"target": ["12", "22", "19", "22", "7", "2", "3", "2", "8", "11"], "time": [1516, 1582, 1849, 4204, 4383, 4449, 4668, 5908, 7266, 7400]}, "edge": {"target": [], "time": []}}, "mouseout": {"state": {"target": ["0", "12", "22", "19", "22", "7", "2", "3", "2", "8", "11"], "time": [1487, 1537, 1665, 2889, 4233, 4404, 4469, 5841, 7073, 7300, 8291]}, "edge": {"target": [], "time": []}}}, "displayed_time": "15.26", "trialTime": 16918, "trial_type": "mouselab-mdp", "trial_index": 46, "time_elapsed": 1460190, "internal_node_id": "0.0-6.0-1.0-37.0"}}, {"uniqueid": "w71346398:a88076886", "current_trial": 47, "dateTime": 1693843321633, "trialdata": {"revealed_states": [], "clicked_states": ["8", "6"], "num_clicks_accrued": [0, 0, 0, 0, 0, 0, 0, 0, 0, 0, 0, 0, 0], "stateRewards": ["", -2, -1, -2, -15, 87, 57, 29, -10, 77, -80, -7, 1, -3, 6, 14, -11, 87, -59, 4, -71, 16, -11, 2, 2, -7, 2, -47, 61, 50, 14, -20, 17, 81], "withholdReward": false, "trial_id": "mdp_trial_39", "block": "test", "trialIndex": 40, "score": 34.2, "costs": -2.8, "simulationMode": [null, null, null, null, null], "rewards": [-2, -1, -2, -15, 57], "path": ["0", "0", "1", "2", "3", "4", "6"], "rt": [5698, 383, 704, 232, 53], "actions": ["up", "up", "up", "right", "right"], "actionTimes": [6934, 7831, 9063, 9815, 10373], "queries": {"click": {"state": {"target": ["8", "6"], "time": [1883, 4656]}, "edge": {"target": [], "time": []}}, "mouseover": {"state": {"target": ["1", "8", "2", "7", "4", "6"], "time": [1364, 1646, 4030, 4114, 4214, 4347]}, "edge": {"target": [], "time": []}}, "mouseout": {"state": {"target": ["1", "1", "8", "2", "7", "4", "6", "1", "0"], "time": [745, 1384, 2821, 4079, 4180, 4234, 11819, 11882, 11965]}, "edge": {"target": [], "time": []}}}, "displayed_time": "15.24", "trialTime": 16067, "trial_type": "mouselab-mdp", "trial_index": 47, "time_elapsed": 1476596, "internal_node_id": "0.0-6.0-1.0-38.0"}}, {"uniqueid": "w71346398:a88076886", "current_trial": 48, "dateTime": 1693843338577, "trialdata": {"revealed_states": [], "clicked_states": ["20", "17"], "num_clicks_accrued": [0, 0, 0, 0, 0, 0, 0, 0, 0, 0, 0, 0, 0], "stateRewards": ["", 1, 4, 5, -5, 58, -80, 75, 6, 25, -39, 46, 2, -2, 4, 2, 59, 31, -22, -12, -61, 15, 72, 1, -2, -7, 8, 77, 76, -23, -7, 71, -15, -3], "withholdReward": false, "trial_id": "mdp_trial_40", "block": "test", "trialIndex": 41, "score": 34.2, "costs": -2.8, "simulationMode": [null, null, null, null, null], "rewards": [2, -2, 4, 2, 31], "path": ["0", "0", "12", "13", "14", "15", "17"], "rt": [5470, 37, 267, 337, 32], "actions": ["right", "right", "right", "up", "right"], "actionTimes": [6993, 7546, 8323, 9175, 9729], "queries": {"click": {"state": {"target": ["20", "17"], "time": [2273, 5007]}, "edge": {"target": [], "time": []}}, "mouseover": {"state": {"target": ["12", "22", "19", "20", "19", "17", "17"], "time": [1743, 1874, 1914, 2007, 4326, 4370, 4708]}, "edge": {"target": [], "time": []}}, "mouseout": {"state": {"target": ["0", "12", "22", "19", "20", "19", "17", "17", "13", "12"], "time": [1712, 1766, 1893, 1958, 2332, 4350, 4394, 5708, 16063, 16294]}, "edge": {"target": [], "time": []}}}, "displayed_time": "15.52", "trialTime": 16653, "trial_type": "mouselab-mdp", "trial_index": 48, "time_elapsed": 1493540, "internal_node_id": "0.0-6.0-1.0-39.0"}}, {"uniqueid": "w71346398:a88076886", "current_trial": 49, "dateTime": 1693843378027, "trialdata": {"rt": 39441, "response": {"Q0": "$-2 to $2", "Q1": "$-16 to $16", "Q2": "$-32 to $32", "Q3": "The cost was always $1.4.", "Q4": "Very motivated"}, "question_order": [0, 1, 2, 3, 4], "trial_id": "final_quiz_control", "trial_type": "survey-multi-choice", "trial_index": 49, "time_elapsed": 1532990, "internal_node_id": "0.0-6.0-2.0"}}, {"uniqueid": "w71346398:a88076886", "current_trial": 50, "dateTime": 1693843425475, "trialdata": {"rt": 47427, "response": {"Q0": "Try find any node that was green", "Q1": "no i didnt", "Q2": "quite difficult  the timer was very quick"}, "trial_id": "self_report_control", "trial_type": "survey-text", "trial_index": 50, "time_elapsed": 1580439, "internal_node_id": "0.0-6.0-3.0"}}, {"uniqueid": "w71346398:a88076886", "current_trial": 51, "dateTime": 1693843438598, "trialdata": {"rt": 13119, "response": {"gender": "male", "age": "24", "colorblind": "0", "effort": "0"}, "trial_type": "survey-html-form", "trial_index": 51, "time_elapsed": 1593562, "internal_node_id": "0.0-6.0-4.0"}}, {"uniqueid": "w71346398:a88076886", "current_trial": 52, "dateTime": 1693843450536, "trialdata": {"rt": 11928, "response": {"Q0": "no", "Q1": "no", "Q2": "no"}, "trial_type": "survey-text", "trial_index": 52, "time_elapsed": 1605500, "internal_node_id": "0.0-6.0-5.0"}}, {"uniqueid": "w71346398:a88076886", "current_trial": 53, "dateTime": 1693843467156, "trialdata": {"rt": 16614, "stimulus": "<h1>Completion Code Instructions (1/2)</h1>\n<br><br><br><br>\nYou have reached the end of the experiment! The completion code consists of two parts: (1) a code with 2 characters (2) a code with 6 characters. On this page, you will receive the second part of the code. The first part of the completion code will be on the next page.\n<br><br>\nThe second part of your completion code is: <b>EWEK22</b>\n<br><br>\nPlease note this down. Then, press 'Next' in order to find the first part of your completion code. Once the data has been saved, you will receive this code either in this window or in the original browser window where you started the experiment.\n <br><br>\n<h2 style='color: red;'>Note: this is <strong>NOT</strong> the full completion code. Copy this down and click 'Next' to get the full completion code on the next page.</h2>", "response": 0, "trial_type": "html-button-response", "trial_index": 53, "time_elapsed": 1622120, "internal_node_id": "0.0-6.0-6.0"}}, {"uniqueid": "w71346398:a88076886", "current_trial": 54, "dateTime": 1693843468174, "trialdata": {"success": true, "trial_type": "fullscreen", "trial_index": 54, "time_elapsed": 1623138, "internal_node_id": "0.0-7.0"}}], "questiondata": {"params": {"CODE": "C6DMOQA6", "MIN_TIME": 14, "inspectCost": 1, "startTime": "Mon Sep 04 2023 16:37:21 GMT+0100 (British Summer Time)", "bonusRate": 0.002, "variance": "1_2_4_8_44", "branching": "31123"}, "final_score": 358.8}, "eventdata": [{"eventtype": "initialized", "value": null, "timestamp": 1693841841156, "interval": 0}, {"eventtype": "window_resize", "value": [1037, 803], "timestamp": 1693841841156, "interval": 0}, {"eventtype": "window_resize", "value": [1037, 803], "timestamp": 1693841841469, "interval": 313}, {"eventtype": "window_resize", "value": [1500, 1000], "timestamp": 1693841894777, "interval": 53308}, {"eventtype": "window_resize", "value": [1037, 803], "timestamp": 1693843467416, "interval": 1572639}], "useragent": "Mozilla/5.0 (Windows NT 10.0; Win64; x64) AppleWebKit/537.36 (KHTML, like Gecko) Chrome/116.0.0.0 Safari/537.36", "mode": "live", "id": "w71346398:a88076886", "status": "user data saved", "Beginhit": "2023-09-04 15:37:13.315595", "Beginexp": "2023-09-04 15:38:16.74567", "Endhit": "2023-09-04 16:04:29.630076", "psiturkStatus": 3, "browser": "<redacted>", "platform": "windows", "language": "en-GB"}