{"condition": 1, "counterbalance": 0, "assignmentId": "a47616470", "workerId": "w85108158", "hitId": "h97327078", "currenttrial": 8, "bonus": 0, "data": [{"uniqueid": "w85108158:a47616470", "current_trial": 0, "dateTime": 1693660293471, "trialdata": {"success": true, "trial_type": "fullscreen", "trial_index": 0, "time_elapsed": 4481, "internal_node_id": "0.0-0.0"}}, {"uniqueid": "w85108158:a47616470", "current_trial": 1, "dateTime": 1693660309092, "trialdata": {"view_history": [{"page_index": 0, "viewing_time": 15616}], "rt": 15616, "trial_id": "exp_instructions_misaligned", "trial_type": "instructions", "trial_index": 1, "time_elapsed": 20103, "internal_node_id": "0.0-1.0"}}, {"uniqueid": "w85108158:a47616470", "current_trial": 2, "dateTime": 1693660491492, "trialdata": {"view_history": [{"page_index": 0, "viewing_time": 57654}, {"page_index": 1, "viewing_time": 77624}, {"page_index": 2, "viewing_time": 15264}, {"page_index": 3, "viewing_time": 31856}], "rt": 182398, "trial_id": "mouselab_instructions_1_misaligned", "trial_type": "instructions", "trial_index": 2, "time_elapsed": 202503, "internal_node_id": "0.0-2.0-1.0"}}, {"uniqueid": "w85108158:a47616470", "current_trial": 3, "dateTime": 1693660513244, "trialdata": {"revealed_states": [], "clicked_states": ["12", "23"], "num_clicks_accrued": [0, 0, 0, 0, 0, 0, 0, 0, 0, 0, 0, 0, 0], "stateRewards": ["", -10, -10, -10, 10, -10, -10, -10, 10, -10, -10, -10, 10, -10, 10, 10, -10, -10, 10, -10, 10, 10, -10, -10, -10, 10, -10, -10, -10, -10, 10, -10, -10, -10], "withholdReward": false, "trial_id": "practice_1", "block": "test", "trialIndex": 0, "score": 32.5, "costs": -1, "simulationMode": [null, null, null, null, null], "rewards": [10, -10, 10, 10, 10], "path": ["0", "0", "12", "13", "14", "15", "18"], "rt": [5460, 1032, 1537, 185, 4003], "actions": ["right", "right", "right", "up", "left"], "actionTimes": [7967, 9534, 11614, 12326, 16862], "queries": {"click": {"state": {"target": ["12", "23"], "time": [3707, 6113]}, "edge": {"target": [], "time": []}}, "mouseover": {"state": {"target": ["13", "12", "0", "23", "24", "25", "24", "23", "24", "25"], "time": [2943, 3303, 3942, 3981, 4018, 4702, 4738, 5127, 6405, 6447]}, "edge": {"target": [], "time": []}}, "mouseout": {"state": {"target": ["24", "23", "13", "12", "0", "23", "24", "25", "24", "23", "24", "25", "25", "24", "23", "0", "12", "13", "7", "2", "28", "31", "24", "28", "26"], "time": [1692, 1832, 2989, 3907, 3975, 4014, 4056, 4735, 4833, 6369, 6444, 6484, 9130, 9165, 9208, 9271, 9349, 9658, 13318, 13412, 16504, 16967, 18444, 18490, 18527]}, "edge": {"target": [], "time": []}}}, "displayed_time": "17.41", "trialTime": 21199, "trial_type": "mouselab-mdp", "trial_index": 3, "time_elapsed": 224254, "internal_node_id": "0.0-2.0-2.0-0.0"}}, {"uniqueid": "w85108158:a47616470", "current_trial": 4, "dateTime": 1693660529587, "trialdata": {"revealed_states": [], "clicked_states": [], "num_clicks_accrued": [0, 0, 0, 0, 0, 0, 0, 0, 0, 0, 0, 0, 0], "stateRewards": ["", -10, -10, 10, -10, 10, -10, 10, -10, 10, 10, 10, 10, 10, -10, -10, 10, 10, 10, 10, 10, 10, -10, -10, 10, -10, -10, 10, 10, -10, -10, 10, 10, -10], "withholdReward": false, "trial_id": "practice_2", "block": "test", "trialIndex": 1, "score": -6.5, "costs": 0, "simulationMode": [null, null, null, null, null], "rewards": [-10, 10, -10, -10, 10], "path": ["0", "0", "23", "24", "25", "26", "28"], "rt": [1334, 711, 1080, 270, 5013], "actions": ["left", "left", "left", "up", "right"], "actionTimes": [3511, 4751, 6343, 7135, 12687], "queries": {"click": {"state": {"target": [], "time": []}, "edge": {"target": [], "time": []}}, "mouseover": {"state": {"target": [], "time": []}, "edge": {"target": [], "time": []}}, "mouseout": {"state": {"target": ["30", "15", "17", "18", "23", "23", "0"], "time": [1273, 1335, 1355, 1538, 1632, 1772, 2212]}, "edge": {"target": [], "time": []}}}, "displayed_time": "13.20", "trialTime": 15951, "trial_type": "mouselab-mdp", "trial_index": 4, "time_elapsed": 240598, "internal_node_id": "0.0-2.0-2.0-1.0"}}, {"uniqueid": "w85108158:a47616470", "current_trial": 5, "dateTime": 1693660565188, "trialdata": {"view_history": [{"page_index": 0, "viewing_time": 27958}, {"page_index": 1, "viewing_time": 7640}], "rt": 35598, "trial_id": "mouselab_instructions_2_misaligned", "trial_type": "instructions", "trial_index": 5, "time_elapsed": 276199, "internal_node_id": "0.0-2.0-3.0"}}, {"uniqueid": "w85108158:a47616470", "current_trial": 6, "dateTime": 1693660605141, "trialdata": {"rt": 39948, "response": {"Q0": "The cost for clicking on nodes may vary between nodes.", "Q1": "The better I perform the higher my bonus will be.", "Q2": "No, the amount of cash at each node of the web may be different each time.", "Q3": "To get the highest total score.", "Q4": "Any time during the round.", "Q5": "3 seconds"}, "question_order": [0, 1, 2, 3, 4, 5], "correct": {"Q0": "The cost for clicking on nodes may vary between nodes.", "Q1": "The better I perform the higher my bonus will be.", "Q2": "No, the amount of cash at each node of the web may be different each time.", "Q3": "To get the highest total score.", "Q4": "Only before moving the spider.", "Q5": "3 seconds"}, "trial_id": "mouselab_quiz_misaligned", "trial_type": "survey-multi-choice", "trial_index": 6, "time_elapsed": 316152, "internal_node_id": "0.0-2.0-4.0"}}, {"uniqueid": "w85108158:a47616470", "current_trial": 7, "dateTime": 1693660609989, "trialdata": {"success": true, "trial_type": "fullscreen", "trial_index": 7, "time_elapsed": 321000, "internal_node_id": "0.0-2.1-0.1-0.1"}}], "questiondata": {"params": {"CODE": "C6DMOQA6", "MIN_TIME": 14, "inspectCost": 1, "startTime": "Sat Sep 02 2023 14:11:28 GMT+0100 (British Summer Time)", "bonusRate": 0.002, "variance": "1_2_4_8_44", "branching": "31123"}}, "eventdata": [{"eventtype": "initialized", "value": null, "timestamp": 1693660287918, "interval": 0}, {"eventtype": "window_resize", "value": [1024, 767], "timestamp": 1693660287918, "interval": 0}, {"eventtype": "window_resize", "value": [1024, 767], "timestamp": 1693660288247, "interval": 329}, {"eventtype": "window_resize", "value": [1920, 1080], "timestamp": 1693660292701, "interval": 4454}, {"eventtype": "focus", "value": "off", "timestamp": 1693660608088, "interval": 315387}, {"eventtype": "focus", "value": "on", "timestamp": 1693660608088, "interval": 0}, {"eventtype": "window_resize", "value": [1024, 767], "timestamp": 1693660608298, "interval": 210}, {"eventtype": "window_resize", "value": [1920, 1080], "timestamp": 1693660609219, "interval": 921}], "useragent": "Mozilla/5.0 (Windows NT 10.0; Win64; x64) AppleWebKit/537.36 (KHTML, like Gecko) Chrome/116.0.0.0 Safari/537.36", "mode": "live", "id": "w85108158:a47616470", "status": "user data saved", "Beginhit": "2023-09-02 13:11:21.374533", "Beginexp": "2023-09-02 13:11:28.169696", "Endhit": null, "psiturkStatus": 2, "browser": "<redacted>", "platform": "windows", "language": "en-US", "excludeReason": "quizfail"}