{"condition": 1, "counterbalance": 0, "assignmentId": "a51376066", "workerId": "w66652472", "hitId": "h94164131", "currenttrial": 61, "bonus": 0, "data": [{"uniqueid": "w66652472:a51376066", "current_trial": 0, "dateTime": 1693564675488, "trialdata": {"success": true, "trial_type": "fullscreen", "trial_index": 0, "time_elapsed": 14219, "internal_node_id": "0.0-0.0"}}, {"uniqueid": "w66652472:a51376066", "current_trial": 1, "dateTime": 1693564694096, "trialdata": {"view_history": [{"page_index": 0, "viewing_time": 18602}], "rt": 18603, "trial_id": "exp_instructions_misaligned", "trial_type": "instructions", "trial_index": 1, "time_elapsed": 32828, "internal_node_id": "0.0-1.0"}}, {"uniqueid": "w66652472:a51376066", "current_trial": 2, "dateTime": 1693564864431, "trialdata": {"view_history": [{"page_index": 0, "viewing_time": 56233}, {"page_index": 1, "viewing_time": 74707}, {"page_index": 2, "viewing_time": 11747}, {"page_index": 3, "viewing_time": 27646}], "rt": 170333, "trial_id": "mouselab_instructions_1_misaligned", "trial_type": "instructions", "trial_index": 2, "time_elapsed": 203163, "internal_node_id": "0.0-2.0-1.0"}}, {"uniqueid": "w66652472:a51376066", "current_trial": 3, "dateTime": 1693564926319, "trialdata": {"revealed_states": [], "clicked_states": ["15", "9", "8", "1", "12", "23", "32", "25"], "num_clicks_accrued": [0, 0, 0, 0, 0, 0, 0, 0, 0, 0, 0, 0, 0], "stateRewards": ["", -10, 10, -10, 10, 10, 10, 10, 10, 10, -10, 10, -10, -10, -10, 10, -10, 10, -10, 10, -10, 10, -10, -10, 10, 10, -10, -10, -10, 10, 10, -10, 10, -10], "withholdReward": false, "trial_id": "practice_1", "block": "test", "trialIndex": 0, "score": 29.5, "costs": -4, "simulationMode": [null, null, null, null, null], "rewards": [-10, 10, 10, 10, 10], "path": ["0", "0", "23", "24", "25", "30", "32"], "rt": [42147, 603, 441, 128, 983], "actions": ["left", "left", "left", "down", "down"], "actionTimes": [49676, 50791, 51744, 52380, 53869], "queries": {"click": {"state": {"target": ["15", "9", "8", "1", "12", "23", "32", "25"], "time": [9393, 13071, 14904, 20998, 26599, 34679, 38474, 43543]}, "edge": {"target": [], "time": []}}, "mouseover": {"state": {"target": ["18", "15", "13", "1", "2", "3", "9", "3", "8", "10", "24", "31", "30", "30", "25", "28", "1", "1", "22", "21", "19", "22", "12", "0", "22", "0", "23", "24", "31", "32", "30", "25"], "time": [8759, 9064, 10425, 12307, 12340, 12540, 12695, 14410, 14606, 15889, 16077, 16340, 16621, 19475, 19786, 19892, 20120, 20619, 25416, 25466, 25754, 25801, 26068, 27415, 30833, 32017, 33863, 36026, 36278, 38079, 39208, 39558]}, "edge": {"target": [], "time": []}}, "mouseout": {"state": {"target": ["0", "1", "7", "6", "6", "2", "1", "18", "15", "13", "1", "2", "3", "9", "3", "8", "10", "24", "31", "30", "30", "25", "28", "1", "1", "22", "21", "19", "22", "12", "0", "22", "0", "23", "24", "31", "32", "30", "25"], "time": [1083, 1365, 1714, 1797, 2333, 4864, 4913, 8826, 10392, 10491, 12324, 12390, 12607, 14174, 14545, 15872, 15922, 16223, 16507, 19270, 19770, 19819, 19952, 20176, 25369, 25432, 25666, 25790, 25866, 27381, 29737, 30866, 33850, 35917, 36162, 37881, 39166, 39325, 54781]}, "edge": {"target": [], "time": []}}}, "displayed_time": "54.38", "trialTime": 61361, "trial_type": "mouselab-mdp", "trial_index": 3, "time_elapsed": 265049, "internal_node_id": "0.0-2.0-2.0-0.0"}}, {"uniqueid": "w66652472:a51376066", "current_trial": 4, "dateTime": 1693564956929, "trialdata": {"revealed_states": [], "clicked_states": ["2", "30", "21"], "num_clicks_accrued": [0, 0, 0, 0, 0, 0, 0, 0, 0, 0, 0, 0, 0], "stateRewards": ["", 10, -10, -10, -10, 10, 10, 10, -10, -10, 10, -10, -10, -10, -10, 10, 10, 10, 10, 10, 10, -10, 10, -10, -10, -10, 10, 10, -10, -10, 10, -10, 10, 10], "withholdReward": false, "trial_id": "practice_2", "block": "test", "trialIndex": 1, "score": -28, "costs": -1.5, "simulationMode": [null, null, null, null, null], "rewards": [-10, -10, -10, 10, -10], "path": ["0", "0", "12", "13", "14", "19", "21"], "rt": [12089, 883, 402, 131, 533], "actions": ["right", "right", "right", "down", "down"], "actionTimes": [15174, 16575, 17493, 18139, 19190], "queries": {"click": {"state": {"target": ["2", "30", "21"], "time": [5621, 9145, 12059]}, "edge": {"target": [], "time": []}}, "mouseover": {"state": {"target": ["7", "4", "2", "24", "30", "31", "21", "23"], "time": [4451, 4613, 5212, 8065, 8383, 10143, 11015, 14194]}, "edge": {"target": [], "time": []}}, "mouseout": {"state": {"target": ["24", "23", "0", "0", "7", "4", "2", "24", "30", "31", "21", "23", "28", "10", "2", "1", "0"], "time": [1752, 1883, 2036, 4071, 4566, 5146, 7878, 8167, 10093, 10210, 13981, 25899, 26152, 26233, 26371, 26616, 27956]}, "edge": {"target": [], "time": []}}}, "displayed_time": "19.71", "trialTime": 30460, "trial_type": "mouselab-mdp", "trial_index": 4, "time_elapsed": 295659, "internal_node_id": "0.0-2.0-2.0-1.0"}}, {"uniqueid": "w66652472:a51376066", "current_trial": 5, "dateTime": 1693565014025, "trialdata": {"view_history": [{"page_index": 0, "viewing_time": 40538}, {"page_index": 1, "viewing_time": 16549}], "rt": 57088, "trial_id": "mouselab_instructions_2_misaligned", "trial_type": "instructions", "trial_index": 5, "time_elapsed": 352757, "internal_node_id": "0.0-2.0-3.0"}}, {"uniqueid": "w66652472:a51376066", "current_trial": 6, "dateTime": 1693565071934, "trialdata": {"rt": 57903, "response": {"Q0": "There is no cost for clicking on nodes.", "Q1": "The better I perform the higher my bonus will be.", "Q2": "No, the amount of cash at each node of the web may be different each time.", "Q3": "To get the highest total score.", "Q4": "Only before moving the spider.", "Q5": "3 seconds"}, "question_order": [0, 1, 2, 3, 4, 5], "correct": {"Q0": "The cost for clicking on nodes may vary between nodes.", "Q1": "The better I perform the higher my bonus will be.", "Q2": "No, the amount of cash at each node of the web may be different each time.", "Q3": "To get the highest total score.", "Q4": "Only before moving the spider.", "Q5": "3 seconds"}, "trial_id": "mouselab_quiz_misaligned", "trial_type": "survey-multi-choice", "trial_index": 6, "time_elapsed": 410665, "internal_node_id": "0.0-2.0-4.0"}}, {"uniqueid": "w66652472:a51376066", "current_trial": 7, "dateTime": 1693565082452, "trialdata": {"success": true, "trial_type": "fullscreen", "trial_index": 7, "time_elapsed": 421184, "internal_node_id": "0.0-2.1-0.1-0.1"}}, {"uniqueid": "w66652472:a51376066", "current_trial": 8, "dateTime": 1693565316009, "trialdata": {"view_history": [{"page_index": 0, "viewing_time": 58321}, {"page_index": 1, "viewing_time": 87595}, {"page_index": 2, "viewing_time": 76011}, {"page_index": 3, "viewing_time": 11625}], "rt": 233553, "trial_id": "mouselab_instructions_1_misaligned", "trial_type": "instructions", "trial_index": 8, "time_elapsed": 654741, "internal_node_id": "0.0-2.1-1.1"}}, {"uniqueid": "w66652472:a51376066", "current_trial": 9, "dateTime": 1693565369861, "trialdata": {"revealed_states": [], "clicked_states": ["30", "26", "24", "2", "8", "9", "15", "14", "21", "22"], "num_clicks_accrued": [0, 0, 0, 0, 0, 0, 0, 0, 0, 0, 0, 0, 0], "stateRewards": ["", -10, 10, -10, 10, 10, 10, 10, 10, 10, -10, 10, -10, -10, -10, 10, -10, 10, -10, 10, -10, 10, -10, -10, 10, 10, -10, -10, -10, 10, 10, -10, 10, -10], "withholdReward": false, "trial_id": "practice_1", "block": "test", "trialIndex": 2, "score": 28.5, "costs": -5, "simulationMode": [null, null, null, null, null], "rewards": [-10, 10, 10, 10, 10], "path": ["0", "0", "23", "24", "25", "30", "32"], "rt": [44093, 495, 104, 210, 1832], "actions": ["left", "left", "left", "down", "down"], "actionTimes": [45942, 46944, 47550, 48275, 50613], "queries": {"click": {"state": {"target": ["30", "26", "24", "2", "8", "9", "15", "14", "21", "22"], "time": [5623, 7223, 11125, 14633, 16914, 19335, 21850, 23724, 26617, 28282]}, "edge": {"target": [], "time": []}}, "mouseover": {"state": {"target": ["23", "24", "30", "31", "24", "28", "26", "28", "24", "23", "24", "23", "7", "2", "8", "8", "9", "6", "16", "15", "14", "13", "19", "21", "22", "31", "31", "30", "0", "0", "23", "24", "24", "23", "24", "25", "24", "0", "23", "23", "23", "23", "0", "23", "23"], "time": [2939, 3043, 3390, 6471, 6588, 6773, 6820, 9404, 9571, 9854, 10570, 13324, 13735, 14137, 16287, 16639, 18938, 21048, 21282, 21482, 23332, 25060, 25415, 25828, 27608, 30246, 30557, 30796, 31326, 32216, 32254, 32338, 32793, 33887, 34061, 34289, 34708, 36139, 37088, 37426, 38418, 39538, 39652, 42123, 42721]}, "edge": {"target": [], "time": []}}, "mouseout": {"state": {"target": ["0", "23", "24", "30", "31", "24", "28", "26", "28", "24", "23", "24", "24", "23", "7", "2", "8", "8", "9", "6", "16", "15", "15", "14", "14", "13", "19", "21", "22", "31", "31", "30", "0", "0", "23", "24", "24", "23", "24", "25", "24", "0", "23", "23", "23", "23", "0", "23", "23"], "time": [2891, 2991, 3191, 6444, 6487, 6721, 6788, 9286, 9436, 9668, 10509, 12774, 13204, 13418, 13918, 16088, 16351, 18236, 20913, 21099, 21313, 21928, 23163, 23805, 24952, 25315, 25681, 26698, 29980, 30326, 30625, 31141, 31743, 32240, 32290, 32577, 32842, 33972, 34189, 34527, 34856, 36509, 37209, 37439, 38488, 39602, 40039, 42273, 42749]}, "edge": {"target": [], "time": []}}}, "displayed_time": "51.11", "trialTime": 53659, "trial_type": "mouselab-mdp", "trial_index": 9, "time_elapsed": 708592, "internal_node_id": "0.0-2.1-2.1-0.1"}}, {"uniqueid": "w66652472:a51376066", "current_trial": 10, "dateTime": 1693565455248, "trialdata": {"revealed_states": [], "clicked_states": ["30", "24", "26", "25", "8", "4", "2", "14", "19", "21", "16", "12", "13", "17", "15", "22", "5"], "num_clicks_accrued": [0, 0, 0, 0, 0, 0, 0, 0, 0, 0, 0, 0, 0], "stateRewards": ["", 10, -10, -10, -10, 10, 10, 10, -10, -10, 10, -10, -10, -10, -10, 10, 10, 10, 10, 10, 10, -10, 10, -10, -10, -10, 10, 10, -10, -10, 10, -10, 10, 10], "withholdReward": false, "trial_id": "practice_2", "block": "test", "trialIndex": 3, "score": -15, "costs": -8.5, "simulationMode": [null, null, null, null, null], "rewards": [-10, -10, -10, 10, 10], "path": ["0", "0", "12", "13", "14", "15", "17"], "rt": [70243, 1405, 434, 1978, 457], "actions": ["right", "right", "right", "up", "right"], "actionTimes": [73195, 75096, 76025, 78500, 79460], "queries": {"click": {"state": {"target": ["30", "24", "26", "25", "8", "4", "2", "14", "19", "21", "16", "12", "13", "17", "15", "22", "5"], "time": [4160, 7363, 9707, 11917, 16729, 18997, 21569, 24507, 26204, 28128, 30452, 33269, 35765, 37826, 40965, 45041, 55332]}, "edge": {"target": [], "time": []}}, "mouseover": {"state": {"target": ["23", "24", "30", "24", "24", "26", "25", "27", "8", "2", "3", "8", "3", "4", "4", "2", "18", "14", "19", "21", "16", "15", "13", "12", "18", "13", "14", "17", "14", "13", "15", "13", "12", "0", "12", "22", "19", "14", "2", "8", "3", "7", "12", "12", "6", "4", "5", "4", "7", "1", "0"], "time": [3416, 3499, 3902, 6566, 6716, 9282, 11483, 13812, 14694, 15559, 16108, 16425, 18074, 18140, 18678, 21138, 23741, 24225, 25585, 27705, 30184, 32450, 32798, 32847, 35183, 35546, 36463, 37482, 39948, 40113, 40333, 42877, 43042, 44309, 44390, 44629, 46895, 47390, 51419, 51621, 52787, 52903, 53038, 53486, 54086, 54336, 54736, 56740, 56816, 57082, 57319]}, "edge": {"target": [], "time": []}}, "mouseout": {"state": {"target": ["23", "23", "0", "23", "24", "30", "24", "24", "26", "25", "26", "27", "8", "2", "3", "8", "8", "3", "4", "4", "2", "18", "14", "14", "19", "21", "19", "16", "15", "13", "12", "18", "13", "14", "17", "14", "13", "15", "13", "12", "0", "12", "22", "19", "14", "2", "8", "3", "7", "12", "12", "6", "4", "5", "5", "4", "7", "1", "0"], "time": [2304, 2534, 3387, 3449, 3683, 4998, 6582, 9001, 11382, 13559, 13663, 14663, 14710, 16042, 16394, 16801, 18041, 18107, 18209, 20896, 23574, 23922, 24606, 25536, 27524, 29716, 29771, 32351, 32635, 32832, 34716, 35485, 35854, 37265, 39794, 39980, 40264, 42764, 42893, 43213, 44357, 44532, 46859, 47125, 51359, 51435, 52773, 52841, 52953, 53070, 53587, 54307, 54684, 55422, 56703, 56783, 56953, 57117, 57484]}, "edge": {"target": [], "time": []}}}, "displayed_time": "79.97", "trialTime": 85236, "trial_type": "mouselab-mdp", "trial_index": 10, "time_elapsed": 793980, "internal_node_id": "0.0-2.1-2.1-1.1"}}, {"uniqueid": "w66652472:a51376066", "current_trial": 11, "dateTime": 1693565592379, "trialdata": {"view_history": [{"page_index": 0, "viewing_time": 135742}, {"page_index": 1, "viewing_time": 1387}], "rt": 137129, "trial_id": "mouselab_instructions_2_misaligned", "trial_type": "instructions", "trial_index": 11, "time_elapsed": 931111, "internal_node_id": "0.0-2.1-3.1"}}, {"uniqueid": "w66652472:a51376066", "current_trial": 12, "dateTime": 1693565631338, "trialdata": {"rt": 38955, "response": {"Q0": "The cost for clicking on nodes may vary between nodes.", "Q1": "The better I perform the higher my bonus will be.", "Q2": "No, the amount of cash at each node of the web may be different each time.", "Q3": "To get the highest total score.", "Q4": "Only before moving the spider.", "Q5": "3 seconds"}, "question_order": [0, 1, 2, 3, 4, 5], "correct": {"Q0": "The cost for clicking on nodes may vary between nodes.", "Q1": "The better I perform the higher my bonus will be.", "Q2": "No, the amount of cash at each node of the web may be different each time.", "Q3": "To get the highest total score.", "Q4": "Only before moving the spider.", "Q5": "3 seconds"}, "trial_id": "mouselab_quiz_misaligned", "trial_type": "survey-multi-choice", "trial_index": 12, "time_elapsed": 970069, "internal_node_id": "0.0-2.1-4.1"}}, {"uniqueid": "w66652472:a51376066", "current_trial": 13, "dateTime": 1693565638356, "trialdata": {"rt": 7013, "response": {"Q0": "No"}, "question_order": [0], "trial_id": "repeat_check", "trial_type": "survey-multi-choice", "trial_index": 13, "time_elapsed": 977087, "internal_node_id": "0.0-4.0-0.0"}}, {"uniqueid": "w66652472:a51376066", "current_trial": 14, "dateTime": 1693565644329, "trialdata": {"rt": 5965, "stimulus": "\n<h1> Get ready to start the game! </h1>\n\nThank you for reading the instructions. Get ready start with the 40 rounds of this game.\n<br><br>\nIf you need to take a break, feel free to take one after the end of a round, before continuing to the next one.\n<br><br>\nRemember, the more money the spider gets, the bigger your bonus will be!\n<br><br>\n<div style='text-align: center;'>Press <code>space</code> to begin.</div>\n\n<br><br>\n(If, at any point, the <code>space</code> key does not take you to the next page, click once on the text and try again.)", "response": " ", "trial_id": "mdp_ready", "trial_type": "html-keyboard-response", "trial_index": 14, "time_elapsed": 983061, "internal_node_id": "0.0-6.0-0.0"}}, {"uniqueid": "w66652472:a51376066", "current_trial": 15, "dateTime": 1693565685506, "trialdata": {"revealed_states": [], "clicked_states": [], "num_clicks_accrued": [0, 0, 0, 0, 0, 0, 0, 0, 0, 0, 0, 0, 0], "stateRewards": ["", 1, -4, -6, 11, -20, 8, -30, 1, -38, 88, 42, 2, 3, 5, -12, -8, -74, 30, -8, 67, -19, 42, 2, -1, 4, 13, 50, -68, 2, -8, -15, 87, -46], "withholdReward": false, "trial_id": "mdp_trial_1", "block": "test", "trialIndex": 4, "score": 20, "costs": 0, "simulationMode": [null, null, null, null, null], "rewards": [2, -1, 4, 13, 2], "path": ["0", "0", "23", "24", "25", "26", "29"], "rt": [26192, 1418, 453, 1047, 60], "actions": ["left", "left", "left", "up", "left"], "actionTimes": [32281, 34203, 35152, 36695, 37259], "queries": {"click": {"state": {"target": [], "time": []}, "edge": {"target": [], "time": []}}, "mouseover": {"state": {"target": ["0", "30", "30", "24", "23", "24", "24", "23", "24", "23", "24", "1", "2", "7", "13", "14", "13", "12", "0", "23", "24", "23"], "time": [6734, 8131, 8613, 8913, 9330, 9899, 10222, 10346, 11429, 12335, 12816, 16076, 16526, 17342, 18025, 21006, 22238, 22356, 23854, 23989, 24144, 24619]}, "edge": {"target": [], "time": []}}, "mouseout": {"state": {"target": ["0", "24", "23", "0", "30", "30", "24", "23", "24", "24", "23", "24", "23", "24", "1", "2", "7", "13", "14", "13", "12", "0", "23", "24", "23"], "time": [2338, 2856, 2900, 6782, 8201, 8834, 9265, 9685, 10036, 10263, 11380, 12196, 12666, 15715, 16481, 17310, 17392, 20824, 22227, 22289, 22475, 23921, 24044, 24604, 25587]}, "edge": {"target": [], "time": []}}}, "displayed_time": "37.76", "trialTime": 41012, "trial_type": "mouselab-mdp", "trial_index": 15, "time_elapsed": 1024237, "internal_node_id": "0.0-6.0-1.0-0.0"}}, {"uniqueid": "w66652472:a51376066", "current_trial": 16, "dateTime": 1693565724011, "trialdata": {"revealed_states": [], "clicked_states": ["24", "13", "3", "5", "19", "30", "23"], "num_clicks_accrued": [0, 0, 0, 0, 0, 0, 0, 0, 0, 0, 0, 0, 0], "stateRewards": ["", -1, 3, 1, -7, 56, 76, 57, 3, 11, -9, 14, 1, -2, 2, 8, -77, -3, 79, -5, 88, 24, -66, -2, -1, 7, -7, -30, 14, -76, 11, -36, 28, -6], "withholdReward": false, "trial_id": "mdp_trial_2", "block": "test", "trialIndex": 5, "score": -27.65, "costs": -6.6499999999999995, "simulationMode": [null, null, null, null, null], "rewards": [-2, -1, 7, 11, -36], "path": ["0", "0", "23", "24", "25", "30", "31"], "rt": [21861, 722, 408, 97, 203], "actions": ["left", "left", "left", "down", "right"], "actionTimes": [31378, 32602, 33521, 34125, 34846], "queries": {"click": {"state": {"target": ["24", "13", "3", "5", "19", "30", "23"], "time": [11378, 13163, 15078, 17350, 20797, 22486, 25439]}, "edge": {"target": [], "time": []}}, "mouseover": {"state": {"target": ["23", "24", "23", "13", "12", "1", "2", "3", "4", "5", "5", "4", "21", "19", "22", "31", "30", "24", "23", "0", "23", "25", "30", "32", "32", "33", "30", "0"], "time": [10907, 11063, 12257, 12579, 14155, 14211, 14256, 14572, 16139, 16653, 17171, 17952, 18885, 20671, 21757, 21884, 22234, 23865, 23950, 24600, 25133, 27183, 27297, 27582, 27901, 28430, 29394, 30132]}, "edge": {"target": [], "time": []}}, "mouseout": {"state": {"target": ["0", "1", "7", "6", "18", "12", "0", "23", "24", "23", "13", "13", "12", "1", "2", "3", "4", "5", "5", "5", "4", "21", "19", "22", "31", "30", "24", "23", "0", "23", "23", "25", "30", "32", "32", "33", "30", "0"], "time": [3116, 3929, 4666, 4695, 5130, 5178, 5428, 10959, 12240, 12323, 13258, 13805, 14172, 14225, 14338, 16060, 16639, 16688, 17404, 17870, 18091, 20502, 21733, 21769, 22107, 23787, 23921, 24472, 25104, 26382, 27036, 27247, 27553, 27648, 27947, 29380, 29411, 30365]}, "edge": {"target": [], "time": []}}}, "displayed_time": "35.36", "trialTime": 38322, "trial_type": "mouselab-mdp", "trial_index": 16, "time_elapsed": 1062742, "internal_node_id": "0.0-6.0-1.0-1.0"}}, {"uniqueid": "w66652472:a51376066", "current_trial": 17, "dateTime": 1693565770652, "trialdata": {"revealed_states": [], "clicked_states": ["2", "9", "26", "6", "16", "24", "10", "12", "19", "14", "21", "7"], "num_clicks_accrued": [0, 0, 0, 0, 0, 0, 0, 0, 0, 0, 0, 0, 0], "stateRewards": ["", 1, 1, 1, -3, -7, -1, -41, -10, 20, -72, -63, 1, -4, -2, 2, -66, 30, -84, -2, 49, 23, 71, -1, -4, 4, -12, 67, 5, 18, -16, 88, 56, -5], "withholdReward": false, "trial_id": "mdp_trial_3", "block": "test", "trialIndex": 6, "score": -4.399999999999999, "costs": -17.4, "simulationMode": [null, null, null, null, null], "rewards": [1, 1, 1, -10, 20], "path": ["0", "0", "1", "2", "3", "8", "9"], "rt": [34177, 763, 914, 86, 28], "actions": ["up", "up", "up", "left", "up"], "actionTimes": [37708, 38971, 40390, 40975, 41517], "queries": {"click": {"state": {"target": ["2", "9", "26", "6", "16", "24", "10", "12", "19", "14", "21", "7"], "time": [4463, 6350, 9766, 11634, 14459, 17245, 19091, 22061, 24064, 25134, 26449, 30375]}, "edge": {"target": [], "time": []}}, "mouseover": {"state": {"target": ["1", "2", "10", "11", "9", "27", "26", "10", "2", "6", "16", "15", "13", "12", "0", "23", "24", "2", "10", "0", "12", "22", "19", "14", "21", "1", "23", "23", "0", "7"], "time": [3862, 4196, 5345, 5714, 6046, 7857, 9463, 10722, 10828, 11076, 14227, 15419, 15786, 16737, 16768, 16801, 16969, 18368, 18520, 21066, 21832, 23381, 23631, 24836, 26118, 27630, 28111, 28345, 28429, 30115]}, "edge": {"target": [], "time": []}}, "mouseout": {"state": {"target": ["0", "1", "2", "10", "11", "9", "27", "26", "10", "2", "6", "6", "16", "16", "15", "13", "12", "0", "23", "24", "2", "10", "0", "12", "22", "19", "14", "19", "21", "1", "23", "23", "0", "7"], "time": [2692, 3876, 5216, 5509, 5910, 7058, 9176, 10656, 10773, 10889, 12388, 13971, 14536, 15305, 15669, 16719, 16753, 16785, 16859, 18001, 18419, 20033, 21715, 23268, 23448, 24763, 25846, 26029, 27162, 28011, 28128, 28395, 29645, 31176]}, "edge": {"target": [], "time": []}}}, "displayed_time": "42.02", "trialTime": 46452, "trial_type": "mouselab-mdp", "trial_index": 17, "time_elapsed": 1109383, "internal_node_id": "0.0-6.0-1.0-2.0"}}, {"uniqueid": "w66652472:a51376066", "current_trial": 18, "dateTime": 1693565827068, "trialdata": {"revealed_states": [], "clicked_states": ["13", "2", "5", "25"], "num_clicks_accrued": [0, 0, 0, 0, 0, 0, 0, 0, 0, 0, 0, 0, 0], "stateRewards": ["", -1, 2, -2, 5, 80, -61, -27, 12, 44, -26, -75, -2, -4, 1, -16, 42, -49, -50, 4, -44, 2, 80, -2, -2, 5, -2, 59, 10, 24, 7, -48, -86, -44], "withholdReward": false, "trial_id": "mdp_trial_4", "block": "test", "trialIndex": 7, "score": 19.2, "costs": -3.8, "simulationMode": [null, null, null, null, null], "rewards": [-2, -2, 5, -2, 24], "path": ["0", "0", "23", "24", "25", "26", "29"], "rt": [17433, 649, 450, 664, 691], "actions": ["left", "left", "left", "up", "left"], "actionTimes": [18792, 19948, 20915, 22077, 23269], "queries": {"click": {"state": {"target": ["13", "2", "5", "25"], "time": [3351, 5642, 8017, 11301]}, "edge": {"target": [], "time": []}}, "mouseover": {"state": {"target": ["15", "13", "10", "2", "4", "5", "8", "27", "26", "25", "24", "23", "1"], "time": [2297, 2994, 5091, 5342, 7120, 7675, 9086, 9203, 9519, 9685, 13567, 13818, 15949]}, "edge": {"target": [], "time": []}}, "mouseout": {"state": {"target": ["7", "0", "15", "13", "10", "2", "4", "5", "8", "27", "26", "25", "24", "23", "1", "0"], "time": [758, 1581, 2626, 4428, 5157, 7065, 7343, 9053, 9102, 9221, 9585, 13541, 13720, 15935, 16184, 56153]}, "edge": {"target": [], "time": []}}}, "displayed_time": "23.78", "trialTime": 56245, "trial_type": "mouselab-mdp", "trial_index": 18, "time_elapsed": 1165800, "internal_node_id": "0.0-6.0-1.0-3.0"}}, {"uniqueid": "w66652472:a51376066", "current_trial": 19, "dateTime": 1693565856335, "trialdata": {"revealed_states": [], "clicked_states": ["2", "4", "6", "8"], "num_clicks_accrued": [0, 0, 0, 0, 0, 0, 0, 0, 0, 0, 0, 0, 0], "stateRewards": ["", 2, 4, 7, 7, -79, -2, -21, -5, -53, 47, -21, 1, -3, -1, 7, 83, 7, 84, -7, 80, -37, 69, 2, -4, 5, 2, 4, -20, -30, 7, 71, 44, -81], "withholdReward": false, "trial_id": "mdp_trial_5", "block": "test", "trialIndex": 8, "score": -64.6, "costs": -5.6, "simulationMode": [null, null, null, null, null], "rewards": [2, 4, 7, 7, -79], "path": ["0", "0", "1", "2", "3", "4", "5"], "rt": [17377, 653, 216, 653, 519], "actions": ["up", "up", "up", "right", "up"], "actionTimes": [19148, 20306, 21046, 22205, 23238], "queries": {"click": {"state": {"target": ["2", "4", "6", "8"], "time": [3807, 6120, 8261, 11770]}, "edge": {"target": [], "time": []}}, "mouseover": {"state": {"target": ["2", "4", "2", "7", "4", "6", "12", "31", "8", "11", "3", "5", "3", "10", "28", "26", "28", "0"], "time": [2551, 2893, 3313, 5134, 5514, 7893, 9324, 10857, 11374, 13147, 13991, 14579, 14912, 14938, 15090, 15404, 16422, 16773]}, "edge": {"target": [], "time": []}}, "mouseout": {"state": {"target": ["1", "0", "2", "4", "2", "7", "4", "6", "12", "31", "8", "11", "3", "5", "3", "10", "28", "26", "28", "0", "0"], "time": [1151, 1448, 2563, 3219, 4761, 5280, 7628, 9142, 9391, 10874, 12773, 13157, 14205, 14908, 14922, 14972, 15172, 16420, 16454, 16987, 26702]}, "edge": {"target": [], "time": []}}}, "displayed_time": "23.73", "trialTime": 29083, "trial_type": "mouselab-mdp", "trial_index": 19, "time_elapsed": 1195066, "internal_node_id": "0.0-6.0-1.0-4.0"}}, {"uniqueid": "w66652472:a51376066", "current_trial": 20, "dateTime": 1693565886909, "trialdata": {"revealed_states": [], "clicked_states": ["5", "2", "24", "32", "26"], "num_clicks_accrued": [0, 0, 0, 0, 0, 0, 0, 0, 0, 0, 0, 0, 0], "stateRewards": ["", -2, 2, 8, -6, -25, 3, 87, 2, -62, -2, 74, -2, -1, 2, -1, 79, 49, -37, -14, 5, 67, -9, -1, 2, -2, 5, 15, 38, 32, -14, -38, -38, 30], "withholdReward": false, "trial_id": "mdp_trial_6", "block": "test", "trialIndex": 9, "score": 12.45, "costs": -6.55, "simulationMode": [null, null, null, null, null], "rewards": [-1, 2, -2, 5, 15], "path": ["0", "0", "23", "24", "25", "26", "27"], "rt": [19456, 519, 987, 212, 535], "actions": ["left", "left", "left", "up", "up"], "actionTimes": [21133, 22165, 23648, 24356, 25396], "queries": {"click": {"state": {"target": ["5", "2", "24", "32", "26"], "time": [2738, 5777, 7963, 9591, 14251]}, "edge": {"target": [], "time": []}}, "mouseover": {"state": {"target": ["1", "7", "4", "5", "4", "2", "1", "2", "1", "23", "24", "30", "32", "10", "10", "30", "25", "26", "10", "2", "12", "0", "15", "15", "12", "0", "23"], "time": [1943, 2023, 2107, 2240, 3438, 3588, 5121, 5488, 6820, 7087, 7471, 9102, 9438, 10367, 10817, 11950, 13549, 13699, 16401, 16465, 16734, 16999, 17451, 18036, 19131, 20331, 20462]}, "edge": {"target": [], "time": []}}, "mouseout": {"state": {"target": ["4", "4", "1", "1", "7", "4", "5", "4", "2", "1", "2", "1", "23", "24", "30", "32", "24", "10", "10", "24", "30", "25", "26", "10", "2", "12", "0", "15", "15", "12", "0", "23"], "time": [929, 1178, 1273, 1973, 2057, 2191, 3388, 3505, 5038, 5204, 6604, 6893, 7372, 8902, 9152, 9660, 10284, 10401, 10851, 11034, 13520, 13583, 16280, 16431, 16480, 16783, 17047, 17750, 18997, 19298, 20395, 29324]}, "edge": {"target": [], "time": []}}}, "displayed_time": "25.89", "trialTime": 30385, "trial_type": "mouselab-mdp", "trial_index": 20, "time_elapsed": 1225640, "internal_node_id": "0.0-6.0-1.0-5.0"}}, {"uniqueid": "w66652472:a51376066", "current_trial": 21, "dateTime": 1693565924548, "trialdata": {"revealed_states": [], "clicked_states": ["13", "19", "20", "26", "8", "9", "6", "2"], "num_clicks_accrued": [0, 0, 0, 0, 0, 0, 0, 0, 0, 0, 0, 0, 0], "stateRewards": ["", -2, 2, -2, -7, -50, -62, -45, 7, 36, -24, -72, -1, -1, 8, -1, -67, 20, -52, 2, 35, -50, 80, -1, 1, 6, -6, -70, 6, 88, 8, -47, 74, -19], "withholdReward": false, "trial_id": "mdp_trial_7", "block": "test", "trialIndex": 10, "score": 29.200000000000003, "costs": -11.799999999999999, "simulationMode": [null, null, null, null, null], "rewards": [-2, 2, -2, 7, 36], "path": ["0", "0", "1", "2", "3", "8", "9"], "rt": [27545, 307, 1646, 69, 45], "actions": ["up", "up", "up", "left", "up"], "actionTimes": [28652, 29463, 31613, 32203, 32762], "queries": {"click": {"state": {"target": ["13", "19", "20", "26", "8", "9", "6", "2"], "time": [2833, 4448, 5806, 9773, 11463, 13602, 16457, 22106]}, "edge": {"target": [], "time": []}}, "mouseover": {"state": {"target": ["1", "12", "13", "19", "20", "21", "31", "30", "23", "24", "26", "8", "9", "5", "6", "16", "10", "1", "2", "0", "0"], "time": [1518, 2417, 2602, 4017, 5482, 6464, 7130, 7630, 8513, 9167, 9514, 11062, 12994, 14777, 15375, 18241, 20974, 21376, 21760, 24307, 24538]}, "edge": {"target": [], "time": []}}, "mouseout": {"state": {"target": ["0", "1", "12", "13", "19", "20", "21", "31", "30", "23", "24", "26", "8", "9", "5", "6", "16", "10", "1", "2", "0", "0"], "time": [1238, 2303, 2468, 3799, 5449, 6431, 6497, 7315, 8413, 9134, 9214, 10947, 12761, 14459, 15209, 18108, 20581, 21273, 21392, 23920, 24323, 24806]}, "edge": {"target": [], "time": []}}}, "displayed_time": "33.28", "trialTime": 37419, "trial_type": "mouselab-mdp", "trial_index": 21, "time_elapsed": 1263278, "internal_node_id": "0.0-6.0-1.0-6.0"}}, {"uniqueid": "w66652472:a51376066", "current_trial": 22, "dateTime": 1693565958314, "trialdata": {"revealed_states": [], "clicked_states": ["4", "8", "14", "16", "26", "24"], "num_clicks_accrued": [0, 0, 0, 0, 0, 0, 0, 0, 0, 0, 0, 0, 0], "stateRewards": ["", 1, 1, 7, -11, 80, -20, -53, -14, 3, 31, 27, 2, -1, -8, -10, 33, 41, 86, 9, 78, -37, -13, -1, -2, -6, -8, -80, 75, 4, -16, -49, -74, 24], "withholdReward": false, "trial_id": "mdp_trial_8", "block": "test", "trialIndex": 11, "score": 7.899999999999999, "costs": -8.1, "simulationMode": [null, null, null, null, null], "rewards": [2, -1, -8, -10, 33], "path": ["0", "0", "12", "13", "14", "15", "16"], "rt": [19406, 596, 438, 213, 499], "actions": ["right", "right", "right", "up", "up"], "actionTimes": [22825, 23921, 24865, 25571, 26573], "queries": {"click": {"state": {"target": ["4", "8", "14", "16", "26", "24"], "time": [4964, 6840, 8974, 10623, 14997, 17213]}, "edge": {"target": [], "time": []}}, "mouseover": {"state": {"target": ["7", "4", "5", "4", "8", "7", "18", "13", "14", "15", "16", "18", "23", "24", "25", "26", "27", "28", "24", "23", "18", "13", "18"], "time": [3754, 4037, 4387, 4671, 6386, 7786, 7904, 8151, 8384, 10138, 10299, 12364, 12717, 13750, 14346, 14849, 16237, 16646, 16998, 18164, 18296, 19602, 21115]}, "edge": {"target": [], "time": []}}, "mouseout": {"state": {"target": ["0", "0", "23", "31", "31", "23", "7", "4", "5", "4", "8", "7", "18", "13", "14", "15", "16", "18", "23", "24", "25", "26", "27", "28", "24", "23", "18", "13", "18"], "time": [502, 520, 656, 755, 924, 3007, 3888, 4171, 4569, 5852, 7668, 7839, 8023, 8184, 10052, 10233, 12297, 12381, 12764, 14016, 14482, 16013, 16600, 16684, 18161, 18178, 18547, 20876, 21161]}, "edge": {"target": [], "time": []}}}, "displayed_time": "27.07", "trialTime": 33580, "trial_type": "mouselab-mdp", "trial_index": 22, "time_elapsed": 1297046, "internal_node_id": "0.0-6.0-1.0-7.0"}}, {"uniqueid": "w66652472:a51376066", "current_trial": 23, "dateTime": 1693565993844, "trialdata": {"revealed_states": [], "clicked_states": ["20", "33", "11", "6", "5"], "num_clicks_accrued": [0, 0, 0, 0, 0, 0, 0, 0, 0, 0, 0, 0, 0], "stateRewards": ["", -2, -4, -6, 12, -58, -70, -80, 2, 16, -88, -62, 1, 2, -5, 11, 77, -35, -44, -5, 18, -83, 87, 1, -3, -5, 13, -44, -21, -86, 10, -52, 8, 29], "withholdReward": false, "trial_id": "mdp_trial_9", "block": "test", "trialIndex": 12, "score": 21.25, "costs": -10.75, "simulationMode": [null, null, null, null, null], "rewards": [1, -3, -5, 10, 29], "path": ["0", "0", "23", "24", "25", "30", "33"], "rt": [23887, 528, 391, 231, 221], "actions": ["left", "left", "left", "down", "left"], "actionTimes": [27975, 29020, 29915, 30654, 31395], "queries": {"click": {"state": {"target": ["20", "33", "11", "6", "5"], "time": [5214, 8562, 12763, 16253, 20239]}, "edge": {"target": [], "time": []}}, "mouseover": {"state": {"target": ["12", "13", "14", "20", "19", "22", "12", "0", "30", "33", "30", "31", "24", "26", "27", "11", "3", "4", "6", "5", "4", "7", "1", "23", "24", "30", "33", "25", "24", "23", "23", "24", "23", "0"], "time": [4338, 4370, 4454, 4772, 5953, 6109, 6186, 6492, 6803, 6870, 10451, 11836, 11883, 11949, 12317, 12472, 15031, 15064, 15264, 19795, 21677, 21744, 21860, 22043, 22127, 22377, 22576, 22826, 22927, 24226, 24559, 24809, 26310, 26356]}, "edge": {"target": [], "time": []}}, "mouseout": {"state": {"target": ["0", "0", "0", "12", "13", "14", "22", "24", "8", "5", "7", "12", "13", "14", "20", "19", "22", "12", "0", "30", "33", "30", "31", "24", "26", "27", "11", "3", "4", "6", "5", "4", "7", "1", "23", "24", "30", "33", "25", "24", "23", "23", "24", "23", "0", "13"], "time": [496, 909, 1556, 1623, 1656, 2190, 2291, 2622, 2779, 3274, 3322, 4354, 4422, 4543, 5936, 5987, 6153, 6470, 6509, 6820, 10400, 10517, 11851, 11915, 11982, 12399, 14982, 15048, 15097, 19586, 21661, 21710, 21777, 21894, 22110, 22193, 22393, 22710, 22860, 24195, 24275, 24575, 26277, 26325, 26676, 35051]}, "edge": {"target": [], "time": []}}}, "displayed_time": "31.91", "trialTime": 35331, "trial_type": "mouselab-mdp", "trial_index": 23, "time_elapsed": 1332574, "internal_node_id": "0.0-6.0-1.0-8.0"}}, {"uniqueid": "w66652472:a51376066", "current_trial": 24, "dateTime": 1693566040654, "trialdata": {"revealed_states": [], "clicked_states": ["6", "11", "32", "20", "21", "22", "29", "18"], "num_clicks_accrued": [0, 0, 0, 0, 0, 0, 0, 0, 0, 0, 0, 0, 0], "stateRewards": ["", 2, 2, 3, -15, 23, -14, 73, -7, -32, -20, -6, 1, 1, -5, -12, 73, 6, -84, 11, -81, -57, 13, -2, -1, -4, -8, -52, -58, 49, 13, 5, -41, -41], "withholdReward": false, "trial_id": "mdp_trial_10", "block": "test", "trialIndex": 13, "score": 16.799999999999997, "costs": -17.2, "simulationMode": [null, null, null, null, null], "rewards": [-2, -1, -4, -8, 49], "path": ["0", "0", "23", "24", "25", "26", "29"], "rt": [36283, 502, 321, 499, 16], "actions": ["left", "left", "left", "up", "left"], "actionTimes": [40419, 41430, 42264, 43275, 43807], "queries": {"click": {"state": {"target": ["6", "11", "32", "20", "21", "22", "29", "18"], "time": [5675, 9123, 12499, 15946, 19263, 23255, 27621, 32778]}, "edge": {"target": [], "time": []}}, "mouseover": {"state": {"target": ["6", "4", "5", "8", "11", "26", "25", "30", "32", "22", "19", "20", "21", "14", "13", "22", "24", "26", "29", "26", "28", "1", "18", "0"], "time": [4548, 6382, 6599, 7213, 7480, 10344, 10494, 10702, 10862, 13176, 13575, 13742, 16790, 21870, 22838, 22902, 27050, 27217, 27403, 31064, 31264, 32065, 32397, 36595]}, "edge": {"target": [], "time": []}}, "mouseout": {"state": {"target": ["1", "26", "26", "5", "4", "7", "6", "4", "5", "8", "11", "26", "25", "30", "32", "22", "19", "20", "20", "21", "14", "13", "22", "24", "26", "29", "26", "28", "1", "18", "18", "0", "0"], "time": [1052, 1515, 1998, 3499, 3531, 3564, 6339, 6415, 6897, 7230, 10178, 10428, 10578, 10812, 13093, 13243, 13592, 15981, 16457, 21571, 22554, 22887, 26747, 27117, 27273, 27636, 31187, 31383, 32098, 32884, 36344, 36834, 46278]}, "edge": {"target": [], "time": []}}}, "displayed_time": "44.33", "trialTime": 46591, "trial_type": "mouselab-mdp", "trial_index": 24, "time_elapsed": 1379384, "internal_node_id": "0.0-6.0-1.0-9.0"}}, {"uniqueid": "w66652472:a51376066", "current_trial": 25, "dateTime": 1693566074145, "trialdata": {"revealed_states": [], "clicked_states": ["17", "11", "5", "6"], "num_clicks_accrued": [0, 0, 0, 0, 0, 0, 0, 0, 0, 0, 0, 0, 0], "stateRewards": ["", 1, -3, 4, 13, -72, 52, 5, 5, -58, 5, 14, 2, 1, 3, -14, -86, -4, 73, 6, -58, -50, 49, 2, -3, -4, 2, 33, -41, 42, -11, 81, 45, 53], "withholdReward": false, "trial_id": "mdp_trial_11", "block": "test", "trialIndex": 14, "score": 58.4, "costs": -8.6, "simulationMode": [null, null, null, null, null], "rewards": [1, -3, 4, 13, 52], "path": ["0", "0", "1", "2", "3", "4", "6"], "rt": [20037, 416, 384, 67, 525], "actions": ["up", "up", "up", "right", "right"], "actionTimes": [23597, 24520, 25420, 26001, 27044], "queries": {"click": {"state": {"target": ["17", "11", "5", "6"], "time": [4532, 7881, 11335, 14962]}, "edge": {"target": [], "time": []}}, "mouseover": {"state": {"target": ["16", "17", "14", "13", "12", "0", "28", "26", "29", "27", "8", "11", "5", "6", "5", "6", "7", "1", "23", "33", "25", "23", "1", "2", "3", "4", "7", "12", "13", "19", "21", "0"], "time": [3896, 4265, 5296, 5329, 5362, 5412, 5495, 5662, 6045, 6462, 6645, 6894, 8394, 8760, 9210, 12358, 15556, 15606, 15672, 15990, 18489, 18820, 18904, 18936, 19087, 19160, 19303, 19672, 19837, 20503, 20569, 21804]}, "edge": {"target": [], "time": []}}, "mouseout": {"state": {"target": ["1", "10", "10", "12", "0", "16", "17", "14", "13", "12", "0", "28", "26", "29", "27", "8", "11", "5", "6", "5", "6", "7", "1", "23", "33", "25", "23", "1", "2", "3", "4", "7", "12", "13", "19", "21", "0"], "time": [669, 1132, 2048, 3114, 3229, 4181, 5262, 5313, 5345, 5396, 5429, 5579, 5695, 6412, 6512, 6778, 8344, 8427, 8910, 11830, 15539, 15589, 15639, 15728, 18478, 18577, 18837, 18920, 18970, 19103, 19220, 19336, 19736, 20103, 20521, 21659, 22487]}, "edge": {"target": [], "time": []}}}, "displayed_time": "27.55", "trialTime": 33309, "trial_type": "mouselab-mdp", "trial_index": 25, "time_elapsed": 1412876, "internal_node_id": "0.0-6.0-1.0-10.0"}}, {"uniqueid": "w66652472:a51376066", "current_trial": 26, "dateTime": 1693566102389, "trialdata": {"revealed_states": [], "clicked_states": ["28", "11", "6", "21"], "num_clicks_accrued": [0, 0, 0, 0, 0, 0, 0, 0, 0, 0, 0, 0, 0], "stateRewards": ["", -2, 3, -5, -7, 66, 43, -60, -4, -70, -75, 4, -1, 2, 2, -13, 54, 11, -40, -1, 77, 32, 15, -2, 3, -8, -9, -35, 83, -27, 6, -74, -34, 44], "withholdReward": false, "trial_id": "mdp_trial_12", "block": "test", "trialIndex": 15, "score": 58.4, "costs": -8.6, "simulationMode": [null, null, null, null, null], "rewards": [-2, 3, -8, -9, 83], "path": ["0", "0", "23", "24", "25", "26", "28"], "rt": [19141, 373, 296, 516, 37], "actions": ["left", "left", "left", "up", "right"], "actionTimes": [21510, 22388, 23193, 24229, 24782], "queries": {"click": {"state": {"target": ["28", "11", "6", "21"], "time": [3454, 6623, 10056, 13588]}, "edge": {"target": [], "time": []}}, "mouseover": {"state": {"target": ["23", "26", "28", "10", "11", "5", "6", "19", "20", "21", "0"], "time": [2676, 3073, 3157, 4023, 4706, 7338, 7805, 10992, 11337, 11686, 17552]}, "edge": {"target": [], "time": []}}, "mouseout": {"state": {"target": ["0", "23", "24", "24", "23", "26", "28", "10", "11", "5", "6", "19", "20", "21", "21", "0"], "time": [1306, 1358, 1448, 1661, 2713, 3124, 3990, 4040, 7272, 7374, 10638, 11207, 11553, 13680, 17021, 17683]}, "edge": {"target": [], "time": []}}}, "displayed_time": "25.31", "trialTime": 28034, "trial_type": "mouselab-mdp", "trial_index": 26, "time_elapsed": 1441120, "internal_node_id": "0.0-6.0-1.0-11.0"}}, {"uniqueid": "w66652472:a51376066", "current_trial": 27, "dateTime": 1693566137989, "trialdata": {"revealed_states": [], "clicked_states": ["5", "9", "32", "17", "6"], "num_clicks_accrued": [0, 0, 0, 0, 0, 0, 0, 0, 0, 0, 0, 0, 0], "stateRewards": ["", -2, -3, -5, 8, 27, 11, 43, -6, -24, -87, 69, -2, 1, 1, 9, 19, 48, -37, 9, -14, 45, 62, 1, 2, 1, 16, -81, -41, 22, 4, -6, -63, 47], "withholdReward": false, "trial_id": "mdp_trial_13", "block": "test", "trialIndex": 16, "score": 46.25, "costs": -10.75, "simulationMode": [null, null, null, null, null], "rewards": [-2, 1, 1, 9, 48], "path": ["0", "0", "12", "13", "14", "15", "17"], "rt": [26181, 318, 179, 623, 133], "actions": ["right", "right", "right", "up", "right"], "actionTimes": [28691, 29526, 30213, 31357, 31997], "queries": {"click": {"state": {"target": ["5", "9", "32", "17", "6"], "time": [4354, 7527, 10955, 15849, 20480]}, "edge": {"target": [], "time": []}}, "mouseover": {"state": {"target": ["1", "2", "3", "5", "9", "8", "10", "24", "31", "32", "15", "17", "14", "13", "24", "25", "26", "28", "7", "7", "6", "16", "15", "14", "13", "12", "12", "15", "17"], "time": [2864, 3012, 3485, 4001, 5445, 8178, 8233, 8326, 8359, 8709, 11491, 11774, 17254, 17520, 18908, 18936, 19172, 19268, 19621, 19943, 20185, 21151, 21452, 24250, 24699, 24882, 26751, 27848, 27884]}, "edge": {"target": [], "time": []}}, "mouseout": {"state": {"target": ["0", "0", "0", "1", "2", "3", "5", "9", "8", "10", "24", "31", "32", "15", "17", "17", "14", "13", "24", "25", "26", "28", "7", "7", "6", "6", "16", "15", "14", "13", "12", "12", "15", "17"], "time": [908, 963, 2180, 2979, 3079, 3663, 5244, 8176, 8210, 8245, 8342, 8393, 11394, 11657, 15895, 17121, 17370, 17588, 18920, 18985, 19252, 19318, 19828, 20059, 20546, 21102, 21235, 21634, 24667, 24816, 24952, 26781, 27863, 27898]}, "edge": {"target": [], "time": []}}}, "displayed_time": "32.51", "trialTime": 35376, "trial_type": "mouselab-mdp", "trial_index": 27, "time_elapsed": 1476721, "internal_node_id": "0.0-6.0-1.0-12.0"}}, {"uniqueid": "w66652472:a51376066", "current_trial": 28, "dateTime": 1693566177787, "trialdata": {"revealed_states": [], "clicked_states": ["32", "5", "11", "6", "20", "29", "7"], "num_clicks_accrued": [0, 0, 0, 0, 0, 0, 0, 0, 0, 0, 0, 0, 0], "stateRewards": ["", -1, -2, -1, -10, -57, 73, -72, -16, 75, -14, -46, -2, -3, -7, -1, -61, -60, 76, -4, 50, 4, 14, 2, 2, -7, 12, -65, -32, 15, -8, -76, -25, -61], "withholdReward": false, "trial_id": "mdp_trial_14", "block": "test", "trialIndex": 17, "score": 43.95, "costs": -15.05, "simulationMode": [null, null, null, null, null], "rewards": [-1, -2, -1, -10, 73], "path": ["0", "0", "1", "2", "3", "4", "6"], "rt": [28188, 390, 941, 88, 400], "actions": ["up", "up", "up", "right", "right"], "actionTimes": [30565, 31486, 32935, 33532, 34443], "queries": {"click": {"state": {"target": ["32", "5", "11", "6", "20", "29", "7"], "time": [3362, 6565, 9793, 12933, 16087, 20021, 23558]}, "edge": {"target": [], "time": []}}, "mouseover": {"state": {"target": ["0", "32", "30", "25", "26", "3", "5", "4", "18", "12", "23", "24", "26", "11", "8", "3", "4", "6", "6", "16", "17", "20", "31", "25", "29", "26", "28", "2", "4", "7", "0"], "time": [2697, 2977, 4210, 4227, 4262, 4409, 4609, 7158, 7291, 7374, 7413, 7443, 7574, 8074, 10206, 10245, 10290, 10345, 10722, 13454, 13487, 13970, 16807, 17201, 17451, 20689, 20716, 20949, 21532, 21915, 27386]}, "edge": {"target": [], "time": []}}, "mouseout": {"state": {"target": ["17", "15", "12", "0", "23", "0", "32", "30", "25", "26", "3", "5", "4", "18", "12", "23", "24", "26", "11", "8", "3", "4", "6", "6", "16", "17", "20", "31", "25", "29", "26", "28", "2", "4", "7", "0"], "time": [964, 1016, 1161, 1244, 1312, 2877, 4176, 4226, 4245, 4278, 4426, 7141, 7175, 7341, 7399, 7441, 7475, 7641, 10189, 10243, 10276, 10322, 10522, 13437, 13471, 13504, 16602, 16821, 17252, 20666, 20702, 20750, 21449, 21682, 24047, 29433]}, "edge": {"target": [], "time": []}}}, "displayed_time": "34.96", "trialTime": 39557, "trial_type": "mouselab-mdp", "trial_index": 28, "time_elapsed": 1516518, "internal_node_id": "0.0-6.0-1.0-13.0"}}, {"uniqueid": "w66652472:a51376066", "current_trial": 29, "dateTime": 1693566214748, "trialdata": {"revealed_states": [], "clicked_states": ["29", "17", "22", "21", "9", "5", "16"], "num_clicks_accrued": [0, 0, 0, 0, 0, 0, 0, 0, 0, 0, 0, 0, 0], "stateRewards": ["", -1, -2, 8, -6, -79, -6, 87, 9, -5, -66, -38, 2, 2, 5, -6, -82, 74, 85, -8, 67, -30, -15, 1, -2, -2, -2, 87, 64, 49, 7, 2, -38, -9], "withholdReward": false, "trial_id": "mdp_trial_15", "block": "test", "trialIndex": 18, "score": 61.95, "costs": -15.05, "simulationMode": [null, null, null, null, null], "rewards": [2, 2, 5, -6, 74], "path": ["0", "0", "12", "13", "14", "15", "17"], "rt": [28820, 493, 341, 300, 744], "actions": ["right", "right", "right", "up", "right"], "actionTimes": [30882, 31911, 32758, 33566, 34826], "queries": {"click": {"state": {"target": ["29", "17", "22", "21", "9", "5", "16"], "time": [3210, 6467, 11720, 15197, 19207, 22844, 27162]}, "edge": {"target": [], "time": []}}, "mouseover": {"state": {"target": ["23", "28", "26", "29", "25", "30", "31", "0", "18", "15", "17", "14", "22", "22", "19", "22", "21", "20", "17", "15", "2", "8", "9", "4", "5", "15", "16", "16"], "time": [2250, 2300, 2773, 3000, 4049, 4116, 4233, 4282, 4349, 4399, 4516, 10296, 10618, 11062, 11144, 11544, 14859, 16908, 17008, 17360, 17874, 18143, 18426, 21522, 22474, 25618, 25664, 27002]}, "edge": {"target": [], "time": []}}, "mouseout": {"state": {"target": ["0", "23", "24", "25", "26", "27", "11", "8", "3", "7", "0", "23", "28", "26", "29", "29", "25", "30", "31", "0", "18", "15", "17", "14", "22", "22", "19", "22", "21", "20", "17", "15", "2", "8", "9", "4", "5", "15", "16", "16"], "time": [663, 718, 750, 789, 835, 951, 984, 1034, 1366, 1484, 2234, 2267, 2317, 2900, 3308, 3999, 4083, 4216, 4266, 4299, 4384, 4449, 10197, 10328, 10746, 11078, 11161, 14825, 16858, 16925, 17358, 17375, 17974, 18208, 21139, 22337, 22924, 25658, 25703, 27239]}, "edge": {"target": [], "time": []}}}, "displayed_time": "35.33", "trialTime": 36749, "trial_type": "mouselab-mdp", "trial_index": 29, "time_elapsed": 1553478, "internal_node_id": "0.0-6.0-1.0-14.0"}}, {"uniqueid": "w66652472:a51376066", "current_trial": 30, "dateTime": 1693566262305, "trialdata": {"revealed_states": [], "clicked_states": ["17", "29", "5", "32", "20", "11", "6", "31"], "num_clicks_accrued": [0, 0, 0, 0, 0, 0, 0, 0, 0, 0, 0, 0, 0], "stateRewards": ["", -1, -2, 4, 9, 10, -75, 39, 16, -43, 88, -19, -1, 1, 2, 4, -31, 10, 73, 12, 41, -64, -81, -2, 2, -6, 1, -81, -1, -26, 3, -59, -3, -20], "withholdReward": false, "trial_id": "mdp_trial_16", "block": "test", "trialIndex": 19, "score": 37.8, "costs": -17.2, "simulationMode": [null, null, null, null, null], "rewards": [-1, 1, 2, 12, 41], "path": ["0", "0", "12", "13", "14", "19", "20"], "rt": [33837, 497, 349, 64, 231], "actions": ["right", "right", "right", "down", "right"], "actionTimes": [41475, 42486, 43355, 43934, 44683], "queries": {"click": {"state": {"target": ["17", "29", "5", "32", "20", "11", "6", "31"], "time": [9305, 12429, 15617, 18978, 22858, 26459, 29914, 34255]}, "edge": {"target": [], "time": []}}, "mouseover": {"state": {"target": ["1", "15", "17", "15", "27", "29", "26", "5", "31", "32", "32", "31", "15", "17", "15", "7", "4", "6", "17", "19", "20", "22", "13", "1", "10", "11", "2", "18", "15", "14", "18", "4", "6", "6", "1", "2", "3", "4", "2", "1", "23", "31", "19", "22", "19", "20", "19"], "time": [8672, 8972, 9105, 10055, 10272, 10571, 12920, 13487, 15935, 15972, 16302, 19383, 19449, 19716, 20283, 20332, 20449, 20599, 21765, 21832, 22683, 23964, 24413, 24796, 24863, 25362, 26896, 27012, 27045, 27961, 28014, 29161, 29231, 29561, 30951, 31343, 31427, 31810, 32176, 32228, 32375, 32525, 38241, 38304, 39755, 39805, 40127]}, "edge": {"target": [], "time": []}}, "mouseout": {"state": {"target": ["16", "6", "7", "1", "15", "17", "15", "27", "29", "26", "5", "5", "31", "32", "32", "31", "15", "17", "15", "7", "4", "6", "17", "19", "20", "22", "13", "1", "10", "11", "2", "18", "15", "20", "14", "18", "4", "6", "6", "6", "1", "2", "3", "4", "2", "1", "23", "31", "19", "22", "19", "20", "19"], "time": [5397, 6439, 6590, 8688, 9062, 9364, 10072, 10472, 12531, 12987, 15699, 15868, 15954, 16007, 19366, 19400, 19483, 20265, 20299, 20366, 20582, 20616, 21804, 21864, 23231, 24213, 24763, 24830, 24901, 26829, 26912, 27029, 27078, 27928, 27978, 28045, 29197, 29245, 29966, 30261, 31309, 31395, 31542, 32025, 32192, 32293, 32409, 34363, 38272, 38404, 39772, 39937, 40141]}, "edge": {"target": [], "time": []}}}, "displayed_time": "45.20", "trialTime": 47355, "trial_type": "mouselab-mdp", "trial_index": 30, "time_elapsed": 1601035, "internal_node_id": "0.0-6.0-1.0-15.0"}}, {"uniqueid": "w66652472:a51376066", "current_trial": 31, "dateTime": 1693566303662, "trialdata": {"revealed_states": [], "clicked_states": ["5", "32", "17", "29", "11", "6", "21"], "num_clicks_accrued": [0, 0, 0, 0, 0, 0, 0, 0, 0, 0, 0, 0, 0], "stateRewards": ["", 2, -1, -3, 16, -3, -16, -62, -1, 13, -26, 43, -1, 4, 3, -9, -54, -37, -3, -12, -71, -68, -57, 1, -3, 2, -9, 2, -2, -9, -11, 84, -52, 55], "withholdReward": false, "trial_id": "mdp_trial_17", "block": "test", "trialIndex": 20, "score": 24.95, "costs": -15.05, "simulationMode": [null, null, null, null, null], "rewards": [2, -1, -3, -1, 43], "path": ["0", "0", "1", "2", "3", "8", "11"], "rt": [25868, 413, 257, 1094, 307], "actions": ["up", "up", "up", "left", "left"], "actionTimes": [28175, 29106, 29881, 31485, 32296], "queries": {"click": {"state": {"target": ["5", "32", "17", "29", "11", "6", "21"], "time": [3294, 6450, 9638, 13332, 16686, 20323, 23729]}, "edge": {"target": [], "time": []}}, "mouseover": {"state": {"target": ["1", "2", "4", "5", "8", "11", "27", "32", "17", "15", "18", "1", "26", "29", "27", "8", "3", "10", "11", "8", "3", "2", "6", "4", "4", "6", "14", "19", "21", "24", "23", "1"], "time": [2608, 2641, 2672, 3106, 4205, 4271, 4571, 5204, 7623, 10119, 10151, 10268, 10752, 11101, 14356, 14384, 14665, 14832, 15098, 17163, 17214, 17514, 17900, 19062, 19362, 19715, 23093, 23149, 23476, 25793, 26892, 27259]}, "edge": {"target": [], "time": []}}, "mouseout": {"state": {"target": ["0", "0", "0", "1", "2", "4", "5", "8", "11", "27", "32", "17", "15", "18", "1", "26", "29", "27", "8", "3", "10", "11", "8", "3", "2", "6", "4", "4", "6", "14", "19", "21", "24", "23"], "time": [981, 1061, 2530, 2639, 2655, 2740, 4088, 4238, 4356, 4721, 6970, 10101, 10143, 10184, 10334, 10818, 14332, 14373, 14416, 14782, 14848, 17147, 17180, 17398, 17813, 19028, 19145, 19379, 20402, 23110, 23362, 25309, 26847, 27057]}, "edge": {"target": [], "time": []}}}, "displayed_time": "32.81", "trialTime": 41136, "trial_type": "mouselab-mdp", "trial_index": 31, "time_elapsed": 1642392, "internal_node_id": "0.0-6.0-1.0-16.0"}}, {"uniqueid": "w66652472:a51376066", "current_trial": 32, "dateTime": 1693566333961, "trialdata": {"revealed_states": [], "clicked_states": ["5", "32", "9", "19"], "num_clicks_accrued": [0, 0, 0, 0, 0, 0, 0, 0, 0, 0, 0, 0, 0], "stateRewards": ["", 2, -4, -4, 13, -80, 62, 13, -11, 57, -13, -44, 1, 4, 3, -4, -29, -88, 15, 16, -58, 68, -45, -1, -3, -1, -9, -44, -86, -19, -7, -36, 59, 66], "withholdReward": false, "trial_id": "mdp_trial_18", "block": "test", "trialIndex": 21, "score": 39, "costs": -7.999999999999999, "simulationMode": [null, null, null, null, null], "rewards": [-1, -3, -1, -7, 59], "path": ["0", "0", "23", "24", "25", "30", "32"], "rt": [16859, 439, 289, 115, 659], "actions": ["left", "left", "left", "down", "down"], "actionTimes": [19213, 20160, 20959, 21584, 22761], "queries": {"click": {"state": {"target": ["5", "32", "9", "19"], "time": [3380, 6544, 10008, 14274]}, "edge": {"target": [], "time": []}}, "mouseover": {"state": {"target": ["1", "5", "5", "3", "10", "26", "25", "30", "32", "23", "1", "15", "15", "2", "10", "8", "9", "9", "8", "10", "1", "14", "19", "22", "24", "24", "23", "13", "14", "20", "21", "20"], "time": [2746, 2777, 3094, 3810, 3860, 4177, 4260, 4360, 4496, 7142, 7176, 7442, 7776, 7849, 7876, 8210, 8259, 8692, 13455, 13538, 13655, 13804, 13987, 15321, 15473, 15820, 15855, 15886, 15919, 15986, 16469, 17121]}, "edge": {"target": [], "time": []}}, "mouseout": {"state": {"target": ["1", "0", "1", "5", "5", "3", "10", "26", "25", "30", "32", "23", "1", "15", "15", "2", "10", "8", "9", "9", "9", "8", "10", "1", "14", "19", "22", "24", "24", "23", "13", "14", "20", "21"], "time": [945, 1962, 2762, 2810, 3793, 3826, 3883, 4227, 4344, 4433, 7094, 7160, 7192, 7542, 7792, 7865, 7893, 8243, 8475, 10080, 13373, 13505, 13588, 13671, 13928, 15304, 15337, 15643, 15854, 15869, 15903, 15936, 16054, 16752]}, "edge": {"target": [], "time": []}}}, "displayed_time": "23.27", "trialTime": 30051, "trial_type": "mouselab-mdp", "trial_index": 32, "time_elapsed": 1672693, "internal_node_id": "0.0-6.0-1.0-17.0"}}, {"uniqueid": "w66652472:a51376066", "current_trial": 33, "dateTime": 1693566368015, "trialdata": {"revealed_states": [], "clicked_states": ["5", "21", "29", "6", "17"], "num_clicks_accrued": [0, 0, 0, 0, 0, 0, 0, 0, 0, 0, 0, 0, 0], "stateRewards": ["", 2, -1, 1, 10, -52, 86, -22, -2, -14, -63, 38, 1, 3, 7, -8, 11, -32, -27, 9, -71, 40, -87, -2, -1, 5, -7, 12, 31, -57, 13, 86, -58, 29], "withholdReward": false, "trial_id": "mdp_trial_19", "block": "test", "trialIndex": 22, "score": 87.25, "costs": -10.75, "simulationMode": [null, null, null, null, null], "rewards": [2, -1, 1, 10, 86], "path": ["0", "0", "1", "2", "3", "4", "6"], "rt": [21894, 380, 1339, 669, 415], "actions": ["up", "up", "up", "right", "right"], "actionTimes": [24703, 25601, 27458, 28637, 29565], "queries": {"click": {"state": {"target": ["5", "21", "29", "6", "17"], "time": [3414, 6588, 9701, 14167, 17908]}, "edge": {"target": [], "time": []}}, "mouseover": {"state": {"target": ["4", "5", "17", "19", "21", "30", "33", "26", "29", "2", "16", "17", "16", "3", "3", "4", "6", "4", "3", "8", "11", "17", "17", "7"], "time": [2982, 3049, 4463, 4680, 4897, 7129, 7196, 7729, 8064, 10527, 10560, 10944, 11060, 11393, 12543, 12992, 13907, 15524, 15574, 15657, 15824, 16764, 17123, 19471]}, "edge": {"target": [], "time": []}}, "mouseout": {"state": {"target": ["20", "22", "7", "4", "5", "17", "19", "21", "30", "33", "26", "29", "2", "16", "17", "16", "3", "3", "4", "6", "4", "3", "8", "11", "17", "17", "7"], "time": [1032, 1166, 1548, 3032, 4281, 4513, 4803, 6929, 7162, 7229, 8028, 10477, 10543, 10577, 10993, 11110, 11793, 12925, 13208, 15507, 15558, 15624, 15757, 16706, 16785, 18046, 19973]}, "edge": {"target": [], "time": []}}}, "displayed_time": "30.08", "trialTime": 33811, "trial_type": "mouselab-mdp", "trial_index": 33, "time_elapsed": 1706746, "internal_node_id": "0.0-6.0-1.0-18.0"}}, {"uniqueid": "w66652472:a51376066", "current_trial": 34, "dateTime": 1693566397125, "trialdata": {"revealed_states": [], "clicked_states": ["6", "11", "29", "20", "31"], "num_clicks_accrued": [0, 0, 0, 0, 0, 0, 0, 0, 0, 0, 0, 0, 0], "stateRewards": ["", 2, -3, 5, -14, -63, -9, -24, -11, -54, -43, 68, 2, -2, -4, 7, -64, 30, 47, 12, -74, 11, 86, 1, -3, 3, 10, -71, -42, -52, -1, -29, -16, 69], "withholdReward": false, "trial_id": "mdp_trial_20", "block": "test", "trialIndex": 23, "score": 50.25, "costs": -10.75, "simulationMode": [null, null, null, null, null], "rewards": [2, -3, 5, -11, 68], "path": ["0", "0", "1", "2", "3", "8", "11"], "rt": [19959, 320, 321, 617, 334], "actions": ["up", "up", "up", "left", "left"], "actionTimes": [22246, 23070, 23904, 25033, 25883], "queries": {"click": {"state": {"target": ["6", "11", "29", "20", "31"], "time": [3928, 7111, 10228, 13554, 16870]}, "edge": {"target": [], "time": []}}, "mouseover": {"state": {"target": ["1", "4", "6", "4", "11", "26", "29", "20", "22", "31", "0", "18"], "time": [2911, 3210, 3660, 4710, 4844, 7891, 8258, 12439, 15436, 16236, 18834, 18868]}, "edge": {"target": [], "time": []}}, "mouseout": {"state": {"target": ["23", "23", "0", "1", "4", "6", "4", "11", "26", "29", "20", "22", "31", "0"], "time": [945, 1745, 2765, 2945, 3277, 4694, 4727, 7758, 8108, 11939, 15421, 15453, 18769, 18851]}, "edge": {"target": [], "time": []}}}, "displayed_time": "26.40", "trialTime": 28853, "trial_type": "mouselab-mdp", "trial_index": 34, "time_elapsed": 1735856, "internal_node_id": "0.0-6.0-1.0-19.0"}}, {"uniqueid": "w66652472:a51376066", "current_trial": 35, "dateTime": 1693566426180, "trialdata": {"revealed_states": [], "clicked_states": ["2", "5"], "num_clicks_accrued": [0, 0, 0, 0, 0, 0, 0, 0, 0, 0, 0, 0, 0], "stateRewards": ["", 1, 1, 6, -14, -40, 37, 16, -13, 33, -68, 49, 2, 4, 3, 6, 55, 27, 32, 10, -65, 20, -87, 2, 1, -6, -5, -42, 12, 29, -8, 16, 76, -33], "withholdReward": false, "trial_id": "mdp_trial_21", "block": "test", "trialIndex": 24, "score": 36.5, "costs": -2.5, "simulationMode": [null, null, null, null, null], "rewards": [2, 4, 3, 10, 20], "path": ["0", "0", "12", "13", "14", "19", "21"], "rt": [16660, 433, 328, 542, 486], "actions": ["right", "right", "right", "down", "down"], "actionTimes": [21136, 22086, 22930, 23993, 24986], "queries": {"click": {"state": {"target": ["2", "5"], "time": [5998, 7685]}, "edge": {"target": [], "time": []}}, "mouseover": {"state": {"target": ["1", "2", "2", "1", "2", "5", "5", "3", "11", "11", "27", "11", "17", "19"], "time": [4977, 5043, 5328, 5610, 5796, 6576, 6909, 8724, 8891, 9391, 9524, 9774, 13654, 20154]}, "edge": {"target": [], "time": []}}, "mouseout": {"state": {"target": ["18", "1", "2", "2", "1", "2", "5", "5", "3", "11", "11", "27", "11", "17", "19"], "time": [3293, 5010, 5076, 5477, 5741, 6097, 6592, 8708, 8751, 8991, 9440, 9707, 13648, 20107, 20168]}, "edge": {"target": [], "time": []}}}, "displayed_time": "25.50", "trialTime": 28825, "trial_type": "mouselab-mdp", "trial_index": 35, "time_elapsed": 1764910, "internal_node_id": "0.0-6.0-1.0-20.0"}}, {"uniqueid": "w66652472:a51376066", "current_trial": 36, "dateTime": 1693566458872, "trialdata": {"revealed_states": [], "clicked_states": ["25", "32", "27", "5", "17", "21"], "num_clicks_accrued": [0, 0, 0, 0, 0, 0, 0, 0, 0, 0, 0, 0, 0], "stateRewards": ["", 1, 1, 5, 6, -29, -7, 3, -16, 9, -46, 65, -1, 4, -1, -16, -63, -77, -87, 8, 80, -50, 43, -1, -1, -5, 5, -38, -71, -62, 9, 81, -50, -52], "withholdReward": false, "trial_id": "mdp_trial_22", "block": "test", "trialIndex": 25, "score": 44.3, "costs": -11.700000000000001, "simulationMode": [null, null, null, null, null], "rewards": [1, 1, 5, -16, 65], "path": ["0", "0", "1", "2", "3", "8", "11"], "rt": [24401, 136, 368, 678, 33], "actions": ["up", "up", "up", "left", "left"], "actionTimes": [26778, 27421, 28301, 29493, 30032], "queries": {"click": {"state": {"target": ["25", "32", "27", "5", "17", "21"], "time": [3488, 4783, 7874, 11002, 14229, 17411]}, "edge": {"target": [], "time": []}}, "mouseover": {"state": {"target": ["25", "30", "32", "30", "26", "27", "27", "11", "5", "6", "16", "17", "21", "20"], "time": [3314, 4146, 4413, 5379, 5429, 5462, 5711, 8260, 8960, 11609, 11725, 11941, 15246, 18188]}, "edge": {"target": [], "time": []}}, "mouseout": {"state": {"target": ["0", "25", "25", "30", "32", "30", "26", "27", "27", "11", "5", "5", "6", "16", "17", "21", "20"], "time": [1915, 3585, 4113, 4213, 4917, 5395, 5445, 5562, 8244, 8277, 11052, 11458, 11625, 11775, 14973, 17954, 25538]}, "edge": {"target": [], "time": []}}}, "displayed_time": "30.55", "trialTime": 32439, "trial_type": "mouselab-mdp", "trial_index": 36, "time_elapsed": 1797603, "internal_node_id": "0.0-6.0-1.0-21.0"}}, {"uniqueid": "w66652472:a51376066", "current_trial": 37, "dateTime": 1693566485174, "trialdata": {"revealed_states": [], "clicked_states": ["11", "6", "29", "17"], "num_clicks_accrued": [0, 0, 0, 0, 0, 0, 0, 0, 0, 0, 0, 0, 0], "stateRewards": ["", 1, 4, 5, 8, -55, -11, 8, 16, -37, 77, -22, -2, 3, -8, -10, 45, 87, -67, 4, 17, -33, -22, -1, -3, 7, 6, -39, -85, 75, -1, 7, -48, 45], "withholdReward": false, "trial_id": "mdp_trial_23", "block": "test", "trialIndex": 26, "score": 61.4, "costs": -8.6, "simulationMode": [null, null, null, null, null], "rewards": [-2, 3, -8, -10, 87], "path": ["0", "0", "12", "13", "14", "15", "17"], "rt": [16256, 208, 91, 1464, 74], "actions": ["right", "right", "right", "up", "right"], "actionTimes": [17466, 18193, 18793, 20766, 21356], "queries": {"click": {"state": {"target": ["11", "6", "29", "17"], "time": [2474, 5767, 8883, 12057]}, "edge": {"target": [], "time": []}}, "mouseover": {"state": {"target": ["1", "2", "11", "4", "6", "2", "26", "29", "15", "17", "15", "13", "12", "12", "13", "14"], "time": [1712, 1926, 2393, 3026, 3059, 6191, 6274, 6807, 9539, 9772, 12603, 12770, 13320, 15734, 15767, 15802]}, "edge": {"target": [], "time": []}}, "mouseout": {"state": {"target": ["0", "1", "2", "11", "4", "6", "2", "26", "29", "15", "17", "15", "13", "12", "12", "13", "14"], "time": [794, 1844, 1983, 2975, 3042, 6157, 6207, 6540, 9272, 9638, 12112, 12620, 12920, 13436, 15750, 15800, 15817]}, "edge": {"target": [], "time": []}}}, "displayed_time": "21.87", "trialTime": 26038, "trial_type": "mouselab-mdp", "trial_index": 37, "time_elapsed": 1823904, "internal_node_id": "0.0-6.0-1.0-22.0"}}, {"uniqueid": "w66652472:a51376066", "current_trial": 38, "dateTime": 1693566518816, "trialdata": {"revealed_states": [], "clicked_states": ["1", "17", "5", "11", "29", "31", "20"], "num_clicks_accrued": [0, 0, 0, 0, 0, 0, 0, 0, 0, 0, 0, 0, 0], "stateRewards": ["", -1, 4, 3, 12, -27, 34, -33, 3, -63, 1, 6, 2, 2, -6, -11, -77, -85, 68, -6, 51, 81, -60, -2, -2, 1, 15, 20, 15, 68, -10, -14, 6, -4], "withholdReward": false, "trial_id": "mdp_trial_24", "block": "test", "trialIndex": 27, "score": 67.35, "costs": -12.65, "simulationMode": [null, null, null, null, null], "rewards": [-2, -2, 1, 15, 68], "path": ["0", "0", "23", "24", "25", "26", "29"], "rt": [25490, 458, 301, 144, 230], "actions": ["left", "left", "left", "up", "left"], "actionTimes": [27865, 28832, 29640, 30298, 31035], "queries": {"click": {"state": {"target": ["1", "17", "5", "11", "29", "31", "20"], "time": [3379, 4769, 8015, 11264, 14709, 19009, 22293]}, "edge": {"target": [], "time": []}}, "mouseover": {"state": {"target": ["1", "15", "17", "4", "5", "5", "9", "11", "26", "29", "33", "30", "31", "19", "20", "20"], "time": [3137, 3853, 4620, 5785, 5835, 6242, 8767, 9733, 12698, 12948, 15746, 18576, 18727, 19810, 20243, 20593]}, "edge": {"target": [], "time": []}}, "mouseout": {"state": {"target": ["4", "2", "1", "0", "1", "15", "17", "4", "5", "5", "9", "11", "26", "29", "33", "30", "31", "19", "20", "20"], "time": [1590, 1638, 1721, 3021, 3821, 3870, 5469, 5819, 5853, 8550, 9433, 12514, 12831, 15463, 18544, 18644, 19744, 19844, 20276, 22412]}, "edge": {"target": [], "time": []}}}, "displayed_time": "31.55", "trialTime": 33379, "trial_type": "mouselab-mdp", "trial_index": 38, "time_elapsed": 1857548, "internal_node_id": "0.0-6.0-1.0-23.0"}}, {"uniqueid": "w66652472:a51376066", "current_trial": 39, "dateTime": 1693566575010, "trialdata": {"revealed_states": [], "clicked_states": ["5", "9", "32"], "num_clicks_accrued": [0, 0, 0, 0, 0, 0, 0, 0, 0, 0, 0, 0, 0], "stateRewards": ["", -1, 1, -2, 5, 73, 15, 61, 8, 7, 38, 76, 2, 2, -4, -6, -6, -26, 43, -5, -45, -85, -35, -2, 1, -4, 15, -10, 69, 72, -11, 84, -49, -38], "withholdReward": false, "trial_id": "mdp_trial_25", "block": "test", "trialIndex": 28, "score": 69.55, "costs": -6.449999999999999, "simulationMode": [null, null, null, null, null], "rewards": [-1, 1, -2, 5, 73], "path": ["0", "0", "1", "2", "3", "4", "5"], "rt": [12814, 468, 321, 92, 633], "actions": ["up", "up", "up", "right", "up"], "actionTimes": [50142, 51122, 51957, 52561, 53701], "queries": {"click": {"state": {"target": ["5", "9", "32"], "time": [38683, 41887, 45196]}, "edge": {"target": [], "time": []}}, "mouseover": {"state": {"target": ["1", "2", "3", "5", "5", "9", "8", "10", "23", "31", "30", "32"], "time": [37826, 38058, 38109, 38142, 38525, 39642, 42392, 42425, 42540, 42723, 42957, 43173]}, "edge": {"target": [], "time": []}}, "mouseout": {"state": {"target": ["20", "14", "13", "12", "12", "1", "2", "3", "5", "5", "9", "9", "8", "10", "23", "31", "30", "32"], "time": [36225, 36331, 36576, 36742, 36859, 37894, 38092, 38125, 38215, 39176, 41985, 42390, 42423, 42440, 42624, 42873, 43003, 55115]}, "edge": {"target": [], "time": []}}}, "displayed_time": "54.22", "trialTime": 55967, "trial_type": "mouselab-mdp", "trial_index": 39, "time_elapsed": 1913741, "internal_node_id": "0.0-6.0-1.0-24.0"}}, {"uniqueid": "w66652472:a51376066", "current_trial": 40, "dateTime": 1693566614850, "trialdata": {"revealed_states": [], "clicked_states": ["5", "21", "6", "29", "33"], "num_clicks_accrued": [0, 0, 0, 0, 0, 0, 0, 0, 0, 0, 0, 0, 0], "stateRewards": ["", 1, 1, -7, -9, -44, 24, -83, -15, 44, -24, 72, -2, -3, 4, -5, 57, 55, 29, -11, 22, 12, -25, -1, 2, 7, 12, 33, -8, 47, -4, 8, 50, -4], "withholdReward": false, "trial_id": "mdp_trial_26", "block": "test", "trialIndex": 29, "score": 56.25, "costs": -10.75, "simulationMode": [null, null, null, null, null], "rewards": [-1, 2, 7, 12, 47], "path": ["0", "0", "23", "24", "25", "26", "29"], "rt": [20562, 428, 281, 93, 563], "actions": ["left", "left", "left", "up", "left"], "actionTimes": [24882, 25824, 26610, 27220, 28291], "queries": {"click": {"state": {"target": ["5", "21", "6", "29", "33"], "time": [5247, 8488, 11852, 15326, 18766]}, "edge": {"target": [], "time": []}}, "mouseover": {"state": {"target": ["1", "4", "5", "6", "16", "19", "21", "19", "14", "15", "6", "4", "3", "10", "24", "25", "29", "33", "33"], "time": [4475, 4709, 4791, 5723, 5772, 5889, 5923, 9022, 9054, 9104, 9537, 12354, 12386, 12469, 12669, 12852, 13318, 16183, 16616]}, "edge": {"target": [], "time": []}}, "mouseout": {"state": {"target": ["33", "28", "10", "3", "4", "2", "1", "1", "4", "5", "6", "16", "19", "21", "19", "14", "15", "6", "4", "3", "10", "24", "25", "29", "33"], "time": [592, 1075, 1108, 1146, 1658, 3546, 3656, 4525, 4739, 5690, 5739, 5789, 5906, 8987, 9037, 9087, 9121, 12352, 12369, 12442, 12523, 12768, 12985, 16134, 16268]}, "edge": {"target": [], "time": []}}}, "displayed_time": "28.81", "trialTime": 39588, "trial_type": "mouselab-mdp", "trial_index": 40, "time_elapsed": 1953581, "internal_node_id": "0.0-6.0-1.0-25.0"}}, {"uniqueid": "w66652472:a51376066", "current_trial": 41, "dateTime": 1693566647236, "trialdata": {"revealed_states": [], "clicked_states": ["6", "11", "31", "20"], "num_clicks_accrued": [0, 0, 0, 0, 0, 0, 0, 0, 0, 0, 0, 0, 0], "stateRewards": ["", 2, 4, -3, 16, -58, 30, -35, 11, -60, 47, 27, -2, -1, -7, -16, 23, -70, 68, -10, -65, -43, -34, -2, 1, 7, 9, -63, 34, -31, -8, -12, -86, 59], "withholdReward": false, "trial_id": "mdp_trial_27", "block": "test", "trialIndex": 30, "score": 32.4, "costs": -8.6, "simulationMode": [null, null, null, null, null], "rewards": [2, 4, -3, 11, 27], "path": ["0", "0", "1", "2", "3", "8", "11"], "rt": [20116, 403, 322, 160, 259], "actions": ["up", "up", "up", "left", "left"], "actionTimes": [23189, 24088, 24922, 25593, 26360], "queries": {"click": {"state": {"target": ["6", "11", "31", "20"], "time": [4425, 7670, 10882, 14101]}, "edge": {"target": [], "time": []}}, "mouseover": {"state": {"target": ["1", "4", "6", "3", "11", "26", "25", "30", "30", "31", "19", "20", "16", "5", "9"], "time": [3728, 3828, 4193, 4833, 5110, 8143, 8175, 8242, 8558, 8758, 11308, 11357, 14621, 14822, 14971]}, "edge": {"target": [], "time": []}}, "mouseout": {"state": {"target": ["33", "30", "31", "23", "0", "1", "4", "6", "3", "11", "11", "26", "25", "30", "30", "31", "19", "20", "16", "5", "9"], "time": [2261, 2344, 2411, 2600, 2661, 3762, 3894, 4794, 4845, 7742, 8075, 8159, 8227, 8292, 8658, 11206, 11323, 14538, 14638, 14888, 22404]}, "edge": {"target": [], "time": []}}}, "displayed_time": "26.86", "trialTime": 32133, "trial_type": "mouselab-mdp", "trial_index": 41, "time_elapsed": 1985967, "internal_node_id": "0.0-6.0-1.0-26.0"}}, {"uniqueid": "w66652472:a51376066", "current_trial": 42, "dateTime": 1693566704734, "trialdata": {"revealed_states": [], "clicked_states": ["5", "11", "33", "17", "20", "6", "9", "29", "28", "18"], "num_clicks_accrued": [0, 0, 0, 0, 0, 0, 0, 0, 0, 0, 0, 0, 0], "stateRewards": ["", -2, -2, -3, -6, -15, -11, 41, -12, -63, -76, 2, -2, -3, 8, 9, -36, -2, -18, -16, -32, -85, -17, -2, 1, 5, -16, 82, 35, -88, -1, 80, -82, -20], "withholdReward": false, "trial_id": "mdp_trial_28", "block": "test", "trialIndex": 31, "score": 1.5, "costs": -21.499999999999996, "simulationMode": [null, null, null, null, null], "rewards": [-2, 1, 5, -16, 35], "path": ["0", "0", "23", "24", "25", "26", "28"], "rt": [37414, 382, 267, 515, 182], "actions": ["left", "left", "left", "up", "right"], "actionTimes": [46612, 47505, 48272, 49285, 49969], "queries": {"click": {"state": {"target": ["5", "11", "33", "17", "20", "6", "9", "29", "28", "18"], "time": [10237, 13486, 16854, 22305, 25906, 29549, 33017, 36197, 39489, 42666]}, "edge": {"target": [], "time": []}}, "mouseover": {"state": {"target": ["1", "5", "8", "11", "27", "11", "26", "33", "0", "12", "13", "14", "17", "14", "15", "17", "20", "12", "1", "2", "2", "4", "6", "7", "2", "9", "8", "26", "29", "26", "28", "16", "18", "12", "0", "23", "0"], "time": [9400, 9910, 11958, 12042, 12159, 12425, 14024, 14157, 17306, 17324, 17358, 17462, 17772, 21554, 21703, 21903, 25518, 27416, 27456, 27499, 27733, 27816, 28182, 31630, 31880, 32463, 33545, 33828, 33979, 36584, 36744, 40558, 41041, 43310, 43339, 44473, 44583]}, "edge": {"target": [], "time": []}}, "mouseout": {"state": {"target": ["0", "1", "5", "8", "11", "27", "11", "26", "33", "0", "12", "13", "14", "17", "14", "15", "17", "17", "20", "12", "1", "2", "2", "4", "6", "7", "2", "9", "8", "26", "29", "26", "28", "16", "18", "12", "0", "23", "0"], "time": [9382, 9409, 11892, 12026, 12060, 12292, 13958, 14041, 17255, 17322, 17356, 17405, 17505, 21535, 21625, 21837, 22425, 25324, 26333, 27433, 27476, 27517, 27773, 27999, 31513, 31697, 32314, 33512, 33563, 33845, 36548, 36644, 40008, 40741, 43273, 43323, 43373, 44522, 44854]}, "edge": {"target": [], "time": []}}}, "displayed_time": "50.49", "trialTime": 57219, "trial_type": "mouselab-mdp", "trial_index": 42, "time_elapsed": 2043465, "internal_node_id": "0.0-6.0-1.0-27.0"}}, {"uniqueid": "w66652472:a51376066", "current_trial": 43, "dateTime": 1693566727618, "trialdata": {"revealed_states": [], "clicked_states": ["17", "29", "5", "9"], "num_clicks_accrued": [0, 0, 0, 0, 0, 0, 0, 0, 0, 0, 0, 0, 0], "stateRewards": ["", -1, -3, -3, 1, -38, 2, -53, -2, -1, -81, 70, -1, 1, -5, -9, 46, 15, 35, -1, -22, 38, 59, -2, 4, -8, 13, 1, -83, -43, 4, 76, 13, 48], "withholdReward": false, "trial_id": "mdp_trial_29", "block": "test", "trialIndex": 32, "score": -7.600000000000001, "costs": -8.6, "simulationMode": [null, null, null, null, null], "rewards": [-1, 1, -5, -9, 15], "path": ["0", "0", "12", "13", "14", "15", "17"], "rt": [15987, 441, 439, 47, 375], "actions": ["right", "right", "right", "up", "right"], "actionTimes": [17950, 18892, 19840, 20398, 21308], "queries": {"click": {"state": {"target": ["17", "29", "5", "9"], "time": [3709, 6837, 11139, 14576]}, "edge": {"target": [], "time": []}}, "mouseover": {"state": {"target": ["7", "6", "16", "17", "7", "2", "10", "27", "29", "1", "18", "6", "5", "9"], "time": [2460, 2543, 2993, 3325, 4275, 4293, 4311, 4394, 4841, 10139, 10205, 10506, 10758, 12071]}, "edge": {"target": [], "time": []}}, "mouseout": {"state": {"target": ["0", "7", "6", "16", "17", "7", "2", "10", "27", "29", "1", "18", "6", "5"], "time": [701, 2495, 2860, 3127, 3830, 4292, 4309, 4325, 4576, 10100, 10154, 10305, 10588, 11988]}, "edge": {"target": [], "time": []}}}, "displayed_time": "21.82", "trialTime": 22603, "trial_type": "mouselab-mdp", "trial_index": 43, "time_elapsed": 2066349, "internal_node_id": "0.0-6.0-1.0-28.0"}}, {"uniqueid": "w66652472:a51376066", "current_trial": 44, "dateTime": 1693566766520, "trialdata": {"revealed_states": [], "clicked_states": ["21", "32", "5", "29", "9", "17", "18"], "num_clicks_accrued": [0, 0, 0, 0, 0, 0, 0, 0, 0, 0, 0, 0, 0], "stateRewards": ["", -2, -4, 2, 10, -17, 18, 73, 11, -32, 23, -13, -2, -4, 7, 12, -25, 66, -23, 15, 40, -76, -9, 1, 2, -7, -5, -20, 24, 3, -5, 16, -73, 70], "withholdReward": false, "trial_id": "mdp_trial_30", "block": "test", "trialIndex": 33, "score": 63.95, "costs": -15.05, "simulationMode": [null, null, null, null, null], "rewards": [-2, -4, 7, 12, 66], "path": ["0", "0", "12", "13", "14", "15", "17"], "rt": [25114, 494, 185, 397, 475], "actions": ["right", "right", "right", "up", "right"], "actionTimes": [28920, 29921, 30610, 31522, 32533], "queries": {"click": {"state": {"target": ["21", "32", "5", "29", "9", "17", "18"], "time": [5093, 8492, 11802, 15072, 18319, 21620, 25753]}, "edge": {"target": [], "time": []}}, "mouseover": {"state": {"target": ["0", "22", "21", "31", "32", "32", "2", "4", "5", "3", "8", "26", "29", "27", "11", "9", "6", "17", "12", "28", "27", "10", "2", "18"], "time": [4373, 4489, 4778, 5705, 5938, 6204, 9203, 9252, 9660, 12452, 12470, 12568, 12685, 15483, 15516, 15866, 19451, 19930, 22479, 22568, 22593, 22879, 22929, 23411]}, "edge": {"target": [], "time": []}}, "mouseout": {"state": {"target": ["9", "2", "1", "0", "22", "21", "31", "32", "32", "2", "4", "5", "3", "8", "26", "29", "27", "11", "9", "6", "17", "17", "12", "28", "27", "10", "2"], "time": [2978, 3057, 3140, 4439, 4522, 5213, 5788, 6008, 9103, 9219, 9290, 12435, 12469, 12485, 12606, 15450, 15499, 15616, 19397, 19465, 21738, 22395, 22512, 22590, 22717, 22895, 22945]}, "edge": {"target": [], "time": []}}}, "displayed_time": "33.04", "trialTime": 38633, "trial_type": "mouselab-mdp", "trial_index": 44, "time_elapsed": 2105251, "internal_node_id": "0.0-6.0-1.0-29.0"}}, {"uniqueid": "w66652472:a51376066", "current_trial": 45, "dateTime": 1693566788124, "trialdata": {"revealed_states": [], "clicked_states": ["6", "11", "21", "33"], "num_clicks_accrued": [0, 0, 0, 0, 0, 0, 0, 0, 0, 0, 0, 0, 0], "stateRewards": ["", 1, 1, 1, 15, -76, 52, -32, 14, -57, 37, 49, 1, -4, -3, 6, 83, -76, 25, 9, 36, -1, -17, -1, 4, 4, -2, -22, -21, 58, -15, -57, 49, -24], "withholdReward": false, "trial_id": "mdp_trial_31", "block": "test", "trialIndex": 34, "score": 61.4, "costs": -8.6, "simulationMode": [null, null, null, null, null], "rewards": [1, 1, 1, 15, 52], "path": ["0", "0", "1", "2", "3", "4", "6"], "rt": [14919, 451, 287, 289, 193], "actions": ["up", "up", "up", "right", "right"], "actionTimes": [16312, 17274, 18058, 18861, 19566], "queries": {"click": {"state": {"target": ["6", "11", "21", "33"], "time": [3133, 5967, 9220, 13175]}, "edge": {"target": [], "time": []}}, "mouseover": {"state": {"target": ["6", "6", "4", "3", "8", "11", "7", "13", "21", "1", "2", "3", "5", "5", "22", "32", "33"], "time": [2614, 2914, 3694, 3728, 3761, 3829, 8075, 8141, 8558, 10324, 10384, 10425, 10624, 10873, 11398, 11957, 13040]}, "edge": {"target": [], "time": []}}, "mouseout": {"state": {"target": ["18", "12", "0", "6", "6", "4", "3", "8", "11", "7", "13", "21", "1", "2", "3", "5", "5", "22", "32", "33"], "time": [829, 879, 2375, 2697, 3172, 3711, 3744, 3778, 6050, 8092, 8158, 10175, 10341, 10399, 10474, 10690, 11023, 11412, 12240, 21237]}, "edge": {"target": [], "time": []}}}, "displayed_time": "20.07", "trialTime": 21332, "trial_type": "mouselab-mdp", "trial_index": 45, "time_elapsed": 2126855, "internal_node_id": "0.0-6.0-1.0-30.0"}}, {"uniqueid": "w66652472:a51376066", "current_trial": 46, "dateTime": 1693566809188, "trialdata": {"revealed_states": [], "clicked_states": ["6", "11", "29", "17"], "num_clicks_accrued": [0, 0, 0, 0, 0, 0, 0, 0, 0, 0, 0, 0, 0], "stateRewards": ["", -1, -4, -1, -5, -28, -23, -15, -15, -38, 59, -87, 2, 2, -5, 9, -55, -39, -71, -6, 85, -85, -11, -1, -2, 5, -10, 1, 25, 41, -4, 69, -35, 86], "withholdReward": false, "trial_id": "mdp_trial_32", "block": "test", "trialIndex": 35, "score": 24.4, "costs": -8.6, "simulationMode": [null, null, null, null, null], "rewards": [-1, -2, 5, -10, 41], "path": ["0", "0", "23", "24", "25", "26", "29"], "rt": [14246, 350, 189, 201, 356], "actions": ["left", "left", "left", "up", "left"], "actionTimes": [15821, 16675, 17363, 18074, 18945], "queries": {"click": {"state": {"target": ["6", "11", "29", "17"], "time": [3406, 6616, 9841, 12693]}, "edge": {"target": [], "time": []}}, "mouseover": {"state": {"target": ["1", "2", "3", "4", "6", "4", "3", "8", "11", "9", "8", "28", "25", "29", "28", "15", "17"], "time": [2071, 2583, 2766, 2849, 3236, 4098, 4132, 4198, 4465, 7495, 7545, 7595, 7650, 7995, 10177, 10260, 10859]}, "edge": {"target": [], "time": []}}, "mouseout": {"state": {"target": ["33", "30", "0", "1", "2", "3", "4", "6", "4", "3", "8", "11", "9", "8", "28", "25", "29", "28", "15"], "time": [887, 902, 2008, 2098, 2665, 2815, 2881, 4081, 4115, 4164, 4348, 7166, 7528, 7562, 7612, 7745, 10160, 10193, 10293]}, "edge": {"target": [], "time": []}}}, "displayed_time": "19.45", "trialTime": 20777, "trial_type": "mouselab-mdp", "trial_index": 46, "time_elapsed": 2147919, "internal_node_id": "0.0-6.0-1.0-31.0"}}, {"uniqueid": "w66652472:a51376066", "current_trial": 47, "dateTime": 1693566833312, "trialdata": {"revealed_states": [], "clicked_states": ["5", "9", "17", "32"], "num_clicks_accrued": [0, 0, 0, 0, 0, 0, 0, 0, 0, 0, 0, 0, 0], "stateRewards": ["", -1, 1, 8, -8, -49, 62, -78, 16, 28, -81, 78, -2, -3, -1, -4, 67, 49, -2, -13, -16, -39, 83, 1, -4, 4, -5, -20, 7, 84, 7, -32, -59, 19], "withholdReward": false, "trial_id": "mdp_trial_33", "block": "test", "trialIndex": 36, "score": 30.4, "costs": -8.6, "simulationMode": [null, null, null, null, null], "rewards": [-2, -3, -1, -4, 49], "path": ["0", "0", "12", "13", "14", "15", "17"], "rt": [15310, 425, 369, 707, 440], "actions": ["right", "right", "right", "up", "right"], "actionTimes": [17072, 18000, 18876, 20080, 21029], "queries": {"click": {"state": {"target": ["5", "9", "17", "32"], "time": [3116, 6296, 9508, 13823]}, "edge": {"target": [], "time": []}}, "mouseover": {"state": {"target": ["1", "7", "5", "9", "9", "6", "17", "21", "32", "32"], "time": [2549, 2633, 2850, 4215, 4665, 6780, 7263, 10494, 10744, 11194]}, "edge": {"target": [], "time": []}}, "mouseout": {"state": {"target": ["17", "18", "1", "7", "5", "9", "9", "9", "6", "17", "21", "32", "32", "32"], "time": [734, 1099, 2600, 2666, 3187, 4265, 6402, 6730, 6797, 10344, 10511, 10927, 13941, 23087]}, "edge": {"target": [], "time": []}}}, "displayed_time": "21.54", "trialTime": 23834, "trial_type": "mouselab-mdp", "trial_index": 47, "time_elapsed": 2172043, "internal_node_id": "0.0-6.0-1.0-32.0"}}, {"uniqueid": "w66652472:a51376066", "current_trial": 48, "dateTime": 1693566858174, "trialdata": {"revealed_states": [], "clicked_states": ["16", "29"], "num_clicks_accrued": [0, 0, 0, 0, 0, 0, 0, 0, 0, 0, 0, 0, 0], "stateRewards": ["", -1, 2, 7, 8, 75, 67, -11, 6, 52, -17, 38, -1, 4, -8, 14, 74, -37, -17, -12, 52, 55, 71, -2, -1, -5, 2, 21, 6, -88, -14, 64, -61, -47], "withholdReward": false, "trial_id": "mdp_trial_34", "block": "test", "trialIndex": 37, "score": 47.7, "costs": -4.3, "simulationMode": [null, null, null, null, null], "rewards": [-1, 2, 7, 6, 38], "path": ["0", "0", "1", "2", "3", "8", "11"], "rt": [8164, 6273, 36, 485, 63], "actions": ["up", "up", "up", "left", "left"], "actionTimes": [11021, 17827, 18373, 19388, 19949], "queries": {"click": {"state": {"target": ["16", "29"], "time": [4362, 7479]}, "edge": {"target": [], "time": []}}, "mouseover": {"state": {"target": ["1", "7", "6", "16", "28", "26", "29", "30", "32"], "time": [3179, 3228, 3545, 4084, 5028, 5046, 5393, 9124, 9241]}, "edge": {"target": [], "time": []}}, "mouseout": {"state": {"target": ["0", "1", "7", "6", "16", "28", "26", "29", "29", "30", "32", "31", "23"], "time": [3138, 3194, 3244, 3732, 4985, 5044, 5060, 7601, 8991, 9175, 24364, 24401, 24415]}, "edge": {"target": [], "time": []}}}, "displayed_time": "20.47", "trialTime": 24608, "trial_type": "mouselab-mdp", "trial_index": 48, "time_elapsed": 2196906, "internal_node_id": "0.0-6.0-1.0-33.0"}}, {"uniqueid": "w66652472:a51376066", "current_trial": 49, "dateTime": 1693566877058, "trialdata": {"revealed_states": [], "clicked_states": ["16", "29"], "num_clicks_accrued": [0, 0, 0, 0, 0, 0, 0, 0, 0, 0, 0, 0, 0], "stateRewards": ["", 2, 4, 4, -8, -36, -33, 38, 16, -51, 57, 57, 1, 3, 4, -6, 45, 68, 87, 1, 63, 24, -55, -2, 2, -6, -13, -63, -50, 8, 2, 80, 6, 60], "withholdReward": false, "trial_id": "mdp_trial_35", "block": "test", "trialIndex": 38, "score": 42.7, "costs": -4.3, "simulationMode": [null, null, null, null, null], "rewards": [1, 3, 4, -6, 45], "path": ["0", "0", "12", "13", "14", "15", "16"], "rt": [6798, 244, 204, 157, 119], "actions": ["right", "right", "right", "up", "up"], "actionTimes": [9902, 10654, 11363, 12032, 12661], "queries": {"click": {"state": {"target": ["16", "29"], "time": [3824, 6988]}, "edge": {"target": [], "time": []}}, "mouseover": {"state": {"target": ["16", "16", "23", "30", "33", "29"], "time": [3365, 3651, 4995, 5095, 5211, 5361]}, "edge": {"target": [], "time": []}}, "mouseout": {"state": {"target": ["4", "7", "16", "16", "23", "30", "33", "29"], "time": [1745, 1895, 3431, 3918, 5012, 5111, 5311, 7069]}, "edge": {"target": [], "time": []}}}, "displayed_time": "17.10", "trialTime": 18541, "trial_type": "mouselab-mdp", "trial_index": 49, "time_elapsed": 2215789, "internal_node_id": "0.0-6.0-1.0-34.0"}}, {"uniqueid": "w66652472:a51376066", "current_trial": 50, "dateTime": 1693566895986, "trialdata": {"revealed_states": [], "clicked_states": ["16", "27", "5"], "num_clicks_accrued": [0, 0, 0, 0, 0, 0, 0, 0, 0, 0, 0, 0, 0], "stateRewards": ["", 1, -3, -4, -11, -56, 61, -47, -16, -28, -9, 69, -2, -3, -4, -8, 40, -86, 59, -4, 80, 27, 54, -1, 3, -1, 8, 67, 23, 50, 6, 83, -43, -29], "withholdReward": false, "trial_id": "mdp_trial_36", "block": "test", "trialIndex": 39, "score": 69.55, "costs": -6.449999999999999, "simulationMode": [null, null, null, null, null], "rewards": [-1, 3, -1, 8, 67], "path": ["0", "0", "23", "24", "25", "26", "27"], "rt": [11664, 163, 779, 229, 17], "actions": ["left", "left", "left", "up", "up"], "actionTimes": [13705, 14378, 15676, 16425, 16947], "queries": {"click": {"state": {"target": ["16", "27", "5"], "time": [2800, 6153, 9538]}, "edge": {"target": [], "time": []}}, "mouseover": {"state": {"target": ["16", "16", "2", "10", "27", "5", "4"], "time": [2304, 2670, 3386, 3453, 3753, 9199, 11149]}, "edge": {"target": [], "time": []}}, "mouseout": {"state": {"target": ["16", "16", "2", "10", "27", "5", "4"], "time": [2338, 3320, 3420, 3503, 8433, 11133, 11166]}, "edge": {"target": [], "time": []}}}, "displayed_time": "17.48", "trialTime": 18685, "trial_type": "mouselab-mdp", "trial_index": 50, "time_elapsed": 2234716, "internal_node_id": "0.0-6.0-1.0-35.0"}}, {"uniqueid": "w66652472:a51376066", "current_trial": 51, "dateTime": 1693566931085, "trialdata": {"revealed_states": [], "clicked_states": ["14", "20", "16", "29"], "num_clicks_accrued": [0, 0, 0, 0, 0, 0, 0, 0, 0, 0, 0, 0, 0], "stateRewards": ["", -1, -3, -7, -7, -76, 30, -49, 11, -70, 56, 2, 1, 4, -3, -14, -59, -83, -25, -9, -21, -67, -73, -2, 4, 4, -9, -11, -32, 60, 9, -87, 22, -64], "withholdReward": false, "trial_id": "mdp_trial_37", "block": "test", "trialIndex": 40, "score": 49.6, "costs": -7.4, "simulationMode": [null, null, null, null, null], "rewards": [-2, 4, 4, -9, 60], "path": ["0", "0", "23", "24", "25", "26", "29"], "rt": [16429, 368, 258, 947, 625], "actions": ["left", "left", "left", "up", "left"], "actionTimes": [20353, 21219, 21991, 23454, 24574], "queries": {"click": {"state": {"target": ["14", "20", "16", "29"], "time": [5249, 7256, 10949, 14928]}, "edge": {"target": [], "time": []}}, "mouseover": {"state": {"target": ["13", "14", "20", "21", "14", "15", "16", "7", "2", "29", "27", "11", "9", "8", "10", "10", "8", "9"], "time": [4667, 4758, 6908, 8690, 8862, 8890, 9306, 12872, 12922, 14536, 16886, 16919, 17318, 18552, 18617, 18834, 18966, 19786]}, "edge": {"target": [], "time": []}}, "mouseout": {"state": {"target": ["0", "13", "14", "14", "20", "21", "14", "15", "16", "7", "2", "29", "27", "11", "9", "8", "10", "10", "8", "9"], "time": [3009, 4709, 5285, 6608, 7957, 8813, 8873, 8907, 11063, 12906, 12955, 15010, 16902, 16953, 18535, 18584, 18667, 18900, 19083, 19816]}, "edge": {"target": [], "time": []}}}, "displayed_time": "25.08", "trialTime": 34839, "trial_type": "mouselab-mdp", "trial_index": 51, "time_elapsed": 2269817, "internal_node_id": "0.0-6.0-1.0-36.0"}}, {"uniqueid": "w66652472:a51376066", "current_trial": 52, "dateTime": 1693566952986, "trialdata": {"revealed_states": [], "clicked_states": ["17", "5", "27", "32"], "num_clicks_accrued": [0, 0, 0, 0, 0, 0, 0, 0, 0, 0, 0, 0, 0], "stateRewards": ["", -2, -3, -3, 9, 79, 67, 22, -15, -56, 27, -85, -2, 4, -4, -15, -20, -32, 60, 15, 71, 57, 17, 1, 2, -8, 15, -37, -81, 82, 15, 21, -3, 2], "withholdReward": false, "trial_id": "mdp_trial_38", "block": "test", "trialIndex": 41, "score": 71.4, "costs": -8.6, "simulationMode": [null, null, null, null, null], "rewards": [-2, -3, -3, 9, 79], "path": ["0", "0", "1", "2", "3", "4", "5"], "rt": [14114, 317, 232, 79, 97], "actions": ["up", "up", "up", "right", "up"], "actionTimes": [16284, 17118, 17865, 18461, 19096], "queries": {"click": {"state": {"target": ["17", "5", "27", "32"], "time": [3381, 6643, 9849, 13116]}, "edge": {"target": [], "time": []}}, "mouseover": {"state": {"target": ["1", "17", "16", "6", "5", "3", "8", "27", "26", "25", "30", "32"], "time": [2525, 3190, 3898, 4274, 4641, 7055, 7089, 7421, 11136, 11171, 11219, 11353]}, "edge": {"target": [], "time": []}}, "mouseout": {"state": {"target": ["15", "13", "0", "1", "17", "16", "6", "5", "3", "8", "27", "26", "25", "30"], "time": [1491, 1507, 1892, 2608, 3463, 4108, 4407, 7039, 7072, 7105, 11119, 11169, 11203, 11286]}, "edge": {"target": [], "time": []}}}, "displayed_time": "19.62", "trialTime": 21606, "trial_type": "mouselab-mdp", "trial_index": 52, "time_elapsed": 2291717, "internal_node_id": "0.0-6.0-1.0-37.0"}}, {"uniqueid": "w66652472:a51376066", "current_trial": 53, "dateTime": 1693567054146, "trialdata": {"revealed_states": [], "clicked_states": ["21", "32"], "num_clicks_accrued": [0, 0, 0, 0, 0, 0, 0, 0, 0, 0, 0, 0, 0], "stateRewards": ["", -2, -1, -6, -14, -55, 78, -13, 11, 14, -71, 59, 2, 2, 6, -6, 9, 38, 14, 7, 85, 11, 68, 1, -4, -1, -3, -63, -85, 9, -2, 63, -86, -10], "withholdReward": false, "trial_id": "mdp_trial_39", "block": "test", "trialIndex": 42, "score": 97.7, "costs": -4.3, "simulationMode": [null, null, null, null, null], "rewards": [2, 2, 6, 7, 85], "path": ["0", "0", "12", "13", "14", "19", "20"], "rt": [24434, 303, 774, 394, 333], "actions": ["right", "right", "right", "down", "right"], "actionTimes": [26172, 26986, 28272, 29174, 30013], "queries": {"click": {"state": {"target": ["21", "32"], "time": [3043, 6259]}, "edge": {"target": [], "time": []}}, "mouseover": {"state": {"target": ["12", "13", "21", "32", "24", "28", "11", "9", "3", "7", "6", "6", "16", "16", "6", "5"], "time": [2113, 2195, 2781, 4378, 6792, 7109, 7273, 7576, 11691, 11830, 11939, 13238, 13355, 13958, 15009, 15453]}, "edge": {"target": [], "time": []}}, "mouseout": {"state": {"target": ["32", "23", "0", "12", "13", "21", "32", "24", "28", "11", "9", "3", "7", "6", "6", "16", "16", "6"], "time": [546, 1295, 2011, 2162, 2312, 3133, 6643, 7076, 7159, 7326, 11673, 11723, 11889, 11955, 13271, 13439, 14955, 15114]}, "edge": {"target": [], "time": []}}}, "displayed_time": "30.53", "trialTime": 100850, "trial_type": "mouselab-mdp", "trial_index": 53, "time_elapsed": 2392877, "internal_node_id": "0.0-6.0-1.0-38.0"}}, {"uniqueid": "w66652472:a51376066", "current_trial": 54, "dateTime": 1693567074656, "trialdata": {"revealed_states": [], "clicked_states": ["14", "30", "32", "5"], "num_clicks_accrued": [0, 0, 0, 0, 0, 0, 0, 0, 0, 0, 0, 0, 0], "stateRewards": ["", 2, 3, 6, -12, -29, 12, 87, 4, 35, -30, 67, 2, 3, -5, -9, 44, 69, -8, 1, 45, -8, 28, -2, -1, -8, 11, -12, -5, 81, 9, 87, 82, 88], "withholdReward": false, "trial_id": "mdp_trial_40", "block": "test", "trialIndex": 43, "score": 73.2, "costs": -6.800000000000001, "simulationMode": [null, null, null, null, null], "rewards": [-2, -1, -8, 9, 82], "path": ["0", "0", "23", "24", "25", "30", "32"], "rt": [13398, 379, 484, 81, 93], "actions": ["left", "left", "left", "down", "down"], "actionTimes": [14682, 15578, 16582, 17179, 17789], "queries": {"click": {"state": {"target": ["14", "30", "32", "5"], "time": [2710, 3975, 5093, 8403]}, "edge": {"target": [], "time": []}}, "mouseover": {"state": {"target": ["1", "7", "15", "14", "12", "0", "23", "24", "25", "30", "32", "24", "2", "4", "5", "8", "8", "10", "28", "1", "0"], "time": [1838, 1954, 2121, 2522, 3188, 3221, 3254, 3321, 3571, 3677, 4436, 5536, 5603, 5728, 6086, 11433, 11832, 11882, 11948, 12132, 12739]}, "edge": {"target": [], "time": []}}, "mouseout": {"state": {"target": ["5", "2", "1", "1", "7", "15", "14", "12", "0", "23", "24", "25", "30", "32", "24", "2", "4", "5", "8", "8", "10", "28", "1"], "time": [680, 789, 889, 1887, 1988, 2187, 3154, 3205, 3237, 3304, 3488, 3654, 4337, 5486, 5553, 5643, 6011, 10035, 11482, 11865, 11898, 12066, 12415]}, "edge": {"target": [], "time": []}}}, "displayed_time": "18.30", "trialTime": 20199, "trial_type": "mouselab-mdp", "trial_index": 54, "time_elapsed": 2413387, "internal_node_id": "0.0-6.0-1.0-39.0"}}, {"uniqueid": "w66652472:a51376066", "current_trial": 55, "dateTime": 1693567138501, "trialdata": {"rt": 63837, "response": {"Q0": "$-16 to 16", "Q1": "$-16 to $16", "Q2": "$-88 to $88", "Q3": "The cost for clicking on nodes varied between nodes.", "Q4": "Very unmotivated"}, "question_order": [0, 1, 2, 3, 4], "trial_id": "final_quiz_control", "trial_type": "survey-multi-choice", "trial_index": 55, "time_elapsed": 2477233, "internal_node_id": "0.0-6.0-2.0"}}, {"uniqueid": "w66652472:a51376066", "current_trial": 56, "dateTime": 1693567194972, "trialdata": {"rt": 56455, "response": {"Q0": "To click on furthest nodes first", "Q1": "I stuck to the same system from round 6", "Q2": "Not too complicated"}, "trial_id": "self_report_control", "trial_type": "survey-text", "trial_index": 56, "time_elapsed": 2533704, "internal_node_id": "0.0-6.0-3.0"}}, {"uniqueid": "w66652472:a51376066", "current_trial": 57, "dateTime": 1693567264984, "trialdata": {"rt": 70006, "response": {"Q0": "Disagree", "Q1": "Disagree", "Q2": "Neither disagree nor agree", "Q3": "Disagree", "Q4": "Agree", "Q5": "Disagree", "Q6": "Agree"}, "question_order": [0, 1, 2, 3, 4, 5, 6], "trial_id": "self_report_2", "trial_type": "survey-multi-choice", "trial_index": 57, "time_elapsed": 2603716, "internal_node_id": "0.0-6.0-4.0"}}, {"uniqueid": "w66652472:a51376066", "current_trial": 58, "dateTime": 1693567306939, "trialdata": {"rt": 41948, "response": {"gender": "male", "age": "42", "colorblind": "0", "effort": "0"}, "trial_type": "survey-html-form", "trial_index": 58, "time_elapsed": 2645671, "internal_node_id": "0.0-6.0-5.0"}}, {"uniqueid": "w66652472:a51376066", "current_trial": 59, "dateTime": 1693567379935, "trialdata": {"rt": 72992, "response": {"Q0": "no", "Q1": "No I do not remember doing anything similar", "Q2": ""}, "trial_type": "survey-text", "trial_index": 59, "time_elapsed": 2718667, "internal_node_id": "0.0-6.0-6.0"}}, {"uniqueid": "w66652472:a51376066", "current_trial": 60, "dateTime": 1693567386109, "trialdata": {"rt": 6167, "stimulus": "<h1>Completion Code Instructions (1/2)</h1>\n<br><br><br><br>\nYou have reached the end of the experiment! The completion code consists of two parts: (1) a code with 2 characters (2) a code with 6 characters. On this page, you will receive the second part of the code. The first part of the completion code will be on the next page.\n<br><br>\nThe second part of your completion code is: <b>EWEK22</b>\n<br><br>\nPlease note this down. Then, press 'Finish HIT' in order to find the first part of your completion code. Once the data has been saved, you will receive this code either in this window or in the original browser window where you started the experiment.\n", "response": 0, "trial_type": "html-button-response", "trial_index": 60, "time_elapsed": 2724841, "internal_node_id": "0.0-6.0-7.0"}}], "questiondata": {"params": {"CODE": "C6DMOQA6", "MIN_TIME": 14, "inspectCost": 1, "startTime": "Fri Sep 01 2023 12:37:39 GMT+0200 (South Africa Standard Time)", "bonusRate": 0.002, "variance": "1_2_4_8_44", "branching": "31123"}}, "eventdata": [{"eventtype": "initialized", "value": null, "timestamp": 1693564658604, "interval": 0}, {"eventtype": "window_resize", "value": [1028, 744], "timestamp": 1693564658604, "interval": 0}, {"eventtype": "window_resize", "value": [1028, 744], "timestamp": 1693564659125, "interval": 521}, {"eventtype": "window_resize", "value": [1536, 864], "timestamp": 1693564674713, "interval": 15588}, {"eventtype": "focus", "value": "off", "timestamp": 1693565079930, "interval": 405217}, {"eventtype": "focus", "value": "on", "timestamp": 1693565079930, "interval": 0}, {"eventtype": "window_resize", "value": [1028, 744], "timestamp": 1693565080138, "interval": 208}, {"eventtype": "window_resize", "value": [1536, 864], "timestamp": 1693565081673, "interval": 1535}], "useragent": "Mozilla/5.0 (Windows NT 10.0; Win64; x64) AppleWebKit/537.36 (KHTML, like Gecko) Chrome/116.0.0.0 Safari/537.36", "mode": "live", "id": "w66652472:a51376066", "status": "user data saved", "Beginhit": "2023-09-01 10:37:34.393024", "Beginexp": "2023-09-01 10:37:55.632955", "Endhit": "2023-09-01 11:23:16.769898", "psiturkStatus": 3, "browser": "<redacted>", "platform": "windows", "language": "en-US"}