{"condition": 0, "counterbalance": 0, "assignmentId": "a57477829", "workerId": "w17630596", "hitId": "h16944951", "currenttrial": 13, "bonus": 0, "data": [{"uniqueid": "w17630596:a57477829", "current_trial": 0, "dateTime": 1691159584977, "trialdata": {"success": true, "trial_type": "fullscreen", "trial_index": 0, "time_elapsed": 15882, "internal_node_id": "0.0-0.0"}}, {"uniqueid": "w17630596:a57477829", "current_trial": 1, "dateTime": 1691159654543, "trialdata": {"view_history": [{"page_index": 0, "viewing_time": 69534}], "rt": 69537, "trial_id": "exp_instructions_control", "trial_type": "instructions", "trial_index": 1, "time_elapsed": 85451, "internal_node_id": "0.0-1.0"}}, {"uniqueid": "w17630596:a57477829", "current_trial": 2, "dateTime": 1691159659730, "trialdata": {"success": true, "trial_type": "fullscreen", "trial_index": 2, "time_elapsed": 90637, "internal_node_id": "0.0-2.0-0.0"}}, {"uniqueid": "w17630596:a57477829", "current_trial": 3, "dateTime": 1691160113812, "trialdata": {"view_history": [{"page_index": 0, "viewing_time": 174804}, {"page_index": 1, "viewing_time": 6033}, {"page_index": 0, "viewing_time": 38258}, {"page_index": 1, "viewing_time": 969}, {"page_index": 0, "viewing_time": 58489}, {"page_index": 1, "viewing_time": 85281}, {"page_index": 0, "viewing_time": 4138}, {"page_index": 1, "viewing_time": 6632}, {"page_index": 2, "viewing_time": 47020}, {"page_index": 3, "viewing_time": 32447}], "rt": 454071, "trial_id": "mouselab_instructions_1_control", "trial_type": "instructions", "trial_index": 3, "time_elapsed": 544720, "internal_node_id": "0.0-2.0-1.0"}}, {"uniqueid": "w17630596:a57477829", "current_trial": 4, "dateTime": 1691160138104, "trialdata": {"revealed_states": [], "clicked_states": [], "num_clicks_accrued": [0, 0, 0, 0, 0, 0, 0, 0, 0, 0, 0, 0, 0], "stateRewards": ["", 10, 10, 10, 10, 10, 10, 10, -10, -10, 10, -10, 10, -10, 10, -10, 10, -10, 10, -10, 10, 10, 10, 10, 10, -10, -10, 10, 10, 10, 10, -10, -10, 10], "withholdReward": false, "trial_id": "practice_1", "block": "test", "trialIndex": 0, "score": 13.5, "costs": 0, "simulationMode": [null, null, null, null, null], "rewards": [10, 10, -10, -10, 10], "path": ["0", "0", "23", "24", "25", "26", "27"], "rt": [53, 1107, 302, 1617, 616], "actions": ["left", "left", "left", "up", "up"], "actionTimes": [6696, 7948, 8811, 10970, 12145], "queries": {"click": {"state": {"target": [], "time": []}, "edge": {"target": [], "time": []}}, "mouseover": {"state": {"target": [], "time": []}, "edge": {"target": [], "time": []}}, "mouseout": {"state": {"target": ["0", "0"], "time": [2599, 16352]}, "edge": {"target": [], "time": []}}}, "displayed_time": "12.72", "trialTime": 21985, "trial_type": "mouselab-mdp", "trial_index": 4, "time_elapsed": 569010, "internal_node_id": "0.0-2.0-2.0-0.0"}}, {"uniqueid": "w17630596:a57477829", "current_trial": 5, "dateTime": 1691160153326, "trialdata": {"revealed_states": [], "clicked_states": [], "num_clicks_accrued": [0, 0, 0, 0, 0, 0, 0, 0, 0, 0, 0, 0, 0], "stateRewards": ["", -10, 10, -10, -10, 10, -10, 10, -10, 10, -10, -10, -10, -10, 10, -10, -10, 10, 10, 10, -10, 10, 10, -10, 10, 10, -10, 10, 10, -10, 10, -10, -10, -10], "withholdReward": false, "trial_id": "practice_2", "block": "test", "trialIndex": 1, "score": -6.5, "costs": 0, "simulationMode": [null, null, null, null, null], "rewards": [-10, 10, -10, -10, 10], "path": ["0", "0", "1", "2", "3", "8", "9"], "rt": [1588, 506, 236, 258, 1074], "actions": ["up", "up", "up", "left", "up"], "actionTimes": [5301, 6334, 7103, 7893, 9526], "queries": {"click": {"state": {"target": [], "time": []}, "edge": {"target": [], "time": []}}, "mouseover": {"state": {"target": [], "time": []}, "edge": {"target": [], "time": []}}, "mouseout": {"state": {"target": ["23", "0"], "time": [1596, 11130]}, "edge": {"target": [], "time": []}}}, "displayed_time": "10.08", "trialTime": 13568, "trial_type": "mouselab-mdp", "trial_index": 5, "time_elapsed": 584231, "internal_node_id": "0.0-2.0-2.0-1.0"}}, {"uniqueid": "w17630596:a57477829", "current_trial": 6, "dateTime": 1691160205292, "trialdata": {"view_history": [{"page_index": 0, "viewing_time": 34818}, {"page_index": 1, "viewing_time": 17141}], "rt": 51960, "trial_id": "mouselab_instructions_2_control", "trial_type": "instructions", "trial_index": 6, "time_elapsed": 636200, "internal_node_id": "0.0-2.0-3.0"}}, {"uniqueid": "w17630596:a57477829", "current_trial": 7, "dateTime": 1691160261222, "trialdata": {"rt": 55901, "response": {"Q0": "The cost for clicking on nodes may vary between nodes.", "Q1": "The better I perform the higher my bonus will be.", "Q2": "No, the structure of the web will be different each time.", "Q3": "To finish the game in the shortest amount of time.", "Q4": "Only after moving the spider.", "Q5": "3 seconds"}, "question_order": [0, 1, 2, 3, 4, 5], "correct": {"Q0": "The cost for clicking on nodes may vary between nodes.", "Q1": "The better I perform the higher my bonus will be.", "Q2": "No, the amount of cash at each node of the web may be different each time.", "Q3": "To get the highest total score.", "Q4": "Only before moving the spider.", "Q5": "3 seconds"}, "trial_id": "mouselab_quiz_control", "trial_type": "survey-multi-choice", "trial_index": 7, "time_elapsed": 692129, "internal_node_id": "0.0-2.0-4.0"}}, {"uniqueid": "w17630596:a57477829", "current_trial": 8, "dateTime": 1691160274771, "trialdata": {"success": true, "trial_type": "fullscreen", "trial_index": 8, "time_elapsed": 705679, "internal_node_id": "0.0-2.1-0.1"}}, {"uniqueid": "w17630596:a57477829", "current_trial": 9, "dateTime": 1691160383537, "trialdata": {"view_history": [{"page_index": 0, "viewing_time": 58989}, {"page_index": 1, "viewing_time": 13681}, {"page_index": 2, "viewing_time": 9481}, {"page_index": 3, "viewing_time": 26612}], "rt": 108764, "trial_id": "mouselab_instructions_1_control", "trial_type": "instructions", "trial_index": 9, "time_elapsed": 814445, "internal_node_id": "0.0-2.1-1.1"}}, {"uniqueid": "w17630596:a57477829", "current_trial": 10, "dateTime": 1691160423022, "trialdata": {"revealed_states": [], "clicked_states": ["23", "24", "25", "26", "29"], "num_clicks_accrued": [0, 0, 0, 0, 0, 0, 0, 0, 0, 0, 0, 0, 0], "stateRewards": ["", 10, 10, 10, 10, 10, 10, 10, -10, -10, 10, -10, 10, -10, 10, -10, 10, -10, 10, -10, 10, 10, 10, 10, 10, -10, -10, 10, 10, 10, 10, -10, -10, 10], "withholdReward": false, "trial_id": "practice_1", "block": "test", "trialIndex": 2, "score": 11, "costs": -2.5, "simulationMode": [null, null, null, null, null], "rewards": [10, -10, 10, -10, 10], "path": ["0", "0", "12", "13", "14", "19", "21"], "rt": [25162, 1793, 383, 1081, 260], "actions": ["right", "right", "right", "down", "down"], "actionTimes": [28396, 30742, 31673, 33292, 34085], "queries": {"click": {"state": {"target": ["23", "24", "25", "26", "29"], "time": [4512, 5795, 6867, 8384, 9465]}, "edge": {"target": [], "time": []}}, "mouseover": {"state": {"target": ["23", "24", "25", "26", "29", "13"], "time": [4123, 5182, 6468, 7678, 8787, 10977]}, "edge": {"target": [], "time": []}}, "mouseout": {"state": {"target": ["0", "23", "24", "25", "26", "29", "26", "13", "12"], "time": [1564, 4856, 6289, 7518, 8525, 10064, 10232, 13754, 32882]}, "edge": {"target": [], "time": []}}}, "displayed_time": "34.62", "trialTime": 37653, "trial_type": "mouselab-mdp", "trial_index": 10, "time_elapsed": 853928, "internal_node_id": "0.0-2.1-2.1-0.1"}}, {"uniqueid": "w17630596:a57477829", "current_trial": 11, "dateTime": 1691160441086, "trialdata": {"revealed_states": [], "clicked_states": [], "num_clicks_accrued": [0, 0, 0, 0, 0, 0, 0, 0, 0, 0, 0, 0, 0], "stateRewards": ["", -10, 10, -10, -10, 10, -10, 10, -10, 10, -10, -10, -10, -10, 10, -10, -10, 10, 10, 10, -10, 10, 10, -10, 10, 10, -10, 10, 10, -10, 10, -10, -10, -10], "withholdReward": false, "trial_id": "practice_2", "block": "test", "trialIndex": 3, "score": -6.5, "costs": 0, "simulationMode": [null, null, null, null, null], "rewards": [-10, 10, -10, -10, 10], "path": ["0", "0", "1", "2", "3", "4", "7"], "rt": [2517, 8, 152, 760, 824], "actions": ["up", "up", "up", "right", "down"], "actionTimes": [7266, 7848, 8562, 9867, 11235], "queries": {"click": {"state": {"target": [], "time": []}, "edge": {"target": [], "time": []}}, "mouseover": {"state": {"target": [], "time": []}, "edge": {"target": [], "time": []}}, "mouseout": {"state": {"target": ["25", "24", "23", "23", "24"], "time": [2685, 2737, 2780, 10976, 12804]}, "edge": {"target": [], "time": []}}}, "displayed_time": "11.80", "trialTime": 15829, "trial_type": "mouselab-mdp", "trial_index": 11, "time_elapsed": 871992, "internal_node_id": "0.0-2.1-2.1-1.1"}}, {"uniqueid": "w17630596:a57477829", "current_trial": 12, "dateTime": 1691160458395, "trialdata": {"view_history": [{"page_index": 0, "viewing_time": 15081}, {"page_index": 1, "viewing_time": 2217}], "rt": 17300, "trial_id": "mouselab_instructions_2_control", "trial_type": "instructions", "trial_index": 12, "time_elapsed": 889303, "internal_node_id": "0.0-2.1-3.1"}}], "questiondata": {"params": {"CODE": "C6DMOQA6", "MIN_TIME": 14, "inspectCost": 1, "startTime": "Fri Aug 04 2023 16:32:45 GMT+0200 (South Africa Standard Time)", "bonusRate": 0.002, "variance": "1_2_4_8_44", "branching": "31123"}}, "eventdata": [{"eventtype": "initialized", "value": null, "timestamp": 1691159564872, "interval": 0}, {"eventtype": "window_resize", "value": [1024, 654], "timestamp": 1691159564872, "interval": 0}, {"eventtype": "window_resize", "value": [1024, 654], "timestamp": 1691159565680, "interval": 808}, {"eventtype": "window_resize", "value": [1366, 768], "timestamp": 1691159584397, "interval": 18717}, {"eventtype": "focus", "value": "off", "timestamp": 1691160271436, "interval": 687039}, {"eventtype": "focus", "value": "on", "timestamp": 1691160271437, "interval": 1}, {"eventtype": "window_resize", "value": [1024, 654], "timestamp": 1691160271810, "interval": 373}, {"eventtype": "window_resize", "value": [1366, 768], "timestamp": 1691160274120, "interval": 2310}], "useragent": "Mozilla/5.0 (Windows NT 10.0; Win64; x64) AppleWebKit/537.36 (KHTML, like Gecko) Chrome/115.0.0.0 Safari/537.36", "mode": "live", "id": "w17630596:a57477829", "status": "user data saved", "Beginhit": "2023-08-04 14:32:40.833922", "Beginexp": "2023-08-04 14:33:05.76016", "Endhit": null, "psiturkStatus": 2, "browser": "<redacted>", "platform": "windows", "language": "en-US", "excludeReason": "quizfail"}