{"condition": 1, "counterbalance": 0, "assignmentId": "a53817581", "workerId": "w34940702", "hitId": "h16962110", "currenttrial": 9, "bonus": 0, "data": [{"uniqueid": "w34940702:a53817581", "current_trial": 0, "dateTime": 1691161805779, "trialdata": {"success": true, "trial_type": "fullscreen", "trial_index": 0, "time_elapsed": 5354, "internal_node_id": "0.0-0.0"}}, {"uniqueid": "w34940702:a53817581", "current_trial": 1, "dateTime": 1691161818639, "trialdata": {"view_history": [{"page_index": 0, "viewing_time": 12852}], "rt": 12853, "trial_id": "exp_instructions_misaligned", "trial_type": "instructions", "trial_index": 1, "time_elapsed": 18214, "internal_node_id": "0.0-1.0"}}, {"uniqueid": "w34940702:a53817581", "current_trial": 2, "dateTime": 1691161823657, "trialdata": {"success": true, "trial_type": "fullscreen", "trial_index": 2, "time_elapsed": 23233, "internal_node_id": "0.0-2.0-0.0"}}, {"uniqueid": "w34940702:a53817581", "current_trial": 3, "dateTime": 1691161888933, "trialdata": {"view_history": [{"page_index": 0, "viewing_time": 21160}, {"page_index": 1, "viewing_time": 25104}, {"page_index": 2, "viewing_time": 9968}, {"page_index": 3, "viewing_time": 9040}], "rt": 65272, "trial_id": "mouselab_instructions_1_misaligned", "trial_type": "instructions", "trial_index": 3, "time_elapsed": 88509, "internal_node_id": "0.0-2.0-1.0"}}, {"uniqueid": "w34940702:a53817581", "current_trial": 4, "dateTime": 1691161914329, "trialdata": {"revealed_states": [], "clicked_states": [], "num_clicks_accrued": [0, 0, 0, 0, 0, 0, 0, 0, 0, 0, 0, 0, 0], "stateRewards": ["", -10, -10, 10, 10, -10, -10, 10, -10, 10, 10, -10, -10, 10, 10, -10, 10, -10, -10, -10, -10, -10, 10, 10, 10, -10, -10, -10, -10, 10, 10, -10, 10, -10], "withholdReward": false, "trial_id": "practice_1", "block": "test", "trialIndex": 0, "score": -6.5, "costs": 0, "simulationMode": [null, null, null, null, null], "rewards": [-10, -10, 10, 10, -10], "path": ["0", "0", "1", "2", "3", "4", "5"], "rt": [7161, 3315, 933, 438, 1647], "actions": ["up", "up", "up", "right", "up"], "actionTimes": [12548, 16376, 17808, 18752, 20904], "queries": {"click": {"state": {"target": [], "time": []}, "edge": {"target": [], "time": []}}, "mouseover": {"state": {"target": [], "time": []}, "edge": {"target": [], "time": []}}, "mouseout": {"state": {"target": ["0"], "time": [4674]}, "edge": {"target": [], "time": []}}}, "displayed_time": "21.41", "trialTime": 24720, "trial_type": "mouselab-mdp", "trial_index": 4, "time_elapsed": 113904, "internal_node_id": "0.0-2.0-2.0-0.0"}}, {"uniqueid": "w34940702:a53817581", "current_trial": 5, "dateTime": 1691161931968, "trialdata": {"revealed_states": [], "clicked_states": [], "num_clicks_accrued": [0, 0, 0, 0, 0, 0, 0, 0, 0, 0, 0, 0, 0], "stateRewards": ["", 10, 10, 10, -10, 10, -10, 10, 10, -10, 10, 10, 10, -10, 10, 10, -10, -10, 10, -10, 10, 10, -10, 10, 10, 10, 10, -10, -10, 10, -10, -10, -10, -10], "withholdReward": false, "trial_id": "practice_2", "block": "test", "trialIndex": 1, "score": 33.5, "costs": 0, "simulationMode": [null, null, null, null, null], "rewards": [10, 10, 10, 10, -10], "path": ["0", "0", "23", "24", "25", "26", "28"], "rt": [3788, 811, 840, 464, 1081], "actions": ["left", "left", "left", "up", "right"], "actionTimes": [7855, 9166, 10510, 11470, 13070], "queries": {"click": {"state": {"target": [], "time": []}, "edge": {"target": [], "time": []}}, "mouseover": {"state": {"target": [], "time": []}, "edge": {"target": [], "time": []}}, "mouseout": {"state": {"target": ["0", "12", "0"], "time": [2636, 3153, 16171]}, "edge": {"target": [], "time": []}}}, "displayed_time": "13.57", "trialTime": 17374, "trial_type": "mouselab-mdp", "trial_index": 5, "time_elapsed": 131543, "internal_node_id": "0.0-2.0-2.0-1.0"}}, {"uniqueid": "w34940702:a53817581", "current_trial": 6, "dateTime": 1691161953701, "trialdata": {"view_history": [{"page_index": 0, "viewing_time": 11695}, {"page_index": 1, "viewing_time": 10032}], "rt": 21727, "trial_id": "mouselab_instructions_2_misaligned", "trial_type": "instructions", "trial_index": 6, "time_elapsed": 153276, "internal_node_id": "0.0-2.0-3.0"}}, {"uniqueid": "w34940702:a53817581", "current_trial": 7, "dateTime": 1691162006717, "trialdata": {"rt": 53012, "response": {"Q0": "There is no cost for clicking on nodes.", "Q1": "The better I perform the higher my bonus will be.", "Q2": "No, the amount of cash at each node of the web may be different each time.", "Q3": "To get the highest total score.", "Q4": "Only before moving the spider.", "Q5": "3 seconds"}, "question_order": [0, 1, 2, 3, 4, 5], "correct": {"Q0": "The cost for clicking on nodes may vary between nodes.", "Q1": "The better I perform the higher my bonus will be.", "Q2": "No, the amount of cash at each node of the web may be different each time.", "Q3": "To get the highest total score.", "Q4": "Only before moving the spider.", "Q5": "3 seconds"}, "trial_id": "mouselab_quiz_misaligned", "trial_type": "survey-multi-choice", "trial_index": 7, "time_elapsed": 206293, "internal_node_id": "0.0-2.0-4.0"}}, {"uniqueid": "w34940702:a53817581", "current_trial": 8, "dateTime": 1691162017949, "trialdata": {"success": true, "trial_type": "fullscreen", "trial_index": 8, "time_elapsed": 217525, "internal_node_id": "0.0-2.1-0.1"}}], "questiondata": {"params": {"CODE": "C6DMOQA6", "MIN_TIME": 14, "inspectCost": 1, "startTime": "Fri Aug 04 2023 17:09:58 GMT+0200 (South Africa Standard Time)", "bonusRate": 0.002, "variance": "1_2_4_8_44", "branching": "31123"}}, "eventdata": [{"eventtype": "initialized", "interval": 0, "timestamp": 1691159663586, "value": null}, {"eventtype": "window_resize", "interval": 0, "timestamp": 1691159663586, "value": [1024, 767]}, {"eventtype": "window_resize", "interval": 503, "timestamp": 1691159664089, "value": [1024, 767]}, {"eventtype": "window_resize", "value": [1024, 767], "timestamp": 1691161798607, "interval": 2134518}, {"eventtype": "window_resize", "value": [1600, 900], "timestamp": 1691161805014, "interval": 6407}, {"eventtype": "focus", "value": "off", "timestamp": 1691162014288, "interval": 209274}, {"eventtype": "focus", "value": "on", "timestamp": 1691162014288, "interval": 0}, {"eventtype": "window_resize", "value": [1024, 767], "timestamp": 1691162014496, "interval": 208}, {"eventtype": "window_resize", "value": [1600, 900], "timestamp": 1691162017163, "interval": 2667}, {"eventtype": "window_resize", "value": [1024, 767], "timestamp": 1691162021515, "interval": 4352}], "useragent": "Mozilla/5.0 (Windows NT 10.0; Win64; x64) AppleWebKit/537.36 (KHTML, like Gecko) Chrome/115.0.0.0 Safari/537.36", "mode": "live", "id": "w34940702:a53817581", "status": "user data saved", "Beginhit": "2023-08-04 14:34:19.831158", "Beginexp": "2023-08-04 15:10:06.113318", "Endhit": null, "psiturkStatus": 6, "browser": "<redacted>", "platform": "windows", "language": "en-US", "excludeReason": "quizfail"}