{"condition": 0, "counterbalance": 0, "assignmentId": "a24353449", "workerId": "w24516730", "hitId": "h25708788", "currenttrial": 61, "bonus": 0, "data": [{"uniqueid": "w24516730:a24353449", "current_trial": 0, "dateTime": 1691142256069, "trialdata": {"success": true, "trial_type": "fullscreen", "trial_index": 0, "time_elapsed": 6140, "internal_node_id": "0.0-0.0"}}, {"uniqueid": "w24516730:a24353449", "current_trial": 1, "dateTime": 1691142272746, "trialdata": {"view_history": [{"page_index": 0, "viewing_time": 16673}], "rt": 16673, "trial_id": "exp_instructions_control", "trial_type": "instructions", "trial_index": 1, "time_elapsed": 22817, "internal_node_id": "0.0-1.0"}}, {"uniqueid": "w24516730:a24353449", "current_trial": 2, "dateTime": 1691142277750, "trialdata": {"success": true, "trial_type": "fullscreen", "trial_index": 2, "time_elapsed": 27822, "internal_node_id": "0.0-2.0-0.0"}}, {"uniqueid": "w24516730:a24353449", "current_trial": 3, "dateTime": 1691142472524, "trialdata": {"view_history": [{"page_index": 0, "viewing_time": 80623}, {"page_index": 1, "viewing_time": 81055}, {"page_index": 2, "viewing_time": 10840}, {"page_index": 3, "viewing_time": 22252}], "rt": 194771, "trial_id": "mouselab_instructions_1_control", "trial_type": "instructions", "trial_index": 3, "time_elapsed": 222596, "internal_node_id": "0.0-2.0-1.0"}}, {"uniqueid": "w24516730:a24353449", "current_trial": 4, "dateTime": 1691142499744, "trialdata": {"revealed_states": [], "clicked_states": ["12", "23", "13", "25"], "num_clicks_accrued": [0, 0, 0, 0, 0, 0, 0, 0, 0, 0, 0, 0, 0], "stateRewards": ["", -10, 10, -10, -10, 10, -10, -10, 10, -10, -10, -10, 10, -10, 10, -10, 10, 10, 10, -10, -10, -10, 10, 10, 10, -10, 10, -10, -10, -10, 10, -10, -10, -10], "withholdReward": false, "trial_id": "practice_1", "block": "test", "trialIndex": 0, "score": -8.5, "costs": -2, "simulationMode": [null, null, null, null, null], "rewards": [10, -10, 10, -10, -10], "path": ["0", "0", "12", "13", "14", "19", "20"], "rt": [13270, 1379, 446, 195, 201], "actions": ["right", "right", "right", "down", "right"], "actionTimes": [16110, 17995, 18946, 19659, 20365], "queries": {"click": {"state": {"target": ["12", "23", "13", "25"], "time": [5344, 9854, 12499, 14683]}, "edge": {"target": [], "time": []}}, "mouseover": {"state": {"target": ["12", "0", "23", "23", "12", "13", "12", "0", "24", "25", "24"], "time": [4196, 7563, 7881, 9329, 12096, 12296, 13513, 13645, 13945, 14247, 15314]}, "edge": {"target": [], "time": []}}, "mouseout": {"state": {"target": ["12", "0", "0", "12", "0", "23", "23", "12", "13", "12", "0", "23", "24", "25", "24"], "time": [611, 679, 4098, 7214, 7796, 8097, 10647, 12128, 13480, 13596, 13731, 13846, 14030, 15280, 15480]}, "edge": {"target": [], "time": []}}}, "displayed_time": "20.88", "trialTime": 25110, "trial_type": "mouselab-mdp", "trial_index": 4, "time_elapsed": 249815, "internal_node_id": "0.0-2.0-2.0-0.0"}}, {"uniqueid": "w24516730:a24353449", "current_trial": 5, "dateTime": 1691142513191, "trialdata": {"revealed_states": [], "clicked_states": [], "num_clicks_accrued": [0, 0, 0, 0, 0, 0, 0, 0, 0, 0, 0, 0, 0], "stateRewards": ["", -10, -10, 10, -10, 10, -10, 10, 10, -10, 10, -10, 10, -10, 10, -10, -10, -10, -10, -10, 10, -10, 10, 10, -10, 10, 10, -10, -10, -10, -10, 10, -10, 10], "withholdReward": false, "trial_id": "practice_2", "block": "test", "trialIndex": 1, "score": -6.5, "costs": 0, "simulationMode": [null, null, null, null, null], "rewards": [-10, -10, 10, 10, -10], "path": ["0", "0", "1", "2", "3", "8", "11"], "rt": [2782, 1003, 634, 429, 1198], "actions": ["up", "up", "up", "left", "left"], "actionTimes": [5321, 6830, 7976, 8921, 10623], "queries": {"click": {"state": {"target": [], "time": []}, "edge": {"target": [], "time": []}}, "mouseover": {"state": {"target": [], "time": []}, "edge": {"target": [], "time": []}}, "mouseout": {"state": {"target": ["20", "19", "13", "12", "0"], "time": [1391, 1456, 1723, 1908, 2374]}, "edge": {"target": [], "time": []}}}, "displayed_time": "11.13", "trialTime": 13320, "trial_type": "mouselab-mdp", "trial_index": 5, "time_elapsed": 263263, "internal_node_id": "0.0-2.0-2.0-1.0"}}, {"uniqueid": "w24516730:a24353449", "current_trial": 6, "dateTime": 1691142535352, "trialdata": {"view_history": [{"page_index": 0, "viewing_time": 13175}, {"page_index": 1, "viewing_time": 8984}], "rt": 22159, "trial_id": "mouselab_instructions_2_control", "trial_type": "instructions", "trial_index": 6, "time_elapsed": 285424, "internal_node_id": "0.0-2.0-3.0"}}, {"uniqueid": "w24516730:a24353449", "current_trial": 7, "dateTime": 1691142577645, "trialdata": {"rt": 42287, "response": {"Q0": "The cost for clicking on nodes may vary between nodes.", "Q1": "The better I perform the higher my bonus will be.", "Q2": "No, the structure of the web will be different each time.", "Q3": "To get the highest total score.", "Q4": "Only before moving the spider.", "Q5": "3 seconds"}, "question_order": [0, 1, 2, 3, 4, 5], "correct": {"Q0": "The cost for clicking on nodes may vary between nodes.", "Q1": "The better I perform the higher my bonus will be.", "Q2": "No, the amount of cash at each node of the web may be different each time.", "Q3": "To get the highest total score.", "Q4": "Only before moving the spider.", "Q5": "3 seconds"}, "trial_id": "mouselab_quiz_control", "trial_type": "survey-multi-choice", "trial_index": 7, "time_elapsed": 327717, "internal_node_id": "0.0-2.0-4.0"}}, {"uniqueid": "w24516730:a24353449", "current_trial": 8, "dateTime": 1691142586431, "trialdata": {"success": true, "trial_type": "fullscreen", "trial_index": 8, "time_elapsed": 336503, "internal_node_id": "0.0-2.1-0.1"}}, {"uniqueid": "w24516730:a24353449", "current_trial": 9, "dateTime": 1691142686168, "trialdata": {"view_history": [{"page_index": 0, "viewing_time": 49710}, {"page_index": 1, "viewing_time": 9112}, {"page_index": 2, "viewing_time": 19612}, {"page_index": 3, "viewing_time": 21299}], "rt": 99734, "trial_id": "mouselab_instructions_1_control", "trial_type": "instructions", "trial_index": 9, "time_elapsed": 436240, "internal_node_id": "0.0-2.1-1.1"}}, {"uniqueid": "w24516730:a24353449", "current_trial": 10, "dateTime": 1691142727167, "trialdata": {"revealed_states": [], "clicked_states": ["12", "1", "23", "24", "25", "26", "29", "27", "28", "30", "31", "33", "32"], "num_clicks_accrued": [0, 0, 0, 0, 0, 0, 0, 0, 0, 0, 0, 0, 0], "stateRewards": ["", -10, 10, -10, -10, 10, -10, -10, 10, -10, -10, -10, 10, -10, 10, -10, 10, 10, 10, -10, -10, -10, 10, 10, 10, -10, 10, -10, -10, -10, 10, -10, -10, -10], "withholdReward": false, "trial_id": "practice_1", "block": "test", "trialIndex": 2, "score": 7, "costs": -6.5, "simulationMode": [null, null, null, null, null], "rewards": [10, 10, -10, 10, -10], "path": ["0", "0", "23", "24", "25", "30", "31"], "rt": [31144, 426, 500, 356, 341], "actions": ["left", "left", "left", "down", "right"], "actionTimes": [33312, 34258, 35268, 36138, 36990], "queries": {"click": {"state": {"target": ["12", "1", "23", "24", "25", "26", "29", "27", "28", "30", "31", "33", "32"], "time": [3206, 4437, 6917, 8760, 10440, 13032, 15604, 17348, 18732, 20184, 22319, 24402, 25893]}, "edge": {"target": [], "time": []}}, "mouseover": {"state": {"target": ["12", "1", "23", "24", "25", "26", "26", "29", "27", "28", "25", "30", "31", "25", "33", "32", "30", "25", "24", "23", "0", "12", "0"], "time": [2964, 4263, 6630, 7815, 10081, 12349, 12914, 15498, 17213, 18348, 19814, 20098, 20732, 23215, 24181, 25646, 27448, 27781, 28829, 28914, 29046, 29330, 31464]}, "edge": {"target": [], "time": []}}, "mouseout": {"state": {"target": ["0", "0", "12", "1", "23", "23", "24", "25", "25", "26", "26", "26", "29", "26", "27", "28", "28", "25", "30", "31", "25", "30", "33", "32", "30", "25", "24", "23", "0", "12", "0"], "time": [1830, 2681, 3898, 6132, 6921, 7715, 9830, 10566, 11882, 12587, 13632, 15113, 16265, 17015, 17698, 18736, 19716, 19932, 20188, 23098, 23881, 24015, 25149, 25898, 27548, 28797, 28863, 29031, 29231, 31414, 38515]}, "edge": {"target": [], "time": []}}}, "displayed_time": "37.50", "trialTime": 40854, "trial_type": "mouselab-mdp", "trial_index": 10, "time_elapsed": 477238, "internal_node_id": "0.0-2.1-2.1-0.1"}}, {"uniqueid": "w24516730:a24353449", "current_trial": 11, "dateTime": 1691142766006, "trialdata": {"revealed_states": [], "clicked_states": ["12", "13", "23", "24", "14", "25", "26", "29", "28", "27", "30", "31", "19", "15", "18", "1"], "num_clicks_accrued": [0, 0, 0, 0, 0, 0, 0, 0, 0, 0, 0, 0, 0], "stateRewards": ["", -10, -10, 10, -10, 10, -10, 10, 10, -10, 10, -10, 10, -10, 10, -10, -10, -10, -10, -10, 10, -10, 10, 10, -10, 10, 10, -10, -10, -10, -10, 10, -10, 10], "withholdReward": false, "trial_id": "practice_2", "block": "test", "trialIndex": 3, "score": 5.5, "costs": -8, "simulationMode": [null, null, null, null, null], "rewards": [10, -10, 10, -10, 10], "path": ["0", "0", "23", "24", "25", "30", "31"], "rt": [30786, 525, 258, 221, 214], "actions": ["left", "left", "left", "down", "right"], "actionTimes": [32706, 33739, 34505, 35235, 35962], "queries": {"click": {"state": {"target": ["12", "13", "23", "24", "14", "25", "26", "29", "28", "27", "30", "31", "19", "15", "18", "1"], "time": [2781, 4618, 6699, 9110, 10406, 12040, 13578, 15279, 17057, 18420, 20499, 21841, 23610, 25512, 27097, 28317]}, "edge": {"target": [], "time": []}}, "mouseover": {"state": {"target": ["12", "13", "22", "0", "23", "0", "12", "12", "0", "24", "24", "0", "12", "14", "13", "25", "26", "29", "28", "26", "27", "24", "30", "31", "33", "22", "19", "19", "22", "14", "15", "18", "13", "12", "1", "2", "23", "24", "31", "31"], "time": [2497, 4413, 5480, 6195, 6513, 6963, 7197, 8095, 8128, 8396, 8780, 9665, 9699, 9748, 10814, 11314, 12732, 15062, 16115, 17798, 18067, 18747, 20430, 20897, 22265, 23163, 23194, 23429, 24180, 25046, 25246, 26912, 27615, 27915, 28147, 28847, 30047, 30246, 30429, 31097]}, "edge": {"target": [], "time": []}}, "mouseout": {"state": {"target": ["13", "12", "0", "12", "13", "13", "22", "13", "12", "0", "23", "0", "12", "13", "12", "0", "23", "24", "24", "24", "24", "23", "0", "12", "14", "13", "25", "26", "29", "26", "28", "26", "27", "28", "24", "30", "31", "30", "33", "22", "19", "19", "22", "14", "15", "15", "18", "13", "12", "1", "2", "1", "23", "24", "31", "31"], "time": [1295, 1563, 2396, 3081, 4697, 4964, 5688, 6113, 6179, 6229, 6913, 7029, 7263, 8079, 8111, 8162, 8246, 8562, 9115, 9465, 9616, 9649, 9682, 9715, 10764, 10897, 12531, 15031, 15284, 15949, 17415, 17981, 18630, 18714, 18847, 20515, 22098, 22249, 23046, 23178, 23245, 24130, 25013, 25095, 25898, 26879, 27548, 27665, 27931, 28322, 29780, 29845, 30145, 30261, 31030, 31546]}, "edge": {"target": [], "time": []}}}, "displayed_time": "36.48", "trialTime": 38709, "trial_type": "mouselab-mdp", "trial_index": 11, "time_elapsed": 516077, "internal_node_id": "0.0-2.1-2.1-1.1"}}, {"uniqueid": "w24516730:a24353449", "current_trial": 12, "dateTime": 1691142831906, "trialdata": {"view_history": [{"page_index": 0, "viewing_time": 26368}, {"page_index": 1, "viewing_time": 39530}], "rt": 65898, "trial_id": "mouselab_instructions_2_control", "trial_type": "instructions", "trial_index": 12, "time_elapsed": 581978, "internal_node_id": "0.0-2.1-3.1"}}, {"uniqueid": "w24516730:a24353449", "current_trial": 13, "dateTime": 1691143017747, "trialdata": {"rt": 185838, "response": {"Q0": "The cost for clicking on nodes may vary between nodes.", "Q1": "The better I perform the higher my bonus will be.", "Q2": "No, the amount of cash at each node of the web may be different each time.", "Q3": "To get the highest total score.", "Q4": "Only before moving the spider.", "Q5": "3 seconds"}, "question_order": [0, 1, 2, 3, 4, 5], "correct": {"Q0": "The cost for clicking on nodes may vary between nodes.", "Q1": "The better I perform the higher my bonus will be.", "Q2": "No, the amount of cash at each node of the web may be different each time.", "Q3": "To get the highest total score.", "Q4": "Only before moving the spider.", "Q5": "3 seconds"}, "trial_id": "mouselab_quiz_control", "trial_type": "survey-multi-choice", "trial_index": 13, "time_elapsed": 767819, "internal_node_id": "0.0-2.1-4.1"}}, {"uniqueid": "w24516730:a24353449", "current_trial": 14, "dateTime": 1691143035316, "trialdata": {"rt": 17559, "stimulus": "\n<h1> Get ready to start the game! </h1>\n\nThank you for reading the instructions. Get ready start with the 40 rounds of this game.\n<br><br>\nIf you need to take a break, feel free to take one after the end of a round, before continuing to the next one.\n<br><br>\nRemember, the more money the spider gets, the bigger your bonus will be!\n<br><br>\n<div style='text-align: center;'>Press <code>space</code> to begin.</div>\n\n<br><br>\n(If, at any point, the <code>space</code> key does not take you to the next page, click once on the text and try again.)", "response": " ", "trial_id": "mdp_ready", "trial_type": "html-keyboard-response", "trial_index": 14, "time_elapsed": 785387, "internal_node_id": "0.0-4.0-0.0"}}, {"uniqueid": "w24516730:a24353449", "current_trial": 15, "dateTime": 1691143065741, "trialdata": {"revealed_states": [], "clicked_states": ["23", "12", "13", "14", "19", "15", "17"], "num_clicks_accrued": [0, 0, 0, 0, 0, 0, 0, 0, 0, 0, 0, 0, 0], "stateRewards": ["", -2, -1, -5, 10, -36, -70, 68, -9, 86, 71, -10, 2, -4, 7, -7, 66, 44, -66, -13, -69, 43, 15, -2, 2, 6, -13, 62, 57, 50, -10, -69, 42, -72], "withholdReward": false, "trial_id": "mdp_trial_1", "block": "test", "trialIndex": 4, "score": 32.2, "costs": -9.8, "simulationMode": [null, null, null, null, null], "rewards": [2, -4, 7, -7, 44], "path": ["0", "0", "12", "13", "14", "15", "17"], "rt": [20820, 39, 433, 624, 138], "actions": ["right", "right", "right", "up", "right"], "actionTimes": [23757, 24295, 25223, 26363, 27010], "queries": {"click": {"state": {"target": ["23", "12", "13", "14", "19", "15", "17"], "time": [4286, 6778, 8728, 10674, 13173, 15744, 18009]}, "edge": {"target": [], "time": []}}, "mouseover": {"state": {"target": ["0", "23", "23", "0", "0", "0", "12", "13", "14", "19", "15", "17", "14", "13", "12", "0"], "time": [3455, 3687, 4070, 4790, 6254, 6355, 6688, 8572, 10239, 12890, 15438, 17856, 18755, 19022, 20554, 21054]}, "edge": {"target": [], "time": []}}, "mouseout": {"state": {"target": ["1", "12", "0", "23", "23", "23", "0", "23", "23", "0", "0", "12", "12", "13", "14", "19", "19", "15", "17", "14", "13", "12"], "time": [1171, 1921, 3655, 3905, 4624, 4741, 4940, 5900, 6238, 6270, 6538, 6988, 7172, 9056, 11121, 13243, 15271, 17703, 18422, 18788, 20471, 20872]}, "edge": {"target": [], "time": []}}}, "displayed_time": "27.52", "trialTime": 30256, "trial_type": "mouselab-mdp", "trial_index": 15, "time_elapsed": 815812, "internal_node_id": "0.0-4.0-1.0-0.0"}}, {"uniqueid": "w24516730:a24353449", "current_trial": 16, "dateTime": 1691143091478, "trialdata": {"revealed_states": [], "clicked_states": ["23", "24", "25", "26", "27"], "num_clicks_accrued": [0, 0, 0, 0, 0, 0, 0, 0, 0, 0, 0, 0, 0], "stateRewards": ["", 2, -1, 5, 6, 10, 86, 55, 10, -45, 63, -71, 1, -2, 5, -8, -50, -72, 36, 15, 61, 12, 33, -1, -4, 6, 5, 79, -56, -21, -16, -87, 60, -81], "withholdReward": false, "trial_id": "mdp_trial_2", "block": "test", "trialIndex": 5, "score": 78, "costs": -7, "simulationMode": [null, null, null, null, null], "rewards": [-1, -4, 6, 5, 79], "path": ["0", "0", "23", "24", "25", "26", "27"], "rt": [15083, 691, 300, 793, 431], "actions": ["left", "left", "left", "up", "up"], "actionTimes": [17996, 19203, 20012, 21322, 22259], "queries": {"click": {"state": {"target": ["23", "24", "25", "26", "27"], "time": [4464, 6654, 9090, 11781, 14307]}, "edge": {"target": [], "time": []}}, "mouseover": {"state": {"target": ["0", "23", "24", "25", "26", "27"], "time": [3589, 4012, 6327, 8645, 11611, 14160]}, "edge": {"target": [], "time": []}}, "mouseout": {"state": {"target": ["0", "12", "0", "0", "23", "24", "25", "25", "26", "27", "26"], "time": [1206, 2411, 2662, 3894, 6293, 7378, 9834, 11378, 13944, 15063, 15614]}, "edge": {"target": [], "time": []}}}, "displayed_time": "22.76", "trialTime": 25583, "trial_type": "mouselab-mdp", "trial_index": 16, "time_elapsed": 841549, "internal_node_id": "0.0-4.0-1.0-1.0"}}, {"uniqueid": "w24516730:a24353449", "current_trial": 17, "dateTime": 1691143118529, "trialdata": {"revealed_states": [], "clicked_states": [], "num_clicks_accrued": [0, 0, 0, 0, 0, 0, 0, 0, 0, 0, 0, 0, 0], "stateRewards": ["", -2, -3, 1, -7, 39, -67, 16, 5, -20, 73, 66, -1, 4, 5, -3, 23, -68, -87, -8, 3, -3, 17, 1, -4, -2, -13, -32, 34, 61, -5, -11, -18, 12], "withholdReward": false, "trial_id": "mdp_trial_3", "block": "test", "trialIndex": 6, "score": 74, "costs": 0, "simulationMode": [null, null, null, null, null], "rewards": [-2, -3, 1, 5, 73], "path": ["0", "0", "1", "2", "3", "8", "10"], "rt": [11684, 528, 364, 862, 208], "actions": ["up", "up", "up", "left", "down"], "actionTimes": [20312, 21351, 22218, 23599, 24313], "queries": {"click": {"state": {"target": [], "time": []}, "edge": {"target": [], "time": []}}, "mouseover": {"state": {"target": ["12", "1", "12", "12", "13"], "time": [11086, 11570, 14019, 18736, 18970]}, "edge": {"target": [], "time": []}}, "mouseout": {"state": {"target": ["24", "23", "0", "12", "0", "12", "1", "12", "12"], "time": [919, 7185, 7252, 7519, 9253, 11102, 13648, 14269, 18853]}, "edge": {"target": [], "time": []}}}, "displayed_time": "24.82", "trialTime": 26894, "trial_type": "mouselab-mdp", "trial_index": 17, "time_elapsed": 868601, "internal_node_id": "0.0-4.0-1.0-2.0"}}, {"uniqueid": "w24516730:a24353449", "current_trial": 18, "dateTime": 1691143146112, "trialdata": {"revealed_states": [], "clicked_states": ["12", "1", "2", "3", "4", "5", "6"], "num_clicks_accrued": [0, 0, 0, 0, 0, 0, 0, 0, 0, 0, 0, 0, 0], "stateRewards": ["", 1, 2, -3, -6, 50, -7, 7, -7, -80, 21, -1, 2, 2, 4, -1, 33, 84, 1, 14, -53, 81, 6, -2, -2, -3, -9, -87, -38, -59, -5, -74, -3, -71], "withholdReward": false, "trial_id": "mdp_trial_4", "block": "test", "trialIndex": 7, "score": 34.2, "costs": -9.8, "simulationMode": [null, null, null, null, null], "rewards": [1, 2, -3, -6, 50], "path": ["0", "0", "1", "2", "3", "4", "5"], "rt": [17413, 471, 336, 130, 231], "actions": ["up", "up", "up", "right", "up"], "actionTimes": [20002, 20988, 21836, 22480, 23231], "queries": {"click": {"state": {"target": ["12", "1", "2", "3", "4", "5", "6"], "time": [3218, 5224, 8068, 9986, 11851, 14017, 17100]}, "edge": {"target": [], "time": []}}, "mouseover": {"state": {"target": ["0", "12", "0", "23", "1", "23", "2", "4", "3", "4", "5", "7", "6", "7", "7", "7"], "time": [2936, 2966, 3866, 3916, 4332, 7399, 7848, 8733, 8966, 10767, 13865, 14750, 16898, 17485, 18665, 18849]}, "edge": {"target": [], "time": []}}, "mouseout": {"state": {"target": ["13", "12", "0", "0", "12", "0", "23", "1", "23", "1", "2", "4", "3", "3", "4", "5", "4", "7", "6", "7", "7", "7"], "time": [1699, 1881, 2149, 2949, 3832, 3898, 3948, 7115, 7483, 7566, 8649, 8834, 10082, 10533, 13715, 14550, 14683, 16815, 17367, 18417, 18698, 18865]}, "edge": {"target": [], "time": []}}}, "displayed_time": "23.75", "trialTime": 27422, "trial_type": "mouselab-mdp", "trial_index": 18, "time_elapsed": 896183, "internal_node_id": "0.0-4.0-1.0-3.0"}}, {"uniqueid": "w24516730:a24353449", "current_trial": 19, "dateTime": 1691143164719, "trialdata": {"revealed_states": [], "clicked_states": ["24", "33"], "num_clicks_accrued": [0, 0, 0, 0, 0, 0, 0, 0, 0, 0, 0, 0, 0], "stateRewards": ["", -2, 2, -1, -6, 22, 6, 6, -5, 70, -42, 65, 1, 3, 5, -6, -67, -9, 3, 14, 7, -62, -13, -2, 4, 1, 16, 42, -21, -52, -8, 32, 53, 81], "withholdReward": false, "trial_id": "mdp_trial_5", "block": "test", "trialIndex": 8, "score": 73.2, "costs": -2.8, "simulationMode": [null, null, null, null, null], "rewards": [-2, 4, 1, -8, 81], "path": ["0", "0", "23", "24", "25", "30", "33"], "rt": [8001, 418, 307, 110, 81], "actions": ["left", "left", "left", "down", "left"], "actionTimes": [10892, 11817, 12639, 13260, 13847], "queries": {"click": {"state": {"target": ["24", "33"], "time": [4071, 7569]}, "edge": {"target": [], "time": []}}, "mouseover": {"state": {"target": ["0", "23", "24", "25", "30", "33", "32"], "time": [3251, 3348, 3413, 6330, 6898, 7398, 8435]}, "edge": {"target": [], "time": []}}, "mouseout": {"state": {"target": ["17", "23", "23", "0", "0", "23", "24", "25", "30", "33", "32"], "time": [2197, 2298, 2530, 2580, 3297, 3397, 6265, 6564, 7315, 8299, 16947]}, "edge": {"target": [], "time": []}}}, "displayed_time": "16.89", "trialTime": 18445, "trial_type": "mouselab-mdp", "trial_index": 19, "time_elapsed": 914790, "internal_node_id": "0.0-4.0-1.0-4.0"}}, {"uniqueid": "w24516730:a24353449", "current_trial": 20, "dateTime": 1691143182762, "trialdata": {"revealed_states": [], "clicked_states": ["13", "20"], "num_clicks_accrued": [0, 0, 0, 0, 0, 0, 0, 0, 0, 0, 0, 0, 0], "stateRewards": ["", -2, -3, 4, 1, 33, -53, 15, 9, -12, 61, -6, -2, 4, 6, -11, 47, -43, -7, -11, 46, 23, -28, -1, -1, 3, -10, 11, 76, -76, 10, 18, -38, 87], "withholdReward": false, "trial_id": "mdp_trial_6", "block": "test", "trialIndex": 9, "score": 40.2, "costs": -2.8, "simulationMode": [null, null, null, null, null], "rewards": [-2, 4, 6, -11, 46], "path": ["0", "0", "12", "13", "14", "19", "20"], "rt": [8142, 399, 396, 92, 80], "actions": ["right", "right", "right", "down", "right"], "actionTimes": [10661, 11568, 12482, 13093, 13682], "queries": {"click": {"state": {"target": ["13", "20"], "time": [4221, 7801]}, "edge": {"target": [], "time": []}}, "mouseover": {"state": {"target": ["12", "13", "19", "20", "22", "19"], "time": [3567, 3734, 6201, 7551, 9287, 9801]}, "edge": {"target": [], "time": []}}, "mouseout": {"state": {"target": ["0", "12", "13", "13", "19", "20", "22", "19"], "time": [1250, 3701, 4301, 5102, 6301, 7865, 9734, 9817]}, "edge": {"target": [], "time": []}}}, "displayed_time": "16.52", "trialTime": 17876, "trial_type": "mouselab-mdp", "trial_index": 20, "time_elapsed": 932834, "internal_node_id": "0.0-4.0-1.0-5.0"}}, {"uniqueid": "w24516730:a24353449", "current_trial": 21, "dateTime": 1691143201280, "trialdata": {"revealed_states": [], "clicked_states": ["9", "6"], "num_clicks_accrued": [0, 0, 0, 0, 0, 0, 0, 0, 0, 0, 0, 0, 0], "stateRewards": ["", -2, -1, -6, -14, -55, 78, -13, 11, 14, -71, 59, 2, 2, 6, -6, 9, 38, 14, 7, 85, 11, 68, 1, -4, -1, -3, -63, -85, 9, -2, 63, -86, -10], "withholdReward": false, "trial_id": "mdp_trial_7", "block": "test", "trialIndex": 10, "score": 52.2, "costs": -2.8, "simulationMode": [null, null, null, null, null], "rewards": [-2, -1, -6, -14, 78], "path": ["0", "0", "1", "2", "3", "4", "6"], "rt": [7509, 419, 349, 67, 365], "actions": ["up", "up", "up", "right", "right"], "actionTimes": [10257, 11186, 12046, 12631, 13513], "queries": {"click": {"state": {"target": ["9", "6"], "time": [4562, 7183]}, "edge": {"target": [], "time": []}}, "mouseover": {"state": {"target": ["1", "2", "3", "8", "9", "4", "6"], "time": [3313, 3463, 3697, 4264, 4379, 6762, 6845]}, "edge": {"target": [], "time": []}}, "mouseout": {"state": {"target": ["29", "29", "26", "24", "23", "1", "2", "3", "8", "9", "4", "6"], "time": [1063, 1345, 1395, 1546, 1595, 3396, 3547, 4181, 4278, 6680, 6812, 7283]}, "edge": {"target": [], "time": []}}}, "displayed_time": "16.75", "trialTime": 18356, "trial_type": "mouselab-mdp", "trial_index": 21, "time_elapsed": 951352, "internal_node_id": "0.0-4.0-1.0-6.0"}}, {"uniqueid": "w24516730:a24353449", "current_trial": 22, "dateTime": 1691143225660, "trialdata": {"revealed_states": [], "clicked_states": ["25", "27", "29", "28", "33"], "num_clicks_accrued": [0, 0, 0, 0, 0, 0, 0, 0, 0, 0, 0, 0, 0], "stateRewards": ["", 2, 2, 3, -15, 23, -14, 73, -7, -32, -20, -6, 1, 1, -5, -12, 73, 6, -84, 11, -81, -57, 13, -2, -1, -4, -8, -52, -58, 49, 13, 5, -41, -41], "withholdReward": false, "trial_id": "mdp_trial_8", "block": "test", "trialIndex": 11, "score": 27, "costs": -7, "simulationMode": [null, null, null, null, null], "rewards": [-2, -1, -4, -8, 49], "path": ["0", "0", "23", "24", "25", "26", "29"], "rt": [15336, 432, 59, 746, 14], "actions": ["left", "left", "left", "up", "left"], "actionTimes": [17659, 18605, 19182, 20452, 20970], "queries": {"click": {"state": {"target": ["25", "27", "29", "28", "33"], "time": [3899, 6059, 8644, 11052, 13822]}, "edge": {"target": [], "time": []}}, "mouseover": {"state": {"target": ["23", "24", "25", "26", "27", "26", "29", "26", "28", "24", "25", "33", "30", "31"], "time": [2808, 2839, 2904, 5158, 5326, 6923, 7223, 9590, 9906, 13172, 13290, 13607, 16022, 16087]}, "edge": {"target": [], "time": []}}, "mouseout": {"state": {"target": ["6", "7", "23", "24", "25", "26", "27", "26", "29", "26", "28", "24", "25", "33", "30", "31", "31"], "time": [1038, 1304, 2838, 2871, 4774, 5175, 6789, 7011, 9540, 9823, 13156, 13190, 13338, 13945, 16072, 16225, 22972]}, "edge": {"target": [], "time": []}}}, "displayed_time": "21.47", "trialTime": 24162, "trial_type": "mouselab-mdp", "trial_index": 22, "time_elapsed": 975732, "internal_node_id": "0.0-4.0-1.0-7.0"}}, {"uniqueid": "w24516730:a24353449", "current_trial": 23, "dateTime": 1691143244691, "trialdata": {"revealed_states": [], "clicked_states": ["20", "16", "18"], "num_clicks_accrued": [0, 0, 0, 0, 0, 0, 0, 0, 0, 0, 0, 0, 0], "stateRewards": ["", 1, 2, 2, -15, -84, 28, -26, 13, 31, 86, 30, -2, 1, -1, -8, 66, -40, -1, -10, -32, 57, -17, 1, 2, -2, 9, -23, 77, 85, 12, -32, -62, -35], "withholdReward": false, "trial_id": "mdp_trial_9", "block": "test", "trialIndex": 12, "score": 51.8, "costs": -4.199999999999999, "simulationMode": [null, null, null, null, null], "rewards": [-2, 1, -1, -8, 66], "path": ["0", "0", "12", "13", "14", "15", "16"], "rt": [10095, 414, 318, 329, 381], "actions": ["right", "right", "right", "up", "up"], "actionTimes": [13217, 14145, 14981, 15826, 16711], "queries": {"click": {"state": {"target": ["20", "16", "18"], "time": [4049, 6612, 10357]}, "edge": {"target": [], "time": []}}, "mouseover": {"state": {"target": ["22", "19", "20", "21", "15", "16", "16", "15", "14", "18", "15", "17", "15", "18", "15"], "time": [3528, 3577, 3828, 5346, 6061, 6144, 6447, 7313, 7413, 8645, 9029, 9129, 9294, 10128, 12260]}, "edge": {"target": [], "time": []}}, "mouseout": {"state": {"target": ["0", "22", "19", "20", "21", "15", "16", "16", "15", "14", "18", "15", "17", "15", "18", "15"], "time": [3428, 3561, 3594, 4996, 5961, 6094, 6161, 7279, 7363, 8212, 8961, 9094, 9262, 10078, 12245, 18830]}, "edge": {"target": [], "time": []}}}, "displayed_time": "17.23", "trialTime": 18867, "trial_type": "mouselab-mdp", "trial_index": 23, "time_elapsed": 994763, "internal_node_id": "0.0-4.0-1.0-8.0"}}, {"uniqueid": "w24516730:a24353449", "current_trial": 24, "dateTime": 1691143261232, "trialdata": {"revealed_states": [], "clicked_states": ["29", "28", "33"], "num_clicks_accrued": [0, 0, 0, 0, 0, 0, 0, 0, 0, 0, 0, 0, 0], "stateRewards": ["", -1, 3, -7, 16, -32, -74, -48, 2, 10, 15, -30, 1, 1, -2, 10, 12, -83, 67, 13, -66, 47, 65, -2, 4, 2, -14, -8, -57, 24, 9, 65, 12, 46], "withholdReward": false, "trial_id": "mdp_trial_10", "block": "test", "trialIndex": 13, "score": 54.8, "costs": -4.199999999999999, "simulationMode": [null, null, null, null, null], "rewards": [-2, 4, 2, 9, 46], "path": ["0", "0", "23", "24", "25", "30", "33"], "rt": [9065, 436, 137, 101, 90], "actions": ["left", "left", "left", "down", "left"], "actionTimes": [10417, 11359, 12010, 12624, 13229], "queries": {"click": {"state": {"target": ["29", "28", "33"], "time": [2452, 4805, 7314]}, "edge": {"target": [], "time": []}}, "mouseover": {"state": {"target": ["23", "24", "25", "29", "26", "28", "25", "33", "30"], "time": [1820, 1903, 2071, 2254, 4503, 4538, 6904, 7087, 9488]}, "edge": {"target": [], "time": []}}, "mouseout": {"state": {"target": ["12", "23", "24", "25", "29", "26", "28", "25", "33", "30"], "time": [737, 1871, 2005, 2104, 4489, 4537, 6738, 6954, 8388, 15762]}, "edge": {"target": [], "time": []}}}, "displayed_time": "15.35", "trialTime": 16349, "trial_type": "mouselab-mdp", "trial_index": 24, "time_elapsed": 1011303, "internal_node_id": "0.0-4.0-1.0-9.0"}}, {"uniqueid": "w24516730:a24353449", "current_trial": 25, "dateTime": 1691143278003, "trialdata": {"revealed_states": [], "clicked_states": ["6"], "num_clicks_accrued": [0, 0, 0, 0, 0, 0, 0, 0, 0, 0, 0, 0, 0], "stateRewards": ["", -2, -4, -2, -13, -15, 87, -19, -6, -80, 30, 12, 1, 1, -8, 2, 55, 56, 15, 11, -68, -7, 55, -2, 3, -3, -3, 48, 62, 4, 1, -3, 69, -33], "withholdReward": false, "trial_id": "mdp_trial_11", "block": "test", "trialIndex": 14, "score": 64.6, "costs": -1.4, "simulationMode": [null, null, null, null, null], "rewards": [-2, -4, -2, -13, 87], "path": ["0", "0", "1", "2", "3", "4", "6"], "rt": [4159, 333, 220, 678, 402], "actions": ["up", "up", "up", "right", "right"], "actionTimes": [5265, 6105, 6842, 8031, 8939], "queries": {"click": {"state": {"target": ["6"], "time": [2099]}, "edge": {"target": [], "time": []}}, "mouseover": {"state": {"target": ["18", "6", "4", "7"], "time": [1585, 1951, 4068, 4385]}, "edge": {"target": [], "time": []}}, "mouseout": {"state": {"target": ["0", "18", "6", "4", "7"], "time": [852, 1617, 2639, 4218, 4434]}, "edge": {"target": [], "time": []}}}, "displayed_time": "15.11", "trialTime": 16584, "trial_type": "mouselab-mdp", "trial_index": 25, "time_elapsed": 1028074, "internal_node_id": "0.0-4.0-1.0-10.0"}}, {"uniqueid": "w24516730:a24353449", "current_trial": 26, "dateTime": 1691143305633, "trialdata": {"revealed_states": [], "clicked_states": ["11", "9", "33", "31", "32", "29", "27"], "num_clicks_accrued": [0, 0, 0, 0, 0, 0, 0, 0, 0, 0, 0, 0, 0], "stateRewards": ["", 1, -1, 8, 4, 76, -33, -17, -3, -1, -54, -74, -2, 2, -5, 13, -51, 63, 83, 1, 84, 29, -36, 2, -1, 7, -12, -10, -44, -43, -14, 8, -69, 19], "withholdReward": false, "trial_id": "mdp_trial_12", "block": "test", "trialIndex": 15, "score": 3.1999999999999993, "costs": -9.8, "simulationMode": [null, null, null, null, null], "rewards": [2, -1, 7, -14, 19], "path": ["0", "0", "23", "24", "25", "30", "33"], "rt": [19736, 509, 52, 175, 55], "actions": ["left", "left", "left", "down", "left"], "actionTimes": [22279, 23295, 23856, 24526, 25090], "queries": {"click": {"state": {"target": ["11", "9", "33", "31", "32", "29", "27"], "time": [3720, 5701, 9707, 11893, 13853, 16792, 19336]}, "edge": {"target": [], "time": []}}, "mouseover": {"state": {"target": ["1", "8", "11", "8", "9", "8", "10", "10", "3", "4", "6", "18", "1", "25", "33", "30", "31", "32", "30", "25", "29", "27"], "time": [3017, 3150, 3383, 4236, 5501, 6071, 6170, 6703, 8067, 8300, 8366, 8650, 8867, 9000, 9551, 10251, 10467, 12319, 14501, 16182, 16416, 19034]}, "edge": {"target": [], "time": []}}, "mouseout": {"state": {"target": ["6", "7", "1", "0", "1", "8", "11", "8", "9", "8", "10", "10", "3", "4", "6", "18", "1", "25", "33", "33", "30", "31", "32", "30", "25", "29", "27", "11", "2", "12"], "time": [518, 650, 883, 2868, 3032, 3317, 3824, 5335, 6006, 6137, 6270, 7701, 8166, 8315, 8517, 8801, 8882, 9051, 9735, 10201, 10284, 12269, 14316, 16149, 16267, 18867, 26485, 27035, 27133, 27350]}, "edge": {"target": [], "time": []}}}, "displayed_time": "25.60", "trialTime": 27447, "trial_type": "mouselab-mdp", "trial_index": 26, "time_elapsed": 1055705, "internal_node_id": "0.0-4.0-1.0-11.0"}}, {"uniqueid": "w24516730:a24353449", "current_trial": 27, "dateTime": 1691143322996, "trialdata": {"revealed_states": [], "clicked_states": ["16", "5"], "num_clicks_accrued": [0, 0, 0, 0, 0, 0, 0, 0, 0, 0, 0, 0, 0], "stateRewards": ["", 1, 1, 7, -11, 80, -20, -53, -14, 3, 31, 27, 2, -1, -8, -10, 33, 41, 86, 9, 78, -37, -13, -1, -2, -6, -8, -80, 75, 4, -16, -49, -74, 24], "withholdReward": false, "trial_id": "mdp_trial_13", "block": "test", "trialIndex": 16, "score": 75.2, "costs": -2.8, "simulationMode": [null, null, null, null, null], "rewards": [1, 1, 7, -11, 80], "path": ["0", "0", "1", "2", "3", "4", "5"], "rt": [7067, 397, 359, 33, 38], "actions": ["up", "up", "up", "right", "up"], "actionTimes": [7815, 8728, 9595, 10131, 10686], "queries": {"click": {"state": {"target": ["16", "5"], "time": [1861, 4722]}, "edge": {"target": [], "time": []}}, "mouseover": {"state": {"target": ["12", "13", "15", "16", "15", "17", "4", "5", "6"], "time": [1131, 1179, 1447, 1813, 2264, 2480, 4279, 4529, 5047]}, "edge": {"target": [], "time": []}}, "mouseout": {"state": {"target": ["0", "0", "12", "13", "15", "16", "15", "17", "16", "4", "5", "6"], "time": [28, 1082, 1146, 1313, 1664, 2214, 2283, 4213, 4246, 4312, 4979, 6879]}, "edge": {"target": [], "time": []}}}, "displayed_time": "14.75", "trialTime": 17122, "trial_type": "mouselab-mdp", "trial_index": 27, "time_elapsed": 1073067, "internal_node_id": "0.0-4.0-1.0-12.0"}}, {"uniqueid": "w24516730:a24353449", "current_trial": 28, "dateTime": 1691143349840, "trialdata": {"revealed_states": [], "clicked_states": ["11", "9", "10", "5"], "num_clicks_accrued": [0, 0, 0, 0, 0, 0, 0, 0, 0, 0, 0, 0, 0], "stateRewards": ["", 2, 3, -3, 4, 72, -28, 34, -12, 57, -64, -15, 2, 1, -4, -15, 2, 49, 31, -1, -42, -58, 31, -2, 1, -2, -13, -75, -19, -22, -6, 61, 10, -56], "withholdReward": false, "trial_id": "mdp_trial_14", "block": "test", "trialIndex": 17, "score": 72.4, "costs": -5.6, "simulationMode": [null, null, null, null, null], "rewards": [2, 3, -3, 4, 72], "path": ["0", "0", "1", "2", "3", "4", "5"], "rt": [10766, 824, 349, 84, 694], "actions": ["up", "up", "up", "right", "up"], "actionTimes": [11776, 13109, 13965, 14567, 15777], "queries": {"click": {"state": {"target": ["11", "9", "10", "5"], "time": [1830, 3929, 6109, 8594]}, "edge": {"target": [], "time": []}}, "mouseover": {"state": {"target": ["11", "27", "8", "9", "8", "10", "8", "3", "4", "6", "5", "6"], "time": [1665, 2836, 3069, 3287, 4151, 4251, 6549, 6598, 6631, 6698, 8281, 9102]}, "edge": {"target": [], "time": []}}, "mouseout": {"state": {"target": ["13", "12", "11", "27", "8", "9", "8", "10", "8", "3", "4", "6", "5", "6", "6", "5", "5"], "time": [532, 564, 2368, 2969, 3218, 4133, 4184, 6465, 6582, 6615, 6648, 8232, 8817, 17831, 17982, 18517, 19452]}, "edge": {"target": [], "time": []}}}, "displayed_time": "16.28", "trialTime": 26619, "trial_type": "mouselab-mdp", "trial_index": 28, "time_elapsed": 1099911, "internal_node_id": "0.0-4.0-1.0-13.0"}}, {"uniqueid": "w24516730:a24353449", "current_trial": 29, "dateTime": 1691143379546, "trialdata": {"revealed_states": [], "clicked_states": ["14", "20", "22", "18", "17", "33", "31"], "num_clicks_accrued": [0, 0, 0, 0, 0, 0, 0, 0, 0, 0, 0, 0, 0], "stateRewards": ["", -2, 2, 5, -14, -56, 64, 84, -5, 52, 39, 85, -2, 1, 7, 8, 21, 29, -78, -9, -10, -69, 10, -2, -1, -7, 15, 72, 20, 41, -2, 52, 80, 22], "withholdReward": false, "trial_id": "mdp_trial_15", "block": "test", "trialIndex": 18, "score": 30.2, "costs": -9.8, "simulationMode": [null, null, null, null, null], "rewards": [-2, -1, -7, -2, 52], "path": ["0", "0", "23", "24", "25", "30", "31"], "rt": [19706, 435, 114, 103, 121], "actions": ["left", "left", "left", "down", "right"], "actionTimes": [20895, 21834, 22465, 23085, 23720], "queries": {"click": {"state": {"target": ["14", "20", "22", "18", "17", "33", "31"], "time": [2319, 4243, 6576, 9900, 12367, 15505, 17945]}, "edge": {"target": [], "time": []}}, "mouseover": {"state": {"target": ["12", "13", "14", "14", "19", "20", "21", "22", "21", "19", "14", "15", "16", "18", "13", "17", "0", "23", "31", "30", "33", "30", "31", "32"], "time": [1580, 1630, 1746, 2033, 2815, 3216, 4764, 6430, 6949, 8546, 8596, 8729, 9347, 9764, 10197, 12130, 14848, 14881, 14946, 15029, 15280, 15946, 17619, 19166]}, "edge": {"target": [], "time": []}}, "mouseout": {"state": {"target": ["5", "3", "12", "0", "12", "13", "14", "14", "19", "20", "21", "22", "21", "19", "14", "15", "16", "18", "13", "17", "0", "23", "31", "30", "33", "30", "31", "32"], "time": [397, 497, 780, 1547, 1602, 1716, 1797, 2682, 3099, 4615, 6297, 6816, 8514, 8581, 8629, 8813, 9547, 10148, 10331, 12714, 14863, 14898, 14996, 15165, 15914, 16114, 18916, 20064]}, "edge": {"target": [], "time": []}}}, "displayed_time": "24.23", "trialTime": 29475, "trial_type": "mouselab-mdp", "trial_index": 29, "time_elapsed": 1129617, "internal_node_id": "0.0-4.0-1.0-14.0"}}, {"uniqueid": "w24516730:a24353449", "current_trial": 30, "dateTime": 1691143400961, "trialdata": {"revealed_states": [], "clicked_states": ["5", "9"], "num_clicks_accrued": [0, 0, 0, 0, 0, 0, 0, 0, 0, 0, 0, 0, 0], "stateRewards": ["", 2, -4, -8, -15, 71, -43, -41, 7, -17, 20, 67, -1, -1, -4, 6, 37, -24, -47, 9, 34, 57, 45, 1, 2, -4, -5, -23, 88, -5, 13, -40, 43, 44], "withholdReward": false, "trial_id": "mdp_trial_16", "block": "test", "trialIndex": 19, "score": 43.2, "costs": -2.8, "simulationMode": [null, null, null, null, null], "rewards": [2, -4, -8, -15, 71], "path": ["0", "0", "1", "2", "3", "4", "5"], "rt": [5594, 406, 39, 66, 16], "actions": ["up", "up", "up", "right", "up"], "actionTimes": [6971, 7880, 8428, 9010, 9542], "queries": {"click": {"state": {"target": ["5", "9"], "time": [2459, 4537]}, "edge": {"target": [], "time": []}}, "mouseover": {"state": {"target": ["1", "2", "3", "5", "4", "3", "9", "9", "3", "2"], "time": [1670, 1820, 1885, 2269, 2887, 3020, 3120, 3420, 4854, 4904]}, "edge": {"target": [], "time": []}}, "mouseout": {"state": {"target": ["33", "30", "31", "23", "1", "2", "3", "5", "4", "3", "9", "9", "9", "3", "2", "22", "13", "12"], "time": [251, 353, 485, 636, 1702, 1851, 2019, 2859, 2904, 3087, 3154, 4653, 4787, 4877, 5504, 20236, 20368, 20553]}, "edge": {"target": [], "time": []}}}, "displayed_time": "15.38", "trialTime": 21146, "trial_type": "mouselab-mdp", "trial_index": 30, "time_elapsed": 1151033, "internal_node_id": "0.0-4.0-1.0-15.0"}}, {"uniqueid": "w24516730:a24353449", "current_trial": 31, "dateTime": 1691143417396, "trialdata": {"revealed_states": [], "clicked_states": ["33", "29", "6"], "num_clicks_accrued": [0, 0, 0, 0, 0, 0, 0, 0, 0, 0, 0, 0, 0], "stateRewards": ["", 1, -4, 6, -3, 40, 76, -51, 5, -24, -63, 44, -2, -2, 8, 1, 76, -85, -58, 10, 59, 20, 11, -2, 3, -3, 3, -82, -10, 54, -7, -57, -6, -32], "withholdReward": false, "trial_id": "mdp_trial_17", "block": "test", "trialIndex": 20, "score": 71.8, "costs": -4.199999999999999, "simulationMode": [null, null, null, null, null], "rewards": [1, -4, 6, -3, 76], "path": ["0", "0", "1", "2", "3", "4", "6"], "rt": [9065, 332, 18, 201, 16], "actions": ["up", "up", "up", "right", "right"], "actionTimes": [10450, 11285, 11820, 12537, 13068], "queries": {"click": {"state": {"target": ["33", "29", "6"], "time": [2320, 4591, 7501]}, "edge": {"target": [], "time": []}}, "mouseover": {"state": {"target": ["23", "24", "25", "33", "32", "29", "26", "10", "4", "6"], "time": [1684, 1716, 1750, 2117, 2802, 4451, 6751, 6866, 7018, 7302]}, "edge": {"target": [], "time": []}}, "mouseout": {"state": {"target": ["0", "23", "24", "25", "33", "33", "32", "29", "26", "10", "4", "6"], "time": [1654, 1700, 1734, 1767, 2385, 2635, 4170, 4837, 6766, 6883, 7150, 7935]}, "edge": {"target": [], "time": []}}}, "displayed_time": "15.39", "trialTime": 16196, "trial_type": "mouselab-mdp", "trial_index": 31, "time_elapsed": 1167468, "internal_node_id": "0.0-4.0-1.0-16.0"}}, {"uniqueid": "w24516730:a24353449", "current_trial": 32, "dateTime": 1691143434083, "trialdata": {"revealed_states": [], "clicked_states": ["9", "10", "11"], "num_clicks_accrued": [0, 0, 0, 0, 0, 0, 0, 0, 0, 0, 0, 0, 0], "stateRewards": ["", -1, 2, -2, 13, -56, -28, 10, 14, 53, -80, -29, 1, -3, -3, -14, 14, 9, -40, -9, 18, 18, 48, 1, 1, 1, -9, 64, -39, -9, 7, -52, -78, 7], "withholdReward": false, "trial_id": "mdp_trial_18", "block": "test", "trialIndex": 21, "score": 61.8, "costs": -4.199999999999999, "simulationMode": [null, null, null, null, null], "rewards": [-1, 2, -2, 14, 53], "path": ["0", "0", "1", "2", "3", "8", "9"], "rt": [8524, 429, 4, 472, 120], "actions": ["up", "up", "up", "left", "up"], "actionTimes": [9970, 10918, 11436, 12439, 13068], "queries": {"click": {"state": {"target": ["9", "10", "11"], "time": [2377, 4522, 7081]}, "edge": {"target": [], "time": []}}, "mouseover": {"state": {"target": ["1", "8", "9", "8", "2", "4", "4", "10", "2", "2", "11", "2", "7"], "time": [1913, 2063, 2279, 2624, 3047, 3163, 3547, 3881, 4784, 6512, 6929, 7331, 7366]}, "edge": {"target": [], "time": []}}, "mouseout": {"state": {"target": ["16", "15", "18", "1", "8", "9", "8", "2", "4", "4", "10", "2", "2", "11", "2", "7"], "time": [729, 779, 863, 1929, 2213, 2581, 2634, 3064, 3181, 3664, 4748, 4816, 6646, 7264, 7365, 7381]}, "edge": {"target": [], "time": []}}}, "displayed_time": "15.45", "trialTime": 16461, "trial_type": "mouselab-mdp", "trial_index": 32, "time_elapsed": 1184154, "internal_node_id": "0.0-4.0-1.0-17.0"}}, {"uniqueid": "w24516730:a24353449", "current_trial": 33, "dateTime": 1691143456702, "trialdata": {"revealed_states": [], "clicked_states": ["22", "16", "5", "6", "11"], "num_clicks_accrued": [0, 0, 0, 0, 0, 0, 0, 0, 0, 0, 0, 0, 0], "stateRewards": ["", -1, -3, 1, 13, -64, -29, 12, -4, -33, 50, 56, 2, -3, 4, 11, -64, -58, -55, 12, 47, 38, -25, -2, 2, 5, -15, 85, 7, 84, 10, 8, 57, 26], "withholdReward": false, "trial_id": "mdp_trial_19", "block": "test", "trialIndex": 22, "score": 42, "costs": -7, "simulationMode": [null, null, null, null, null], "rewards": [-1, -3, 1, -4, 56], "path": ["0", "0", "1", "2", "3", "8", "11"], "rt": [14452, 575, 287, 2311, 33], "actions": ["up", "up", "up", "left", "left"], "actionTimes": [15452, 16538, 17334, 20158, 20696], "queries": {"click": {"state": {"target": ["22", "16", "5", "6", "11"], "time": [3213, 5712, 8227, 10592, 12532]}, "edge": {"target": [], "time": []}}, "mouseover": {"state": {"target": ["15", "17", "20", "19", "22", "22", "21", "14", "15", "16", "15", "18", "7", "4", "5", "4", "7", "7", "6", "11", "10"], "time": [1544, 1914, 2345, 2527, 2793, 3061, 3696, 5177, 5210, 5310, 5997, 7628, 7660, 7694, 7978, 8497, 8564, 10027, 10111, 11147, 14063]}, "edge": {"target": [], "time": []}}, "mouseout": {"state": {"target": ["15", "17", "20", "19", "22", "22", "21", "14", "15", "16", "15", "18", "7", "4", "5", "5", "4", "7", "7", "6", "11", "10"], "time": [1812, 2078, 2495, 2778, 2844, 3396, 5147, 5194, 5261, 5947, 6013, 7643, 7677, 7744, 8341, 8465, 8530, 8614, 10077, 10948, 12979, 14511]}, "edge": {"target": [], "time": []}}}, "displayed_time": "21.21", "trialTime": 22397, "trial_type": "mouselab-mdp", "trial_index": 33, "time_elapsed": 1206774, "internal_node_id": "0.0-4.0-1.0-18.0"}}, {"uniqueid": "w24516730:a24353449", "current_trial": 34, "dateTime": 1691143478214, "trialdata": {"revealed_states": [], "clicked_states": ["25", "33", "31", "27", "32", "29"], "num_clicks_accrued": [0, 0, 0, 0, 0, 0, 0, 0, 0, 0, 0, 0, 0], "stateRewards": ["", 1, 2, -3, 6, -88, 74, -45, 7, -46, 40, -77, 1, -4, 4, 3, 22, -25, -59, 8, -83, 19, -60, -1, -1, -1, -8, 26, -29, 64, -7, -88, -51, -55], "withholdReward": false, "trial_id": "mdp_trial_20", "block": "test", "trialIndex": 23, "score": 44.6, "costs": -8.4, "simulationMode": [null, null, null, null, null], "rewards": [-1, -1, -1, -8, 64], "path": ["0", "0", "23", "24", "25", "26", "29"], "rt": [15481, 372, 13, 112, 183], "actions": ["left", "left", "left", "up", "left"], "actionTimes": [16761, 17637, 18161, 18797, 19497], "queries": {"click": {"state": {"target": ["25", "33", "31", "27", "32", "29"], "time": [2435, 4285, 6629, 8995, 10894, 13518]}, "edge": {"target": [], "time": []}}, "mouseover": {"state": {"target": ["23", "24", "25", "30", "33", "30", "32", "31", "32", "24", "28", "27", "26", "25", "30", "32", "30", "25", "25", "29", "3", "9", "11", "10"], "time": [1813, 1879, 1979, 2747, 3064, 4730, 5064, 6497, 8049, 8563, 8612, 8846, 9297, 9364, 9397, 9497, 11350, 11584, 12938, 13455, 14147, 14580, 15495, 15646]}, "edge": {"target": [], "time": []}}, "mouseout": {"state": {"target": ["1", "23", "24", "25", "30", "33", "30", "32", "31", "32", "24", "28", "27", "26", "25", "30", "32", "30", "25", "25", "29", "29", "3", "9", "11"], "time": [513, 1863, 1929, 2681, 2931, 4714, 4881, 6279, 7000, 8480, 8578, 8628, 9264, 9330, 9380, 9430, 11250, 11515, 12165, 13453, 13618, 13947, 14164, 15480, 15529]}, "edge": {"target": [], "time": []}}}, "displayed_time": "20.01", "trialTime": 21292, "trial_type": "mouselab-mdp", "trial_index": 34, "time_elapsed": 1228285, "internal_node_id": "0.0-4.0-1.0-19.0"}}, {"uniqueid": "w24516730:a24353449", "current_trial": 35, "dateTime": 1691143495752, "trialdata": {"revealed_states": [], "clicked_states": ["13", "17", "7", "5"], "num_clicks_accrued": [0, 0, 0, 0, 0, 0, 0, 0, 0, 0, 0, 0, 0], "stateRewards": ["", -1, 2, 7, 8, 75, 67, -11, 6, 52, -17, 38, -1, 4, -8, 14, 74, -37, -17, -12, 52, 55, 71, -2, -1, -5, 2, 21, 6, -88, -14, 64, -61, -47], "withholdReward": false, "trial_id": "mdp_trial_21", "block": "test", "trialIndex": 24, "score": 85.4, "costs": -5.6, "simulationMode": [null, null, null, null, null], "rewards": [-1, 2, 7, 8, 75], "path": ["0", "0", "1", "2", "3", "4", "5"], "rt": [10726, 360, 157, 182, 141], "actions": ["up", "up", "up", "right", "up"], "actionTimes": [12119, 12998, 13663, 14355, 15012], "queries": {"click": {"state": {"target": ["13", "17", "7", "5"], "time": [2341, 4763, 7331, 9394]}, "edge": {"target": [], "time": []}}, "mouseover": {"state": {"target": ["13", "14", "15", "17", "14", "14", "7", "7", "4", "5", "5", "6", "6"], "time": [2103, 2854, 4153, 4587, 5037, 5304, 6203, 7120, 8505, 8605, 8822, 9721, 10070]}, "edge": {"target": [], "time": []}}, "mouseout": {"state": {"target": ["10", "18", "13", "12", "0", "13", "14", "15", "17", "14", "14", "7", "7", "7", "4", "5", "5", "5", "6", "6"], "time": [475, 586, 703, 769, 1102, 2654, 4021, 4469, 4937, 5053, 5386, 6253, 7587, 8355, 8554, 8689, 9488, 9637, 9788, 16403]}, "edge": {"target": [], "time": []}}}, "displayed_time": "15.52", "trialTime": 17321, "trial_type": "mouselab-mdp", "trial_index": 35, "time_elapsed": 1245824, "internal_node_id": "0.0-4.0-1.0-20.0"}}, {"uniqueid": "w24516730:a24353449", "current_trial": 36, "dateTime": 1691143515361, "trialdata": {"revealed_states": [], "clicked_states": ["29", "11", "28", "9", "10"], "num_clicks_accrued": [0, 0, 0, 0, 0, 0, 0, 0, 0, 0, 0, 0, 0], "stateRewards": ["", -2, 1, 6, -2, -10, -78, -69, 14, -15, 7, -1, 1, -1, -2, 13, 77, 32, 87, 5, -74, 30, -26, 1, 3, 4, 12, 39, 54, -43, 2, 10, 23, 13], "withholdReward": false, "trial_id": "mdp_trial_22", "block": "test", "trialIndex": 25, "score": 67, "costs": -7, "simulationMode": [null, null, null, null, null], "rewards": [1, 3, 4, 12, 54], "path": ["0", "0", "23", "24", "25", "26", "28"], "rt": [12520, 403, 164, 222, 106], "actions": ["left", "left", "left", "up", "right"], "actionTimes": [14442, 15363, 16041, 16783, 17402], "queries": {"click": {"state": {"target": ["29", "11", "28", "9", "10"], "time": [3128, 5520, 7403, 9606, 12104]}, "edge": {"target": [], "time": []}}, "mouseover": {"state": {"target": ["29", "27", "11", "11", "10", "28", "8", "9", "8", "10", "10", "2", "7"], "time": [2893, 4397, 5026, 5477, 5847, 6062, 7884, 9377, 9862, 9929, 11876, 12495, 12545]}, "edge": {"target": [], "time": []}}, "mouseout": {"state": {"target": ["18", "0", "29", "27", "11", "11", "11", "10", "28", "8", "9", "8", "10", "10", "2", "7"], "time": [1160, 2179, 4145, 4976, 5109, 5633, 5795, 5893, 7695, 7964, 9812, 9912, 9995, 12478, 12528, 13345]}, "edge": {"target": [], "time": []}}}, "displayed_time": "17.91", "trialTime": 19386, "trial_type": "mouselab-mdp", "trial_index": 36, "time_elapsed": 1265432, "internal_node_id": "0.0-4.0-1.0-21.0"}}, {"uniqueid": "w24516730:a24353449", "current_trial": 37, "dateTime": 1691143531519, "trialdata": {"revealed_states": [], "clicked_states": ["22", "31", "33"], "num_clicks_accrued": [0, 0, 0, 0, 0, 0, 0, 0, 0, 0, 0, 0, 0], "stateRewards": ["", 1, -2, 4, 7, -43, -83, -60, -5, -86, -80, 83, -1, -2, 6, 11, -15, 21, 13, 9, 29, -49, 11, -1, 4, -6, -11, 87, 40, 63, -8, -39, -11, 62], "withholdReward": false, "trial_id": "mdp_trial_23", "block": "test", "trialIndex": 26, "score": 46.8, "costs": -4.199999999999999, "simulationMode": [null, null, null, null, null], "rewards": [-1, 4, -6, -8, 62], "path": ["0", "0", "23", "24", "25", "30", "33"], "rt": [8999, 392, 19, 508, 47], "actions": ["left", "left", "left", "down", "left"], "actionTimes": [10333, 11230, 11761, 12789, 13358], "queries": {"click": {"state": {"target": ["22", "31", "33"], "time": [3484, 5337, 7606]}, "edge": {"target": [], "time": []}}, "mouseover": {"state": {"target": ["25", "30", "33", "32", "22", "31", "31", "32", "33", "32"], "time": [1871, 2204, 2476, 2687, 3371, 3924, 4073, 5957, 7454, 7939]}, "edge": {"target": [], "time": []}}, "mouseout": {"state": {"target": ["12", "0", "25", "30", "33", "32", "22", "31", "31", "31", "32", "33"], "time": [339, 1674, 2071, 2371, 2537, 2704, 3691, 3974, 5413, 5713, 7288, 7822]}, "edge": {"target": [], "time": []}}}, "displayed_time": "15.35", "trialTime": 15919, "trial_type": "mouselab-mdp", "trial_index": 37, "time_elapsed": 1281589, "internal_node_id": "0.0-4.0-1.0-22.0"}}, {"uniqueid": "w24516730:a24353449", "current_trial": 38, "dateTime": 1691143548630, "trialdata": {"revealed_states": [], "clicked_states": ["9", "11", "27", "33"], "num_clicks_accrued": [0, 0, 0, 0, 0, 0, 0, 0, 0, 0, 0, 0, 0], "stateRewards": ["", -1, 2, -6, 6, -82, -19, -39, -16, -83, 11, -33, -2, -2, 4, -6, -82, -1, -19, -6, -10, -67, -41, -2, 1, -7, 16, -23, -78, -52, 14, 31, -71, 74], "withholdReward": false, "trial_id": "mdp_trial_24", "block": "test", "trialIndex": 27, "score": 74.4, "costs": -5.6, "simulationMode": [null, null, null, null, null], "rewards": [-2, 1, -7, 14, 74], "path": ["0", "0", "23", "24", "25", "30", "33"], "rt": [10444, 151, 106, 166, 30], "actions": ["left", "left", "left", "down", "left"], "actionTimes": [12007, 12672, 13295, 13970, 14520], "queries": {"click": {"state": {"target": ["9", "11", "27", "33"], "time": [2914, 4907, 6781, 9212]}, "edge": {"target": [], "time": []}}, "mouseover": {"state": {"target": ["1", "2", "3", "9", "8", "10", "27", "11", "28", "26", "27", "26", "29", "29", "29", "33", "32", "32"], "time": [2235, 2301, 2367, 2651, 3169, 3251, 3669, 4717, 5319, 5403, 5552, 7922, 7956, 8292, 8592, 9066, 9803, 10703]}, "edge": {"target": [], "time": []}}, "mouseout": {"state": {"target": ["32", "1", "2", "3", "9", "8", "10", "27", "11", "28", "26", "27", "26", "29", "29", "29", "33", "32", "32"], "time": [269, 2268, 2334, 2570, 3136, 3226, 3370, 4634, 5102, 5369, 5419, 7005, 7953, 7987, 8488, 8817, 9670, 9820, 10801]}, "edge": {"target": [], "time": []}}}, "displayed_time": "15.57", "trialTime": 16166, "trial_type": "mouselab-mdp", "trial_index": 38, "time_elapsed": 1298702, "internal_node_id": "0.0-4.0-1.0-23.0"}}, {"uniqueid": "w24516730:a24353449", "current_trial": 39, "dateTime": 1691143565183, "trialdata": {"revealed_states": [], "clicked_states": ["32", "31"], "num_clicks_accrued": [0, 0, 0, 0, 0, 0, 0, 0, 0, 0, 0, 0, 0], "stateRewards": ["", -1, -3, 4, -10, -5, 79, -87, -2, 53, 29, -20, -2, -1, -5, 10, 27, 86, 46, -16, -29, 40, 3, 2, 4, -1, -6, 37, 79, -29, 7, 86, -62, 29], "withholdReward": false, "trial_id": "mdp_trial_25", "block": "test", "trialIndex": 28, "score": 95.2, "costs": -2.8, "simulationMode": [null, null, null, null, null], "rewards": [2, 4, -1, 7, 86], "path": ["0", "0", "23", "24", "25", "30", "31"], "rt": [5953, 9, 158, 142, 393], "actions": ["left", "left", "left", "down", "right"], "actionTimes": [7226, 7750, 8434, 9085, 9986], "queries": {"click": {"state": {"target": ["32", "31"], "time": [2021, 4348]}, "edge": {"target": [], "time": []}}, "mouseover": {"state": {"target": ["32", "31", "22"], "time": [1838, 4156, 5108]}, "edge": {"target": [], "time": []}}, "mouseout": {"state": {"target": ["31", "0", "32", "31", "31"], "time": [523, 1475, 2358, 4410, 4676]}, "edge": {"target": [], "time": []}}}, "displayed_time": "15.27", "trialTime": 16306, "trial_type": "mouselab-mdp", "trial_index": 39, "time_elapsed": 1315254, "internal_node_id": "0.0-4.0-1.0-24.0"}}, {"uniqueid": "w24516730:a24353449", "current_trial": 40, "dateTime": 1691143582384, "trialdata": {"revealed_states": [], "clicked_states": ["21", "17"], "num_clicks_accrued": [0, 0, 0, 0, 0, 0, 0, 0, 0, 0, 0, 0, 0], "stateRewards": ["", -1, -4, -6, -15, 21, -67, -63, 9, 51, 69, -14, -1, 3, 8, -8, 39, 72, 63, 15, 19, 47, 15, 1, 4, 5, 16, -18, 34, 35, -14, -80, 40, 1], "withholdReward": false, "trial_id": "mdp_trial_26", "block": "test", "trialIndex": 29, "score": 71.2, "costs": -2.8, "simulationMode": [null, null, null, null, null], "rewards": [-1, 3, 8, -8, 72], "path": ["0", "0", "12", "13", "14", "15", "17"], "rt": [6574, 83, 2, 324, 174], "actions": ["right", "right", "right", "up", "right"], "actionTimes": [8181, 8771, 9291, 10147, 10829], "queries": {"click": {"state": {"target": ["21", "17"], "time": [2955, 5553]}, "edge": {"target": [], "time": []}}, "mouseover": {"state": {"target": ["0", "22", "21", "21", "17"], "time": [1935, 2036, 2085, 2470, 5319]}, "edge": {"target": [], "time": []}}, "mouseout": {"state": {"target": ["22", "22", "0", "0", "22", "21", "21", "21", "17"], "time": [353, 685, 1152, 1969, 2052, 2102, 2963, 4669, 6056]}, "edge": {"target": [], "time": []}}}, "displayed_time": "15.61", "trialTime": 16887, "trial_type": "mouselab-mdp", "trial_index": 40, "time_elapsed": 1332455, "internal_node_id": "0.0-4.0-1.0-25.0"}}, {"uniqueid": "w24516730:a24353449", "current_trial": 41, "dateTime": 1691143598906, "trialdata": {"revealed_states": [], "clicked_states": ["9"], "num_clicks_accrued": [0, 0, 0, 0, 0, 0, 0, 0, 0, 0, 0, 0, 0], "stateRewards": ["", -1, -2, -1, -10, -57, 73, -72, -16, 75, -14, -46, -2, -3, -7, -1, -61, -60, 76, -4, 50, 4, 14, 2, 2, -7, 12, -65, -32, 15, -8, -76, -25, -61], "withholdReward": false, "trial_id": "mdp_trial_27", "block": "test", "trialIndex": 30, "score": 53.6, "costs": -1.4, "simulationMode": [null, null, null, null, null], "rewards": [-1, -2, -1, -16, 75], "path": ["0", "0", "1", "2", "3", "8", "9"], "rt": [4562, 352, 114, 977, 47], "actions": ["up", "up", "up", "left", "up"], "actionTimes": [6002, 6868, 7534, 9027, 9582], "queries": {"click": {"state": {"target": ["9"], "time": [2947]}, "edge": {"target": [], "time": []}}, "mouseover": {"state": {"target": ["0", "0", "1", "2", "9", "9", "9", "8", "3", "4", "6"], "time": [1548, 1863, 1930, 1964, 2196, 2631, 2767, 3184, 3883, 4300, 4580]}, "edge": {"target": [], "time": []}}, "mouseout": {"state": {"target": ["21", "0", "0", "0", "1", "2", "9", "9", "9", "8", "3", "4", "6", "6"], "time": [597, 1080, 1665, 1913, 1963, 1997, 2247, 2680, 3141, 3850, 4033, 4317, 4980, 10646]}, "edge": {"target": [], "time": []}}}, "displayed_time": "15.44", "trialTime": 16237, "trial_type": "mouselab-mdp", "trial_index": 41, "time_elapsed": 1348977, "internal_node_id": "0.0-4.0-1.0-26.0"}}, {"uniqueid": "w24516730:a24353449", "current_trial": 42, "dateTime": 1691143615163, "trialdata": {"revealed_states": [], "clicked_states": ["22", "20", "21", "16"], "num_clicks_accrued": [0, 0, 0, 0, 0, 0, 0, 0, 0, 0, 0, 0, 0], "stateRewards": ["", 1, 2, -6, -13, -51, 22, -4, -12, -44, -12, 6, -2, -2, -2, -14, -46, -4, -77, -2, 36, -79, 41, 2, -4, 2, -6, -55, 59, 70, -5, 39, -19, 24], "withholdReward": false, "trial_id": "mdp_trial_28", "block": "test", "trialIndex": 31, "score": 27.4, "costs": -5.6, "simulationMode": [null, null, null, null, null], "rewards": [-2, -2, -2, -2, 41], "path": ["0", "0", "12", "13", "14", "19", "22"], "rt": [10635, 151, 39, 64, 204], "actions": ["right", "right", "right", "down", "left"], "actionTimes": [11809, 12485, 13038, 13592, 14316], "queries": {"click": {"state": {"target": ["22", "20", "21", "16"], "time": [2499, 4809, 6838, 9474]}, "edge": {"target": [], "time": []}}, "mouseover": {"state": {"target": ["0", "22", "19", "22", "19", "20", "21", "14", "15", "16", "16"], "time": [1393, 1727, 1841, 2308, 2845, 2895, 5179, 7795, 7896, 8145, 8858]}, "edge": {"target": [], "time": []}}, "mouseout": {"state": {"target": ["18", "0", "22", "19", "22", "19", "20", "21", "14", "15", "16", "16", "16"], "time": [527, 1409, 1808, 2258, 2828, 2878, 5096, 7228, 7846, 8046, 8352, 9511, 9810]}, "edge": {"target": [], "time": []}}}, "displayed_time": "15.18", "trialTime": 15957, "trial_type": "mouselab-mdp", "trial_index": 42, "time_elapsed": 1365235, "internal_node_id": "0.0-4.0-1.0-27.0"}}, {"uniqueid": "w24516730:a24353449", "current_trial": 43, "dateTime": 1691143634779, "trialdata": {"revealed_states": [], "clicked_states": ["33", "27", "31", "28", "29"], "num_clicks_accrued": [0, 0, 0, 0, 0, 0, 0, 0, 0, 0, 0, 0, 0], "stateRewards": ["", -1, -3, -6, 14, 41, 18, 63, -14, 80, 21, 17, -2, -4, -2, -5, 13, 70, 8, -4, -64, -10, -20, 2, -1, 4, -1, -17, -55, 42, -7, 47, 54, 15], "withholdReward": false, "trial_id": "mdp_trial_29", "block": "test", "trialIndex": 32, "score": 38, "costs": -7, "simulationMode": [null, null, null, null, null], "rewards": [2, -1, 4, -7, 47], "path": ["0", "0", "23", "24", "25", "30", "31"], "rt": [13069, 120, 396, 34, 91], "actions": ["left", "left", "left", "down", "right"], "actionTimes": [14698, 15334, 16241, 16779, 17384], "queries": {"click": {"state": {"target": ["33", "27", "31", "28", "29"], "time": [3032, 4969, 6842, 9158, 11085]}, "edge": {"target": [], "time": []}}, "mouseover": {"state": {"target": ["0", "23", "24", "25", "25", "33", "29", "27", "27", "26", "31", "24", "28", "26", "29", "26", "23", "31", "32"], "time": [1976, 2074, 2141, 2207, 2542, 2858, 3411, 3494, 3910, 5328, 5870, 7129, 7330, 9578, 9780, 11345, 11579, 11929, 12094]}, "edge": {"target": [], "time": []}}, "mouseout": {"state": {"target": ["17", "14", "13", "0", "0", "23", "24", "25", "25", "33", "29", "27", "27", "26", "31", "24", "28", "26", "29", "26", "23", "31"], "time": [324, 758, 858, 1308, 2027, 2108, 2174, 2308, 2558, 3294, 3444, 3512, 5279, 5380, 6950, 7180, 9528, 9628, 11311, 11379, 11645, 11980]}, "edge": {"target": [], "time": []}}}, "displayed_time": "17.89", "trialTime": 19305, "trial_type": "mouselab-mdp", "trial_index": 43, "time_elapsed": 1384851, "internal_node_id": "0.0-4.0-1.0-28.0"}}, {"uniqueid": "w24516730:a24353449", "current_trial": 44, "dateTime": 1691143651893, "trialdata": {"revealed_states": [], "clicked_states": ["5", "9"], "num_clicks_accrued": [0, 0, 0, 0, 0, 0, 0, 0, 0, 0, 0, 0, 0], "stateRewards": ["", 2, 3, -6, -5, -3, 55, 40, 11, 61, 11, 51, 2, -4, -6, 9, -25, 29, -15, -6, 7, -77, -2, -2, -4, 1, 14, -43, -1, 56, -12, -54, 41, -74], "withholdReward": false, "trial_id": "mdp_trial_30", "block": "test", "trialIndex": 33, "score": 68.2, "costs": -2.8, "simulationMode": [null, null, null, null, null], "rewards": [2, 3, -6, 11, 61], "path": ["0", "0", "1", "2", "3", "8", "9"], "rt": [6644, 298, 30, 638, 5], "actions": ["up", "up", "up", "left", "up"], "actionTimes": [7918, 8729, 9277, 10432, 10950], "queries": {"click": {"state": {"target": ["5", "9"], "time": [2979, 4833]}, "edge": {"target": [], "time": []}}, "mouseover": {"state": {"target": ["12", "15", "16", "4", "5", "9", "9", "8", "10"], "time": [1659, 1759, 2059, 2526, 2859, 3503, 3763, 5079, 5329]}, "edge": {"target": [], "time": []}}, "mouseout": {"state": {"target": ["32", "0", "12", "15", "16", "4", "5", "9", "9", "8", "10"], "time": [541, 1626, 1692, 2010, 2392, 2725, 3411, 3528, 5047, 5162, 12826]}, "edge": {"target": [], "time": []}}}, "displayed_time": "15.28", "trialTime": 16770, "trial_type": "mouselab-mdp", "trial_index": 44, "time_elapsed": 1401964, "internal_node_id": "0.0-4.0-1.0-29.0"}}, {"uniqueid": "w24516730:a24353449", "current_trial": 45, "dateTime": 1691143668658, "trialdata": {"revealed_states": [], "clicked_states": ["16", "7", "6"], "num_clicks_accrued": [0, 0, 0, 0, 0, 0, 0, 0, 0, 0, 0, 0, 0], "stateRewards": ["", 1, 2, -5, 14, 54, -14, -25, 16, -5, -87, 78, -1, 1, 3, -3, 52, 53, 53, -10, 73, -69, -48, 2, 3, 1, 8, -62, -7, 85, 7, 82, 52, -28], "withholdReward": false, "trial_id": "mdp_trial_31", "block": "test", "trialIndex": 34, "score": 47.8, "costs": -4.199999999999999, "simulationMode": [null, null, null, null, null], "rewards": [-1, 1, 3, -3, 52], "path": ["0", "0", "12", "13", "14", "15", "16"], "rt": [7284, 145, 601, 22, 29], "actions": ["right", "right", "right", "up", "up"], "actionTimes": [8240, 8896, 10014, 10554, 11111], "queries": {"click": {"state": {"target": ["16", "7", "6"], "time": [1898, 3691, 5881]}, "edge": {"target": [], "time": []}}, "mouseover": {"state": {"target": ["18", "15", "16", "7", "4", "6"], "time": [1411, 1460, 1711, 2281, 4280, 5557]}, "edge": {"target": [], "time": []}}, "mouseout": {"state": {"target": ["1", "18", "15", "16", "7", "4", "6", "15"], "time": [null, 1444, 1560, 2096, 3773, 4464, 12488, 16111]}, "edge": {"target": [], "time": []}}}, "displayed_time": "14.96", "trialTime": 16470, "trial_type": "mouselab-mdp", "trial_index": 45, "time_elapsed": 1418729, "internal_node_id": "0.0-4.0-1.0-30.0"}}, {"uniqueid": "w24516730:a24353449", "current_trial": 46, "dateTime": 1691143685302, "trialdata": {"revealed_states": [], "clicked_states": ["29"], "num_clicks_accrued": [0, 0, 0, 0, 0, 0, 0, 0, 0, 0, 0, 0, 0], "stateRewards": ["", 2, 3, -2, -8, -8, -41, 74, 15, -23, -80, 1, 1, 3, 3, -15, -63, -78, 67, 13, 75, -41, 86, 2, -2, 6, -3, -8, -49, 50, -6, 83, 74, 80], "withholdReward": false, "trial_id": "mdp_trial_32", "block": "test", "trialIndex": 35, "score": 51.6, "costs": -1.4, "simulationMode": [null, null, null, null, null], "rewards": [2, -2, 6, -3, 50], "path": ["0", "0", "23", "24", "25", "26", "29"], "rt": [4034, 134, 4, 109, 43], "actions": ["left", "left", "left", "up", "left"], "actionTimes": [5622, 6262, 6783, 7404, 7955], "queries": {"click": {"state": {"target": ["29"], "time": [2614]}, "edge": {"target": [], "time": []}}, "mouseover": {"state": {"target": ["23", "29"], "time": [1924, 2408]}, "edge": {"target": [], "time": []}}, "mouseout": {"state": {"target": ["13", "12", "0", "23", "29", "30"], "time": [608, 658, 1208, 1959, 2760, 9857]}, "edge": {"target": [], "time": []}}}, "displayed_time": "15.59", "trialTime": 16345, "trial_type": "mouselab-mdp", "trial_index": 46, "time_elapsed": 1435373, "internal_node_id": "0.0-4.0-1.0-31.0"}}, {"uniqueid": "w24516730:a24353449", "current_trial": 47, "dateTime": 1691143704006, "trialdata": {"revealed_states": [], "clicked_states": ["33", "31"], "num_clicks_accrued": [0, 0, 0, 0, 0, 0, 0, 0, 0, 0, 0, 0, 0], "stateRewards": ["", 1, 1, 4, 11, 83, -66, 18, -16, -23, 5, 25, 1, -3, 1, -12, 18, 24, -86, -11, -64, 36, 40, 2, 1, -6, 13, 55, 29, 72, -2, 81, -72, -41], "withholdReward": false, "trial_id": "mdp_trial_33", "block": "test", "trialIndex": 36, "score": 73.2, "costs": -2.8, "simulationMode": [null, null, null, null, null], "rewards": [2, 1, -6, -2, 81], "path": ["0", "0", "23", "24", "25", "30", "31"], "rt": [6595, 8, 110, 118, 39], "actions": ["left", "left", "left", "down", "right"], "actionTimes": [7731, 8247, 8867, 9503, 10066], "queries": {"click": {"state": {"target": ["33", "31"], "time": [2256, 4794]}, "edge": {"target": [], "time": []}}, "mouseover": {"state": {"target": ["23", "24", "30", "33", "30", "31", "22", "19", "20", "19", "31", "14", "17"], "time": [1532, 1582, 1699, 2067, 2550, 2568, 2650, 2669, 2784, 4282, 4601, 5150, 5408]}, "edge": {"target": [], "time": []}}, "mouseout": {"state": {"target": ["30", "31", "0", "23", "24", "30", "33", "30", "31", "22", "19", "20", "19", "31", "14", "17", "17", "15", "18", "27", "27", "23"], "time": [35, 416, 869, 1549, 1633, 1986, 2517, 2567, 2583, 2667, 2700, 4266, 4315, 4984, 5234, 15749, 16066, 16082, 16117, 16316, 16916, 17849]}, "edge": {"target": [], "time": []}}}, "displayed_time": "15.14", "trialTime": 18392, "trial_type": "mouselab-mdp", "trial_index": 47, "time_elapsed": 1454078, "internal_node_id": "0.0-4.0-1.0-32.0"}}, {"uniqueid": "w24516730:a24353449", "current_trial": 48, "dateTime": 1691143721612, "trialdata": {"revealed_states": [], "clicked_states": ["27", "29", "11", "10"], "num_clicks_accrued": [0, 0, 0, 0, 0, 0, 0, 0, 0, 0, 0, 0, 0], "stateRewards": ["", 1, 2, -3, -5, 66, -50, -47, -5, 1, 28, -27, 1, 1, -1, -6, 37, -25, 56, 1, -82, -66, -40, -1, -4, -7, 15, -61, -23, 26, 10, 14, -56, 29], "withholdReward": false, "trial_id": "mdp_trial_34", "block": "test", "trialIndex": 37, "score": 17.4, "costs": -5.6, "simulationMode": [null, null, null, null, null], "rewards": [1, 2, -3, -5, 28], "path": ["0", "0", "1", "2", "3", "8", "10"], "rt": [10368, 4, 772, 436, 375], "actions": ["up", "up", "up", "left", "down"], "actionTimes": [11658, 12170, 13453, 14400, 15289], "queries": {"click": {"state": {"target": ["27", "29", "11", "10"], "time": [2096, 4273, 6323, 8385]}, "edge": {"target": [], "time": []}}, "mouseover": {"state": {"target": ["28", "27", "26", "29", "7", "4", "11", "10"], "time": [1644, 1946, 3961, 4061, 4882, 5198, 5582, 7148]}, "edge": {"target": [], "time": []}}, "mouseout": {"state": {"target": ["24", "28", "28", "28", "27", "27", "26", "29", "7", "4", "11", "10", "23"], "time": [179, 279, 461, 1677, 2147, 2465, 4011, 4564, 4965, 5232, 7014, 9615, 16878]}, "edge": {"target": [], "time": []}}}, "displayed_time": "15.80", "trialTime": 17259, "trial_type": "mouselab-mdp", "trial_index": 48, "time_elapsed": 1471683, "internal_node_id": "0.0-4.0-1.0-33.0"}}, {"uniqueid": "w24516730:a24353449", "current_trial": 49, "dateTime": 1691143748454, "trialdata": {"revealed_states": [], "clicked_states": ["20", "17", "18", "10", "9", "6", "5", "31"], "num_clicks_accrued": [0, 0, 0, 0, 0, 0, 0, 0, 0, 0, 0, 0, 0], "stateRewards": ["", 2, -1, -3, 16, -3, -16, -62, -1, 13, -26, 43, -1, 4, 3, -9, -54, -37, -3, -12, -71, -68, -57, 1, -3, 2, -9, 2, -2, -9, -11, 84, -52, 55], "withholdReward": false, "trial_id": "mdp_trial_35", "block": "test", "trialIndex": 38, "score": 61.8, "costs": -11.200000000000001, "simulationMode": [null, null, null, null, null], "rewards": [1, -3, 2, -11, 84], "path": ["0", "0", "23", "24", "25", "30", "31"], "rt": [21533, 127, 26, 246, 71], "actions": ["left", "left", "left", "down", "right"], "actionTimes": [22430, 23075, 23607, 24380, 24970], "queries": {"click": {"state": {"target": ["20", "17", "18", "10", "9", "6", "5", "31"], "time": [2405, 4302, 6856, 8715, 11024, 13818, 16568, 19099]}, "edge": {"target": [], "time": []}}, "mouseover": {"state": {"target": ["0", "22", "14", "20", "17", "21", "19", "13", "18", "10", "10", "8", "11", "9", "8", "11", "8", "6", "5", "5", "4", "2", "24", "31", "32"], "time": [1206, 1345, 1513, 2162, 2814, 4863, 6394, 6494, 6711, 7347, 7564, 9182, 9249, 10845, 11548, 11799, 13294, 13645, 16012, 16229, 18511, 18578, 18762, 18846, 20130]}, "edge": {"target": [], "time": []}}, "mouseout": {"state": {"target": ["0", "0", "22", "14", "20", "17", "20", "21", "19", "13", "18", "10", "10", "10", "8", "11", "9", "8", "11", "8", "6", "5", "5", "4", "2", "24", "31"], "time": [678, 1228, 1396, 1562, 2682, 4530, 4680, 6362, 6411, 6562, 7097, 7447, 8804, 9048, 9215, 10728, 11499, 11599, 13279, 13311, 15962, 16044, 16902, 18529, 18595, 18796, 19930]}, "edge": {"target": [], "time": []}}}, "displayed_time": "25.48", "trialTime": 26535, "trial_type": "mouselab-mdp", "trial_index": 49, "time_elapsed": 1498525, "internal_node_id": "0.0-4.0-1.0-34.0"}}, {"uniqueid": "w24516730:a24353449", "current_trial": 50, "dateTime": 1691143766531, "trialdata": {"revealed_states": [], "clicked_states": ["32"], "num_clicks_accrued": [0, 0, 0, 0, 0, 0, 0, 0, 0, 0, 0, 0, 0], "stateRewards": ["", 1, 1, -3, 2, 22, -25, -11, -5, 50, 49, 3, 1, -1, 8, 14, -85, -30, 57, -6, -39, -16, 59, -2, -1, 5, 5, 59, -16, 8, 4, 67, 56, -9], "withholdReward": false, "trial_id": "mdp_trial_36", "block": "test", "trialIndex": 39, "score": 60.6, "costs": -1.4, "simulationMode": [null, null, null, null, null], "rewards": [-2, -1, 5, 4, 56], "path": ["0", "0", "23", "24", "25", "30", "32"], "rt": [5539, 149, 19, 28, 156], "actions": ["left", "left", "left", "down", "down"], "actionTimes": [8458, 9112, 9648, 10191, 10849], "queries": {"click": {"state": {"target": ["32"], "time": [3981]}, "edge": {"target": [], "time": []}}, "mouseover": {"state": {"target": ["32", "33", "33", "30", "30", "30", "31"], "time": [3476, 4743, 5164, 5593, 5843, 6094, 6245]}, "edge": {"target": [], "time": []}}, "mouseout": {"state": {"target": ["32", "12", "0", "32", "33", "33", "30", "30", "30", "31", "31"], "time": [1593, 1826, 2242, 4597, 4897, 5544, 5710, 5893, 6193, 6376, 13378]}, "edge": {"target": [], "time": []}}}, "displayed_time": "16.92", "trialTime": 17795, "trial_type": "mouselab-mdp", "trial_index": 50, "time_elapsed": 1516603, "internal_node_id": "0.0-4.0-1.0-35.0"}}, {"uniqueid": "w24516730:a24353449", "current_trial": 51, "dateTime": 1691143784598, "trialdata": {"revealed_states": [], "clicked_states": ["33", "31", "32", "29"], "num_clicks_accrued": [0, 0, 0, 0, 0, 0, 0, 0, 0, 0, 0, 0, 0], "stateRewards": ["", -2, 2, -5, 1, 42, -63, -58, -6, 2, 16, 81, -2, 4, 7, -10, 33, 3, -33, -2, -52, -84, -27, 2, -3, -3, 15, -74, -14, -5, -5, -84, 79, -31], "withholdReward": false, "trial_id": "mdp_trial_37", "block": "test", "trialIndex": 40, "score": 64.4, "costs": -5.6, "simulationMode": [null, null, null, null, null, null], "rewards": [2, -3, -3, -5, 79], "path": ["0", "0", "23", "24", "25", "30", "32"], "rt": [8468, 769, 184, 11, 142, 161], "actions": ["left", "left", "left", "left", "down", "down"], "actionTimes": [9447, 10217, 10910, 11435, 12084, 12755], "queries": {"click": {"state": {"target": ["33", "31", "32", "29"], "time": [1733, 3914, 6058, 8182]}, "edge": {"target": [], "time": []}}, "mouseover": {"state": {"target": ["23", "31", "30", "33", "32", "31", "32", "30", "25", "29", "26"], "time": [1274, 1355, 1405, 1522, 2442, 3738, 5905, 6307, 6374, 6617, 8543]}, "edge": {"target": [], "time": []}}, "mouseout": {"state": {"target": ["0", "23", "31", "30", "33", "32", "31", "32", "30", "25", "29", "26", "26", "29", "27", "11", "9", "32"], "time": [1256, 1290, 1372, 1471, 2142, 3602, 4158, 6247, 6339, 6390, 8493, 8559, 14073, 14105, 15439, 15554, 17221, 17407]}, "edge": {"target": [], "time": []}}}, "displayed_time": "14.98", "trialTime": 17773, "trial_type": "mouselab-mdp", "trial_index": 51, "time_elapsed": 1534670, "internal_node_id": "0.0-4.0-1.0-36.0"}}, {"uniqueid": "w24516730:a24353449", "current_trial": 52, "dateTime": 1691143801375, "trialdata": {"revealed_states": [], "clicked_states": ["9", "29"], "num_clicks_accrued": [0, 0, 0, 0, 0, 0, 0, 0, 0, 0, 0, 0, 0], "stateRewards": ["", -1, 3, 1, -11, -22, -36, 19, -5, -70, -52, 50, -2, -4, 4, -2, -41, -83, 29, -2, 22, 10, -6, -2, 3, -2, 14, 54, 44, 77, -9, -65, -37, -40], "withholdReward": false, "trial_id": "mdp_trial_38", "block": "test", "trialIndex": 41, "score": 87.2, "costs": -2.8, "simulationMode": [null, null, null, null, null], "rewards": [-2, 3, -2, 14, 77], "path": ["0", "0", "23", "24", "25", "26", "29"], "rt": [5511, 89, 98, 521, 65], "actions": ["left", "left", "left", "up", "left"], "actionTimes": [6628, 7239, 7849, 8887, 9466], "queries": {"click": {"state": {"target": ["9", "29"], "time": [1909, 3777]}, "edge": {"target": [], "time": []}}, "mouseover": {"state": {"target": ["1", "9", "11", "27", "26", "29", "26", "24", "24", "28"], "time": [1332, 1730, 2382, 2899, 2985, 3100, 4002, 4300, 4500, 4666]}, "edge": {"target": [], "time": []}}, "mouseout": {"state": {"target": ["31", "24", "10", "0", "1", "9", "9", "11", "27", "26", "29", "26", "24", "24", "28", "25", "24", "31"], "time": [45, 96, 429, 747, 1379, 1980, 2315, 2399, 2950, 2999, 3967, 4166, 4350, 4567, 11281, 11396, 11797, 15587]}, "edge": {"target": [], "time": []}}}, "displayed_time": "15.12", "trialTime": 16475, "trial_type": "mouselab-mdp", "trial_index": 52, "time_elapsed": 1551446, "internal_node_id": "0.0-4.0-1.0-37.0"}}, {"uniqueid": "w24516730:a24353449", "current_trial": 53, "dateTime": 1691143817564, "trialdata": {"revealed_states": [], "clicked_states": ["20"], "num_clicks_accrued": [0, 0, 0, 0, 0, 0, 0, 0, 0, 0, 0, 0, 0], "stateRewards": ["", -1, 3, -5, -2, -13, -9, -34, -7, -81, 32, 35, -2, -2, 1, -14, -32, 81, 7, 4, 82, 56, -8, -1, 3, -8, 6, -24, -24, -53, 2, 38, 61, 54], "withholdReward": false, "trial_id": "mdp_trial_39", "block": "test", "trialIndex": 42, "score": 81.6, "costs": -1.4, "simulationMode": [null, null, null, null, null], "rewards": [-2, -2, 1, 4, 82], "path": ["0", "0", "12", "13", "14", "19", "20"], "rt": [4018, 89, 54, 95, 112], "actions": ["right", "right", "right", "down", "right"], "actionTimes": [5144, 5738, 6302, 6928, 7561], "queries": {"click": {"state": {"target": ["20"], "time": [2077]}, "edge": {"target": [], "time": []}}, "mouseover": {"state": {"target": ["0", "12", "22", "19", "20", "21"], "time": [1134, 1490, 1599, 1748, 1913, 2468]}, "edge": {"target": [], "time": []}}, "mouseout": {"state": {"target": ["0", "0", "12", "22", "19", "20", "20", "21"], "time": [929, 1464, 1514, 1616, 1799, 2144, 2419, 2518]}, "edge": {"target": [], "time": []}}}, "displayed_time": "15.13", "trialTime": 15897, "trial_type": "mouselab-mdp", "trial_index": 53, "time_elapsed": 1567635, "internal_node_id": "0.0-4.0-1.0-38.0"}}, {"uniqueid": "w24516730:a24353449", "current_trial": 54, "dateTime": 1691143835565, "trialdata": {"revealed_states": [], "clicked_states": ["17"], "num_clicks_accrued": [0, 0, 0, 0, 0, 0, 0, 0, 0, 0, 0, 0, 0], "stateRewards": ["", 1, 4, 5, 8, -55, -11, 8, 16, -37, 77, -22, -2, 3, -8, -10, 45, 87, -67, 4, 17, -33, -22, -1, -3, 7, 6, -39, -85, 75, -1, 7, -48, 45], "withholdReward": false, "trial_id": "mdp_trial_40", "block": "test", "trialIndex": 43, "score": 68.6, "costs": -1.4, "simulationMode": [null, null, null, null, null], "rewards": [-2, 3, -8, -10, 87], "path": ["0", "0", "12", "13", "14", "15", "17"], "rt": [3637, 140, 41, 6, 97], "actions": ["right", "right", "right", "up", "right"], "actionTimes": [5872, 6522, 7075, 7572, 8195], "queries": {"click": {"state": {"target": ["17"], "time": [3071]}, "edge": {"target": [], "time": []}}, "mouseover": {"state": {"target": ["15", "17", "13", "33", "30", "31", "21"], "time": [2746, 3020, 3381, 4113, 5048, 5081, 5179]}, "edge": {"target": [], "time": []}}, "mouseout": {"state": {"target": ["0", "15", "17", "13", "33", "30", "31", "21", "20", "17"], "time": [1562, 2796, 3145, 3414, 5047, 5064, 5097, 10035, 11080, 12330]}, "edge": {"target": [], "time": []}}}, "displayed_time": "16.24", "trialTime": 17699, "trial_type": "mouselab-mdp", "trial_index": 54, "time_elapsed": 1585636, "internal_node_id": "0.0-4.0-1.0-39.0"}}, {"uniqueid": "w24516730:a24353449", "current_trial": 55, "dateTime": 1691143898572, "trialdata": {"rt": 62978, "response": {"Q0": "$-2 to $2", "Q1": "$-16 to $16", "Q2": "$-88 to $88", "Q3": "The cost for clicking on nodes varied between nodes.", "Q4": "Very motivated"}, "question_order": [0, 1, 2, 3, 4], "trial_id": "final_quiz_control", "trial_type": "survey-multi-choice", "trial_index": 55, "time_elapsed": 1648637, "internal_node_id": "0.0-4.0-2.0"}}, {"uniqueid": "w24516730:a24353449", "current_trial": 56, "dateTime": 1691144049822, "trialdata": {"rt": 151198, "response": {"Q0": "I Decided to inspect the most end nodes, so that i did not need to use to much money to inspect them, i used the direction with the highest end node", "Q1": "yes, at 1st i clicked on random nodes and noticed i used to much cash, so when i clicked on less end nodes i made more", "Q2": "it was quiet easy to figure out the best route"}, "trial_id": "self_report_control", "trial_type": "survey-text", "trial_index": 56, "time_elapsed": 1799894, "internal_node_id": "0.0-4.0-3.0"}}, {"uniqueid": "w24516730:a24353449", "current_trial": 57, "dateTime": 1691144076877, "trialdata": {"rt": 27048, "response": {"gender": "female", "age": "27", "colorblind": "0", "effort": "0"}, "trial_type": "survey-html-form", "trial_index": 57, "time_elapsed": 1826949, "internal_node_id": "0.0-4.0-4.0"}}, {"uniqueid": "w24516730:a24353449", "current_trial": 58, "dateTime": 1691144139513, "trialdata": {"rt": 62628, "response": {"Q0": "not at all, it was very straight forward", "Q1": "no this is my 1st time", "Q2": "very fun game, I wouldn't mind playing more"}, "trial_type": "survey-text", "trial_index": 58, "time_elapsed": 1889584, "internal_node_id": "0.0-4.0-5.0"}}, {"uniqueid": "w24516730:a24353449", "current_trial": 59, "dateTime": 1691144143266, "trialdata": {"rt": 3745, "stimulus": "Press 'Finish HIT' in order to reach the completion code. Once the data has been saved, you will receive the code either in this window or in the original browser window where you started the experiment.\n", "response": 0, "trial_type": "html-button-response", "trial_index": 59, "time_elapsed": 1893338, "internal_node_id": "0.0-5.0"}}, {"uniqueid": "w24516730:a24353449", "current_trial": 60, "dateTime": 1691144144274, "trialdata": {"success": true, "trial_type": "fullscreen", "trial_index": 60, "time_elapsed": 1894346, "internal_node_id": "0.0-6.0"}}], "questiondata": {"params": {"CODE": "C6DMOQA6", "MIN_TIME": 14, "inspectCost": 1, "startTime": "Fri Aug 04 2023 11:44:06 GMT+0200 (South Africa Standard Time)", "bonusRate": 0.002, "variance": "1_2_4_8_44", "branching": "31123"}, "final_score": 2268}, "eventdata": [{"eventtype": "initialized", "value": null, "timestamp": 1691142246092, "interval": 0}, {"eventtype": "window_resize", "value": [1028, 744], "timestamp": 1691142246092, "interval": 0}, {"eventtype": "window_resize", "value": [1028, 744], "timestamp": 1691142246811, "interval": 719}, {"eventtype": "window_resize", "value": [1536, 864], "timestamp": 1691142255309, "interval": 8498}, {"eventtype": "focus", "value": "off", "timestamp": 1691142583155, "interval": 327846}, {"eventtype": "focus", "value": "on", "timestamp": 1691142583155, "interval": 0}, {"eventtype": "window_resize", "value": [1028, 744], "timestamp": 1691142583371, "interval": 216}, {"eventtype": "window_resize", "value": [1536, 864], "timestamp": 1691142585666, "interval": 2295}, {"eventtype": "window_resize", "value": [1028, 744], "timestamp": 1691144143588, "interval": 1557922}], "useragent": "Mozilla/5.0 (Windows NT 10.0; Win64; x64) AppleWebKit/537.36 (KHTML, like Gecko) Chrome/115.0.0.0 Safari/537.36", "mode": "live", "id": "w24516730:a24353449", "status": "user data saved", "Beginhit": "2023-08-04 09:44:02.367126", "Beginexp": "2023-08-04 09:44:15.687128", "Endhit": "2023-08-04 10:15:59.021973", "psiturkStatus": 3, "browser": "<redacted>", "platform": "windows", "language": "en-US"}