{"condition": 0, "counterbalance": 0, "assignmentId": "a66726187", "workerId": "w21793705", "hitId": "h58742589", "currenttrial": 55, "bonus": 0, "data": [{"uniqueid": "w21793705:a66726187", "current_trial": 0, "dateTime": 1693565038845, "trialdata": {"success": true, "trial_type": "fullscreen", "trial_index": 0, "time_elapsed": 50044, "internal_node_id": "0.0-0.0"}}, {"uniqueid": "w21793705:a66726187", "current_trial": 1, "dateTime": 1693565066184, "trialdata": {"view_history": [{"page_index": 0, "viewing_time": 27316}], "rt": 27318, "trial_id": "exp_instructions_control", "trial_type": "instructions", "trial_index": 1, "time_elapsed": 77385, "internal_node_id": "0.0-1.0"}}, {"uniqueid": "w21793705:a66726187", "current_trial": 2, "dateTime": 1693565677064, "trialdata": {"view_history": [{"page_index": 0, "viewing_time": 133391}, {"page_index": 1, "viewing_time": 359296}, {"page_index": 2, "viewing_time": 6552}, {"page_index": 1, "viewing_time": 4904}, {"page_index": 2, "viewing_time": 54775}, {"page_index": 3, "viewing_time": 51953}], "rt": 610872, "trial_id": "mouselab_instructions_1_control", "trial_type": "instructions", "trial_index": 2, "time_elapsed": 688265, "internal_node_id": "0.0-2.0-1.0"}}, {"uniqueid": "w21793705:a66726187", "current_trial": 3, "dateTime": 1693565726399, "trialdata": {"revealed_states": [], "clicked_states": ["23", "1", "12"], "num_clicks_accrued": [0, 0, 0, 0, 0, 0, 0, 0, 0, 0, 0, 0, 0], "stateRewards": ["", -10, -10, -10, -10, -10, 10, 10, -10, -10, -10, -10, -10, 10, 10, 10, 10, 10, -10, 10, 10, 10, -10, 10, -10, 10, -10, -10, 10, -10, -10, 10, 10, 10], "withholdReward": false, "trial_id": "practice_1", "block": "test", "trialIndex": 0, "score": 32, "costs": -1.5, "simulationMode": [null, null, null, null, null], "rewards": [-10, 10, 10, 10, 10], "path": ["0", "0", "12", "13", "14", "19", "20"], "rt": [18196, 6805, 2358, 2710, 918], "actions": ["right", "right", "right", "down", "right"], "actionTimes": [25134, 32461, 35338, 38569, 40011], "queries": {"click": {"state": {"target": ["23", "1", "12"], "time": [14960, 17209, 22548]}, "edge": {"target": [], "time": []}}, "mouseover": {"state": {"target": ["1", "1", "0", "23", "24", "23", "1", "12"], "time": [7679, 9559, 9977, 10243, 11077, 14489, 16070, 20017]}, "edge": {"target": [], "time": []}}, "mouseout": {"state": {"target": ["18", "18", "12", "0", "0", "1", "1", "0", "23", "24", "23", "1", "12", "12", "13"], "time": [null, 1985, 3033, 5384, 7226, 8195, 9744, 10026, 10794, 14370, 15807, 19531, 23910, 27276, 42233]}, "edge": {"target": [], "time": []}}}, "displayed_time": "40.54", "trialTime": 46987, "trial_type": "mouselab-mdp", "trial_index": 3, "time_elapsed": 737597, "internal_node_id": "0.0-2.0-2.0-0.0"}}, {"uniqueid": "w21793705:a66726187", "current_trial": 4, "dateTime": 1693565786988, "trialdata": {"revealed_states": [], "clicked_states": ["1", "23", "12", "3", "13", "24", "30", "4", "8", "26", "15", "19"], "num_clicks_accrued": [0, 0, 0, 0, 0, 0, 0, 0, 0, 0, 0, 0, 0], "stateRewards": ["", 10, -10, 10, -10, 10, 10, 10, -10, -10, 10, 10, 10, 10, -10, 10, -10, -10, 10, 10, -10, -10, -10, 10, 10, -10, 10, 10, 10, 10, -10, -10, -10, -10], "withholdReward": false, "trial_id": "practice_2", "block": "test", "trialIndex": 1, "score": 27.5, "costs": -6, "simulationMode": [null, null, null, null, null], "rewards": [10, 10, -10, 10, 10], "path": ["0", "0", "23", "24", "25", "26", "29"], "rt": [44104, 247, 123, 3133, 642], "actions": ["left", "left", "left", "up", "left"], "actionTimes": [48950, 49747, 50418, 54075, 55247], "queries": {"click": {"state": {"target": ["1", "23", "12", "3", "13", "24", "30", "4", "8", "26", "15", "19"], "time": [6679, 9658, 13809, 17521, 21585, 24514, 30007, 33870, 37358, 39665, 42154, 44527]}, "edge": {"target": [], "time": []}}, "mouseover": {"state": {"target": ["1", "23", "0", "12", "2", "3", "2", "18", "15", "14", "13", "24", "25", "24", "0", "31", "30", "31", "31", "24", "23", "1", "18", "4", "8", "10", "28", "26", "28", "1", "18", "15", "14", "19", "13", "12", "24"], "time": [6092, 8754, 11100, 11917, 15950, 17215, 19374, 20097, 20263, 20812, 21323, 23294, 24023, 24276, 28689, 28871, 29220, 30194, 31700, 32274, 32750, 32951, 33001, 33451, 35907, 38165, 38694, 39061, 40564, 41409, 41692, 41917, 43937, 44256, 46035, 47734, 48151]}, "edge": {"target": [], "time": []}}, "mouseout": {"state": {"target": ["12", "0", "1", "23", "0", "12", "12", "2", "3", "2", "18", "15", "14", "13", "24", "25", "24", "0", "31", "30", "31", "31", "24", "23", "1", "18", "4", "4", "8", "10", "28", "26", "28", "1", "18", "15", "14", "19", "13", "12", "24", "24", "1"], "time": [2280, 2678, 7480, 10911, 11435, 13869, 15567, 17062, 19041, 19513, 20146, 20646, 21292, 22032, 23543, 24217, 26440, 28754, 29154, 30188, 30255, 31989, 32664, 32767, 32968, 33167, 33940, 34735, 38048, 38250, 38778, 40297, 41164, 41542, 41742, 42595, 44206, 45109, 46154, 47769, 48352, 56340, 57624]}, "edge": {"target": [], "time": []}}}, "displayed_time": "55.77", "trialTime": 59986, "trial_type": "mouselab-mdp", "trial_index": 4, "time_elapsed": 798187, "internal_node_id": "0.0-2.0-2.0-1.0"}}, {"uniqueid": "w21793705:a66726187", "current_trial": 5, "dateTime": 1693565943421, "trialdata": {"view_history": [{"page_index": 0, "viewing_time": 107240}, {"page_index": 1, "viewing_time": 18112}, {"page_index": 0, "viewing_time": 25564}, {"page_index": 1, "viewing_time": 5504}], "rt": 156421, "trial_id": "mouselab_instructions_2_control", "trial_type": "instructions", "trial_index": 5, "time_elapsed": 954622, "internal_node_id": "0.0-2.0-3.0"}}, {"uniqueid": "w21793705:a66726187", "current_trial": 6, "dateTime": 1693566019269, "trialdata": {"rt": 75833, "response": {"Q0": "The cost for clicking on nodes may vary between nodes.", "Q1": "The better I perform the higher my bonus will be.", "Q2": "No, the amount of cash at each node of the web may be different each time.", "Q3": "To get the highest total score.", "Q4": "Only before moving the spider.", "Q5": "3 seconds"}, "question_order": [0, 1, 2, 3, 4, 5], "correct": {"Q0": "The cost for clicking on nodes may vary between nodes.", "Q1": "The better I perform the higher my bonus will be.", "Q2": "No, the amount of cash at each node of the web may be different each time.", "Q3": "To get the highest total score.", "Q4": "Only before moving the spider.", "Q5": "3 seconds"}, "trial_id": "mouselab_quiz_control", "trial_type": "survey-multi-choice", "trial_index": 6, "time_elapsed": 1030470, "internal_node_id": "0.0-2.0-4.0"}}, {"uniqueid": "w21793705:a66726187", "current_trial": 7, "dateTime": 1693566031259, "trialdata": {"rt": 11967, "response": {"Q0": "No"}, "question_order": [0], "trial_id": "repeat_check", "trial_type": "survey-multi-choice", "trial_index": 7, "time_elapsed": 1042459, "internal_node_id": "0.0-4.0-0.0"}}, {"uniqueid": "w21793705:a66726187", "current_trial": 8, "dateTime": 1693566066108, "trialdata": {"rt": 34834, "stimulus": "\n<h1> Get ready to start the game! </h1>\n\nThank you for reading the instructions. Get ready start with the 40 rounds of this game.\n<br><br>\nIf you need to take a break, feel free to take one after the end of a round, before continuing to the next one.\n<br><br>\nRemember, the more money the spider gets, the bigger your bonus will be!\n<br><br>\n<div style='text-align: center;'>Press <code>space</code> to begin.</div>\n\n<br><br>\n(If, at any point, the <code>space</code> key does not take you to the next page, click once on the text and try again.)", "response": " ", "trial_id": "mdp_ready", "trial_type": "html-keyboard-response", "trial_index": 8, "time_elapsed": 1077309, "internal_node_id": "0.0-6.0-0.0"}}, {"uniqueid": "w21793705:a66726187", "current_trial": 9, "dateTime": 1693566096865, "trialdata": {"revealed_states": [], "clicked_states": ["3", "14", "25"], "num_clicks_accrued": [0, 0, 0, 0, 0, 0, 0, 0, 0, 0, 0, 0, 0], "stateRewards": ["", -1, 2, 6, 11, 21, -21, -21, -6, 48, -71, 88, -1, -3, 3, 7, 64, 2, 9, -4, 37, -67, 72, 2, 2, -8, -8, -10, 71, -40, -3, 73, 80, 47], "withholdReward": false, "trial_id": "mdp_trial_1", "block": "test", "trialIndex": 2, "score": 65.8, "costs": -4.199999999999999, "simulationMode": [null, null, null, null, null], "rewards": [-1, -3, 3, 7, 64], "path": ["0", "0", "12", "13", "14", "15", "16"], "rt": [14133, 830, 281, 796, 105], "actions": ["right", "right", "right", "up", "up"], "actionTimes": [18959, 20318, 21116, 22428, 23053], "queries": {"click": {"state": {"target": ["3", "14", "25"], "time": [6857, 10805, 13985]}, "edge": {"target": [], "time": []}}, "mouseover": {"state": {"target": ["1", "2", "3", "7", "4", "18", "15", "14", "13", "23", "24", "25", "28", "2", "7", "12"], "time": [5841, 6023, 6389, 8847, 9071, 10236, 10302, 10369, 11671, 12357, 12801, 13268, 16567, 17046, 17312, 17842]}, "edge": {"target": [], "time": []}}, "mouseout": {"state": {"target": ["2", "1", "1", "2", "3", "7", "4", "18", "15", "14", "13", "23", "24", "25", "28", "2", "7", "12", "0"], "time": [2424, 2574, 5939, 6223, 8108, 8872, 10102, 10253, 10335, 11588, 11757, 12618, 13062, 14402, 16630, 17063, 17330, 27969, 28917]}, "edge": {"target": [], "time": []}}}, "displayed_time": "23.59", "trialTime": 30057, "trial_type": "mouselab-mdp", "trial_index": 9, "time_elapsed": 1108063, "internal_node_id": "0.0-6.0-1.0-0.0"}}, {"uniqueid": "w21793705:a66726187", "current_trial": 10, "dateTime": 1693566140668, "trialdata": {"revealed_states": [], "clicked_states": ["3", "14", "25", "26", "15", "19", "4", "8"], "num_clicks_accrued": [0, 0, 0, 0, 0, 0, 0, 0, 0, 0, 0, 0, 0], "stateRewards": ["", -2, 4, 3, 5, -61, 4, 30, 1, -47, 83, 10, 1, 4, 7, -14, 19, -74, -83, 6, -2, -2, -65, -1, -2, 4, -11, 12, -1, -68, 11, -38, -28, 66], "withholdReward": false, "trial_id": "mdp_trial_2", "block": "test", "trialIndex": 3, "score": 28.799999999999997, "costs": -11.200000000000001, "simulationMode": [null, null, null, null, null], "rewards": [-2, 4, 3, 5, 30], "path": ["0", "0", "1", "2", "3", "4", "7"], "rt": [25711, 98, 319, 1238, 311], "actions": ["up", "up", "up", "right", "down"], "actionTimes": [33350, 33970, 34821, 36590, 37427], "queries": {"click": {"state": {"target": ["3", "14", "25", "26", "15", "19", "4", "8"], "time": [9118, 12421, 15288, 18744, 21808, 24477, 27146, 29105]}, "edge": {"target": [], "time": []}}, "mouseover": {"state": {"target": ["1", "2", "3", "7", "13", "14", "24", "25", "26", "26", "28", "15", "14", "19", "22", "12", "1", "3", "4", "8"], "time": [8202, 8385, 8585, 11184, 11383, 11649, 14697, 14863, 17409, 18068, 20606, 21222, 23954, 24104, 25513, 25654, 26368, 26668, 26734, 28520]}, "edge": {"target": [], "time": []}}, "mouseout": {"state": {"target": ["0", "1", "2", "3", "7", "13", "14", "24", "25", "26", "26", "28", "15", "14", "19", "22", "12", "1", "3", "4", "8", "12"], "time": [8067, 8302, 8518, 10238, 11222, 11516, 13869, 14830, 15749, 17776, 19378, 20674, 22525, 24003, 25472, 25537, 26185, 26468, 26701, 28069, 31247, 41185]}, "edge": {"target": [], "time": []}}}, "displayed_time": "37.95", "trialTime": 43188, "trial_type": "mouselab-mdp", "trial_index": 10, "time_elapsed": 1151866, "internal_node_id": "0.0-6.0-1.0-1.0"}}, {"uniqueid": "w21793705:a66726187", "current_trial": 11, "dateTime": 1693566179495, "trialdata": {"revealed_states": [], "clicked_states": ["3", "14", "25", "4", "8", "11", "9", "10"], "num_clicks_accrued": [0, 0, 0, 0, 0, 0, 0, 0, 0, 0, 0, 0, 0], "stateRewards": ["", 1, 4, 7, -16, -84, -6, -46, -12, -7, -49, -26, -1, 2, -4, 2, 22, 37, -64, 1, 88, -13, -10, 1, -4, -2, 5, 2, -10, -34, 9, 66, 55, 38], "withholdReward": false, "trial_id": "mdp_trial_3", "block": "test", "trialIndex": 4, "score": -18.200000000000003, "costs": -11.200000000000001, "simulationMode": [null, null, null, null, null], "rewards": [1, 4, 7, -12, -7], "path": ["0", "0", "1", "2", "3", "8", "9"], "rt": [21845, 152, 278, 1613, 365], "actions": ["up", "up", "up", "left", "up"], "actionTimes": [26124, 26812, 27625, 29772, 30655], "queries": {"click": {"state": {"target": ["3", "14", "25", "4", "8", "11", "9", "10"], "time": [5559, 8461, 11263, 14688, 16754, 19153, 21134, 23027]}, "edge": {"target": [], "time": []}}, "mouseover": {"state": {"target": ["1", "2", "3", "13", "14", "13", "12", "0", "23", "24", "25", "24", "10", "4", "8", "11", "9", "8", "10", "8"], "time": [4755, 4941, 5072, 7888, 8042, 9050, 9139, 9640, 9906, 10400, 10816, 11936, 13489, 13913, 15632, 18451, 19894, 21443, 21626, 23943]}, "edge": {"target": [], "time": []}}, "mouseout": {"state": {"target": ["0", "0", "1", "2", "3", "13", "14", "13", "12", "0", "23", "24", "25", "24", "10", "4", "8", "8", "11", "9", "8", "10", "8", "7", "12", "12"], "time": [1990, 4303, 4906, 4989, 6273, 8003, 8998, 9086, 9437, 9771, 10265, 10633, 11853, 13250, 13517, 15199, 16930, 18262, 19578, 21325, 21543, 23624, 23968, 34592, 34792, 36921]}, "edge": {"target": [], "time": []}}}, "displayed_time": "31.18", "trialTime": 38144, "trial_type": "mouselab-mdp", "trial_index": 11, "time_elapsed": 1190694, "internal_node_id": "0.0-6.0-1.0-2.0"}}, {"uniqueid": "w21793705:a66726187", "current_trial": 12, "dateTime": 1693566203730, "trialdata": {"revealed_states": [], "clicked_states": ["14", "25", "4", "8"], "num_clicks_accrued": [0, 0, 0, 0, 0, 0, 0, 0, 0, 0, 0, 0, 0], "stateRewards": ["", -1, 1, 6, -6, 70, 66, 67, -16, -75, -35, 37, -1, 4, 4, -6, 47, -9, 63, 15, 21, -63, 13, 1, 3, -6, 10, 79, -29, 18, -15, 9, -67, -19], "withholdReward": false, "trial_id": "mdp_trial_4", "block": "test", "trialIndex": 5, "score": -13.6, "costs": -5.6, "simulationMode": [null, null, null, null, null], "rewards": [-1, 4, 4, -6, -9], "path": ["0", "0", "12", "13", "14", "15", "17"], "rt": [13639, 26, 149, 934, 133], "actions": ["right", "right", "right", "up", "right"], "actionTimes": [17026, 17605, 18282, 19748, 20411], "queries": {"click": {"state": {"target": ["14", "25", "4", "8"], "time": [5715, 9078, 11180, 13150]}, "edge": {"target": [], "time": []}}, "mouseover": {"state": {"target": ["13", "14", "15", "14", "13", "2", "3", "8", "10", "24", "25", "24", "10", "3", "4", "8", "2"], "time": [4050, 4449, 4848, 5468, 6135, 6616, 7281, 7895, 8425, 8678, 8794, 9565, 10023, 10273, 10429, 12177, 16738]}, "edge": {"target": [], "time": []}}, "mouseout": {"state": {"target": ["12", "0", "13", "14", "15", "14", "13", "2", "3", "8", "10", "24", "25", "24", "10", "3", "4", "8", "2", "7", "12"], "time": [2117, 3664, 4184, 4749, 5363, 6101, 6217, 7117, 7847, 8411, 8478, 8762, 9515, 9598, 10180, 10331, 11479, 13560, 21561, 22117, 22684]}, "edge": {"target": [], "time": []}}}, "displayed_time": "20.94", "trialTime": 23529, "trial_type": "mouselab-mdp", "trial_index": 12, "time_elapsed": 1214930, "internal_node_id": "0.0-6.0-1.0-3.0"}}, {"uniqueid": "w21793705:a66726187", "current_trial": 13, "dateTime": 1693566230463, "trialdata": {"revealed_states": [], "clicked_states": ["14", "3", "25", "1", "12", "23", "32"], "num_clicks_accrued": [0, 0, 0, 0, 0, 0, 0, 0, 0, 0, 0, 0, 0], "stateRewards": ["", 2, 4, 4, 9, -88, -10, 44, 16, -54, 64, 78, 1, 2, 5, 16, 80, 36, 7, -4, 9, -47, -70, -1, -3, 6, -16, 11, 80, 28, 8, -1, 34, -17], "withholdReward": false, "trial_id": "mdp_trial_5", "block": "test", "trialIndex": 6, "score": 34.2, "costs": -9.8, "simulationMode": [null, null, null, null, null], "rewards": [-1, -3, 6, 8, 34], "path": ["0", "0", "23", "24", "25", "30", "32"], "rt": [18581, 3, 79, 106, 28], "actions": ["left", "left", "left", "down", "down"], "actionTimes": [20653, 21206, 21836, 22505, 23062], "queries": {"click": {"state": {"target": ["14", "3", "25", "1", "12", "23", "32"], "time": [3185, 5712, 8265, 10797, 12726, 14553, 18608]}, "edge": {"target": [], "time": []}}, "mouseover": {"state": {"target": ["12", "13", "14", "13", "1", "2", "3", "2", "23", "24", "25", "24", "23", "0", "23", "1", "12", "0", "23", "31", "30", "32", "31"], "time": [2595, 2644, 2891, 3661, 5303, 5422, 5557, 6124, 6960, 7683, 8192, 8791, 8927, 9259, 10369, 10651, 11686, 13645, 13885, 17378, 17952, 18359, 19828]}, "edge": {"target": [], "time": []}}, "mouseout": {"state": {"target": ["12", "0", "12", "13", "14", "14", "13", "1", "2", "3", "2", "23", "24", "25", "24", "23", "0", "23", "1", "12", "0", "23", "31", "30", "32", "31", "0"], "time": [858, 2584, 2625, 2791, 3300, 3625, 3690, 5320, 5472, 6041, 6146, 7353, 7853, 8740, 8905, 8988, 9935, 10452, 11398, 13435, 13717, 15034, 17676, 18272, 18879, 20977, 25037]}, "edge": {"target": [], "time": []}}}, "displayed_time": "23.64", "trialTime": 25888, "trial_type": "mouselab-mdp", "trial_index": 13, "time_elapsed": 1241661, "internal_node_id": "0.0-6.0-1.0-4.0"}}, {"uniqueid": "w21793705:a66726187", "current_trial": 14, "dateTime": 1693566255094, "trialdata": {"revealed_states": [], "clicked_states": ["14", "3", "25", "32", "21", "16"], "num_clicks_accrued": [0, 0, 0, 0, 0, 0, 0, 0, 0, 0, 0, 0, 0], "stateRewards": ["", -1, 2, -7, -12, -62, 12, -13, 5, 77, -71, 83, 1, -4, 7, 15, -42, -87, -4, 5, -25, 44, 88, -1, 4, -5, -8, 14, 51, 8, -5, 83, -24, -19], "withholdReward": false, "trial_id": "mdp_trial_6", "block": "test", "trialIndex": 7, "score": 44.6, "costs": -8.4, "simulationMode": [null, null, null, null, null], "rewards": [1, -4, 7, 5, 44], "path": ["0", "0", "12", "13", "14", "19", "21"], "rt": [14946, 3, 703, 132, 102], "actions": ["right", "right", "right", "down", "down"], "actionTimes": [18170, 18721, 19967, 20635, 21283], "queries": {"click": {"state": {"target": ["14", "3", "25", "32", "21", "16"], "time": [4891, 6904, 9154, 11341, 13683, 15696]}, "edge": {"target": [], "time": []}}, "mouseover": {"state": {"target": ["12", "13", "14", "13", "2", "3", "2", "24", "25", "31", "32", "21", "19", "20", "15", "16"], "time": [3933, 4183, 4599, 5273, 5835, 6150, 7285, 7585, 7686, 10217, 10715, 13044, 14165, 14335, 14628, 14979]}, "edge": {"target": [], "time": []}}, "mouseout": {"state": {"target": ["12", "0", "0", "12", "13", "14", "13", "2", "3", "2", "24", "25", "31", "32", "21", "19", "20", "15", "16", "15", "18", "13", "12", "12"], "time": [2116, 2250, 3665, 3949, 4473, 5237, 5314, 5886, 7218, 7317, 7620, 9483, 10414, 11512, 13771, 14258, 14496, 14779, 16227, 22481, 22943, 23214, 23348, 23846]}, "edge": {"target": [], "time": []}}}, "displayed_time": "21.82", "trialTime": 23940, "trial_type": "mouselab-mdp", "trial_index": 14, "time_elapsed": 1266293, "internal_node_id": "0.0-6.0-1.0-5.0"}}, {"uniqueid": "w21793705:a66726187", "current_trial": 15, "dateTime": 1693566286278, "trialdata": {"revealed_states": [], "clicked_states": ["14", "25", "3", "16", "21", "20", "17", "18"], "num_clicks_accrued": [0, 0, 0, 0, 0, 0, 0, 0, 0, 0, 0, 0, 0], "stateRewards": ["", 1, -2, 4, 7, -43, -83, -60, -5, -86, -80, 83, -1, -2, 6, 11, -15, 21, 13, 9, 29, -49, 11, -1, 4, -6, -11, 87, 40, 63, -8, -39, -11, 62], "withholdReward": false, "trial_id": "mdp_trial_7", "block": "test", "trialIndex": 8, "score": 29.799999999999997, "costs": -11.200000000000001, "simulationMode": [null, null, null, null, null], "rewards": [-1, -2, 6, 9, 29], "path": ["0", "0", "12", "13", "14", "19", "20"], "rt": [19250, 375, 186, 150, 175], "actions": ["right", "right", "right", "down", "right"], "actionTimes": [24019, 24943, 25663, 26356, 27071], "queries": {"click": {"state": {"target": ["14", "25", "3", "16", "21", "20", "17", "18"], "time": [5984, 8020, 10093, 12938, 15038, 17234, 19272, 21340]}, "edge": {"target": [], "time": []}}, "mouseover": {"state": {"target": ["1", "14", "13", "24", "25", "24", "23", "3", "7", "18", "15", "16", "19", "21", "20", "15", "17", "18", "15"], "time": [5316, 5732, 6400, 6950, 7249, 8255, 8334, 9155, 10536, 11014, 12557, 12740, 13897, 14360, 15859, 18113, 18708, 19874, 22675]}, "edge": {"target": [], "time": []}}, "mouseout": {"state": {"target": ["12", "12", "0", "1", "14", "13", "24", "25", "24", "23", "3", "7", "18", "15", "16", "19", "21", "20", "15", "17", "17", "18", "15", "18", "12"], "time": [1343, 3308, 5214, 5531, 6338, 6435, 7098, 8222, 8295, 8645, 10434, 10685, 12291, 12708, 13215, 13963, 15118, 17610, 18244, 19344, 19624, 21588, 27681, 27959, 29189]}, "edge": {"target": [], "time": []}}}, "displayed_time": "27.61", "trialTime": 30535, "trial_type": "mouselab-mdp", "trial_index": 15, "time_elapsed": 1297478, "internal_node_id": "0.0-6.0-1.0-6.0"}}, {"uniqueid": "w21793705:a66726187", "current_trial": 16, "dateTime": 1693566306191, "trialdata": {"revealed_states": [], "clicked_states": ["9", "29"], "num_clicks_accrued": [0, 0, 0, 0, 0, 0, 0, 0, 0, 0, 0, 0, 0], "stateRewards": ["", 2, 4, -5, 7, 81, 35, 6, 11, 14, -72, 42, -1, 2, 3, -7, -77, -44, -40, -15, -85, 51, -32, -2, -1, -5, 7, -74, 47, 52, 16, -49, 48, -46], "withholdReward": false, "trial_id": "mdp_trial_8", "block": "test", "trialIndex": 9, "score": 48.2, "costs": -2.8, "simulationMode": [null, null, null, null, null], "rewards": [-2, -1, -5, 7, 52], "path": ["0", "0", "23", "24", "25", "26", "29"], "rt": [7503, 4, 158, 604, 203], "actions": ["left", "left", "left", "up", "left"], "actionTimes": [10042, 10578, 11283, 12440, 13177], "queries": {"click": {"state": {"target": ["9", "29"], "time": [4254, 6770]}, "edge": {"target": [], "time": []}}, "mouseover": {"state": {"target": ["10", "8", "9", "3", "10", "28", "26", "29", "26", "23", "1", "2", "4", "4"], "time": [3346, 3463, 3646, 5087, 5488, 5889, 6059, 6523, 7327, 7715, 7949, 8098, 8281, 9141]}, "edge": {"target": [], "time": []}}, "mouseout": {"state": {"target": ["12", "0", "10", "8", "9", "3", "10", "28", "26", "29", "26", "23", "1", "2", "4", "4", "18"], "time": [1430, 3016, 3413, 3613, 4575, 5237, 5707, 5985, 6308, 7285, 7502, 7849, 8048, 8148, 8858, 9159, 18016]}, "edge": {"target": [], "time": []}}}, "displayed_time": "16.54", "trialTime": 19254, "trial_type": "mouselab-mdp", "trial_index": 16, "time_elapsed": 1317390, "internal_node_id": "0.0-6.0-1.0-7.0"}}, {"uniqueid": "w21793705:a66726187", "current_trial": 17, "dateTime": 1693566327445, "trialdata": {"revealed_states": [], "clicked_states": ["9", "5"], "num_clicks_accrued": [0, 0, 0, 0, 0, 0, 0, 0, 0, 0, 0, 0, 0], "stateRewards": ["", -2, -3, 7, -13, 60, 9, 37, -6, 37, 20, 1, 2, -2, -8, 6, -80, -31, -10, -7, 70, -65, -44, -1, 1, 7, 6, -11, 73, -85, 16, -21, 47, 34], "withholdReward": false, "trial_id": "mdp_trial_9", "block": "test", "trialIndex": 10, "score": 46.2, "costs": -2.8, "simulationMode": [null, null, null, null, null], "rewards": [-2, -3, 7, -13, 60], "path": ["0", "0", "1", "2", "3", "4", "5"], "rt": [6924, 16, 54, 518, 1486], "actions": ["up", "up", "up", "right", "up"], "actionTimes": [10347, 10908, 11546, 12650, 14671], "queries": {"click": {"state": {"target": ["9", "5"], "time": [5148, 7279]}, "edge": {"target": [], "time": []}}, "mouseover": {"state": {"target": ["8", "9", "3", "3", "4", "5", "4", "2", "28", "26", "29", "28"], "time": [4044, 4227, 5398, 5829, 6050, 6242, 7597, 7728, 7916, 8017, 8100, 9922]}, "edge": {"target": [], "time": []}}, "mouseout": {"state": {"target": ["0", "0", "8", "9", "3", "3", "4", "5", "4", "2", "28", "26", "29", "28", "1", "12", "12", "12"], "time": [2627, 3528, 4127, 5345, 5584, 5913, 6079, 7531, 7657, 7764, 7976, 8059, 9709, 10611, 16143, 18563, 20028, 20483]}, "edge": {"target": [], "time": []}}}, "displayed_time": "17.43", "trialTime": 20559, "trial_type": "mouselab-mdp", "trial_index": 17, "time_elapsed": 1338644, "internal_node_id": "0.0-6.0-1.0-8.0"}}, {"uniqueid": "w21793705:a66726187", "current_trial": 18, "dateTime": 1693566360079, "trialdata": {"revealed_states": [], "clicked_states": ["21", "17", "16", "29", "33", "9", "5", "6"], "num_clicks_accrued": [0, 0, 0, 0, 0, 0, 0, 0, 0, 0, 0, 0, 0], "stateRewards": ["", -2, 2, 5, -14, -56, 64, 84, -5, 52, 39, 85, -2, 1, 7, 8, 21, 29, -78, -9, -10, -69, 10, -2, -1, -7, 15, 72, 20, 41, -2, 52, 80, 22], "withholdReward": false, "trial_id": "mdp_trial_10", "block": "test", "trialIndex": 11, "score": 43.8, "costs": -11.200000000000001, "simulationMode": [null, null, null, null, null], "rewards": [-2, 2, 5, -14, 64], "path": ["0", "0", "1", "2", "3", "4", "6"], "rt": [19979, 177, 190, 513, 373], "actions": ["up", "up", "up", "right", "right"], "actionTimes": [25076, 25812, 26561, 27635, 28555], "queries": {"click": {"state": {"target": ["21", "17", "16", "29", "33", "9", "5", "6"], "time": [6308, 8712, 11193, 13590, 15875, 18001, 20103, 22192]}, "edge": {"target": [], "time": []}}, "mouseover": {"state": {"target": ["12", "13", "19", "21", "20", "17", "15", "16", "7", "1", "28", "26", "29", "33", "24", "8", "9", "5", "4", "6", "2"], "time": [5549, 5748, 5866, 6165, 7000, 8530, 9174, 9402, 11548, 11706, 11811, 12155, 12416, 14265, 16530, 16796, 17012, 18945, 20562, 20859, 24512]}, "edge": {"target": [], "time": []}}, "mouseout": {"state": {"target": ["18", "18", "18", "12", "0", "12", "13", "19", "21", "20", "17", "15", "16", "7", "1", "28", "26", "29", "33", "24", "8", "9", "5", "4", "6", "2", "7"], "time": [1335, 1851, 3333, 3766, 5448, 5716, 5799, 5965, 6653, 7752, 8830, 9288, 11485, 11593, 11760, 11910, 12251, 13830, 16102, 16596, 16899, 18193, 20462, 20610, 22625, 24566, 29627]}, "edge": {"target": [], "time": []}}}, "displayed_time": "29.11", "trialTime": 31908, "trial_type": "mouselab-mdp", "trial_index": 18, "time_elapsed": 1371279, "internal_node_id": "0.0-6.0-1.0-9.0"}}, {"uniqueid": "w21793705:a66726187", "current_trial": 19, "dateTime": 1693566398461, "trialdata": {"revealed_states": [], "clicked_states": ["29", "17", "21", "32", "9", "5", "7", "28", "18", "22", "31"], "num_clicks_accrued": [0, 0, 0, 0, 0, 0, 0, 0, 0, 0, 0, 0, 0], "stateRewards": ["", 2, 3, 3, 10, 19, -21, 6, 9, 54, 68, 16, 2, 2, -6, -8, 40, -2, -75, -2, -42, 55, 59, -1, 2, 4, -14, 11, -34, -30, -6, 61, -53, 13], "withholdReward": false, "trial_id": "mdp_trial_11", "block": "test", "trialIndex": 12, "score": 44.599999999999994, "costs": -15.400000000000002, "simulationMode": [null, null, null, null, null], "rewards": [-1, 2, 4, -6, 61], "path": ["0", "0", "23", "24", "25", "30", "31"], "rt": [26200, 402, 180, 364, 472], "actions": ["left", "left", "left", "down", "right"], "actionTimes": [29934, 30877, 31619, 32532, 33556], "queries": {"click": {"state": {"target": ["29", "17", "21", "32", "9", "5", "7", "28", "18", "22", "31"], "time": [6072, 7690, 9810, 12210, 14249, 16440, 18451, 20489, 22966, 25075, 27245]}, "edge": {"target": [], "time": []}}, "mouseover": {"state": {"target": ["1", "1", "23", "31", "29", "25", "24", "13", "14", "17", "14", "19", "21", "31", "30", "33", "32", "31", "24", "28", "8", "9", "5", "6", "7", "10", "24", "28", "18", "13", "22", "31"], "time": [4144, 4556, 5292, 5443, 5858, 6613, 6796, 6881, 7094, 7310, 8382, 8664, 8865, 10629, 10862, 10992, 11409, 12514, 12656, 12741, 12946, 13086, 14909, 16859, 17346, 18889, 19202, 19443, 22809, 23584, 24556, 25863]}, "edge": {"target": [], "time": []}}, "mouseout": {"state": {"target": ["0", "1", "1", "23", "31", "29", "25", "24", "13", "14", "17", "14", "19", "21", "31", "30", "33", "32", "31", "24", "28", "8", "9", "9", "5", "6", "7", "10", "24", "28", "28", "18", "13", "22", "31", "0", "12"], "time": [3760, 4227, 5175, 5309, 5459, 6464, 6680, 6836, 6991, 7194, 8264, 8614, 8715, 9893, 10664, 10911, 11352, 12457, 12613, 12697, 12791, 12992, 14316, 14490, 16757, 17207, 18672, 19037, 19338, 20542, 20751, 23467, 24353, 25483, 27748, 35664, 37463]}, "edge": {"target": [], "time": []}}}, "displayed_time": "34.09", "trialTime": 37644, "trial_type": "mouselab-mdp", "trial_index": 19, "time_elapsed": 1409660, "internal_node_id": "0.0-6.0-1.0-10.0"}}, {"uniqueid": "w21793705:a66726187", "current_trial": 20, "dateTime": 1693566443880, "trialdata": {"revealed_states": [], "clicked_states": ["29", "28", "31", "18", "22", "7"], "num_clicks_accrued": [0, 0, 0, 0, 0, 0, 0, 0, 0, 0, 0, 0, 0], "stateRewards": ["", 1, -2, -3, 14, -42, -87, -37, -11, -50, 33, -44, -2, 4, -7, 13, 48, -75, -66, 12, 23, -2, 82, 1, -4, 3, 12, 51, -15, -26, -11, -52, -29, 82], "withholdReward": false, "trial_id": "mdp_trial_12", "block": "test", "trialIndex": 13, "score": 80.6, "costs": -8.4, "simulationMode": [null, null, null, null, null], "rewards": [-2, 4, -7, 12, 82], "path": ["0", "0", "12", "13", "14", "19", "22"], "rt": [13174, 31, 87, 145, 183], "actions": ["right", "right", "right", "down", "left"], "actionTimes": [39025, 39630, 40295, 41011, 41747], "queries": {"click": {"state": {"target": ["29", "28", "31", "18", "22", "7"], "time": [27335, 29444, 31610, 33572, 35489, 37481]}, "edge": {"target": [], "time": []}}, "mouseover": {"state": {"target": ["1", "29", "26", "28", "24", "28", "24", "31", "13", "18", "13", "22", "13", "7"], "time": [26378, 27026, 27571, 28597, 29157, 29283, 29708, 29923, 32091, 32524, 33776, 33984, 35740, 36015]}, "edge": {"target": [], "time": []}}, "mouseout": {"state": {"target": ["7", "0", "1", "29", "26", "28", "24", "28", "24", "31", "13", "18", "13", "22", "13", "18", "7", "7"], "time": [877, 25879, 26395, 27545, 27593, 28694, 29175, 29629, 29852, 31859, 32224, 33740, 33848, 35674, 35807, 35906, 37536, 37944]}, "edge": {"target": [], "time": []}}}, "displayed_time": "42.29", "trialTime": 44610, "trial_type": "mouselab-mdp", "trial_index": 20, "time_elapsed": 1455080, "internal_node_id": "0.0-6.0-1.0-11.0"}}, {"uniqueid": "w21793705:a66726187", "current_trial": 21, "dateTime": 1693566474522, "trialdata": {"revealed_states": [], "clicked_states": ["10", "7", "5", "27", "28", "31", "22", "20", "17"], "num_clicks_accrued": [0, 0, 0, 0, 0, 0, 0, 0, 0, 0, 0, 0, 0], "stateRewards": ["", -1, 3, 8, 9, -53, 20, -84, 2, -28, -62, -31, -1, -2, -7, 2, 51, 58, 45, -4, -17, -41, 36, 2, -2, -7, -15, 29, -54, -37, -16, -43, 65, -17], "withholdReward": false, "trial_id": "mdp_trial_13", "block": "test", "trialIndex": 14, "score": 37.4, "costs": -12.600000000000001, "simulationMode": [null, null, null, null, null], "rewards": [-1, -2, -7, 2, 58], "path": ["0", "0", "12", "13", "14", "15", "17"], "rt": [21755, 301, 161, 339, 97], "actions": ["right", "right", "right", "up", "right"], "actionTimes": [24156, 24986, 25746, 26640, 27297], "queries": {"click": {"state": {"target": ["10", "7", "5", "27", "28", "31", "22", "20", "17"], "time": [3860, 5953, 8300, 10427, 12440, 14482, 16552, 18683, 20899]}, "edge": {"target": [], "time": []}}, "mouseover": {"state": {"target": ["2", "10", "7", "6", "5", "3", "8", "11", "26", "27", "29", "24", "28", "24", "31", "22", "19", "21", "20", "17", "15", "16"], "time": [3243, 3527, 4854, 6684, 7046, 8696, 8759, 8978, 9443, 9629, 11026, 11425, 11792, 12733, 13196, 15575, 16888, 17088, 17419, 19219, 21114, 21336]}, "edge": {"target": [], "time": []}}, "mouseout": {"state": {"target": ["7", "0", "2", "10", "7", "6", "5", "3", "8", "11", "26", "27", "29", "24", "28", "24", "31", "22", "19", "21", "20", "17", "15", "16", "15", "15", "7", "12"], "time": [811, 2429, 3460, 4321, 6231, 6884, 8592, 8746, 8797, 9069, 9483, 10732, 11291, 11608, 12694, 13142, 14773, 16778, 16938, 17252, 18950, 20948, 21164, 25518, 25895, 27990, 28819, 29001]}, "edge": {"target": [], "time": []}}}, "displayed_time": "27.84", "trialTime": 29757, "trial_type": "mouselab-mdp", "trial_index": 21, "time_elapsed": 1485723, "internal_node_id": "0.0-6.0-1.0-12.0"}}, {"uniqueid": "w21793705:a66726187", "current_trial": 22, "dateTime": 1693566493833, "trialdata": {"revealed_states": [], "clicked_states": ["31"], "num_clicks_accrued": [0, 0, 0, 0, 0, 0, 0, 0, 0, 0, 0, 0, 0], "stateRewards": ["", -1, -4, 8, 8, -68, 47, 24, -7, -61, 49, -69, -1, -1, 8, -7, 42, 1, -45, -11, 10, -63, -6, 1, 4, 6, -16, 79, -37, -58, -12, 81, 18, -53], "withholdReward": false, "trial_id": "mdp_trial_14", "block": "test", "trialIndex": 15, "score": 78.6, "costs": -1.4, "simulationMode": [null, null, null, null, null], "rewards": [1, 4, 6, -12, 81], "path": ["0", "0", "23", "24", "25", "30", "31"], "rt": [3900, 791, 87, 305, 275], "actions": ["left", "left", "left", "down", "right"], "actionTimes": [6084, 7422, 8049, 8893, 9725], "queries": {"click": {"state": {"target": ["31"], "time": [3074]}, "edge": {"target": [], "time": []}}, "mouseover": {"state": {"target": ["31", "24", "28"], "time": [2817, 3413, 3583]}, "edge": {"target": [], "time": []}}, "mouseout": {"state": {"target": ["0", "31", "24", "28", "2", "1", "1"], "time": [2541, 3134, 3531, 10447, 11203, 13334, 13416]}, "edge": {"target": [], "time": []}}}, "displayed_time": "16.20", "trialTime": 18360, "trial_type": "mouselab-mdp", "trial_index": 22, "time_elapsed": 1505032, "internal_node_id": "0.0-6.0-1.0-13.0"}}, {"uniqueid": "w21793705:a66726187", "current_trial": 23, "dateTime": 1693566518472, "trialdata": {"revealed_states": [], "clicked_states": ["28"], "num_clicks_accrued": [0, 0, 0, 0, 0, 0, 0, 0, 0, 0, 0, 0, 0], "stateRewards": ["", -2, 1, -8, 12, -65, -79, 16, 7, -80, -17, -45, -2, 2, -5, -2, -85, 23, -4, -7, 48, 27, -76, 2, 3, 5, 2, 43, 71, -13, 7, -49, 59, -31], "withholdReward": false, "trial_id": "mdp_trial_15", "block": "test", "trialIndex": 16, "score": 81.6, "costs": -1.4, "simulationMode": [null, null, null, null, null], "rewards": [2, 3, 5, 2, 71], "path": ["0", "0", "23", "24", "25", "26", "28"], "rt": [4037, 281, 176, 1201, 5], "actions": ["left", "left", "left", "up", "right"], "actionTimes": [8525, 9327, 10023, 11759, 12305], "queries": {"click": {"state": {"target": ["28"], "time": [5370]}, "edge": {"target": [], "time": []}}, "mouseover": {"state": {"target": ["0", "23", "24", "28", "24", "23", "18"], "time": [4873, 4972, 5055, 5205, 5879, 6422, 7053]}, "edge": {"target": [], "time": []}}, "mouseout": {"state": {"target": ["7", "0", "0", "23", "24", "28", "24", "23", "18", "18", "13"], "time": [2550, 4530, 4905, 5022, 5155, 5808, 5978, 6451, 21160, 21906, 22039]}, "edge": {"target": [], "time": []}}}, "displayed_time": "18.49", "trialTime": 23782, "trial_type": "mouselab-mdp", "trial_index": 23, "time_elapsed": 1529671, "internal_node_id": "0.0-6.0-1.0-14.0"}}, {"uniqueid": "w21793705:a66726187", "current_trial": 24, "dateTime": 1693566590172, "trialdata": {"revealed_states": [], "clicked_states": ["28", "10", "7", "5", "17", "21", "22", "32", "33", "27", "29"], "num_clicks_accrued": [0, 0, 0, 0, 0, 0, 0, 0, 0, 0, 0, 0, 0], "stateRewards": ["", -2, 1, -3, -16, -39, -52, 30, -7, -41, -59, 11, 2, 1, 8, 2, -11, -26, -42, -13, 87, -59, -48, -1, -1, -1, 16, -79, 31, 50, -1, -84, 34, -82], "withholdReward": false, "trial_id": "mdp_trial_16", "block": "test", "trialIndex": 17, "score": 47.599999999999994, "costs": -15.400000000000002, "simulationMode": [null, null, null, null, null], "rewards": [-1, -1, -1, 16, 50], "path": ["0", "0", "23", "24", "25", "26", "29"], "rt": [25942, 5, 7, 794, 645], "actions": ["left", "left", "left", "up", "left"], "actionTimes": [64143, 64667, 65247, 66611, 67813], "queries": {"click": {"state": {"target": ["28", "10", "7", "5", "17", "21", "22", "32", "33", "27", "29"], "time": [39252, 41334, 43458, 46012, 47972, 50041, 52633, 54779, 56942, 59019, 61103]}, "edge": {"target": [], "time": []}}, "mouseover": {"state": {"target": ["28", "28", "10", "2", "7", "7", "4", "6", "5", "17", "14", "19", "20", "21", "22", "32", "32", "33", "25", "27", "29", "26"], "time": [38828, 39045, 40146, 41585, 41854, 42245, 43796, 44984, 45755, 47075, 48351, 48654, 48789, 49274, 50729, 53230, 53541, 55484, 57349, 57933, 59598, 61369]}, "edge": {"target": [], "time": []}}, "mouseout": {"state": {"target": ["0", "28", "28", "10", "2", "7", "7", "4", "6", "5", "17", "14", "19", "20", "21", "22", "32", "32", "33", "25", "27", "29", "26", "1"], "time": [37562, 38845, 39614, 41528, 41826, 41950, 43676, 44294, 45738, 46378, 48241, 48596, 48715, 49105, 50118, 52919, 53285, 54843, 57210, 57387, 59381, 61331, 61648, 68733]}, "edge": {"target": [], "time": []}}}, "displayed_time": "68.36", "trialTime": 70863, "trial_type": "mouselab-mdp", "trial_index": 24, "time_elapsed": 1601371, "internal_node_id": "0.0-6.0-1.0-15.0"}}, {"uniqueid": "w21793705:a66726187", "current_trial": 25, "dateTime": 1693566611194, "trialdata": {"revealed_states": [], "clicked_states": ["28", "18", "22", "17"], "num_clicks_accrued": [0, 0, 0, 0, 0, 0, 0, 0, 0, 0, 0, 0, 0], "stateRewards": ["", 2, -2, 7, -11, -76, -65, -23, 16, -58, 30, 81, 1, 2, 7, 14, 9, 55, -2, 6, 11, -15, 31, -1, -1, -3, 2, 15, 2, 46, 15, 18, 45, -34], "withholdReward": false, "trial_id": "mdp_trial_17", "block": "test", "trialIndex": 18, "score": 73.4, "costs": -5.6, "simulationMode": [null, null, null, null, null], "rewards": [1, 2, 7, 14, 55], "path": ["0", "0", "12", "13", "14", "15", "17"], "rt": [11358, 73, 449, 376, 184], "actions": ["right", "right", "right", "up", "right"], "actionTimes": [13380, 13978, 14960, 15871, 16609], "queries": {"click": {"state": {"target": ["28", "18", "22", "17"], "time": [3393, 5645, 7765, 10189]}, "edge": {"target": [], "time": []}}, "mouseover": {"state": {"target": ["12", "13", "13", "12", "0", "23", "28", "23", "23", "18", "13", "22", "14", "17", "15", "16", "6"], "time": [2100, 2424, 2541, 2576, 2606, 2663, 3156, 3883, 4034, 4746, 5995, 6277, 8359, 8709, 10584, 10861, 12647]}, "edge": {"target": [], "time": []}}, "mouseout": {"state": {"target": ["1", "0", "12", "13", "13", "12", "0", "23", "28", "28", "23", "23", "18", "13", "22", "14", "17", "15", "16", "6", "7"], "time": [225, 2046, 2386, 2441, 2559, 2596, 2638, 2777, 3473, 3765, 3925, 4154, 5893, 6195, 7996, 8398, 10541, 10727, 10941, 17510, 18226]}, "edge": {"target": [], "time": []}}}, "displayed_time": "17.14", "trialTime": 20218, "trial_type": "mouselab-mdp", "trial_index": 25, "time_elapsed": 1622394, "internal_node_id": "0.0-6.0-1.0-16.0"}}, {"uniqueid": "w21793705:a66726187", "current_trial": 26, "dateTime": 1693566636872, "trialdata": {"revealed_states": [], "clicked_states": ["21", "32", "27", "10", "7", "16"], "num_clicks_accrued": [0, 0, 0, 0, 0, 0, 0, 0, 0, 0, 0, 0, 0], "stateRewards": ["", 2, -3, 5, 11, -79, 54, 11, -9, -78, 33, 22, -2, -1, 2, 14, 43, 34, 1, 10, 49, -65, 39, -1, 1, -1, 3, -16, -2, 11, 2, 12, 48, -65], "withholdReward": false, "trial_id": "mdp_trial_18", "block": "test", "trialIndex": 19, "score": 40.6, "costs": -8.4, "simulationMode": [null, null, null, null, null], "rewards": [-1, 1, -1, 2, 48], "path": ["0", "0", "23", "24", "25", "30", "32"], "rt": [16079, 49, 872, 77, 158], "actions": ["left", "left", "left", "down", "down"], "actionTimes": [18665, 19244, 20685, 21306, 22059], "queries": {"click": {"state": {"target": ["21", "32", "27", "10", "7", "16"], "time": [3743, 6208, 8571, 11313, 14021, 16194]}, "edge": {"target": [], "time": []}}, "mouseover": {"state": {"target": ["22", "21", "32", "26", "27", "28", "10", "2", "7", "18", "16", "18", "2", "3", "5"], "time": [3045, 3394, 4704, 6753, 6965, 9946, 11170, 13702, 13902, 14594, 15005, 16508, 17073, 17131, 17304]}, "edge": {"target": [], "time": []}}, "mouseout": {"state": {"target": ["0", "22", "21", "32", "26", "27", "28", "10", "2", "7", "18", "16", "18", "2", "3", "5", "4"], "time": [2828, 3363, 4032, 6431, 6793, 9715, 10921, 12225, 13802, 14392, 14874, 16426, 16557, 17121, 17170, 22699, 22797]}, "edge": {"target": [], "time": []}}}, "displayed_time": "22.61", "trialTime": 24739, "trial_type": "mouselab-mdp", "trial_index": 26, "time_elapsed": 1648072, "internal_node_id": "0.0-6.0-1.0-17.0"}}, {"uniqueid": "w21793705:a66726187", "current_trial": 27, "dateTime": 1693566657589, "trialdata": {"revealed_states": [], "clicked_states": ["28", "31", "18", "22", "17"], "num_clicks_accrued": [0, 0, 0, 0, 0, 0, 0, 0, 0, 0, 0, 0, 0], "stateRewards": ["", 2, 3, -1, 6, 44, -4, -59, -14, -3, 64, 16, 1, -3, 3, 6, 3, 49, 19, 3, -49, -14, -86, 1, 2, -3, -8, -33, 14, 32, -13, -77, -47, -67], "withholdReward": false, "trial_id": "mdp_trial_19", "block": "test", "trialIndex": 20, "score": 49, "costs": -7, "simulationMode": [null, null, null, null, null], "rewards": [1, -3, 3, 6, 49], "path": ["0", "0", "12", "13", "14", "15", "17"], "rt": [12341, 124, 340, 197, 173], "actions": ["right", "right", "right", "up", "right"], "actionTimes": [14038, 14717, 15618, 16365, 17075], "queries": {"click": {"state": {"target": ["28", "31", "18", "22", "17"], "time": [2489, 4764, 7358, 9467, 11669]}, "edge": {"target": [], "time": []}}, "mouseover": {"state": {"target": ["23", "24", "28", "24", "31", "24", "0", "13", "18", "13", "22", "19", "17"], "time": [2085, 2120, 2368, 2804, 2927, 5105, 5225, 5285, 5597, 7866, 8026, 9776, 10250]}, "edge": {"target": [], "time": []}}, "mouseout": {"state": {"target": ["1", "0", "23", "24", "28", "24", "31", "24", "0", "13", "18", "18", "13", "22", "19", "17", "6", "6", "2", "1"], "time": [502, 2068, 2103, 2169, 2761, 2880, 4934, 5143, 5273, 5517, 7432, 7670, 7919, 9762, 9856, 13324, 17310, 18169, 18385, 18785]}, "edge": {"target": [], "time": []}}}, "displayed_time": "17.62", "trialTime": 19903, "trial_type": "mouselab-mdp", "trial_index": 27, "time_elapsed": 1668789, "internal_node_id": "0.0-6.0-1.0-18.0"}}, {"uniqueid": "w21793705:a66726187", "current_trial": 28, "dateTime": 1693566677411, "trialdata": {"revealed_states": [], "clicked_states": ["9", "5", "11"], "num_clicks_accrued": [0, 0, 0, 0, 0, 0, 0, 0, 0, 0, 0, 0, 0], "stateRewards": ["", -1, 1, 8, -8, -49, 62, -78, 16, 28, -81, 78, -2, -3, -1, -4, 67, 49, -2, -13, -16, -39, 83, 1, -4, 4, -5, -20, 7, 84, 7, -32, -59, 19], "withholdReward": false, "trial_id": "mdp_trial_20", "block": "test", "trialIndex": 21, "score": 97.8, "costs": -4.199999999999999, "simulationMode": [null, null, null, null, null], "rewards": [-1, 1, 8, 16, 78], "path": ["0", "0", "1", "2", "3", "8", "11"], "rt": [8667, 44, 260, 99, 448], "actions": ["up", "up", "up", "left", "left"], "actionTimes": [11029, 11638, 12460, 13080, 14092], "queries": {"click": {"state": {"target": ["9", "5", "11"], "time": [3188, 5352, 7920]}, "edge": {"target": [], "time": []}}, "mouseover": {"state": {"target": ["10", "8", "9", "3", "5", "4", "2", "10", "11", "26", "29"], "time": [2766, 2816, 3009, 3615, 3898, 5845, 6497, 6792, 7604, 8314, 8441]}, "edge": {"target": [], "time": []}}, "mouseout": {"state": {"target": ["12", "12", "12", "0", "10", "8", "9", "3", "5", "4", "2", "10", "11", "26", "29", "26", "28", "1", "12", "0"], "time": [742, 1008, 1474, 2388, 2796, 2860, 3482, 3798, 5664, 6146, 6650, 6959, 8197, 8396, 10309, 11944, 14719, 14900, 17878, 18759]}, "edge": {"target": [], "time": []}}}, "displayed_time": "16.36", "trialTime": 18836, "trial_type": "mouselab-mdp", "trial_index": 28, "time_elapsed": 1688611, "internal_node_id": "0.0-6.0-1.0-19.0"}}, {"uniqueid": "w21793705:a66726187", "current_trial": 29, "dateTime": 1693566696112, "trialdata": {"revealed_states": [], "clicked_states": [], "num_clicks_accrued": [0, 0, 0, 0, 0, 0, 0, 0, 0, 0, 0, 0, 0], "stateRewards": ["", 1, -1, 1, -14, -10, 67, -28, -11, 72, 40, -65, -1, 1, 1, -2, 8, -55, 34, -10, 61, 33, -15, 2, -4, 7, 4, -75, 63, -21, -16, 61, 19, 21], "withholdReward": false, "trial_id": "mdp_trial_21", "block": "test", "trialIndex": 22, "score": 52, "costs": 0, "simulationMode": [null, null, null, null, null], "rewards": [-1, 1, 1, -10, 61], "path": ["0", "0", "12", "13", "14", "19", "20"], "rt": [5026, 698, 119, 19, 122], "actions": ["right", "right", "right", "down", "right"], "actionTimes": [7186, 8404, 9054, 9605, 10308], "queries": {"click": {"state": {"target": [], "time": []}, "edge": {"target": [], "time": []}}, "mouseover": {"state": {"target": ["14", "20", "19", "19"], "time": [4615, 4864, 6030, 6512]}, "edge": {"target": [], "time": []}}, "mouseout": {"state": {"target": ["2", "0", "14", "20", "19", "19", "14", "18"], "time": [468, 2185, 4814, 5897, 6047, 6546, 11475, 11775]}, "edge": {"target": [], "time": []}}}, "displayed_time": "16.16", "trialTime": 17899, "trial_type": "mouselab-mdp", "trial_index": 29, "time_elapsed": 1707313, "internal_node_id": "0.0-6.0-1.0-20.0"}}, {"uniqueid": "w21793705:a66726187", "current_trial": 30, "dateTime": 1693566720056, "trialdata": {"revealed_states": [], "clicked_states": ["28", "31", "18", "7", "9", "11"], "num_clicks_accrued": [0, 0, 0, 0, 0, 0, 0, 0, 0, 0, 0, 0, 0], "stateRewards": ["", -2, -3, 1, -7, 39, -67, 16, 5, -20, 73, 66, -1, 4, 5, -3, 23, -68, -87, -8, 3, -3, 17, 1, -4, -2, -13, -32, 34, 61, -5, -11, -18, 12], "withholdReward": false, "trial_id": "mdp_trial_22", "block": "test", "trialIndex": 23, "score": 58.6, "costs": -8.4, "simulationMode": [null, null, null, null, null], "rewards": [-2, -3, 1, 5, 66], "path": ["0", "0", "1", "2", "3", "8", "11"], "rt": [15381, 73, 87, 376, 21], "actions": ["up", "up", "up", "left", "left"], "actionTimes": [17659, 18279, 18912, 19840, 20411], "queries": {"click": {"state": {"target": ["28", "31", "18", "7", "9", "11"], "time": [3219, 5358, 7932, 10235, 12905, 15135]}, "edge": {"target": [], "time": []}}, "mouseover": {"state": {"target": ["23", "24", "28", "24", "31", "22", "22", "13", "18", "16", "7", "2", "10", "8", "9", "8", "11", "26", "29"], "time": [2660, 2943, 3042, 3839, 4309, 6164, 6662, 7655, 7773, 8759, 10102, 11890, 12613, 12646, 12686, 13508, 13869, 15533, 15884]}, "edge": {"target": [], "time": []}}, "mouseout": {"state": {"target": ["12", "0", "23", "24", "28", "24", "31", "22", "22", "13", "18", "18", "16", "7", "2", "10", "8", "9", "8", "11", "26", "29", "26", "10", "2", "7", "12"], "time": [1142, 2303, 2709, 2975, 3652, 4163, 5637, 6214, 7588, 7737, 8040, 8495, 9707, 11857, 12073, 12629, 12664, 12993, 13655, 15329, 15619, 17794, 21148, 21245, 21443, 21874, 22473]}, "edge": {"target": [], "time": []}}}, "displayed_time": "20.98", "trialTime": 23137, "trial_type": "mouselab-mdp", "trial_index": 30, "time_elapsed": 1731257, "internal_node_id": "0.0-6.0-1.0-21.0"}}, {"uniqueid": "w21793705:a66726187", "current_trial": 31, "dateTime": 1693566746654, "trialdata": {"revealed_states": [], "clicked_states": ["22", "18", "16", "9", "27", "29", "33"], "num_clicks_accrued": [0, 0, 0, 0, 0, 0, 0, 0, 0, 0, 0, 0, 0], "stateRewards": ["", -2, -4, -8, 8, 63, -50, -19, -7, -17, -31, 31, 1, 3, -5, 12, -35, -63, -29, -4, -17, -75, -79, -2, -3, -2, 8, -3, -85, 10, -2, -82, -82, 56], "withholdReward": false, "trial_id": "mdp_trial_23", "block": "test", "trialIndex": 24, "score": 37.2, "costs": -9.8, "simulationMode": [null, null, null, null, null], "rewards": [-2, -3, -2, -2, 56], "path": ["0", "0", "23", "24", "25", "30", "33"], "rt": [16828, 398, 163, 142, 229], "actions": ["left", "left", "left", "down", "left"], "actionTimes": [19135, 20068, 20812, 21529, 22313], "queries": {"click": {"state": {"target": ["22", "18", "16", "9", "27", "29", "33"], "time": [3201, 5324, 7531, 9584, 11834, 13999, 16160]}, "edge": {"target": [], "time": []}}, "mouseover": {"state": {"target": ["12", "22", "13", "18", "1", "16", "16", "7", "3", "9", "26", "27", "29", "33", "30"], "time": [2405, 3019, 3818, 3947, 6106, 6340, 6754, 8257, 8313, 8688, 9970, 10702, 12284, 14549, 17400]}, "edge": {"target": [], "time": []}}, "mouseout": {"state": {"target": ["0", "12", "22", "13", "18", "18", "1", "16", "16", "7", "3", "9", "26", "27", "29", "33", "30", "31", "23", "1"], "time": [2333, 2796, 3684, 3902, 5376, 5644, 6149, 6440, 7793, 8300, 8490, 9767, 10454, 12114, 14250, 16631, 17942, 23122, 23202, 23335]}, "edge": {"target": [], "time": []}}}, "displayed_time": "22.89", "trialTime": 25465, "trial_type": "mouselab-mdp", "trial_index": 31, "time_elapsed": 1757853, "internal_node_id": "0.0-6.0-1.0-22.0"}}, {"uniqueid": "w21793705:a66726187", "current_trial": 32, "dateTime": 1693566766150, "trialdata": {"revealed_states": [], "clicked_states": ["18", "16"], "num_clicks_accrued": [0, 0, 0, 0, 0, 0, 0, 0, 0, 0, 0, 0, 0], "stateRewards": ["", 2, 1, -3, 7, 46, 11, -36, 16, 71, 5, 1, 2, -2, -8, -3, -4, 6, 55, 7, 68, -54, 2, 1, 1, 6, -6, 42, -4, -84, -11, -65, 63, 25], "withholdReward": false, "trial_id": "mdp_trial_24", "block": "test", "trialIndex": 25, "score": 41.2, "costs": -2.8, "simulationMode": [null, null, null, null, null], "rewards": [2, -2, -8, -3, 55], "path": ["0", "0", "12", "13", "14", "15", "18"], "rt": [5849, 218, 216, 2442, 150], "actions": ["right", "right", "right", "up", "left"], "actionTimes": [7836, 8588, 9355, 12353, 13025], "queries": {"click": {"state": {"target": ["18", "16"], "time": [3333, 5783]}, "edge": {"target": [], "time": []}}, "mouseover": {"state": {"target": ["7", "13", "18", "13", "22", "15", "16"], "time": [2545, 3013, 3260, 3700, 4085, 4534, 4963]}, "edge": {"target": [], "time": []}}, "mouseout": {"state": {"target": ["0", "7", "13", "18", "13", "22", "15", "16", "16", "16"], "time": [2014, 2904, 3225, 3618, 4002, 4172, 4902, 6951, 11103, 13846]}, "edge": {"target": [], "time": []}}}, "displayed_time": "15.99", "trialTime": 18564, "trial_type": "mouselab-mdp", "trial_index": 32, "time_elapsed": 1777350, "internal_node_id": "0.0-6.0-1.0-23.0"}}, {"uniqueid": "w21793705:a66726187", "current_trial": 33, "dateTime": 1693566794502, "trialdata": {"revealed_states": [], "clicked_states": ["18", "22", "28", "27", "6", "31", "32", "33"], "num_clicks_accrued": [0, 0, 0, 0, 0, 0, 0, 0, 0, 0, 0, 0, 0], "stateRewards": ["", -2, -4, 2, 10, -17, 18, 73, 11, -32, 23, -13, -2, -4, 7, 12, -25, 66, -23, 15, 40, -76, -9, 1, 2, -7, -5, -20, 24, 3, -5, 16, -73, 70], "withholdReward": false, "trial_id": "mdp_trial_25", "block": "test", "trialIndex": 26, "score": 49.8, "costs": -11.200000000000001, "simulationMode": [null, null, null, null, null], "rewards": [1, 2, -7, -5, 70], "path": ["0", "0", "23", "24", "25", "30", "33"], "rt": [18976, 235, 14, 188, 205], "actions": ["left", "left", "left", "down", "left"], "actionTimes": [21333, 22120, 22700, 23474, 24230], "queries": {"click": {"state": {"target": ["18", "22", "28", "27", "6", "31", "32", "33"], "time": [3182, 5261, 7503, 9729, 11925, 14080, 16216, 18432]}, "edge": {"target": [], "time": []}}, "mouseover": {"state": {"target": ["12", "18", "13", "22", "0", "10", "28", "26", "27", "10", "7", "6", "7", "31", "32", "33", "25", "29"], "time": [2708, 2990, 3828, 4053, 5617, 5817, 6515, 7964, 8486, 10373, 10607, 10756, 12521, 12972, 14653, 16917, 18851, 19116]}, "edge": {"target": [], "time": []}}, "mouseout": {"state": {"target": ["7", "0", "12", "18", "18", "13", "22", "0", "10", "28", "26", "27", "10", "7", "6", "7", "31", "32", "33", "25", "29", "26", "28", "1", "0"], "time": [803, 2382, 2859, 3247, 3663, 3984, 5462, 5663, 6055, 7763, 8282, 10073, 10423, 10656, 12221, 12606, 14371, 16562, 18647, 18926, 24863, 24942, 25233, 25552, 27150]}, "edge": {"target": [], "time": []}}}, "displayed_time": "24.78", "trialTime": 27495, "trial_type": "mouselab-mdp", "trial_index": 33, "time_elapsed": 1805701, "internal_node_id": "0.0-6.0-1.0-24.0"}}, {"uniqueid": "w21793705:a66726187", "current_trial": 34, "dateTime": 1693566813871, "trialdata": {"revealed_states": [], "clicked_states": ["18", "10"], "num_clicks_accrued": [0, 0, 0, 0, 0, 0, 0, 0, 0, 0, 0, 0, 0], "stateRewards": ["", 1, 1, -6, -2, 7, 77, 3, 16, -16, 66, 31, -1, 3, -8, -6, 33, -50, -48, 7, -60, -66, 36, 2, -3, 3, -7, -12, -61, -79, -4, 8, 74, -70], "withholdReward": false, "trial_id": "mdp_trial_26", "block": "test", "trialIndex": 27, "score": 75.2, "costs": -2.8, "simulationMode": [null, null, null, null, null], "rewards": [1, 1, -6, 16, 66], "path": ["0", "0", "1", "2", "3", "8", "10"], "rt": [6883, 8, 82, 40, 141], "actions": ["up", "up", "up", "left", "down"], "actionTimes": [9622, 10170, 10798, 11457, 12185], "queries": {"click": {"state": {"target": ["18", "10"], "time": [4174, 6766]}, "edge": {"target": [], "time": []}}, "mouseover": {"state": {"target": ["18", "1", "10", "8", "9", "8", "2"], "time": [4040, 6406, 6638, 7660, 7911, 8868, 8954]}, "edge": {"target": [], "time": []}}, "mouseout": {"state": {"target": ["0", "0", "18", "1", "10", "10", "8", "9", "8", "2", "2", "7"], "time": [1175, 2764, 4686, 6439, 7345, 7494, 7711, 8800, 8902, 10325, 13001, 17494]}, "edge": {"target": [], "time": []}}}, "displayed_time": "16.74", "trialTime": 18526, "trial_type": "mouselab-mdp", "trial_index": 34, "time_elapsed": 1825070, "internal_node_id": "0.0-6.0-1.0-25.0"}}, {"uniqueid": "w21793705:a66726187", "current_trial": 35, "dateTime": 1693566833791, "trialdata": {"revealed_states": [], "clicked_states": ["22", "18", "28", "11"], "num_clicks_accrued": [0, 0, 0, 0, 0, 0, 0, 0, 0, 0, 0, 0, 0], "stateRewards": ["", 1, 1, 6, -14, -40, 37, 16, -13, 33, -68, 49, 2, 4, 3, 6, 55, 27, 32, 10, -65, 20, -87, 2, 1, -6, -5, -42, 12, 29, -8, 16, 76, -33], "withholdReward": false, "trial_id": "mdp_trial_27", "block": "test", "trialIndex": 28, "score": 38.4, "costs": -5.6, "simulationMode": [null, null, null, null, null], "rewards": [1, 1, 6, -13, 49], "path": ["0", "0", "1", "2", "3", "8", "11"], "rt": [10722, 392, 128, 149, 422], "actions": ["up", "up", "up", "left", "left"], "actionTimes": [12219, 13172, 13934, 14632, 15605], "queries": {"click": {"state": {"target": ["22", "18", "28", "11"], "time": [2288, 4494, 6978, 9200]}, "edge": {"target": [], "time": []}}, "mouseover": {"state": {"target": ["12", "22", "13", "18", "12", "23", "28", "24", "10", "11", "24", "31", "24"], "time": [1867, 2133, 2694, 2914, 4863, 5004, 5353, 7589, 8137, 8402, 10583, 11062, 11522]}, "edge": {"target": [], "time": []}}, "mouseout": {"state": {"target": ["0", "12", "22", "13", "18", "12", "23", "28", "28", "24", "10", "11", "11", "28", "24", "31", "24", "23", "1", "7", "1", "0"], "time": [1686, 1983, 2569, 2854, 4742, 4911, 5093, 7061, 7389, 7953, 8356, 9263, 9653, 10382, 10833, 11491, 13535, 13775, 16636, 17328, 18002, 18402]}, "edge": {"target": [], "time": []}}}, "displayed_time": "16.17", "trialTime": 19004, "trial_type": "mouselab-mdp", "trial_index": 35, "time_elapsed": 1844988, "internal_node_id": "0.0-6.0-1.0-26.0"}}, {"uniqueid": "w21793705:a66726187", "current_trial": 36, "dateTime": 1693566863155, "trialdata": {"revealed_states": [], "clicked_states": ["18", "22"], "num_clicks_accrued": [0, 0, 0, 0, 0, 0, 0, 0, 0, 0, 0, 0, 0], "stateRewards": ["", -2, -2, -7, -13, -10, 49, -68, -1, 84, 70, 88, 1, 4, 4, 12, -57, 25, 30, 8, -1, -77, 57, 2, 3, 2, 3, -18, -80, 23, -15, -41, 70, 11], "withholdReward": false, "trial_id": "mdp_trial_28", "block": "test", "trialIndex": 29, "score": 71.2, "costs": -2.8, "simulationMode": [null, null, null, null, null], "rewards": [1, 4, 4, 8, 57], "path": ["0", "0", "12", "13", "14", "19", "22"], "rt": [5708, 645, 72, 141, 756], "actions": ["right", "right", "right", "down", "left"], "actionTimes": [18539, 19706, 20330, 21044, 22368], "queries": {"click": {"state": {"target": ["18", "22"], "time": [13856, 15761]}, "edge": {"target": [], "time": []}}, "mouseover": {"state": {"target": ["12", "13", "18", "13", "22", "28"], "time": [13371, 13505, 13671, 14204, 14400, 16726]}, "edge": {"target": [], "time": []}}, "mouseout": {"state": {"target": ["1", "12", "0", "12", "13", "18", "18", "13", "22", "28"], "time": [1556, 11921, 13348, 13454, 13637, 13931, 14166, 14311, 16084, 17908]}, "edge": {"target": [], "time": []}}}, "displayed_time": "26.83", "trialTime": 28158, "trial_type": "mouselab-mdp", "trial_index": 36, "time_elapsed": 1874355, "internal_node_id": "0.0-6.0-1.0-27.0"}}, {"uniqueid": "w21793705:a66726187", "current_trial": 37, "dateTime": 1693566882997, "trialdata": {"revealed_states": [], "clicked_states": ["10"], "num_clicks_accrued": [0, 0, 0, 0, 0, 0, 0, 0, 0, 0, 0, 0, 0], "stateRewards": ["", 2, 3, 8, 11, 25, -80, 6, -4, -56, 84, -23, -2, -4, -3, 4, -51, -9, -61, -15, -64, 67, -35, 1, -1, -7, -6, 83, 59, -15, 12, -79, 56, 41], "withholdReward": false, "trial_id": "mdp_trial_29", "block": "test", "trialIndex": 30, "score": 91.6, "costs": -1.4, "simulationMode": [null, null, null, null, null], "rewards": [2, 3, 8, -4, 84], "path": ["0", "0", "1", "2", "3", "8", "10"], "rt": [3831, 479, 317, 196, 335], "actions": ["up", "up", "up", "left", "down"], "actionTimes": [6602, 7656, 8524, 9256, 10128], "queries": {"click": {"state": {"target": ["10"], "time": [3579]}, "edge": {"target": [], "time": []}}, "mouseover": {"state": {"target": ["10", "1", "7"], "time": [3369, 4369, 4855]}, "edge": {"target": [], "time": []}}, "mouseout": {"state": {"target": ["12", "0", "10", "1", "7", "7", "7", "12"], "time": [1319, 2821, 3923, 4651, 11344, 12675, 17404, 17854]}, "edge": {"target": [], "time": []}}}, "displayed_time": "16.77", "trialTime": 18449, "trial_type": "mouselab-mdp", "trial_index": 37, "time_elapsed": 1894197, "internal_node_id": "0.0-6.0-1.0-28.0"}}, {"uniqueid": "w21793705:a66726187", "current_trial": 38, "dateTime": 1693566902610, "trialdata": {"revealed_states": [], "clicked_states": ["9", "18"], "num_clicks_accrued": [0, 0, 0, 0, 0, 0, 0, 0, 0, 0, 0, 0, 0], "stateRewards": ["", 2, 4, 7, 7, -79, -2, -21, -5, -53, 47, -21, 1, -3, -1, 7, 83, 7, 84, -7, 80, -37, 69, 2, -4, 5, 2, 4, -20, -30, 7, 71, 44, -81], "withholdReward": false, "trial_id": "mdp_trial_30", "block": "test", "trialIndex": 31, "score": 85.2, "costs": -2.8, "simulationMode": [null, null, null, null, null], "rewards": [1, -3, -1, 7, 84], "path": ["0", "0", "12", "13", "14", "15", "18"], "rt": [6488, 13, 7, 841, 626], "actions": ["right", "right", "right", "up", "left"], "actionTimes": [8757, 9314, 9942, 11342, 12493], "queries": {"click": {"state": {"target": ["9", "18"], "time": [3389, 5727]}, "edge": {"target": [], "time": []}}, "mouseover": {"state": {"target": ["0", "10", "8", "9", "8", "3", "4", "18", "0", "31", "31"], "time": [2349, 2945, 3064, 3299, 3751, 4198, 4347, 5097, 6332, 6746, 6929]}, "edge": {"target": [], "time": []}}, "mouseout": {"state": {"target": ["0", "0", "0", "10", "8", "9", "8", "3", "4", "18", "0", "31", "31", "23", "0", "12"], "time": [67, 1344, 2810, 2995, 3195, 3683, 3830, 4265, 4681, 6065, 6398, 6813, 9488, 13237, 13354, 18062]}, "edge": {"target": [], "time": []}}}, "displayed_time": "16.27", "trialTime": 18223, "trial_type": "mouselab-mdp", "trial_index": 38, "time_elapsed": 1913810, "internal_node_id": "0.0-6.0-1.0-29.0"}}, {"uniqueid": "w21793705:a66726187", "current_trial": 39, "dateTime": 1693566937711, "trialdata": {"revealed_states": [], "clicked_states": ["28", "22", "17", "5", "11", "29", "33", "32", "31"], "num_clicks_accrued": [0, 0, 0, 0, 0, 0, 0, 0, 0, 0, 0, 0, 0], "stateRewards": ["", -2, -2, -3, -6, -15, -11, 41, -12, -63, -76, 2, -2, -3, 8, 9, -36, -2, -18, -16, -32, -85, -17, -2, 1, 5, -16, 82, 35, -88, -1, 80, -82, -20], "withholdReward": false, "trial_id": "mdp_trial_31", "block": "test", "trialIndex": 32, "score": 70.4, "costs": -12.600000000000001, "simulationMode": [null, null, null, null, null], "rewards": [-2, 1, 5, -1, 80], "path": ["0", "0", "23", "24", "25", "30", "31"], "rt": [23568, 420, 88, 214, 298], "actions": ["left", "left", "left", "down", "right"], "actionTimes": [26512, 27456, 28094, 28883, 29733], "queries": {"click": {"state": {"target": ["28", "22", "17", "5", "11", "29", "33", "32", "31"], "time": [4049, 7210, 9753, 12175, 15026, 17186, 19367, 21714, 23778]}, "edge": {"target": [], "time": []}}, "mouseover": {"state": {"target": ["23", "24", "28", "24", "18", "18", "12", "22", "13", "18", "17", "4", "5", "4", "2", "8", "11", "26", "29", "33", "33", "32", "31"], "time": [3536, 3802, 3903, 4844, 5500, 6481, 6639, 7047, 7877, 8173, 8850, 10370, 10573, 12540, 14523, 14777, 14893, 15880, 16097, 17887, 18950, 19869, 22414]}, "edge": {"target": [], "time": []}}, "mouseout": {"state": {"target": ["0", "23", "24", "28", "24", "18", "18", "12", "22", "13", "18", "17", "4", "5", "4", "2", "8", "11", "26", "29", "33", "33", "32", "31", "23", "0", "1", "1", "12", "12"], "time": [2986, 3570, 3835, 4700, 5017, 5627, 6555, 6703, 7295, 8065, 8537, 10059, 10470, 12439, 13084, 14578, 14831, 15564, 16046, 17547, 18302, 19636, 22049, 24098, 27624, 30603, 30736, 31036, 32699, 33632]}, "edge": {"target": [], "time": []}}}, "displayed_time": "30.29", "trialTime": 33714, "trial_type": "mouselab-mdp", "trial_index": 39, "time_elapsed": 1948912, "internal_node_id": "0.0-6.0-1.0-30.0"}}, {"uniqueid": "w21793705:a66726187", "current_trial": 40, "dateTime": 1693566955996, "trialdata": {"revealed_states": [], "clicked_states": ["9"], "num_clicks_accrued": [0, 0, 0, 0, 0, 0, 0, 0, 0, 0, 0, 0, 0], "stateRewards": ["", -1, -4, -6, -15, 21, -67, -63, 9, 51, 69, -14, -1, 3, 8, -8, 39, 72, 63, 15, 19, 47, 15, 1, 4, 5, 16, -18, 34, 35, -14, -80, 40, 1], "withholdReward": false, "trial_id": "mdp_trial_32", "block": "test", "trialIndex": 33, "score": 47.6, "costs": -1.4, "simulationMode": [null, null, null, null, null], "rewards": [-1, -4, -6, 9, 51], "path": ["0", "0", "1", "2", "3", "8", "9"], "rt": [4739, 229, 535, 169, 657], "actions": ["up", "up", "up", "left", "up"], "actionTimes": [6547, 7324, 8404, 9116, 10352], "queries": {"click": {"state": {"target": ["9"], "time": [3130]}, "edge": {"target": [], "time": []}}, "mouseover": {"state": {"target": ["1", "9", "8", "9", "3", "5"], "time": [2173, 2537, 2903, 3038, 3757, 4534]}, "edge": {"target": [], "time": []}}, "mouseout": {"state": {"target": ["0", "1", "9", "8", "9", "3", "5", "4", "4", "18", "12"], "time": [1905, 2238, 2654, 2921, 3627, 3960, 7014, 10947, 11151, 16707, 16778]}, "edge": {"target": [], "time": []}}}, "displayed_time": "15.81", "trialTime": 17436, "trial_type": "mouselab-mdp", "trial_index": 40, "time_elapsed": 1967195, "internal_node_id": "0.0-6.0-1.0-31.0"}}, {"uniqueid": "w21793705:a66726187", "current_trial": 41, "dateTime": 1693566974310, "trialdata": {"revealed_states": [], "clicked_states": ["18", "17"], "num_clicks_accrued": [0, 0, 0, 0, 0, 0, 0, 0, 0, 0, 0, 0, 0], "stateRewards": ["", 1, 2, -3, -6, 50, -7, 7, -7, -80, 21, -1, 2, 2, 4, -1, 33, 84, 1, 14, -53, 81, 6, -2, -2, -3, -9, -87, -38, -59, -5, -74, -3, -71], "withholdReward": false, "trial_id": "mdp_trial_33", "block": "test", "trialIndex": 34, "score": 88.2, "costs": -2.8, "simulationMode": [null, null, null, null, null], "rewards": [2, 2, 4, -1, 84], "path": ["0", "0", "12", "13", "14", "15", "17"], "rt": [5687, 84, 176, 165, 171], "actions": ["right", "right", "right", "up", "right"], "actionTimes": [7595, 8246, 8978, 9698, 10403], "queries": {"click": {"state": {"target": ["18", "17"], "time": [2743, 4818]}, "edge": {"target": [], "time": []}}, "mouseover": {"state": {"target": ["13", "18", "13", "22", "17", "19", "22"], "time": [2357, 2559, 3047, 3221, 3649, 5431, 5663]}, "edge": {"target": [], "time": []}}, "mouseout": {"state": {"target": ["0", "13", "18", "13", "22", "17", "19", "22", "12", "1", "7", "0"], "time": [1934, 2460, 2966, 3192, 3261, 5116, 5562, 11123, 11207, 11305, 13799, 17030]}, "edge": {"target": [], "time": []}}}, "displayed_time": "15.91", "trialTime": 17412, "trial_type": "mouselab-mdp", "trial_index": 41, "time_elapsed": 1985510, "internal_node_id": "0.0-6.0-1.0-32.0"}}, {"uniqueid": "w21793705:a66726187", "current_trial": 42, "dateTime": 1693567017241, "trialdata": {"revealed_states": [], "clicked_states": ["18", "10", "31"], "num_clicks_accrued": [0, 0, 0, 0, 0, 0, 0, 0, 0, 0, 0, 0, 0], "stateRewards": ["", 2, -1, 1, 10, -52, 86, -22, -2, -14, -63, 38, 1, 3, 7, -8, 11, -32, -27, 9, -71, 40, -87, -2, -1, 5, -7, 12, 31, -57, 13, 86, -58, 29], "withholdReward": false, "trial_id": "mdp_trial_34", "block": "test", "trialIndex": 35, "score": 96.8, "costs": -4.199999999999999, "simulationMode": [null, null, null, null, null], "rewards": [-2, -1, 5, 13, 86], "path": ["0", "0", "23", "24", "25", "30", "31"], "rt": [7205, 464, 132, 21, 177], "actions": ["left", "left", "left", "down", "right"], "actionTimes": [33429, 34433, 35095, 35651, 36370], "queries": {"click": {"state": {"target": ["18", "10", "31"], "time": [26922, 28882, 30797]}, "edge": {"target": [], "time": []}}, "mouseover": {"state": {"target": ["12", "18", "7", "2", "10", "24", "31", "24", "28", "27"], "time": [26255, 26685, 27486, 27804, 28085, 29673, 29874, 31114, 31217, 32223]}, "edge": {"target": [], "time": []}}, "mouseout": {"state": {"target": ["2", "1", "12", "18", "7", "2", "10", "24", "31", "24", "28", "27", "2", "7", "12"], "time": [1024, 25202, 26484, 27425, 27642, 27897, 29244, 29738, 31040, 31166, 32005, 32914, 39506, 39872, 41254]}, "edge": {"target": [], "time": []}}}, "displayed_time": "40.23", "trialTime": 42076, "trial_type": "mouselab-mdp", "trial_index": 42, "time_elapsed": 2028441, "internal_node_id": "0.0-6.0-1.0-33.0"}}, {"uniqueid": "w21793705:a66726187", "current_trial": 43, "dateTime": 1693567043456, "trialdata": {"revealed_states": [], "clicked_states": ["22", "10", "32", "24", "33", "27", "16"], "num_clicks_accrued": [0, 0, 0, 0, 0, 0, 0, 0, 0, 0, 0, 0, 0], "stateRewards": ["", 2, 3, -3, 12, -43, 81, -82, -15, 58, -7, -75, -1, -1, 3, -5, 50, -25, -8, 4, 66, 65, -66, 2, -4, 2, -1, -10, 10, 37, 11, 88, -37, 8], "withholdReward": false, "trial_id": "mdp_trial_35", "block": "test", "trialIndex": 36, "score": 36.2, "costs": -9.8, "simulationMode": [null, null, null, null, null], "rewards": [-1, -1, 3, -5, 50], "path": ["0", "0", "12", "13", "14", "15", "16"], "rt": [17623, 138, 478, 339, 100], "actions": ["right", "right", "right", "up", "up"], "actionTimes": [19519, 20187, 21219, 22108, 22735], "queries": {"click": {"state": {"target": ["22", "10", "32", "24", "33", "27", "16"], "time": [2602, 4720, 6817, 9099, 11144, 13918, 16090]}, "edge": {"target": [], "time": []}}, "mouseover": {"state": {"target": ["22", "1", "1", "2", "10", "24", "32", "31", "24", "33", "30", "25", "29", "27", "28", "24", "16", "17", "18"], "time": [2491, 3445, 3594, 3714, 3840, 5331, 5669, 7424, 8966, 9843, 11464, 13379, 13496, 13728, 14583, 14716, 15452, 16398, 17219]}, "edge": {"target": [], "time": []}}, "mouseout": {"state": {"target": ["0", "22", "1", "1", "2", "10", "24", "32", "31", "24", "24", "33", "30", "25", "29", "27", "27", "28", "24", "16", "17", "18", "1"], "time": [1928, 2918, 3501, 3623, 3809, 4944, 5440, 7098, 8891, 9200, 9607, 11421, 13330, 13397, 13563, 14012, 14325, 14626, 14801, 16353, 16843, 24135, 24945]}, "edge": {"target": [], "time": []}}}, "displayed_time": "23.27", "trialTime": 25263, "trial_type": "mouselab-mdp", "trial_index": 43, "time_elapsed": 2054656, "internal_node_id": "0.0-6.0-1.0-34.0"}}, {"uniqueid": "w21793705:a66726187", "current_trial": 44, "dateTime": 1693567063662, "trialdata": {"revealed_states": [], "clicked_states": ["18", "22", "20", "9"], "num_clicks_accrued": [0, 0, 0, 0, 0, 0, 0, 0, 0, 0, 0, 0, 0], "stateRewards": ["", 1, 3, -2, 15, 51, 15, -19, 11, 67, -45, -73, 2, 4, -2, -13, 36, 9, -28, 10, -30, 31, 16, 1, 2, -1, -16, 14, -22, 36, -1, 88, -5, 45], "withholdReward": false, "trial_id": "mdp_trial_36", "block": "test", "trialIndex": 37, "score": 74.4, "costs": -5.6, "simulationMode": [null, null, null, null, null], "rewards": [1, 3, -2, 11, 67], "path": ["0", "0", "1", "2", "3", "8", "9"], "rt": [10159, 201, 208, 139, 1563], "actions": ["up", "up", "up", "left", "up"], "actionTimes": [12273, 13002, 13779, 14472, 16578], "queries": {"click": {"state": {"target": ["18", "22", "20", "9"], "time": [2869, 4908, 7136, 9206]}, "edge": {"target": [], "time": []}}, "mouseover": {"state": {"target": ["12", "18", "13", "22", "20", "20", "1", "2", "8", "9", "11"], "time": [2431, 2680, 3373, 3553, 5438, 5720, 7496, 7599, 7768, 8035, 9658]}, "edge": {"target": [], "time": []}}, "mouseout": {"state": {"target": ["0", "12", "18", "13", "22", "20", "20", "1", "2", "8", "9", "11", "8", "10", "2", "0"], "time": [2314, 2515, 3322, 3454, 5201, 5489, 7337, 7549, 7683, 7949, 9271, 15550, 15717, 17321, 17582, 18383]}, "edge": {"target": [], "time": []}}}, "displayed_time": "17.14", "trialTime": 19015, "trial_type": "mouselab-mdp", "trial_index": 44, "time_elapsed": 2074861, "internal_node_id": "0.0-6.0-1.0-35.0"}}, {"uniqueid": "w21793705:a66726187", "current_trial": 45, "dateTime": 1693567095247, "trialdata": {"revealed_states": [], "clicked_states": ["28", "31", "18", "5", "9", "6", "17", "20", "21"], "num_clicks_accrued": [0, 0, 0, 0, 0, 0, 0, 0, 0, 0, 0, 0, 0], "stateRewards": ["", 1, 3, 1, -13, 52, -28, 67, -14, 3, 63, -70, -1, -4, 7, -11, -10, 47, -18, 6, 69, -9, -61, 2, 3, -6, 10, 63, -34, 40, -6, -79, -35, -32], "withholdReward": false, "trial_id": "mdp_trial_37", "block": "test", "trialIndex": 38, "score": 64.4, "costs": -12.600000000000001, "simulationMode": [null, null, null, null, null], "rewards": [-1, -4, 7, 6, 69], "path": ["0", "0", "12", "13", "14", "19", "20"], "rt": [21684, 111, 328, 139, 195], "actions": ["right", "right", "right", "down", "right"], "actionTimes": [24436, 25095, 25974, 26654, 27393], "queries": {"click": {"state": {"target": ["28", "31", "18", "5", "9", "6", "17", "20", "21"], "time": [3871, 6322, 8606, 10732, 12978, 15529, 18085, 20295, 22435]}, "edge": {"target": [], "time": []}}, "mouseover": {"state": {"target": ["1", "0", "23", "28", "24", "31", "12", "18", "4", "5", "3", "9", "8", "2", "7", "6", "15", "17", "20", "21"], "time": [2854, 3254, 3511, 3686, 4382, 4582, 6940, 7277, 9491, 9630, 11323, 11770, 13453, 14395, 14675, 15410, 17808, 17941, 19199, 20862]}, "edge": {"target": [], "time": []}}, "mouseout": {"state": {"target": ["7", "0", "1", "0", "23", "28", "24", "31", "12", "18", "4", "5", "3", "9", "8", "2", "7", "6", "15", "17", "20", "21", "0", "1", "2", "1"], "time": [602, 2821, 3152, 3469, 3556, 4233, 4481, 6624, 6991, 9294, 9542, 11191, 11537, 13241, 13989, 14610, 14897, 15870, 17858, 18935, 20636, 23063, 28154, 28284, 29032, 29115]}, "edge": {"target": [], "time": []}}}, "displayed_time": "27.95", "trialTime": 29818, "trial_type": "mouselab-mdp", "trial_index": 45, "time_elapsed": 2106447, "internal_node_id": "0.0-6.0-1.0-36.0"}}, {"uniqueid": "w21793705:a66726187", "current_trial": 46, "dateTime": 1693567116970, "trialdata": {"revealed_states": [], "clicked_states": ["33", "28", "18", "22"], "num_clicks_accrued": [0, 0, 0, 0, 0, 0, 0, 0, 0, 0, 0, 0, 0], "stateRewards": ["", 1, -1, 1, 13, 31, -56, 72, 2, 41, 5, 63, -2, -3, -2, 3, -71, -26, 52, 13, -31, 24, -67, 2, -2, 5, 4, 66, 43, 72, 9, 86, -26, 44], "withholdReward": false, "trial_id": "mdp_trial_38", "block": "test", "trialIndex": 39, "score": 42.4, "costs": -5.6, "simulationMode": [null, null, null, null, null], "rewards": [-2, -3, -2, 3, 52], "path": ["0", "0", "12", "13", "14", "15", "18"], "rt": [10962, 182, 145, 2173, 52], "actions": ["right", "right", "right", "up", "left"], "actionTimes": [13238, 13977, 14672, 17416, 17987], "queries": {"click": {"state": {"target": ["33", "28", "18", "22"], "time": [3752, 5983, 8861, 11199]}, "edge": {"target": [], "time": []}}, "mouseover": {"state": {"target": ["0", "23", "24", "30", "33", "29", "27", "28", "26", "27", "26", "24", "22", "13", "18", "13", "22", "14", "15"], "time": [2493, 2708, 2759, 2909, 3599, 4498, 4852, 5612, 6344, 6510, 7707, 7922, 8338, 8503, 8704, 9392, 9924, 12080, 12287]}, "edge": {"target": [], "time": []}}, "mouseout": {"state": {"target": ["0", "0", "0", "23", "24", "30", "33", "29", "27", "28", "26", "27", "26", "24", "22", "13", "18", "13", "22", "14", "15", "16", "15", "18", "12"], "time": [1424, 1607, 2608, 2727, 2794, 2994, 4266, 4548, 5360, 6332, 6391, 7672, 7773, 7951, 8359, 8588, 9308, 9825, 11937, 12206, 12404, 16063, 18683, 19326, 19641]}, "edge": {"target": [], "time": []}}}, "displayed_time": "18.56", "trialTime": 20503, "trial_type": "mouselab-mdp", "trial_index": 46, "time_elapsed": 2128169, "internal_node_id": "0.0-6.0-1.0-37.0"}}, {"uniqueid": "w21793705:a66726187", "current_trial": 47, "dateTime": 1693567136341, "trialdata": {"revealed_states": [], "clicked_states": ["16", "22"], "num_clicks_accrued": [0, 0, 0, 0, 0, 0, 0, 0, 0, 0, 0, 0, 0], "stateRewards": ["", -1, -3, -3, 1, -38, 2, -53, -2, -1, -81, 70, -1, 1, -5, -9, 46, 15, 35, -1, -22, 38, 59, -2, 4, -8, 13, 1, -83, -43, 4, 76, 13, 48], "withholdReward": false, "trial_id": "mdp_trial_39", "block": "test", "trialIndex": 40, "score": 50.2, "costs": -2.8, "simulationMode": [null, null, null, null, null], "rewards": [-1, 1, -5, -1, 59], "path": ["0", "0", "12", "13", "14", "19", "22"], "rt": [6098, 10, 457, 36, 390], "actions": ["right", "right", "right", "down", "left"], "actionTimes": [8366, 8902, 9914, 10505, 11450], "queries": {"click": {"state": {"target": ["16", "22"], "time": [3240, 5627]}, "edge": {"target": [], "time": []}}, "mouseover": {"state": {"target": ["13", "15", "16", "15", "17", "13", "22", "31", "31"], "time": [2780, 2946, 3130, 3704, 3986, 4221, 4668, 6296, 6507]}, "edge": {"target": [], "time": []}}, "mouseout": {"state": {"target": ["0", "0", "13", "15", "16", "15", "17", "13", "22", "31", "31", "24", "23"], "time": [1246, 2296, 2864, 2980, 3603, 3887, 4069, 4272, 5685, 6342, 12092, 12208, 12323]}, "edge": {"target": [], "time": []}}}, "displayed_time": "16.27", "trialTime": 18249, "trial_type": "mouselab-mdp", "trial_index": 47, "time_elapsed": 2147540, "internal_node_id": "0.0-6.0-1.0-38.0"}}, {"uniqueid": "w21793705:a66726187", "current_trial": 48, "dateTime": 1693567157848, "trialdata": {"revealed_states": [], "clicked_states": ["28", "31"], "num_clicks_accrued": [0, 0, 0, 0, 0, 0, 0, 0, 0, 0, 0, 0, 0], "stateRewards": ["", -1, -3, -5, -14, -13, -47, 79, 8, -60, -64, 41, -1, 2, 3, 13, -46, 61, -79, -11, -64, -65, 23, 1, -2, 6, -14, 46, 32, 21, 7, 75, -66, 15], "withholdReward": false, "trial_id": "mdp_trial_40", "block": "test", "trialIndex": 41, "score": 84.2, "costs": -2.8, "simulationMode": [null, null, null, null, null], "rewards": [1, -2, 6, 7, 75], "path": ["0", "0", "23", "24", "25", "30", "31"], "rt": [5973, 160, 35, 263, 462], "actions": ["left", "left", "left", "down", "right"], "actionTimes": [9426, 10130, 10724, 11530, 12528], "queries": {"click": {"state": {"target": ["28", "31"], "time": [4246, 6575]}, "edge": {"target": [], "time": []}}, "mouseover": {"state": {"target": ["23", "24", "28", "24", "31", "13", "16"], "time": [3491, 3994, 4127, 4928, 5331, 7282, 7697]}, "edge": {"target": [], "time": []}}, "mouseout": {"state": {"target": ["1", "0", "0", "1", "1", "0", "23", "24", "28", "24", "31", "13", "16", "6", "6"], "time": [412, 1294, 2246, 2361, 2546, 3484, 3912, 4027, 4685, 5250, 6916, 7329, 13354, 13618, 18964]}, "edge": {"target": [], "time": []}}}, "displayed_time": "17.46", "trialTime": 20573, "trial_type": "mouselab-mdp", "trial_index": 48, "time_elapsed": 2169047, "internal_node_id": "0.0-6.0-1.0-39.0"}}, {"uniqueid": "w21793705:a66726187", "current_trial": 49, "dateTime": 1693567252146, "trialdata": {"rt": 94278, "response": {"Q0": "$-2 to $2", "Q1": "$-16 to $16", "Q2": "$-88 to $88", "Q3": "The cost was always $1.4.", "Q4": "Very motivated"}, "question_order": [0, 1, 2, 3, 4], "trial_id": "final_quiz_control", "trial_type": "survey-multi-choice", "trial_index": 49, "time_elapsed": 2263346, "internal_node_id": "0.0-6.0-2.0"}}, {"uniqueid": "w21793705:a66726187", "current_trial": 50, "dateTime": 1693567670167, "trialdata": {"rt": 417996, "response": {"Q0": "My strategy was to check the value of the nodes at the edge and immediately choose the node that had a value of $40 or more.", "Q1": "Yes. Initially, I used the inspector for the nodes that were closer to the spider, but then I realized it would have been more efficient to check the value of the nodes at the edge (because they had higher values).", "Q2": "No, I didn't find it difficult."}, "trial_id": "self_report_control", "trial_type": "survey-text", "trial_index": 50, "time_elapsed": 2681368, "internal_node_id": "0.0-6.0-3.0"}}, {"uniqueid": "w21793705:a66726187", "current_trial": 51, "dateTime": 1693567700630, "trialdata": {"rt": 30451, "response": {"gender": "male", "age": "34", "colorblind": "0", "effort": "0"}, "trial_type": "survey-html-form", "trial_index": 51, "time_elapsed": 2711831, "internal_node_id": "0.0-6.0-4.0"}}, {"uniqueid": "w21793705:a66726187", "current_trial": 52, "dateTime": 1693567814683, "trialdata": {"rt": 114042, "response": {"Q0": "No, the instructions were clear and game was quite straightforward.", "Q1": "No, I've never played this game before.", "Q2": "I don't have additional comments. Thank you!"}, "trial_type": "survey-text", "trial_index": 52, "time_elapsed": 2825883, "internal_node_id": "0.0-6.0-5.0"}}, {"uniqueid": "w21793705:a66726187", "current_trial": 53, "dateTime": 1693567887445, "trialdata": {"rt": 72749, "stimulus": "<h1>Completion Code Instructions (1/2)</h1>\n<br><br><br><br>\nYou have reached the end of the experiment! The completion code consists of two parts: (1) a code with 2 characters (2) a code with 6 characters. On this page, you will receive the second part of the code. The first part of the completion code will be on the next page.\n<br><br>\nThe second part of your completion code is: <b>EWEK22</b>\n<br><br>\nPlease note this down. Then, press 'Finish HIT' in order to find the first part of your completion code. Once the data has been saved, you will receive this code either in this window or in the original browser window where you started the experiment.\n", "response": 0, "trial_type": "html-button-response", "trial_index": 53, "time_elapsed": 2898646, "internal_node_id": "0.0-6.0-6.0"}}, {"uniqueid": "w21793705:a66726187", "current_trial": 54, "dateTime": 1693567888456, "trialdata": {"success": true, "trial_type": "fullscreen", "trial_index": 54, "time_elapsed": 2899656, "internal_node_id": "0.0-7.0"}}], "questiondata": {"params": {"CODE": "C6DMOQA6", "MIN_TIME": 14, "inspectCost": 1, "startTime": "Fri Sep 01 2023 12:43:05 GMT+0200 (South Africa Standard Time)", "bonusRate": 0.002, "variance": "1_2_4_8_44", "branching": "31123"}, "final_score": 2196}, "eventdata": [{"eventtype": "initialized", "value": null, "timestamp": 1693564984430, "interval": 0}, {"eventtype": "window_resize", "value": [1366, 662], "timestamp": 1693564984431, "interval": 1}, {"eventtype": "window_resize", "value": [1366, 662], "timestamp": 1693564985025, "interval": 594}, {"eventtype": "focus", "value": "off", "timestamp": 1693564996476, "interval": 11451}, {"eventtype": "focus", "value": "on", "timestamp": 1693565035088, "interval": 38612}, {"eventtype": "window_resize", "value": [1366, 768], "timestamp": 1693565038083, "interval": 2995}, {"eventtype": "window_resize", "value": [1366, 662], "timestamp": 1693567887738, "interval": 2849655}], "useragent": "Mozilla/5.0 (Windows NT 10.0; Win64; x64) AppleWebKit/537.36 (KHTML, like Gecko) Chrome/116.0.0.0 Safari/537.36", "mode": "live", "id": "w21793705:a66726187", "status": "user data saved", "Beginhit": "2023-09-01 10:43:02.011781", "Beginexp": "2023-09-01 10:43:59.890704", "Endhit": "2023-09-01 11:31:31.51727", "psiturkStatus": 3, "browser": "<redacted>", "platform": "windows", "language": "en-US"}