{"condition": 1, "counterbalance": 0, "assignmentId": "a78428398", "workerId": "w51333812", "hitId": "h16728343", "currenttrial": 56, "bonus": 0, "data": [{"uniqueid": "w51333812:a78428398", "current_trial": 0, "dateTime": 1691142024287, "trialdata": {"success": true, "trial_type": "fullscreen", "trial_index": 0, "time_elapsed": 7597, "internal_node_id": "0.0-0.0"}}, {"uniqueid": "w51333812:a78428398", "current_trial": 1, "dateTime": 1691142055205, "trialdata": {"view_history": [{"page_index": 0, "viewing_time": 30912}], "rt": 30912, "trial_id": "exp_instructions_misaligned", "trial_type": "instructions", "trial_index": 1, "time_elapsed": 38514, "internal_node_id": "0.0-1.0"}}, {"uniqueid": "w51333812:a78428398", "current_trial": 2, "dateTime": 1691142059655, "trialdata": {"success": true, "trial_type": "fullscreen", "trial_index": 2, "time_elapsed": 42965, "internal_node_id": "0.0-2.0-0.0"}}, {"uniqueid": "w51333812:a78428398", "current_trial": 3, "dateTime": 1691142374210, "trialdata": {"view_history": [{"page_index": 0, "viewing_time": 161929}, {"page_index": 1, "viewing_time": 86164}, {"page_index": 2, "viewing_time": 23954}, {"page_index": 3, "viewing_time": 42501}], "rt": 314548, "trial_id": "mouselab_instructions_1_misaligned", "trial_type": "instructions", "trial_index": 3, "time_elapsed": 357520, "internal_node_id": "0.0-2.0-1.0"}}, {"uniqueid": "w51333812:a78428398", "current_trial": 4, "dateTime": 1691142396256, "trialdata": {"revealed_states": [], "clicked_states": ["23", "12", "1"], "num_clicks_accrued": [0, 0, 0, 0, 0, 0, 0, 0, 0, 0, 0, 0, 0], "stateRewards": ["", -10, -10, 10, 10, -10, -10, 10, -10, -10, 10, -10, -10, 10, -10, -10, -10, 10, 10, -10, -10, -10, 10, -10, 10, -10, 10, 10, -10, -10, 10, -10, -10, -10], "withholdReward": false, "trial_id": "practice_1", "block": "test", "trialIndex": 0, "score": -8, "costs": -1.5, "simulationMode": [null, null, null, null, null], "rewards": [-10, 10, -10, -10, 10], "path": ["0", "0", "12", "13", "14", "15", "17"], "rt": [9908, 264, 201, 1144, 413], "actions": ["right", "right", "right", "up", "right"], "actionTimes": [13354, 14127, 14846, 16504, 17441], "queries": {"click": {"state": {"target": ["23", "12", "1"], "time": [6031, 7829, 9343]}, "edge": {"target": [], "time": []}}, "mouseover": {"state": {"target": ["23", "0", "12", "1", "0"], "time": [5694, 6942, 7608, 8959, 10458]}, "edge": {"target": [], "time": []}}, "mouseout": {"state": {"target": ["0", "23", "0", "12", "1"], "time": [5609, 6877, 7008, 8828, 9892]}, "edge": {"target": [], "time": []}}}, "displayed_time": "17.96", "trialTime": 20739, "trial_type": "mouselab-mdp", "trial_index": 4, "time_elapsed": 379565, "internal_node_id": "0.0-2.0-2.0-0.0"}}, {"uniqueid": "w51333812:a78428398", "current_trial": 5, "dateTime": 1691142410417, "trialdata": {"revealed_states": [], "clicked_states": [], "num_clicks_accrued": [0, 0, 0, 0, 0, 0, 0, 0, 0, 0, 0, 0, 0], "stateRewards": ["", 10, -10, -10, 10, 10, 10, -10, -10, -10, -10, -10, -10, 10, 10, -10, 10, -10, 10, -10, -10, -10, -10, 10, -10, -10, -10, -10, -10, -10, 10, 10, -10, 10], "withholdReward": false, "trial_id": "practice_2", "block": "test", "trialIndex": 1, "score": -6.5, "costs": 0, "simulationMode": [null, null, null, null, null], "rewards": [10, -10, -10, 10, -10], "path": ["0", "0", "23", "24", "25", "30", "32"], "rt": [2408, 283, 229, 461, 269], "actions": ["left", "left", "left", "down", "down"], "actionTimes": [6118, 6913, 7660, 8641, 9432], "queries": {"click": {"state": {"target": [], "time": []}, "edge": {"target": [], "time": []}}, "mouseover": {"state": {"target": [], "time": []}, "edge": {"target": [], "time": []}}, "mouseout": {"state": {"target": ["0"], "time": [3250]}, "edge": {"target": [], "time": []}}}, "displayed_time": "9.95", "trialTime": 13911, "trial_type": "mouselab-mdp", "trial_index": 5, "time_elapsed": 393727, "internal_node_id": "0.0-2.0-2.0-1.0"}}, {"uniqueid": "w51333812:a78428398", "current_trial": 6, "dateTime": 1691142476712, "trialdata": {"view_history": [{"page_index": 0, "viewing_time": 51476}, {"page_index": 1, "viewing_time": 14814}], "rt": 66291, "trial_id": "mouselab_instructions_2_misaligned", "trial_type": "instructions", "trial_index": 6, "time_elapsed": 460022, "internal_node_id": "0.0-2.0-3.0"}}, {"uniqueid": "w51333812:a78428398", "current_trial": 7, "dateTime": 1691142531428, "trialdata": {"rt": 54711, "response": {"Q0": "The cost for clicking on nodes may vary between nodes.", "Q1": "The better I perform the higher my bonus will be.", "Q2": "No, the amount of cash at each node of the web may be different each time.", "Q3": "To get the highest total score.", "Q4": "Only before moving the spider.", "Q5": "3 seconds"}, "question_order": [0, 1, 2, 3, 4, 5], "correct": {"Q0": "The cost for clicking on nodes may vary between nodes.", "Q1": "The better I perform the higher my bonus will be.", "Q2": "No, the amount of cash at each node of the web may be different each time.", "Q3": "To get the highest total score.", "Q4": "Only before moving the spider.", "Q5": "3 seconds"}, "trial_id": "mouselab_quiz_misaligned", "trial_type": "survey-multi-choice", "trial_index": 7, "time_elapsed": 514738, "internal_node_id": "0.0-2.0-4.0"}}, {"uniqueid": "w51333812:a78428398", "current_trial": 8, "dateTime": 1691142551861, "trialdata": {"rt": 20425, "stimulus": "\n<h1> Get ready to start the game! </h1>\n\nThank you for reading the instructions. Get ready start with the 40 rounds of this game.\n<br><br>\nIf you need to take a break, feel free to take one after the end of a round, before continuing to the next one.\n<br><br>\nRemember, the more money the spider gets, the bigger your bonus will be!\n<br><br>\n<div style='text-align: center;'>Press <code>space</code> to begin.</div>\n\n<br><br>\n(If, at any point, the <code>space</code> key does not take you to the next page, click once on the text and try again.)", "response": " ", "trial_id": "mdp_ready", "trial_type": "html-keyboard-response", "trial_index": 8, "time_elapsed": 535171, "internal_node_id": "0.0-4.0-0.0"}}, {"uniqueid": "w51333812:a78428398", "current_trial": 9, "dateTime": 1691142592403, "trialdata": {"revealed_states": [], "clicked_states": ["23", "24", "12", "13", "1", "2", "10", "3", "8"], "num_clicks_accrued": [0, 0, 0, 0, 0, 0, 0, 0, 0, 0, 0, 0, 0], "stateRewards": ["", -1, 1, -1, 2, 19, 85, -18, 2, -3, -26, 36, 2, 4, 7, -9, -18, 70, 72, -5, 35, -20, -28, 1, -2, -4, -3, -59, -11, -63, -2, -72, 59, -69], "withholdReward": false, "trial_id": "mdp_trial_1", "block": "test", "trialIndex": 2, "score": -18.95, "costs": -4.949999999999999, "simulationMode": [null, null, null, null, null], "rewards": [2, 4, 7, -9, -18], "path": ["0", "0", "12", "13", "14", "15", "16"], "rt": [25265, 1273, 981, 1049, 696], "actions": ["right", "right", "right", "up", "up"], "actionTimes": [28635, 30426, 31917, 33486, 34687], "queries": {"click": {"state": {"target": ["23", "24", "12", "13", "1", "2", "10", "3", "8"], "time": [4891, 6789, 9312, 10599, 12594, 13461, 14597, 17638, 19137]}, "edge": {"target": [], "time": []}}, "mouseover": {"state": {"target": ["23", "24", "25", "12", "12", "12", "13", "1", "2", "10", "3", "8", "7", "14", "0"], "time": [4596, 6348, 7813, 8177, 8295, 8913, 10178, 12428, 13102, 14169, 15605, 18534, 20950, 22750, 26434]}, "edge": {"target": [], "time": []}}, "mouseout": {"state": {"target": ["0", "23", "24", "25", "12", "12", "12", "13", "1", "2", "10", "3", "8", "7", "14"], "time": [4545, 6279, 7762, 8096, 8213, 8345, 9320, 12228, 13020, 14135, 15184, 18469, 20317, 22035, 24735]}, "edge": {"target": [], "time": []}}}, "displayed_time": "35.21", "trialTime": 40273, "trial_type": "mouselab-mdp", "trial_index": 9, "time_elapsed": 575713, "internal_node_id": "0.0-4.0-1.0-0.0"}}, {"uniqueid": "w51333812:a78428398", "current_trial": 10, "dateTime": 1691142648685, "trialdata": {"revealed_states": [], "clicked_states": ["12", "13", "14", "19", "20", "15", "17", "23", "24", "25", "30", "31", "33", "1", "2", "3", "8", "9", "4", "5", "6", "7"], "num_clicks_accrued": [0, 0, 0, 0, 0, 0, 0, 0, 0, 0, 0, 0, 0], "stateRewards": ["", 2, 3, -6, -5, -3, 55, 40, 11, 61, 11, 51, 2, -4, -6, 9, -25, 29, -15, -6, 7, -77, -2, -2, -4, 1, 14, -43, -1, 56, -12, -54, 41, -74], "withholdReward": false, "trial_id": "mdp_trial_2", "block": "test", "trialIndex": 3, "score": 5.900000000000006, "costs": -28.099999999999994, "simulationMode": [null, null, null, null, null], "rewards": [2, 3, -6, -5, 40], "path": ["0", "0", "1", "2", "3", "4", "7"], "rt": [44297, 1155, 511, 102, 711], "actions": ["up", "up", "up", "right", "down"], "actionTimes": [46617, 48287, 49312, 49937, 51162], "queries": {"click": {"state": {"target": ["12", "13", "14", "19", "20", "15", "17", "23", "24", "25", "30", "31", "33", "1", "2", "3", "8", "9", "4", "5", "6", "7"], "time": [4550, 5701, 7065, 8080, 8920, 13416, 14712, 17562, 18844, 19887, 20919, 21908, 26740, 29615, 30541, 31558, 32539, 33258, 36149, 37075, 39859, 43163]}, "edge": {"target": [], "time": []}}, "mouseover": {"state": {"target": ["12", "13", "14", "19", "19", "20", "15", "13", "22", "13", "15", "17", "16", "1", "24", "24", "23", "24", "23", "24", "25", "30", "31", "33", "30", "30", "1", "2", "3", "8", "9", "4", "5", "6", "6", "7", "0"], "time": [3820, 5353, 6770, 7619, 7870, 8687, 9735, 11920, 11989, 12885, 13023, 14312, 15328, 16178, 16228, 16310, 16544, 16676, 17363, 18396, 19776, 20544, 21793, 23380, 27765, 28016, 29415, 30230, 31363, 32182, 33064, 33865, 36899, 37898, 39599, 40597, 44266]}, "edge": {"target": [], "time": []}}, "mouseout": {"state": {"target": ["0", "12", "13", "14", "19", "19", "20", "15", "13", "22", "13", "15", "17", "16", "1", "24", "24", "23", "24", "23", "24", "25", "30", "31", "31", "30", "33", "30", "30", "1", "2", "3", "8", "9", "4", "5", "6", "6", "7", "0"], "time": [3621, 4681, 6721, 7584, 7770, 8636, 9420, 11801, 11952, 12002, 12920, 14227, 15244, 16111, 16195, 16277, 16477, 16644, 17309, 18342, 19593, 20464, 21003, 21915, 22926, 23144, 27687, 27848, 28915, 30129, 31315, 32148, 32998, 33799, 36800, 37833, 39082, 40450, 44132, 53015]}, "edge": {"target": [], "time": []}}}, "displayed_time": "51.68", "trialTime": 56011, "trial_type": "mouselab-mdp", "trial_index": 10, "time_elapsed": 631994, "internal_node_id": "0.0-4.0-1.0-1.0"}}, {"uniqueid": "w51333812:a78428398", "current_trial": 11, "dateTime": 1691142683519, "trialdata": {"revealed_states": [], "clicked_states": ["12", "13", "14", "19", "21", "15", "17", "18", "16"], "num_clicks_accrued": [0, 0, 0, 0, 0, 0, 0, 0, 0, 0, 0, 0, 0], "stateRewards": ["", -1, 3, -5, -2, -13, -9, -34, -7, -81, 32, 35, -2, -2, 1, -14, -32, 81, 7, 4, 82, 56, -8, -1, 3, -8, 6, -24, -24, -53, 2, 38, 61, 54], "withholdReward": false, "trial_id": "mdp_trial_3", "block": "test", "trialIndex": 4, "score": 51.25, "costs": -12.75, "simulationMode": [null, null, null, null, null, null], "rewards": [-2, -2, 1, -14, 81], "path": ["0", "0", "12", "13", "14", "15", "17"], "rt": [23081, 1628, 317, 340, 402, 160], "actions": ["right", "right", "right", "right", "up", "right"], "actionTimes": [25178, 26809, 27642, 28481, 29393, 30068], "queries": {"click": {"state": {"target": ["12", "13", "14", "19", "21", "15", "17", "18", "16"], "time": [3400, 4960, 7403, 9245, 10798, 14122, 15125, 18896, 22529]}, "edge": {"target": [], "time": []}}, "mouseover": {"state": {"target": ["12", "13", "14", "19", "21", "19", "14", "15", "17", "18", "16", "15", "14", "22"], "time": [3090, 4491, 6989, 8766, 10449, 13068, 13235, 13850, 14901, 16348, 20523, 23239, 23289, 23439]}, "edge": {"target": [], "time": []}}, "mouseout": {"state": {"target": ["0", "12", "13", "14", "19", "19", "21", "19", "14", "15", "17", "15", "18", "16", "15", "14", "22"], "time": [3043, 4425, 6757, 8599, 9344, 10300, 10904, 13151, 13269, 14853, 16149, 16331, 20156, 23189, 23253, 23321, 31821]}, "edge": {"target": [], "time": []}}}, "displayed_time": "30.59", "trialTime": 34589, "trial_type": "mouselab-mdp", "trial_index": 11, "time_elapsed": 666829, "internal_node_id": "0.0-4.0-1.0-2.0"}}, {"uniqueid": "w51333812:a78428398", "current_trial": 12, "dateTime": 1691142713463, "trialdata": {"revealed_states": [], "clicked_states": ["12", "13", "14", "19", "20", "21", "22"], "num_clicks_accrued": [0, 0, 0, 0, 0, 0, 0, 0, 0, 0, 0, 0, 0], "stateRewards": ["", -2, -1, -4, -15, -14, -67, 32, -3, -59, 63, 31, 2, -1, -7, -15, 71, -66, -27, -3, -54, -39, 72, 2, 1, 1, -13, 77, -40, 35, -9, 35, 75, 57], "withholdReward": false, "trial_id": "mdp_trial_4", "block": "test", "trialIndex": 5, "score": 53.95, "costs": -9.05, "simulationMode": [null, null, null, null, null], "rewards": [2, -1, -7, -3, 72], "path": ["0", "0", "12", "13", "14", "19", "22"], "rt": [19454, 367, 337, 372, 303], "actions": ["right", "right", "right", "down", "left"], "actionTimes": [21213, 22101, 22956, 23825, 24639], "queries": {"click": {"state": {"target": ["12", "13", "14", "19", "20", "21", "22"], "time": [3238, 4961, 6553, 7985, 9107, 13489, 16939]}, "edge": {"target": [], "time": []}}, "mouseover": {"state": {"target": ["12", "13", "14", "19", "20", "21", "22", "17"], "time": [2573, 4210, 6076, 7325, 8677, 10475, 15051, 18000]}, "edge": {"target": [], "time": []}}, "mouseout": {"state": {"target": ["0", "12", "13", "14", "19", "20", "21", "22", "17"], "time": [2522, 4094, 6012, 7208, 8610, 10296, 14384, 17469, 28487]}, "edge": {"target": [], "time": []}}}, "displayed_time": "25.15", "trialTime": 29700, "trial_type": "mouselab-mdp", "trial_index": 12, "time_elapsed": 696773, "internal_node_id": "0.0-4.0-1.0-3.0"}}, {"uniqueid": "w51333812:a78428398", "current_trial": 13, "dateTime": 1691142745920, "trialdata": {"revealed_states": [], "clicked_states": ["1", "2", "3", "8", "10", "7", "6"], "num_clicks_accrued": [0, 0, 0, 0, 0, 0, 0, 0, 0, 0, 0, 0, 0], "stateRewards": ["", -2, -1, -6, -14, -55, 78, -13, 11, 14, -71, 59, 2, 2, 6, -6, 9, 38, 14, 7, 85, 11, 68, 1, -4, -1, -3, -63, -85, 9, -2, 63, -86, -10], "withholdReward": false, "trial_id": "mdp_trial_5", "block": "test", "trialIndex": 6, "score": 45.95, "costs": -9.05, "simulationMode": [null, null, null, null, null], "rewards": [-2, -1, -6, -14, 78], "path": ["0", "0", "1", "2", "3", "4", "6"], "rt": [19634, 303, 312, 211, 142], "actions": ["up", "up", "up", "right", "right"], "actionTimes": [25490, 26311, 27138, 27870, 28534], "queries": {"click": {"state": {"target": ["1", "2", "3", "8", "10", "7", "6"], "time": [6666, 7922, 9275, 10270, 11559, 15866, 19653]}, "edge": {"target": [], "time": []}}, "mouseover": {"state": {"target": ["1", "2", "3", "8", "10", "2", "7", "4", "6", "4"], "time": [6324, 7488, 9071, 10055, 11305, 14890, 15470, 19105, 19390, 20306]}, "edge": {"target": [], "time": []}}, "mouseout": {"state": {"target": ["31", "0", "1", "0", "0", "1", "2", "3", "8", "10", "2", "7", "4", "6", "4", "2", "1"], "time": [1351, 4837, 5219, 5304, 6254, 6674, 8954, 9972, 11221, 14853, 15004, 19056, 19353, 20273, 30077, 30574, 30623]}, "edge": {"target": [], "time": []}}}, "displayed_time": "29.04", "trialTime": 32209, "trial_type": "mouselab-mdp", "trial_index": 13, "time_elapsed": 729230, "internal_node_id": "0.0-4.0-1.0-4.0"}}, {"uniqueid": "w51333812:a78428398", "current_trial": 14, "dateTime": 1691142779558, "trialdata": {"revealed_states": [], "clicked_states": ["1", "2", "3", "8", "9", "11", "10", "7", "6"], "num_clicks_accrued": [0, 0, 0, 0, 0, 0, 0, 0, 0, 0, 0, 0, 0], "stateRewards": ["", 2, -1, 8, -2, -16, 69, -39, -7, -13, -27, -86, 2, -2, 2, 13, -34, -16, -20, -5, 19, 81, 32, -2, -1, 2, -14, 20, 80, 58, 4, 70, 12, 73], "withholdReward": false, "trial_id": "mdp_trial_6", "block": "test", "trialIndex": 7, "score": 62.65, "costs": -13.350000000000001, "simulationMode": [null, null, null, null, null], "rewards": [2, -1, 8, -2, 69], "path": ["0", "0", "1", "2", "3", "4", "6"], "rt": [25857, 183, 209, 57, 166], "actions": ["up", "up", "up", "right", "right"], "actionTimes": [28117, 28830, 29556, 30137, 30814], "queries": {"click": {"state": {"target": ["1", "2", "3", "8", "9", "11", "10", "7", "6"], "time": [5083, 5963, 7076, 8327, 9214, 12922, 16687, 19945, 23323]}, "edge": {"target": [], "time": []}}, "mouseover": {"state": {"target": ["0", "23", "1", "2", "2", "1", "2", "1", "2", "3", "8", "9", "11", "10", "7", "6", "5", "4", "7"], "time": [2853, 3051, 3749, 3783, 4236, 4453, 4766, 4901, 5501, 6517, 7585, 8833, 12790, 13725, 17322, 22830, 25044, 27145, 27194]}, "edge": {"target": [], "time": []}}, "mouseout": {"state": {"target": ["0", "23", "1", "2", "2", "1", "2", "1", "2", "3", "8", "9", "9", "11", "10", "7", "6", "5", "4", "7", "0"], "time": [2933, 3701, 3768, 3817, 4320, 4669, 4802, 5159, 6434, 7553, 8753, 9330, 12442, 13590, 16799, 20773, 24144, 27128, 27177, 27244, 32449]}, "edge": {"target": [], "time": []}}}, "displayed_time": "31.32", "trialTime": 33384, "trial_type": "mouselab-mdp", "trial_index": 14, "time_elapsed": 762867, "internal_node_id": "0.0-4.0-1.0-5.0"}}, {"uniqueid": "w51333812:a78428398", "current_trial": 15, "dateTime": 1691142809739, "trialdata": {"revealed_states": [], "clicked_states": ["32", "33", "29", "27", "11", "9"], "num_clicks_accrued": [0, 0, 0, 0, 0, 0, 0, 0, 0, 0, 0, 0, 0], "stateRewards": ["", -1, 1, -6, -1, 80, 23, 2, -11, 73, -81, 59, 1, 3, 5, -1, -26, 28, -3, 16, -59, -13, -50, -2, -2, 2, 15, -50, 86, 17, -4, 37, 35, 44], "withholdReward": false, "trial_id": "mdp_trial_7", "block": "test", "trialIndex": 8, "score": 43.1, "costs": -12.9, "simulationMode": [null, null, null, null, null], "rewards": [-1, 1, -6, -11, 73], "path": ["0", "0", "1", "2", "3", "8", "9"], "rt": [22649, 173, 203, 314, 330], "actions": ["up", "up", "up", "left", "up"], "actionTimes": [24660, 25346, 26060, 26887, 27734], "queries": {"click": {"state": {"target": ["32", "33", "29", "27", "11", "9"], "time": [3511, 6771, 10142, 13402, 16622, 20129]}, "edge": {"target": [], "time": []}}, "mouseover": {"state": {"target": ["32", "33", "29", "27", "11", "9", "2"], "time": [2681, 4979, 9353, 11186, 14703, 17337, 23786]}, "edge": {"target": [], "time": []}}, "mouseout": {"state": {"target": ["0", "32", "33", "29", "27", "11", "9", "2", "12"], "time": [2530, 4430, 7347, 10770, 14103, 17137, 23205, 23821, 29187]}, "edge": {"target": [], "time": []}}}, "displayed_time": "28.24", "trialTime": 29917, "trial_type": "mouselab-mdp", "trial_index": 15, "time_elapsed": 793049, "internal_node_id": "0.0-4.0-1.0-6.0"}}, {"uniqueid": "w51333812:a78428398", "current_trial": 16, "dateTime": 1691142875391, "trialdata": {"revealed_states": [], "clicked_states": ["9", "5", "6", "7", "16", "17", "18", "20", "21", "22", "31", "32", "33", "29", "27", "11"], "num_clicks_accrued": [0, 0, 0, 0, 0, 0, 0, 0, 0, 0, 0, 0, 0], "stateRewards": ["", 2, -2, 7, -11, -76, -65, -23, 16, -58, 30, 81, 1, 2, 7, 14, 9, 55, -2, 6, 11, -15, 31, -1, -1, -3, 2, 15, 2, 46, 15, 18, 45, -34], "withholdReward": false, "trial_id": "mdp_trial_8", "block": "test", "trialIndex": 9, "score": -1.3999999999999915, "costs": -34.39999999999999, "simulationMode": [null, null, null, null, null], "rewards": [1, 2, 7, 14, 9], "path": ["0", "0", "12", "13", "14", "15", "16"], "rt": [54684, 987, 178, 150, 70], "actions": ["right", "right", "right", "up", "up"], "actionTimes": [58168, 59657, 60346, 61004, 61590], "queries": {"click": {"state": {"target": ["9", "5", "6", "7", "16", "17", "18", "20", "21", "22", "31", "32", "33", "29", "27", "11"], "time": [4913, 8124, 11319, 14523, 17750, 20994, 24100, 27296, 30521, 33694, 37561, 40722, 43910, 47233, 50516, 53718]}, "edge": {"target": [], "time": []}}, "mouseover": {"state": {"target": ["0", "1", "2", "3", "9", "5", "5", "6", "16", "7", "16", "16", "17", "17", "18", "14", "20", "21", "22", "32", "31", "32", "33", "29", "27", "11", "2", "18", "15", "17"], "time": [3874, 4091, 4192, 4259, 4743, 5460, 5975, 8728, 11946, 14310, 14960, 15246, 18284, 18500, 21917, 24667, 25151, 28801, 31201, 36666, 36899, 38584, 41251, 46319, 47817, 51119, 54266, 54350, 55317, 55699]}, "edge": {"target": [], "time": []}}, "mouseout": {"state": {"target": ["0", "0", "1", "2", "3", "9", "5", "5", "6", "16", "7", "16", "16", "17", "17", "18", "14", "20", "21", "22", "32", "31", "31", "32", "33", "29", "27", "11", "2", "18", "15", "17", "14"], "time": [3041, 3994, 4158, 4226, 4291, 5375, 5492, 8679, 11845, 13996, 14893, 15027, 18234, 18351, 21451, 24601, 24719, 28000, 31035, 35201, 36817, 37657, 38187, 40816, 44801, 47650, 50884, 54201, 54282, 54384, 55384, 64054, 64169]}, "edge": {"target": [], "time": []}}}, "displayed_time": "62.10", "trialTime": 65390, "trial_type": "mouselab-mdp", "trial_index": 16, "time_elapsed": 858700, "internal_node_id": "0.0-4.0-1.0-7.0"}}, {"uniqueid": "w51333812:a78428398", "current_trial": 17, "dateTime": 1691142893442, "trialdata": {"revealed_states": [], "clicked_states": ["27", "11"], "num_clicks_accrued": [0, 0, 0, 0, 0, 0, 0, 0, 0, 0, 0, 0, 0], "stateRewards": ["", -2, -2, -7, -13, -10, 49, -68, -1, 84, 70, 88, 1, 4, 4, 12, -57, 25, 30, 8, -1, -77, 57, 2, 3, 2, 3, -18, -80, 23, -15, -41, 70, 11], "withholdReward": false, "trial_id": "mdp_trial_9", "block": "test", "trialIndex": 10, "score": 71.7, "costs": -4.3, "simulationMode": [null, null, null, null, null], "rewards": [-2, -2, -7, -1, 88], "path": ["0", "0", "1", "2", "3", "8", "11"], "rt": [9537, 286, 390, 408, 159], "actions": ["up", "up", "up", "left", "left"], "actionTimes": [12065, 12864, 13772, 14693, 15360], "queries": {"click": {"state": {"target": ["27", "11"], "time": [3482, 7376]}, "edge": {"target": [], "time": []}}, "mouseover": {"state": {"target": ["28", "27", "27", "11", "9"], "time": [2927, 2980, 3328, 4179, 7895]}, "edge": {"target": [], "time": []}}, "mouseout": {"state": {"target": ["31", "0", "28", "27", "27", "11", "9", "8", "10", "23"], "time": [1402, 2877, 2944, 2995, 3961, 7793, 16902, 16952, 16963, 17050]}, "edge": {"target": [], "time": []}}}, "displayed_time": "16.53", "trialTime": 17794, "trial_type": "mouselab-mdp", "trial_index": 17, "time_elapsed": 876752, "internal_node_id": "0.0-4.0-1.0-8.0"}}, {"uniqueid": "w51333812:a78428398", "current_trial": 18, "dateTime": 1691142924082, "trialdata": {"revealed_states": [], "clicked_states": ["22", "21", "20", "17", "16", "6"], "num_clicks_accrued": [0, 0, 0, 0, 0, 0, 0, 0, 0, 0, 0, 0, 0], "stateRewards": ["", 2, -1, 5, 6, 10, 86, 55, 10, -45, 63, -71, 1, -2, 5, -8, -50, -72, 36, 15, 61, 12, 33, -1, -4, 6, 5, 79, -56, -21, -16, -87, 60, -81], "withholdReward": false, "trial_id": "mdp_trial_10", "block": "test", "trialIndex": 11, "score": 85.1, "costs": -12.9, "simulationMode": [null, null, null, null, null], "rewards": [2, -1, 5, 6, 86], "path": ["0", "0", "1", "2", "3", "4", "6"], "rt": [22853, 239, 221, 134, 122], "actions": ["up", "up", "up", "right", "right"], "actionTimes": [25498, 26259, 26991, 27636, 28272], "queries": {"click": {"state": {"target": ["22", "21", "20", "17", "16", "6"], "time": [4317, 7544, 10739, 14013, 17368, 21044]}, "edge": {"target": [], "time": []}}, "mouseover": {"state": {"target": ["12", "13", "14", "19", "21", "22", "21", "21", "20", "14", "17", "16", "6", "7"], "time": [3087, 3154, 3204, 3271, 3521, 3790, 4924, 6056, 8025, 11191, 11590, 15750, 20852, 22117]}, "edge": {"target": [], "time": []}}, "mouseout": {"state": {"target": ["0", "12", "13", "14", "19", "21", "22", "21", "21", "20", "14", "17", "16", "6", "7", "0"], "time": [2140, 3136, 3188, 3220, 3504, 3737, 4873, 5508, 7958, 11125, 11223, 14545, 18284, 21934, 29448, 29501]}, "edge": {"target": [], "time": []}}}, "displayed_time": "28.79", "trialTime": 30389, "trial_type": "mouselab-mdp", "trial_index": 18, "time_elapsed": 907392, "internal_node_id": "0.0-4.0-1.0-9.0"}}, {"uniqueid": "w51333812:a78428398", "current_trial": 19, "dateTime": 1691142948891, "trialdata": {"revealed_states": [], "clicked_states": ["31", "32", "33"], "num_clicks_accrued": [0, 0, 0, 0, 0, 0, 0, 0, 0, 0, 0, 0, 0], "stateRewards": ["", 2, -4, 7, 3, 23, -42, 4, 7, -81, -33, 7, -2, -4, 5, -1, 50, -57, -14, -13, -14, 44, 55, -2, -2, 5, -2, 33, 1, 57, -13, -7, 58, 87], "withholdReward": false, "trial_id": "mdp_trial_11", "block": "test", "trialIndex": 12, "score": 68.55, "costs": -6.449999999999999, "simulationMode": [null, null, null, null, null], "rewards": [-2, -2, 5, -13, 87], "path": ["0", "0", "23", "24", "25", "30", "33"], "rt": [13124, 351, 320, 488, 297], "actions": ["left", "left", "left", "down", "left"], "actionTimes": [18883, 19749, 20585, 21584, 22396], "queries": {"click": {"state": {"target": ["31", "32", "33"], "time": [8073, 11324, 14679]}, "edge": {"target": [], "time": []}}, "mouseover": {"state": {"target": ["23", "31", "32", "33", "29"], "time": [7485, 7884, 9002, 12834, 16578]}, "edge": {"target": [], "time": []}}, "mouseout": {"state": {"target": ["0", "23", "31", "32", "33", "29", "25"], "time": [6286, 7803, 8735, 11936, 15146, 23696, 23780]}, "edge": {"target": [], "time": []}}}, "displayed_time": "22.91", "trialTime": 24548, "trial_type": "mouselab-mdp", "trial_index": 19, "time_elapsed": 932201, "internal_node_id": "0.0-4.0-1.0-10.0"}}, {"uniqueid": "w51333812:a78428398", "current_trial": 20, "dateTime": 1691142984021, "trialdata": {"revealed_states": [], "clicked_states": ["22", "21", "20", "17", "16", "6"], "num_clicks_accrued": [0, 0, 0, 0, 0, 0, 0, 0, 0, 0, 0, 0, 0], "stateRewards": ["", 2, 3, -3, 12, -43, 81, -82, -15, 58, -7, -75, -1, -1, 3, -5, 50, -25, -8, 4, 66, 65, -66, 2, -4, 2, -1, -10, 10, 37, 11, 88, -37, 8], "withholdReward": false, "trial_id": "mdp_trial_12", "block": "test", "trialIndex": 13, "score": 82.1, "costs": -12.9, "simulationMode": [null, null, null, null, null], "rewards": [2, 3, -3, 12, 81], "path": ["0", "0", "1", "2", "3", "4", "6"], "rt": [25545, 148, 206, 159, 173], "actions": ["up", "up", "up", "right", "right"], "actionTimes": [30320, 30976, 31701, 32372, 33068], "queries": {"click": {"state": {"target": ["22", "21", "20", "17", "16", "6"], "time": [7046, 10376, 13835, 17197, 20487, 26018]}, "edge": {"target": [], "time": []}}, "mouseover": {"state": {"target": ["0", "12", "12", "22", "22", "21", "20", "17", "16", "1", "8", "3", "11", "9", "5", "5", "6", "6"], "time": [5094, 5178, 6095, 6561, 6711, 7678, 11011, 15128, 19826, 23975, 24126, 24157, 24392, 24726, 24861, 25125, 25258, 25629]}, "edge": {"target": [], "time": []}}, "mouseout": {"state": {"target": ["0", "0", "12", "12", "22", "22", "21", "20", "17", "16", "1", "8", "3", "11", "9", "5", "5", "6", "6", "6", "4", "7"], "time": [4512, 5128, 5361, 6411, 6645, 7561, 10875, 14499, 17994, 23909, 23992, 24142, 24276, 24408, 24807, 24893, 25207, 25326, 27441, 28175, 34424, 34442]}, "edge": {"target": [], "time": []}}}, "displayed_time": "33.58", "trialTime": 34837, "trial_type": "mouselab-mdp", "trial_index": 20, "time_elapsed": 967331, "internal_node_id": "0.0-4.0-1.0-11.0"}}, {"uniqueid": "w51333812:a78428398", "current_trial": 21, "dateTime": 1691143019649, "trialdata": {"revealed_states": [], "clicked_states": ["9", "11", "10", "5", "6", "7", "16", "17"], "num_clicks_accrued": [0, 0, 0, 0, 0, 0, 0, 0, 0, 0, 0, 0, 0], "stateRewards": ["", 2, 4, 4, -8, -36, -33, 38, 16, -51, 57, 57, 1, 3, 4, -6, 45, 68, 87, 1, 63, 24, -55, -2, 2, -6, -13, -63, -50, 8, 2, 80, 6, 60], "withholdReward": false, "trial_id": "mdp_trial_13", "block": "test", "trialIndex": 14, "score": 52.8, "costs": -17.2, "simulationMode": [null, null, null, null, null], "rewards": [1, 3, 4, -6, 68], "path": ["0", "0", "12", "13", "14", "15", "17"], "rt": [28199, 162, 205, 195, 125], "actions": ["right", "right", "right", "up", "right"], "actionTimes": [29801, 30479, 31205, 31912, 32558], "queries": {"click": {"state": {"target": ["9", "11", "10", "5", "6", "7", "16", "17"], "time": [2717, 5929, 9155, 12439, 15672, 18852, 22454, 25720]}, "edge": {"target": [], "time": []}}, "mouseover": {"state": {"target": ["9", "8", "8", "11", "10", "2", "4", "5", "5", "6", "7", "16", "17", "17"], "time": [2472, 3439, 4219, 4405, 6521, 9670, 9754, 9854, 10121, 12987, 16216, 21597, 22880, 23030]}, "edge": {"target": [], "time": []}}, "mouseout": {"state": {"target": ["0", "9", "8", "8", "11", "10", "2", "4", "5", "5", "6", "7", "16", "17", "17", "14", "13"], "time": [2021, 3354, 3489, 4272, 6339, 9638, 9704, 9805, 9869, 12937, 16097, 19382, 22829, 22947, 26482, 33812, 33849]}, "edge": {"target": [], "time": []}}}, "displayed_time": "33.07", "trialTime": 35344, "trial_type": "mouselab-mdp", "trial_index": 21, "time_elapsed": 1002958, "internal_node_id": "0.0-4.0-1.0-12.0"}}, {"uniqueid": "w51333812:a78428398", "current_trial": 22, "dateTime": 1691143076214, "trialdata": {"revealed_states": [], "clicked_states": ["32", "31", "22", "21", "20", "17", "16", "5", "6", "9", "11", "27", "29"], "num_clicks_accrued": [0, 0, 0, 0, 0, 0, 0, 0, 0, 0, 0, 0, 0], "stateRewards": ["", 1, 2, -6, -13, -51, 22, -4, -12, -44, -12, 6, -2, -2, -2, -14, -46, -4, -77, -2, 36, -79, 41, 2, -4, 2, -6, -55, 59, 70, -5, 39, -19, 24], "withholdReward": false, "trial_id": "mdp_trial_14", "block": "test", "trialIndex": 15, "score": 36.05000000000001, "costs": -27.949999999999992, "simulationMode": [null, null, null, null, null], "rewards": [2, -4, 2, -6, 70], "path": ["0", "0", "23", "24", "25", "26", "29"], "rt": [48998, 431, 385, 382, 110], "actions": ["left", "left", "left", "up", "left"], "actionTimes": [50418, 51352, 52255, 53152, 53779], "queries": {"click": {"state": {"target": ["32", "31", "22", "21", "20", "17", "16", "5", "6", "9", "11", "27", "29"], "time": [2210, 5403, 8661, 11966, 16155, 19445, 22824, 26251, 29380, 32672, 36287, 39857, 43068]}, "edge": {"target": [], "time": []}}, "mouseover": {"state": {"target": ["32", "31", "31", "22", "21", "19", "14", "20", "17", "16", "6", "5", "6", "16", "6", "5", "6", "6", "4", "9", "9", "11", "10", "27", "29", "30", "32", "33"], "time": [2074, 2874, 3007, 6640, 9325, 15216, 15484, 15983, 17015, 19915, 19999, 20432, 21467, 21616, 23332, 23715, 28065, 28398, 29749, 29783, 30865, 36181, 37181, 39598, 40815, 43565, 44131, 45964]}, "edge": {"target": [], "time": []}}, "mouseout": {"state": {"target": ["0", "32", "31", "31", "22", "21", "19", "14", "20", "17", "16", "6", "5", "6", "16", "6", "5", "5", "6", "6", "4", "9", "9", "9", "11", "10", "27", "29", "30", "32", "33"], "time": [1745, 2658, 2890, 5957, 9106, 12108, 15268, 15667, 16258, 19543, 19950, 20384, 21432, 21518, 23298, 23382, 26358, 26831, 28099, 29732, 29767, 29817, 32681, 33516, 36932, 37466, 40565, 43482, 43616, 45666, 46514]}, "edge": {"target": [], "time": []}}}, "displayed_time": "54.29", "trialTime": 56303, "trial_type": "mouselab-mdp", "trial_index": 22, "time_elapsed": 1059523, "internal_node_id": "0.0-4.0-1.0-13.0"}}, {"uniqueid": "w51333812:a78428398", "current_trial": 23, "dateTime": 1691143095111, "trialdata": {"revealed_states": [], "clicked_states": ["29", "17", "20"], "num_clicks_accrued": [0, 0, 0, 0, 0, 0, 0, 0, 0, 0, 0, 0, 0], "stateRewards": ["", -1, -3, -5, -14, -13, -47, 79, 8, -60, -64, 41, -1, 2, 3, 13, -46, 61, -79, -11, -64, -65, 23, 1, -2, 6, -14, 46, 32, 21, 7, 75, -66, 15], "withholdReward": false, "trial_id": "mdp_trial_15", "block": "test", "trialIndex": 16, "score": 71.55, "costs": -6.449999999999999, "simulationMode": [null, null, null, null, null], "rewards": [-1, 2, 3, 13, 61], "path": ["0", "0", "12", "13", "14", "15", "17"], "rt": [12534, 173, 152, 205, 500], "actions": ["right", "right", "right", "up", "right"], "actionTimes": [13870, 14543, 15205, 15925, 16937], "queries": {"click": {"state": {"target": ["29", "17", "20"], "time": [2378, 5577, 10710]}, "edge": {"target": [], "time": []}}, "mouseover": {"state": {"target": ["23", "31", "25", "29", "1", "18", "15", "17", "14", "13", "14", "20", "21", "21"], "time": [1739, 1791, 1942, 2225, 2944, 2972, 2996, 4316, 6235, 6301, 7534, 8619, 11235, 11685]}, "edge": {"target": [], "time": []}}, "mouseout": {"state": {"target": ["0", "0", "23", "31", "25", "29", "1", "18", "15", "17", "17", "14", "13", "14", "20", "20", "21", "21"], "time": [792, 1726, 1760, 1808, 2075, 2874, 2960, 2995, 3025, 5693, 6167, 6250, 7417, 7568, 10825, 11185, 11286, 17884]}, "edge": {"target": [], "time": []}}}, "displayed_time": "17.45", "trialTime": 18623, "trial_type": "mouselab-mdp", "trial_index": 23, "time_elapsed": 1078420, "internal_node_id": "0.0-4.0-1.0-14.0"}}, {"uniqueid": "w51333812:a78428398", "current_trial": 24, "dateTime": 1691143114402, "trialdata": {"revealed_states": [], "clicked_states": ["10", "7"], "num_clicks_accrued": [0, 0, 0, 0, 0, 0, 0, 0, 0, 0, 0, 0, 0], "stateRewards": ["", -2, 2, -4, -4, -59, 88, 62, -3, 69, -15, -34, 1, -2, -5, 7, -54, -20, 78, -16, -74, -53, -21, 2, -4, 2, 13, -8, -44, 26, 9, 72, 4, 17], "withholdReward": false, "trial_id": "mdp_trial_16", "block": "test", "trialIndex": 17, "score": 49.7, "costs": -4.3, "simulationMode": [null, null, null, null, null], "rewards": [-2, 2, -4, -4, 62], "path": ["0", "0", "1", "2", "3", "4", "7"], "rt": [8951, 147, 175, 24, 427], "actions": ["up", "up", "up", "right", "down"], "actionTimes": [11603, 12261, 12953, 13489, 14440], "queries": {"click": {"state": {"target": ["10", "7"], "time": [4268, 7481]}, "edge": {"target": [], "time": []}}, "mouseover": {"state": {"target": ["8", "11", "10", "2", "7", "18"], "time": [3553, 3753, 3937, 4820, 5242, 8662]}, "edge": {"target": [], "time": []}}, "mouseout": {"state": {"target": ["0", "0", "8", "11", "10", "2", "7", "18", "0"], "time": [1919, 3120, 3587, 3887, 4787, 4836, 8178, 15459, 18543]}, "edge": {"target": [], "time": []}}}, "displayed_time": "16.66", "trialTime": 19017, "trial_type": "mouselab-mdp", "trial_index": 24, "time_elapsed": 1097712, "internal_node_id": "0.0-4.0-1.0-15.0"}}, {"uniqueid": "w51333812:a78428398", "current_trial": 25, "dateTime": 1691143141579, "trialdata": {"revealed_states": [], "clicked_states": ["32", "21", "22", "31", "20"], "num_clicks_accrued": [0, 0, 0, 0, 0, 0, 0, 0, 0, 0, 0, 0, 0], "stateRewards": ["", -1, 3, 1, -7, 56, 76, 57, 3, 11, -9, 14, 1, -2, 2, 8, -77, -3, 79, -5, 88, 24, -66, -2, -1, 7, -7, -30, 14, -76, 11, -36, 28, -6], "withholdReward": false, "trial_id": "mdp_trial_17", "block": "test", "trialIndex": 18, "score": 73.25, "costs": -10.75, "simulationMode": [null, null, null, null, null], "rewards": [1, -2, 2, -5, 88], "path": ["0", "0", "12", "13", "14", "19", "20"], "rt": [18404, 161, 178, 895, 148], "actions": ["right", "right", "right", "down", "right"], "actionTimes": [21687, 22359, 23059, 24475, 25146], "queries": {"click": {"state": {"target": ["32", "21", "22", "31", "20"], "time": [4098, 7464, 10908, 14055, 17410]}, "edge": {"target": [], "time": []}}, "mouseover": {"state": {"target": ["0", "31", "32", "21", "22", "31", "20", "17"], "time": [3586, 3682, 3948, 5050, 8621, 11636, 14976, 19896]}, "edge": {"target": [], "time": []}}, "mouseout": {"state": {"target": ["0", "0", "31", "32", "21", "22", "31", "20", "17", "14"], "time": [2432, 3618, 3699, 4521, 7581, 11306, 14470, 18467, 20997, 26447]}, "edge": {"target": [], "time": []}}}, "displayed_time": "25.66", "trialTime": 26883, "trial_type": "mouselab-mdp", "trial_index": 25, "time_elapsed": 1124888, "internal_node_id": "0.0-4.0-1.0-16.0"}}, {"uniqueid": "w51333812:a78428398", "current_trial": 26, "dateTime": 1691143179830, "trialdata": {"revealed_states": [], "clicked_states": ["17", "20", "21", "22", "31", "32", "33", "29"], "num_clicks_accrued": [0, 0, 0, 0, 0, 0, 0, 0, 0, 0, 0, 0, 0], "stateRewards": ["", 1, 2, -3, 6, -88, 74, -45, 7, -46, 40, -77, 1, -4, 4, 3, 22, -25, -59, 8, -83, 19, -60, -1, -1, -1, -8, 26, -29, 64, -7, -88, -51, -55], "withholdReward": false, "trial_id": "mdp_trial_18", "block": "test", "trialIndex": 19, "score": 35.8, "costs": -17.2, "simulationMode": [null, null, null, null, null], "rewards": [-1, -1, -1, -8, 64], "path": ["0", "0", "23", "24", "25", "26", "29"], "rt": [31663, 81, 228, 398, 18], "actions": ["left", "left", "left", "up", "left"], "actionTimes": [33476, 34080, 34827, 35746, 36284], "queries": {"click": {"state": {"target": ["17", "20", "21", "22", "31", "32", "33", "29"], "time": [3496, 6673, 12395, 15654, 18904, 22135, 25648, 29162]}, "edge": {"target": [], "time": []}}, "mouseover": {"state": {"target": ["12", "19", "14", "15", "15", "17", "14", "20", "21", "22", "12", "0", "31", "30", "32", "21", "22", "32", "32", "31", "32", "33", "30", "24", "24", "26", "29", "29", "26", "26", "27"], "time": [2279, 2326, 2743, 2793, 3062, 3193, 4141, 4942, 10120, 10509, 10557, 10821, 10871, 10921, 11223, 12104, 13205, 16205, 16605, 17322, 19397, 22764, 26228, 26297, 26630, 26730, 27112, 27547, 29781, 30463, 30981]}, "edge": {"target": [], "time": []}}, "mouseout": {"state": {"target": ["0", "12", "19", "14", "15", "15", "17", "14", "20", "21", "22", "12", "0", "31", "30", "32", "21", "22", "32", "32", "31", "32", "33", "30", "24", "24", "26", "29", "29", "26", "26", "27", "28", "23"], "time": [1509, 2291, 2709, 2776, 2809, 3074, 4092, 4507, 9838, 10456, 10520, 10806, 10839, 10888, 11172, 11457, 12405, 16122, 16220, 16620, 19330, 22596, 26197, 26245, 26330, 26663, 27079, 27163, 29729, 29846, 30480, 37297, 37462, 37514]}, "edge": {"target": [], "time": []}}}, "displayed_time": "36.80", "trialTime": 37964, "trial_type": "mouselab-mdp", "trial_index": 26, "time_elapsed": 1163140, "internal_node_id": "0.0-4.0-1.0-17.0"}}, {"uniqueid": "w51333812:a78428398", "current_trial": 27, "dateTime": 1691143245457, "trialdata": {"revealed_states": [], "clicked_states": ["17", "16", "20", "21", "22", "32", "31", "33", "29", "27", "11", "9", "5", "6", "7", "10"], "num_clicks_accrued": [0, 0, 0, 0, 0, 0, 0, 0, 0, 0, 0, 0, 0], "stateRewards": ["", -1, 1, -5, -6, -78, 47, -13, 12, 48, -88, 20, 2, -3, -2, 13, -20, 37, -57, 14, -38, 30, 31, -2, -2, 8, 2, -23, 78, 28, 12, -74, -88, 8], "withholdReward": false, "trial_id": "mdp_trial_19", "block": "test", "trialIndex": 20, "score": 1.6000000000000085, "costs": -34.39999999999999, "simulationMode": [null, null, null, null, null], "rewards": [-1, 1, -5, -6, 47], "path": ["0", "0", "1", "2", "3", "4", "6"], "rt": [57698, 405, 150, 88, 65], "actions": ["up", "up", "up", "right", "right"], "actionTimes": [60283, 61210, 61855, 62460, 63038], "queries": {"click": {"state": {"target": ["17", "16", "20", "21", "22", "32", "31", "33", "29", "27", "11", "9", "5", "6", "7", "10"], "time": [5018, 8361, 11629, 14800, 19025, 22990, 26238, 29495, 32688, 35961, 39133, 42529, 45875, 49069, 53376, 56544]}, "edge": {"target": [], "time": []}}, "mouseover": {"state": {"target": ["0", "12", "12", "13", "15", "17", "16", "15", "20", "21", "22", "32", "32", "31", "30", "33", "33", "29", "27", "11", "9", "3", "5", "6", "4", "7", "2", "10", "2"], "time": [3418, 3634, 3920, 4585, 4635, 4668, 7019, 8884, 9302, 12238, 18653, 22506, 22854, 23436, 26742, 26781, 27220, 30370, 33253, 36554, 39601, 43171, 44036, 46437, 49654, 50786, 53937, 54458, 57037]}, "edge": {"target": [], "time": []}}, "mouseout": {"state": {"target": ["0", "0", "12", "12", "13", "15", "17", "16", "15", "20", "21", "21", "22", "22", "32", "32", "31", "30", "33", "33", "29", "27", "11", "9", "3", "5", "6", "4", "7", "2", "10", "2", "1", "0"], "time": [2033, 3601, 3668, 4569, 4602, 4650, 5686, 8868, 8934, 12120, 14809, 18218, 19703, 20219, 22689, 23354, 26739, 26779, 26854, 29938, 32698, 36421, 39519, 43040, 43252, 46360, 49569, 49687, 53888, 54003, 57004, 57052, 64102, 64154]}, "edge": {"target": [], "time": []}}}, "displayed_time": "63.55", "trialTime": 65347, "trial_type": "mouselab-mdp", "trial_index": 27, "time_elapsed": 1228767, "internal_node_id": "0.0-4.0-1.0-18.0"}}, {"uniqueid": "w51333812:a78428398", "current_trial": 28, "dateTime": 1691143262209, "trialdata": {"revealed_states": [], "clicked_states": ["9", "5"], "num_clicks_accrued": [0, 0, 0, 0, 0, 0, 0, 0, 0, 0, 0, 0, 0], "stateRewards": ["", 2, 4, -5, 7, 81, 35, 6, 11, 14, -72, 42, -1, 2, 3, -7, -77, -44, -40, -15, -85, 51, -32, -2, -1, -5, 7, -74, 47, 52, 16, -49, 48, -46], "withholdReward": false, "trial_id": "mdp_trial_20", "block": "test", "trialIndex": 21, "score": 84.7, "costs": -4.3, "simulationMode": [null, null, null, null, null], "rewards": [2, 4, -5, 7, 81], "path": ["0", "0", "1", "2", "3", "4", "5"], "rt": [10165, 114, 108, 522, 231], "actions": ["up", "up", "up", "right", "up"], "actionTimes": [11574, 12200, 12828, 13861, 14599], "queries": {"click": {"state": {"target": ["9", "5"], "time": [4253, 7446]}, "edge": {"target": [], "time": []}}, "mouseover": {"state": {"target": ["31", "31", "24", "10", "9", "5", "4", "7"], "time": [2716, 3248, 3682, 3713, 4113, 4796, 7899, 7985]}, "edge": {"target": [], "time": []}}, "mouseout": {"state": {"target": ["0", "31", "31", "24", "10", "9", "5", "5", "4", "7", "1", "23", "31"], "time": [2030, 2895, 3680, 3694, 3729, 4664, 7456, 7882, 7950, 15534, 15616, 15654, 15719]}, "edge": {"target": [], "time": []}}}, "displayed_time": "15.42", "trialTime": 16476, "trial_type": "mouselab-mdp", "trial_index": 28, "time_elapsed": 1245518, "internal_node_id": "0.0-4.0-1.0-19.0"}}, {"uniqueid": "w51333812:a78428398", "current_trial": 29, "dateTime": 1691143281372, "trialdata": {"revealed_states": [], "clicked_states": ["6", "7", "17"], "num_clicks_accrued": [0, 0, 0, 0, 0, 0, 0, 0, 0, 0, 0, 0, 0], "stateRewards": ["", -2, 3, -1, 2, -72, 63, 20, -1, 62, -66, 39, -2, 3, -6, 14, 22, 47, 1, 8, -49, -1, -41, 2, 2, -6, -16, -64, -60, -34, 16, 54, 22, -7], "withholdReward": false, "trial_id": "mdp_trial_21", "block": "test", "trialIndex": 22, "score": 58.55, "costs": -6.449999999999999, "simulationMode": [null, null, null, null, null], "rewards": [-2, 3, -1, 2, 63], "path": ["0", "0", "1", "2", "3", "4", "6"], "rt": [12776, 188, 101, 107, 139], "actions": ["up", "up", "up", "right", "right"], "actionTimes": [14353, 15050, 15664, 16286, 16935], "queries": {"click": {"state": {"target": ["6", "7", "17"], "time": [3505, 7043, 10478]}, "edge": {"target": [], "time": []}}, "mouseover": {"state": {"target": ["7", "4", "6", "7", "7", "15", "17", "14"], "time": [2933, 3019, 3353, 3984, 4532, 7815, 9811, 11210]}, "edge": {"target": [], "time": []}}, "mouseout": {"state": {"target": ["0", "7", "4", "6", "6", "7", "7", "15", "17", "14", "19"], "time": [2817, 2967, 3151, 3517, 3950, 4016, 7704, 9694, 11025, 12094, 18263]}, "edge": {"target": [], "time": []}}}, "displayed_time": "17.45", "trialTime": 18872, "trial_type": "mouselab-mdp", "trial_index": 29, "time_elapsed": 1264681, "internal_node_id": "0.0-4.0-1.0-20.0"}}, {"uniqueid": "w51333812:a78428398", "current_trial": 30, "dateTime": 1691143298636, "trialdata": {"revealed_states": [], "clicked_states": [], "num_clicks_accrued": [0, 0, 0, 0, 0, 0, 0, 0, 0, 0, 0, 0, 0], "stateRewards": ["", 1, 1, -5, 10, -31, 73, 14, -8, -23, 63, -70, -1, 2, 8, 7, 25, -59, 27, -10, -40, -71, -15, -2, 3, -8, -5, -19, 77, -34, 7, 67, 63, 19], "withholdReward": false, "trial_id": "mdp_trial_22", "block": "test", "trialIndex": 23, "score": -41, "costs": 0, "simulationMode": [null, null, null, null, null], "rewards": [-1, 2, 8, -10, -40], "path": ["0", "0", "12", "13", "14", "19", "20"], "rt": [6209, 121, 161, 442, 211], "actions": ["right", "right", "right", "down", "right"], "actionTimes": [7714, 8352, 9024, 9986, 10694], "queries": {"click": {"state": {"target": [], "time": []}, "edge": {"target": [], "time": []}}, "mouseover": {"state": {"target": ["0", "23", "0", "1", "2", "4", "6"], "time": [2026, 2659, 3428, 4329, 4543, 4626, 4709]}, "edge": {"target": [], "time": []}}, "mouseout": {"state": {"target": ["0", "0", "23", "0", "1", "2", "4", "6", "1"], "time": [1210, 2075, 2709, 4108, 4492, 4558, 4676, 14197, 16131]}, "edge": {"target": [], "time": []}}}, "displayed_time": "15.51", "trialTime": 16969, "trial_type": "mouselab-mdp", "trial_index": 30, "time_elapsed": 1281946, "internal_node_id": "0.0-4.0-1.0-21.0"}}, {"uniqueid": "w51333812:a78428398", "current_trial": 31, "dateTime": 1691143323878, "trialdata": {"revealed_states": [], "clicked_states": ["32", "31", "33", "29"], "num_clicks_accrued": [0, 0, 0, 0, 0, 0, 0, 0, 0, 0, 0, 0, 0], "stateRewards": ["", 2, -3, -4, -1, 25, -16, 16, 10, -71, -20, -55, 1, 3, -4, -9, 1, 32, 11, -6, 32, -50, -41, -1, 4, 4, -8, 7, -81, 70, 2, -52, 45, -10], "withholdReward": false, "trial_id": "mdp_trial_23", "block": "test", "trialIndex": 24, "score": 60.4, "costs": -8.6, "simulationMode": [null, null, null, null, null], "rewards": [-1, 4, 4, -8, 70], "path": ["0", "0", "23", "24", "25", "26", "29"], "rt": [16682, 144, 116, 1861, 54], "actions": ["left", "left", "left", "up", "left"], "actionTimes": [18688, 19353, 19992, 22370, 22947], "queries": {"click": {"state": {"target": ["32", "31", "33", "29"], "time": [2882, 6138, 9622, 14384]}, "edge": {"target": [], "time": []}}, "mouseover": {"state": {"target": ["0", "31", "32", "31", "30", "33", "29", "29", "27"], "time": [2319, 2586, 2668, 3651, 9168, 9434, 10623, 11068, 14960]}, "edge": {"target": [], "time": []}}, "mouseout": {"state": {"target": ["0", "0", "31", "32", "31", "30", "33", "29", "29", "27", "24"], "time": [1736, 2371, 2601, 3352, 6151, 9384, 9631, 10837, 14858, 23993, 24091]}, "edge": {"target": [], "time": []}}}, "displayed_time": "23.46", "trialTime": 24948, "trial_type": "mouselab-mdp", "trial_index": 31, "time_elapsed": 1307187, "internal_node_id": "0.0-4.0-1.0-22.0"}}, {"uniqueid": "w51333812:a78428398", "current_trial": 32, "dateTime": 1691143368503, "trialdata": {"revealed_states": [], "clicked_states": ["9", "5", "6", "7", "16", "17", "18", "20", "21", "22", "31"], "num_clicks_accrued": [0, 0, 0, 0, 0, 0, 0, 0, 0, 0, 0, 0, 0], "stateRewards": ["", 1, 1, -5, 8, -6, 45, 16, -6, -7, -22, -38, -1, -4, 8, -11, -16, 21, -45, -15, -59, -32, 42, -1, 3, 6, 11, -7, 34, -27, -8, 85, 43, -9], "withholdReward": false, "trial_id": "mdp_trial_24", "block": "test", "trialIndex": 25, "score": 61.35000000000001, "costs": -23.649999999999995, "simulationMode": [null, null, null, null, null], "rewards": [-1, 3, 6, -8, 85], "path": ["0", "0", "23", "24", "25", "30", "31"], "rt": [37772, 184, 133, 453, 181], "actions": ["left", "left", "left", "down", "right"], "actionTimes": [39761, 40454, 41106, 42073, 42768], "queries": {"click": {"state": {"target": ["9", "5", "6", "7", "16", "17", "18", "20", "21", "22", "31"], "time": [3382, 6606, 9752, 13362, 16530, 19662, 22878, 26009, 29171, 32332, 35621]}, "edge": {"target": [], "time": []}}, "mouseover": {"state": {"target": ["0", "9", "9", "5", "5", "6", "7", "18", "16", "17", "17", "15", "18", "13", "19", "20", "21", "22", "31", "32"], "time": [2349, 3084, 3230, 3881, 4481, 7783, 10219, 13951, 14503, 17037, 17351, 20087, 20201, 23401, 23635, 23683, 26534, 29801, 33835, 37952]}, "edge": {"target": [], "time": []}}, "mouseout": {"state": {"target": ["0", "0", "0", "9", "9", "5", "5", "6", "7", "18", "16", "17", "17", "15", "18", "13", "19", "20", "20", "21", "22", "31", "32"], "time": [1134, 1679, 2430, 3164, 3391, 3949, 7363, 10169, 13869, 13984, 16984, 17052, 20053, 20118, 23351, 23534, 23667, 26126, 26468, 29551, 32902, 36351, 39120]}, "edge": {"target": [], "time": []}}}, "displayed_time": "43.29", "trialTime": 44331, "trial_type": "mouselab-mdp", "trial_index": 32, "time_elapsed": 1351813, "internal_node_id": "0.0-4.0-1.0-23.0"}}, {"uniqueid": "w51333812:a78428398", "current_trial": 33, "dateTime": 1691143392633, "trialdata": {"revealed_states": [], "clicked_states": ["31", "32", "33", "29"], "num_clicks_accrued": [0, 0, 0, 0, 0, 0, 0, 0, 0, 0, 0, 0, 0], "stateRewards": ["", -1, -3, 1, 13, -64, -29, 12, -4, -33, 50, 56, 2, -3, 4, 11, -64, -58, -55, 12, 47, 38, -25, -2, 2, 5, -15, 85, 7, 84, 10, 8, 57, 26], "withholdReward": false, "trial_id": "mdp_trial_25", "block": "test", "trialIndex": 26, "score": 65.4, "costs": -8.6, "simulationMode": [null, null, null, null, null], "rewards": [-2, 2, 5, -15, 84], "path": ["0", "0", "23", "24", "25", "26", "29"], "rt": [15403, 166, 115, 253, 119], "actions": ["left", "left", "left", "up", "left"], "actionTimes": [17155, 17837, 18466, 19244, 19872], "queries": {"click": {"state": {"target": ["31", "32", "33", "29"], "time": [3429, 6687, 9851, 13019]}, "edge": {"target": [], "time": []}}, "mouseover": {"state": {"target": ["31", "32", "33", "30", "0", "23", "26", "29", "29", "1", "18", "17", "20", "21"], "time": [3247, 4696, 8113, 10395, 11050, 11411, 11812, 11848, 12263, 13479, 13511, 14483, 15734, 16283]}, "edge": {"target": [], "time": []}}, "mouseout": {"state": {"target": ["0", "31", "32", "33", "30", "0", "23", "26", "29", "29", "1", "18", "17", "20", "21", "21"], "time": [2863, 4029, 7198, 10379, 10429, 11396, 11433, 11828, 11916, 13120, 13495, 13528, 14966, 15784, 16416, 21117]}, "edge": {"target": [], "time": []}}}, "displayed_time": "20.39", "trialTime": 23819, "trial_type": "mouselab-mdp", "trial_index": 33, "time_elapsed": 1375942, "internal_node_id": "0.0-4.0-1.0-24.0"}}, {"uniqueid": "w51333812:a78428398", "current_trial": 34, "dateTime": 1691143438986, "trialdata": {"revealed_states": [], "clicked_states": ["17", "20", "21", "22", "16", "6", "5", "7", "10", "9", "11"], "num_clicks_accrued": [0, 0, 0, 0, 0, 0, 0, 0, 0, 0, 0, 0, 0], "stateRewards": ["", 1, -2, 4, 7, -43, -83, -60, -5, -86, -80, 83, -1, -2, 6, 11, -15, 21, 13, 9, 29, -49, 11, -1, 4, -6, -11, 87, 40, 63, -8, -39, -11, 62], "withholdReward": false, "trial_id": "mdp_trial_26", "block": "test", "trialIndex": 27, "score": 57.35000000000001, "costs": -23.649999999999995, "simulationMode": [null, null, null, null, null], "rewards": [1, -2, 4, -5, 83], "path": ["0", "0", "1", "2", "3", "8", "11"], "rt": [40071, 117, 100, 405, 105], "actions": ["up", "up", "up", "left", "left"], "actionTimes": [41535, 42170, 42787, 43710, 44327], "queries": {"click": {"state": {"target": ["17", "20", "21", "22", "16", "6", "5", "7", "10", "9", "11"], "time": [3795, 6935, 10105, 13507, 16693, 19807, 22898, 26026, 29197, 32375, 36010]}, "edge": {"target": [], "time": []}}, "mouseover": {"state": {"target": ["0", "24", "1", "18", "17", "20", "21", "22", "13", "18", "6", "16", "6", "6", "5", "4", "7", "2", "10", "8", "9", "11", "28", "28"], "time": [2105, 3087, 3190, 3239, 3574, 4704, 7470, 11335, 14067, 14150, 14735, 15201, 17152, 17502, 20352, 23436, 23500, 26483, 27701, 29733, 30952, 32884, 36750, 37385]}, "edge": {"target": [], "time": []}}, "mouseout": {"state": {"target": ["0", "0", "24", "1", "18", "17", "20", "21", "22", "13", "18", "6", "16", "6", "6", "5", "4", "7", "2", "10", "8", "9", "11", "28", "28"], "time": [837, 2507, 3142, 3203, 3271, 4269, 7403, 10734, 14033, 14117, 14203, 14986, 16795, 17167, 19817, 23402, 23469, 26451, 26534, 29307, 29833, 32819, 36650, 36806, 45718]}, "edge": {"target": [], "time": []}}}, "displayed_time": "44.84", "trialTime": 46060, "trial_type": "mouselab-mdp", "trial_index": 34, "time_elapsed": 1422296, "internal_node_id": "0.0-4.0-1.0-25.0"}}, {"uniqueid": "w51333812:a78428398", "current_trial": 35, "dateTime": 1691143458332, "trialdata": {"revealed_states": [], "clicked_states": ["28", "29"], "num_clicks_accrued": [0, 0, 0, 0, 0, 0, 0, 0, 0, 0, 0, 0, 0], "stateRewards": ["", -2, -4, 4, -11, -63, -60, -7, 2, -14, 81, -43, -1, -1, -5, 7, 10, 69, 40, 8, -83, 52, 60, 1, 2, 5, -5, 16, 64, 14, -3, 29, 7, -51], "withholdReward": false, "trial_id": "mdp_trial_27", "block": "test", "trialIndex": 28, "score": 62.7, "costs": -4.3, "simulationMode": [null, null, null, null, null], "rewards": [1, 2, 5, -5, 64], "path": ["0", "0", "23", "24", "25", "26", "28"], "rt": [12622, 154, 105, 161, 552], "actions": ["left", "left", "left", "up", "right"], "actionTimes": [13978, 14648, 15266, 15940, 17012], "queries": {"click": {"state": {"target": ["28", "29"], "time": [3586, 8999]}, "edge": {"target": [], "time": []}}, "mouseover": {"state": {"target": ["10", "10", "28", "10", "26", "29", "29", "27"], "time": [2411, 2808, 3277, 4130, 7952, 8265, 8800, 9567]}, "edge": {"target": [], "time": []}}, "mouseout": {"state": {"target": ["0", "10", "10", "28", "10", "26", "29", "29", "27", "30"], "time": [2342, 2424, 3209, 4049, 7881, 8015, 8481, 9481, 18227, 18627]}, "edge": {"target": [], "time": []}}}, "displayed_time": "17.53", "trialTime": 19047, "trial_type": "mouselab-mdp", "trial_index": 35, "time_elapsed": 1441642, "internal_node_id": "0.0-4.0-1.0-26.0"}}, {"uniqueid": "w51333812:a78428398", "current_trial": 36, "dateTime": 1691143476022, "trialdata": {"revealed_states": [], "clicked_states": ["31"], "num_clicks_accrued": [0, 0, 0, 0, 0, 0, 0, 0, 0, 0, 0, 0, 0], "stateRewards": ["", 2, 3, -3, 4, 72, -28, 34, -12, 57, -64, -15, 2, 1, -4, -15, 2, 49, 31, -1, -42, -58, 31, -2, 1, -2, -13, -75, -19, -22, -6, 61, 10, -56], "withholdReward": false, "trial_id": "mdp_trial_28", "block": "test", "trialIndex": 29, "score": 49.85, "costs": -2.15, "simulationMode": [null, null, null, null, null], "rewards": [-2, 1, -2, -6, 61], "path": ["0", "0", "23", "24", "25", "30", "31"], "rt": [6971, 147, 119, 20, 245], "actions": ["left", "left", "left", "down", "right"], "actionTimes": [8894, 9557, 10195, 10731, 11489], "queries": {"click": {"state": {"target": ["31"], "time": [4706]}, "edge": {"target": [], "time": []}}, "mouseover": {"state": {"target": ["0", "12", "0", "25", "28", "24", "31", "32"], "time": [2951, 3217, 3752, 3918, 4066, 4281, 4314, 5342]}, "edge": {"target": [], "time": []}}, "mouseout": {"state": {"target": ["0", "0", "0", "12", "0", "25", "28", "24", "31", "32", "32"], "time": [1050, 2498, 3098, 3698, 3765, 4000, 4266, 4298, 5275, 13677, 17160]}, "edge": {"target": [], "time": []}}}, "displayed_time": "15.93", "trialTime": 17394, "trial_type": "mouselab-mdp", "trial_index": 36, "time_elapsed": 1459331, "internal_node_id": "0.0-4.0-1.0-27.0"}}, {"uniqueid": "w51333812:a78428398", "current_trial": 37, "dateTime": 1691143496325, "trialdata": {"revealed_states": [], "clicked_states": ["32", "21", "20", "22"], "num_clicks_accrued": [0, 0, 0, 0, 0, 0, 0, 0, 0, 0, 0, 0, 0], "stateRewards": ["", 1, -2, -3, 14, -42, -87, -37, -11, -50, 33, -44, -2, 4, -7, 13, 48, -75, -66, 12, 23, -2, 82, 1, -4, 3, 12, 51, -15, -26, -11, -52, -29, 82], "withholdReward": false, "trial_id": "mdp_trial_29", "block": "test", "trialIndex": 30, "score": 80.4, "costs": -8.6, "simulationMode": [null, null, null, null, null], "rewards": [-2, 4, -7, 12, 82], "path": ["0", "0", "12", "13", "14", "19", "22"], "rt": [14428, 105, 92, 26, 218], "actions": ["right", "right", "right", "down", "left"], "actionTimes": [15885, 16499, 17105, 17641, 18368], "queries": {"click": {"state": {"target": ["32", "21", "20", "22"], "time": [2306, 5451, 8627, 11921]}, "edge": {"target": [], "time": []}}, "mouseover": {"state": {"target": ["0", "32", "21", "21", "20", "17", "19", "22", "15", "17"], "time": [1785, 2164, 3232, 3564, 5931, 9909, 10294, 10609, 12346, 12714]}, "edge": {"target": [], "time": []}}, "mouseout": {"state": {"target": ["0", "0", "32", "21", "21", "20", "17", "19", "22", "15", "17"], "time": [1114, 1831, 2733, 3268, 5851, 9345, 10246, 10344, 12274, 12378, 15313]}, "edge": {"target": [], "time": []}}}, "displayed_time": "18.88", "trialTime": 19986, "trial_type": "mouselab-mdp", "trial_index": 37, "time_elapsed": 1479635, "internal_node_id": "0.0-4.0-1.0-28.0"}}, {"uniqueid": "w51333812:a78428398", "current_trial": 38, "dateTime": 1691143514517, "trialdata": {"revealed_states": [], "clicked_states": ["22", "17"], "num_clicks_accrued": [0, 0, 0, 0, 0, 0, 0, 0, 0, 0, 0, 0, 0], "stateRewards": ["", -2, -1, -2, -15, 87, 57, 29, -10, 77, -80, -7, 1, -3, 6, 14, -11, 87, -59, 4, -71, 16, -11, 2, 2, -7, 2, -47, 61, 50, 14, -20, 17, 81], "withholdReward": false, "trial_id": "mdp_trial_30", "block": "test", "trialIndex": 31, "score": 100.7, "costs": -4.3, "simulationMode": [null, null, null, null, null], "rewards": [1, -3, 6, 14, 87], "path": ["0", "0", "12", "13", "14", "15", "17"], "rt": [9214, 134, 143, 260, 91], "actions": ["right", "right", "right", "up", "right"], "actionTimes": [10880, 11524, 12182, 12956, 13564], "queries": {"click": {"state": {"target": ["22", "17"], "time": [3740, 6923]}, "edge": {"target": [], "time": []}}, "mouseover": {"state": {"target": ["0", "22", "14", "17", "16"], "time": [2304, 3187, 4252, 5636, 8238]}, "edge": {"target": [], "time": []}}, "mouseout": {"state": {"target": ["14", "13", "22", "0", "0", "22", "14", "17", "16", "18", "12"], "time": [134, 369, 920, 1450, 2467, 3825, 4267, 7588, 14854, 16687, 16725]}, "edge": {"target": [], "time": []}}}, "displayed_time": "15.68", "trialTime": 17848, "trial_type": "mouselab-mdp", "trial_index": 38, "time_elapsed": 1497826, "internal_node_id": "0.0-4.0-1.0-29.0"}}, {"uniqueid": "w51333812:a78428398", "current_trial": 39, "dateTime": 1691143542248, "trialdata": {"revealed_states": [], "clicked_states": ["7", "10", "11", "9", "5", "28"], "num_clicks_accrued": [0, 0, 0, 0, 0, 0, 0, 0, 0, 0, 0, 0, 0], "stateRewards": ["", -1, 3, -4, -14, 78, 67, 2, 13, -32, 28, 39, -2, 1, -4, -4, -4, -42, -86, 11, 64, -29, -32, -1, -4, 2, -7, 5, 68, -61, 2, -21, 85, 50], "withholdReward": false, "trial_id": "mdp_trial_31", "block": "test", "trialIndex": 32, "score": 49.1, "costs": -12.9, "simulationMode": [null, null, null, null, null], "rewards": [-1, 3, -4, -14, 78], "path": ["0", "0", "1", "2", "3", "4", "5"], "rt": [21706, 68, 106, 51, 215], "actions": ["up", "up", "up", "right", "up"], "actionTimes": [23428, 24020, 24641, 25202, 25949], "queries": {"click": {"state": {"target": ["7", "10", "11", "9", "5", "28"], "time": [3489, 6642, 9946, 13182, 16312, 19635]}, "edge": {"target": [], "time": []}}, "mouseover": {"state": {"target": ["12", "7", "16", "2", "10", "11", "28", "9", "5", "5", "10", "28"], "time": [2510, 3027, 4412, 5493, 5930, 7776, 10447, 10813, 13666, 13965, 16763, 16816]}, "edge": {"target": [], "time": []}}, "mouseout": {"state": {"target": ["0", "0", "12", "7", "16", "7", "7", "2", "10", "11", "28", "11", "9", "5", "5", "10", "28", "25", "30"], "time": [1026, 2496, 2528, 3995, 4427, 5076, 5444, 5893, 7109, 10330, 10581, 10663, 13597, 13913, 16715, 16795, 19742, 27019, 27033]}, "edge": {"target": [], "time": []}}}, "displayed_time": "26.47", "trialTime": 27398, "trial_type": "mouselab-mdp", "trial_index": 39, "time_elapsed": 1525557, "internal_node_id": "0.0-4.0-1.0-30.0"}}, {"uniqueid": "w51333812:a78428398", "current_trial": 40, "dateTime": 1691143572257, "trialdata": {"revealed_states": [], "clicked_states": ["31", "32", "21", "22", "20", "17"], "num_clicks_accrued": [0, 0, 0, 0, 0, 0, 0, 0, 0, 0, 0, 0, 0], "stateRewards": ["", -2, -3, -6, -7, 9, 16, 65, 5, -41, 20, -25, -1, -4, 1, -11, -49, -4, 71, 1, 39, -62, 52, -2, -3, 7, -9, -28, -70, 84, 8, 24, -58, 82], "withholdReward": false, "trial_id": "mdp_trial_32", "block": "test", "trialIndex": 33, "score": 36.1, "costs": -12.9, "simulationMode": [null, null, null, null, null], "rewards": [-1, -4, 1, 1, 52], "path": ["0", "0", "12", "13", "14", "19", "22"], "rt": [23485, 137, 150, 51, 239], "actions": ["right", "right", "right", "down", "left"], "actionTimes": [25130, 25790, 26454, 27019, 27776], "queries": {"click": {"state": {"target": ["31", "32", "21", "22", "20", "17"], "time": [3247, 6711, 9911, 14141, 17798, 21255]}, "edge": {"target": [], "time": []}}, "mouseover": {"state": {"target": ["0", "31", "32", "21", "22", "19", "20", "17", "15", "16"], "time": [2547, 2999, 3798, 8166, 11468, 14567, 14601, 18499, 21767, 21900]}, "edge": {"target": [], "time": []}}, "mouseout": {"state": {"target": ["0", "0", "31", "32", "31", "21", "22", "19", "20", "17", "15", "16"], "time": [1381, 2664, 3698, 7230, 7316, 10397, 14534, 14582, 18266, 21716, 21785, 28934]}, "edge": {"target": [], "time": []}}}, "displayed_time": "28.29", "trialTime": 29704, "trial_type": "mouselab-mdp", "trial_index": 40, "time_elapsed": 1555566, "internal_node_id": "0.0-4.0-1.0-31.0"}}, {"uniqueid": "w51333812:a78428398", "current_trial": 41, "dateTime": 1691143606766, "trialdata": {"revealed_states": [], "clicked_states": ["29", "28", "27", "11", "9", "5", "6", "7"], "num_clicks_accrued": [0, 0, 0, 0, 0, 0, 0, 0, 0, 0, 0, 0, 0], "stateRewards": ["", 1, 2, -3, -5, 66, -50, -47, -5, 1, 28, -27, 1, 1, -1, -6, 37, -25, 56, 1, -82, -66, -40, -1, -4, -7, 15, -61, -23, 26, 10, 14, -56, 29], "withholdReward": false, "trial_id": "mdp_trial_33", "block": "test", "trialIndex": 34, "score": 43.8, "costs": -17.2, "simulationMode": [null, null, null, null, null], "rewards": [1, 2, -3, -5, 66], "path": ["0", "0", "1", "2", "3", "4", "5"], "rt": [28670, 510, 148, 4, 125], "actions": ["up", "up", "up", "right", "up"], "actionTimes": [29774, 30794, 31450, 31971, 32610], "queries": {"click": {"state": {"target": ["29", "28", "27", "11", "9", "5", "6", "7"], "time": [2185, 5371, 8531, 11679, 14914, 18581, 22342, 26073]}, "edge": {"target": [], "time": []}}, "mouseover": {"state": {"target": ["28", "26", "26", "29", "28", "27", "11", "9", "5", "6", "16", "7", "16"], "time": [1557, 1611, 1907, 2058, 3642, 5840, 9041, 12483, 15768, 19133, 22899, 25883, 26716]}, "edge": {"target": [], "time": []}}, "mouseout": {"state": {"target": ["18", "0", "0", "28", "26", "26", "29", "28", "27", "11", "9", "5", "6", "16", "7", "16", "13", "22"], "time": [225, 623, 1507, 1574, 1724, 1976, 2573, 5773, 8959, 12049, 15451, 18999, 22781, 25671, 26532, 33501, 33583, 33616]}, "edge": {"target": [], "time": []}}}, "displayed_time": "33.12", "trialTime": 34188, "trial_type": "mouselab-mdp", "trial_index": 41, "time_elapsed": 1590076, "internal_node_id": "0.0-4.0-1.0-32.0"}}, {"uniqueid": "w51333812:a78428398", "current_trial": 42, "dateTime": 1691143656473, "trialdata": {"revealed_states": [], "clicked_states": ["18", "16", "17", "20", "21", "22", "32", "33", "29", "27", "28", "9"], "num_clicks_accrued": [0, 0, 0, 0, 0, 0, 0, 0, 0, 0, 0, 0, 0], "stateRewards": ["", 2, -1, -1, -9, -81, -30, 55, -6, 78, 25, 62, 2, 4, -1, 9, -85, 1, -19, 1, -60, 12, -34, 1, 4, -1, -13, -24, -16, -83, -8, 16, 43, 9], "withholdReward": false, "trial_id": "mdp_trial_34", "block": "test", "trialIndex": 35, "score": 46.2, "costs": -25.799999999999994, "simulationMode": [null, null, null, null, null], "rewards": [2, -1, -1, -6, 78], "path": ["0", "0", "1", "2", "3", "8", "9"], "rt": [42381, 318, 112, 218, 410], "actions": ["up", "up", "up", "left", "up"], "actionTimes": [44429, 45264, 45892, 46630, 47554], "queries": {"click": {"state": {"target": ["18", "16", "17", "20", "21", "22", "32", "33", "29", "27", "28", "9"], "time": [4566, 7729, 10884, 14560, 17718, 20849, 23973, 27134, 30304, 33440, 36652, 40588]}, "edge": {"target": [], "time": []}}, "mouseover": {"state": {"target": ["0", "0", "0", "12", "13", "14", "15", "18", "16", "17", "20", "21", "20", "21", "32", "22", "32", "33", "29", "27", "28", "24", "10", "9"], "time": [2356, 3003, 3520, 3705, 3820, 3873, 4271, 4386, 5102, 9109, 12458, 14176, 14441, 15057, 18610, 19495, 21676, 25062, 28044, 30843, 34084, 37194, 40061, 40427]}, "edge": {"target": [], "time": []}}, "mouseout": {"state": {"target": ["0", "0", "0", "0", "12", "13", "14", "15", "18", "16", "17", "20", "21", "20", "21", "32", "22", "32", "33", "29", "27", "28", "24", "10", "9", "8", "10"], "time": [1752, 2504, 3038, 3620, 3804, 3836, 4237, 4304, 5019, 8691, 11606, 14125, 14358, 14943, 18114, 19380, 21244, 24394, 27494, 30744, 33961, 37144, 40010, 40075, 48497, 48528, 48561]}, "edge": {"target": [], "time": []}}}, "displayed_time": "48.05", "trialTime": 49365, "trial_type": "mouselab-mdp", "trial_index": 42, "time_elapsed": 1639782, "internal_node_id": "0.0-4.0-1.0-33.0"}}, {"uniqueid": "w51333812:a78428398", "current_trial": 43, "dateTime": 1691143673774, "trialdata": {"revealed_states": [], "clicked_states": ["5", "7"], "num_clicks_accrued": [0, 0, 0, 0, 0, 0, 0, 0, 0, 0, 0, 0, 0], "stateRewards": ["", -1, -2, 8, -6, -79, -6, 87, 9, -5, -66, -38, 2, 2, 5, -6, -82, 74, 85, -8, 67, -30, -15, 1, -2, -2, -2, 87, 64, 49, 7, 2, -38, -9], "withholdReward": false, "trial_id": "mdp_trial_35", "block": "test", "trialIndex": 36, "score": 81.7, "costs": -4.3, "simulationMode": [null, null, null, null, null], "rewards": [-1, -2, 8, -6, 87], "path": ["0", "0", "1", "2", "3", "4", "7"], "rt": [8711, 130, 88, 14, 438], "actions": ["up", "up", "up", "right", "down"], "actionTimes": [10381, 11021, 11627, 12154, 13128], "queries": {"click": {"state": {"target": ["5", "7"], "time": [2804, 6022]}, "edge": {"target": [], "time": []}}, "mouseover": {"state": {"target": ["7", "4", "5", "9", "5", "4", "7", "7", "6"], "time": [2063, 2099, 2145, 2300, 2646, 3262, 3296, 4181, 6512]}, "edge": {"target": [], "time": []}}, "mouseout": {"state": {"target": ["0", "7", "4", "5", "9", "5", "4", "7", "7", "6", "7", "0"], "time": [1982, 2097, 2131, 2164, 2533, 3228, 3279, 3330, 6429, 14238, 14487, 15071]}, "edge": {"target": [], "time": []}}}, "displayed_time": "15.68", "trialTime": 16987, "trial_type": "mouselab-mdp", "trial_index": 43, "time_elapsed": 1657084, "internal_node_id": "0.0-4.0-1.0-34.0"}}, {"uniqueid": "w51333812:a78428398", "current_trial": 44, "dateTime": 1691143699744, "trialdata": {"revealed_states": [], "clicked_states": ["20", "17", "18", "16", "33"], "num_clicks_accrued": [0, 0, 0, 0, 0, 0, 0, 0, 0, 0, 0, 0, 0], "stateRewards": ["", -2, -4, 2, 10, -17, 18, 73, 11, -32, 23, -13, -2, -4, 7, 12, -25, 66, -23, 15, 40, -76, -9, 1, 2, -7, -5, -20, 24, 3, -5, 16, -73, 70], "withholdReward": false, "trial_id": "mdp_trial_36", "block": "test", "trialIndex": 37, "score": 50.25, "costs": -10.75, "simulationMode": [null, null, null, null, null], "rewards": [1, 2, -7, -5, 70], "path": ["0", "0", "23", "24", "25", "30", "33"], "rt": [19399, 254, 239, 94, 157], "actions": ["left", "left", "left", "down", "left"], "actionTimes": [21422, 22168, 22921, 23525, 24203], "queries": {"click": {"state": {"target": ["20", "17", "18", "16", "33"], "time": [3213, 6474, 9800, 13043, 16207]}, "edge": {"target": [], "time": []}}, "mouseover": {"state": {"target": ["12", "13", "19", "20", "20", "17", "15", "18", "16", "24", "25", "33", "32"], "time": [2409, 2455, 2489, 2822, 3089, 4761, 7372, 7858, 10272, 14379, 14462, 14878, 17028]}, "edge": {"target": [], "time": []}}, "mouseout": {"state": {"target": ["0", "12", "13", "19", "20", "20", "17", "17", "15", "18", "16", "18", "24", "25", "33"], "time": [2375, 2440, 2473, 2808, 2873, 3706, 7056, 7273, 7822, 10206, 13593, 13728, 14427, 14494, 16694]}, "edge": {"target": [], "time": []}}}, "displayed_time": "24.71", "trialTime": 25609, "trial_type": "mouselab-mdp", "trial_index": 44, "time_elapsed": 1683054, "internal_node_id": "0.0-4.0-1.0-35.0"}}, {"uniqueid": "w51333812:a78428398", "current_trial": 45, "dateTime": 1691143746310, "trialdata": {"revealed_states": [], "clicked_states": ["29", "27", "11", "9", "10", "7", "17", "16", "21", "22", "20"], "num_clicks_accrued": [0, 0, 0, 0, 0, 0, 0, 0, 0, 0, 0, 0, 0], "stateRewards": ["", -2, 3, -5, -7, 66, 43, -60, -4, -70, -75, 4, -1, 2, 2, -13, 54, 11, -40, -1, 77, 32, 15, -2, 3, -8, -9, -35, 83, -27, 6, -74, -34, 44], "withholdReward": false, "trial_id": "mdp_trial_37", "block": "test", "trialIndex": 38, "score": 55.35000000000001, "costs": -23.649999999999995, "simulationMode": [null, null, null, null, null], "rewards": [-1, 2, 2, -1, 77], "path": ["0", "0", "12", "13", "14", "19", "20"], "rt": [39653, 113, 64, 1088, 221], "actions": ["right", "right", "right", "down", "right"], "actionTimes": [41230, 41858, 42443, 44050, 44785], "queries": {"click": {"state": {"target": ["29", "27", "11", "9", "10", "7", "17", "16", "21", "22", "20"], "time": [4494, 7793, 10891, 14230, 17365, 20498, 23610, 26852, 30128, 33365, 37167]}, "edge": {"target": [], "time": []}}, "mouseover": {"state": {"target": ["0", "24", "29", "27", "11", "9", "11", "9", "8", "10", "10", "2", "7", "16", "17", "16", "7", "16", "17", "16", "20", "21", "19", "14", "15", "15", "22", "19", "20", "19", "19", "20", "19", "31", "32"], "time": [2337, 3671, 4297, 5620, 8701, 8902, 10090, 11307, 14669, 14739, 15175, 17782, 17816, 17848, 18730, 18826, 19129, 21093, 21476, 24179, 27977, 28761, 30628, 30660, 30693, 32194, 32330, 34427, 34552, 35963, 36679, 36980, 37526, 37660, 37977]}, "edge": {"target": [], "time": []}}, "mouseout": {"state": {"target": ["32", "12", "0", "24", "29", "27", "11", "9", "11", "9", "8", "10", "10", "2", "7", "16", "17", "16", "7", "16", "17", "16", "17", "20", "21", "19", "14", "15", "16", "15", "22", "19", "20", "19", "22", "19", "20", "19", "22", "31", "32"], "time": [604, 1155, 2387, 3705, 5471, 8619, 8736, 9972, 11205, 14637, 14702, 14870, 17779, 17812, 17832, 17870, 18762, 18843, 20928, 21115, 24029, 27361, 27477, 28656, 30139, 30644, 30676, 30728, 32178, 32211, 33454, 34519, 35928, 35977, 36479, 36693, 37511, 37544, 37561, 37894, 40464]}, "edge": {"target": [], "time": []}}}, "displayed_time": "45.30", "trialTime": 46234, "trial_type": "mouselab-mdp", "trial_index": 45, "time_elapsed": 1729619, "internal_node_id": "0.0-4.0-1.0-36.0"}}, {"uniqueid": "w51333812:a78428398", "current_trial": 46, "dateTime": 1691143771372, "trialdata": {"revealed_states": [], "clicked_states": ["33", "28", "29", "27", "32"], "num_clicks_accrued": [0, 0, 0, 0, 0, 0, 0, 0, 0, 0, 0, 0, 0], "stateRewards": ["", 1, -1, 4, 5, -32, 18, 20, 6, -88, -74, 9, -2, 1, -2, -14, 34, -77, -38, -1, 80, -36, 73, 2, 3, -8, 10, -48, -73, -71, -11, -22, 20, 54], "withholdReward": false, "trial_id": "mdp_trial_38", "block": "test", "trialIndex": 39, "score": 29.25, "costs": -10.75, "simulationMode": [null, null, null, null, null], "rewards": [2, 3, -8, -11, 54], "path": ["0", "0", "23", "24", "25", "30", "33"], "rt": [19304, 191, 96, 17, 235], "actions": ["left", "left", "left", "down", "left"], "actionTimes": [20441, 21146, 21750, 22288, 23041], "queries": {"click": {"state": {"target": ["33", "28", "29", "27", "32"], "time": [2622, 5846, 9753, 13540, 17500]}, "edge": {"target": [], "time": []}}, "mouseover": {"state": {"target": ["32", "33", "33", "29", "26", "28", "28", "26", "29", "27", "26", "25", "30", "32"], "time": [1754, 1855, 2472, 3172, 3854, 4153, 4489, 8507, 9589, 10642, 13925, 13974, 14025, 14540]}, "edge": {"target": [], "time": []}}, "mouseout": {"state": {"target": ["0", "32", "33", "33", "29", "26", "28", "28", "26", "29", "27", "26", "25", "30", "32"], "time": [1572, 1790, 1904, 3055, 3788, 3920, 4170, 6388, 8837, 10324, 13924, 13957, 13990, 14107, 24140]}, "edge": {"target": [], "time": []}}}, "displayed_time": "23.55", "trialTime": 24740, "trial_type": "mouselab-mdp", "trial_index": 46, "time_elapsed": 1754681, "internal_node_id": "0.0-4.0-1.0-37.0"}}, {"uniqueid": "w51333812:a78428398", "current_trial": 47, "dateTime": 1691143823046, "trialdata": {"revealed_states": [], "clicked_states": ["20", "18", "17", "9", "5", "6", "16", "29", "27", "28", "33", "32", "31"], "num_clicks_accrued": [0, 0, 0, 0, 0, 0, 0, 0, 0, 0, 0, 0, 0], "stateRewards": ["", 1, 1, 1, -3, -7, -1, -41, -10, 20, -72, -63, 1, -4, -2, 2, -66, 30, -84, -2, 49, 23, 71, -1, -4, 4, -12, 67, 5, 18, -16, 88, 56, -5], "withholdReward": false, "trial_id": "mdp_trial_39", "block": "test", "trialIndex": 40, "score": 43.05000000000001, "costs": -27.949999999999992, "simulationMode": [null, null, null, null, null], "rewards": [-1, -4, 4, -16, 88], "path": ["0", "0", "23", "24", "25", "30", "31"], "rt": [45107, 180, 94, 53, 187], "actions": ["left", "left", "left", "down", "right"], "actionTimes": [46956, 47649, 48263, 48838, 49540], "queries": {"click": {"state": {"target": ["20", "18", "17", "9", "5", "6", "16", "29", "27", "28", "33", "32", "31"], "time": [3269, 6524, 9692, 13377, 16509, 19637, 22737, 25955, 28951, 32744, 36249, 39523, 42782]}, "edge": {"target": [], "time": []}}, "mouseover": {"state": {"target": ["19", "19", "20", "14", "15", "15", "18", "15", "17", "17", "7", "3", "9", "5", "6", "16", "7", "28", "26", "29", "26", "27", "28", "24", "30", "33", "32", "31", "24", "28", "11"], "time": [2519, 2622, 3037, 3735, 3769, 3901, 4036, 6936, 6976, 7335, 11320, 11386, 13204, 13884, 16953, 20133, 23135, 23199, 23220, 23699, 28399, 28648, 29717, 33166, 35469, 36067, 36999, 40882, 43382, 43430, 43782]}, "edge": {"target": [], "time": []}}, "mouseout": {"state": {"target": ["0", "19", "19", "20", "14", "15", "15", "18", "15", "17", "17", "7", "3", "9", "5", "6", "16", "7", "28", "26", "29", "26", "27", "28", "24", "30", "33", "32", "31", "24", "28"], "time": [2320, 2534, 2821, 3685, 3751, 3885, 3969, 6903, 6974, 7019, 10118, 11336, 11468, 13802, 16902, 20034, 22822, 23148, 23218, 23233, 26416, 28414, 29555, 33132, 33233, 35966, 36715, 39934, 43332, 43415, 43448]}, "edge": {"target": [], "time": []}}}, "displayed_time": "50.05", "trialTime": 51331, "trial_type": "mouselab-mdp", "trial_index": 47, "time_elapsed": 1806356, "internal_node_id": "0.0-4.0-1.0-38.0"}}, {"uniqueid": "w51333812:a78428398", "current_trial": 48, "dateTime": 1691143866660, "trialdata": {"revealed_states": [], "clicked_states": ["27", "11", "9", "5", "7", "32", "33", "29", "17", "20"], "num_clicks_accrued": [0, 0, 0, 0, 0, 0, 0, 0, 0, 0, 0, 0, 0], "stateRewards": ["", -1, -4, -1, -11, 43, 69, 39, 4, 17, -20, -82, -2, -1, 4, 8, -79, 24, -79, 11, 36, 64, 41, 2, 4, -1, 11, -79, -47, 75, -3, 63, -36, -19], "withholdReward": false, "trial_id": "mdp_trial_40", "block": "test", "trialIndex": 41, "score": 69.5, "costs": -21.499999999999996, "simulationMode": [null, null, null, null, null], "rewards": [2, 4, -1, 11, 75], "path": ["0", "0", "23", "24", "25", "26", "29"], "rt": [35785, 562, 162, 864, 456], "actions": ["left", "left", "left", "up", "left"], "actionTimes": [37666, 38742, 39425, 40811, 41786], "queries": {"click": {"state": {"target": ["27", "11", "9", "5", "7", "32", "33", "29", "17", "20"], "time": [2840, 6131, 9217, 12467, 15637, 19504, 22752, 26419, 30532, 33974]}, "edge": {"target": [], "time": []}}, "mouseover": {"state": {"target": ["23", "28", "27", "11", "9", "11", "9", "5", "5", "6", "7", "32", "33", "29", "24", "31", "22", "17", "20", "21"], "time": [2292, 2359, 2677, 3308, 4292, 5642, 6592, 9724, 9941, 12893, 13192, 19196, 21249, 26230, 26901, 27445, 28062, 29279, 32079, 34645]}, "edge": {"target": [], "time": []}}, "mouseout": {"state": {"target": ["11", "10", "0", "0", "23", "28", "27", "11", "9", "11", "9", "5", "5", "6", "7", "32", "33", "29", "24", "31", "22", "17", "20"], "time": [958, 1024, 1390, 2227, 2307, 2374, 3273, 3323, 5059, 6147, 9623, 9775, 12841, 12908, 16063, 20529, 25379, 26830, 26917, 27997, 28077, 31177, 34497]}, "edge": {"target": [], "time": []}}}, "displayed_time": "42.30", "trialTime": 43270, "trial_type": "mouselab-mdp", "trial_index": 48, "time_elapsed": 1849969, "internal_node_id": "0.0-4.0-1.0-39.0"}}, {"uniqueid": "w51333812:a78428398", "current_trial": 49, "dateTime": 1691143945559, "trialdata": {"rt": 78893, "response": {"Q0": "$-16 to 16", "Q1": "$-16 to $16", "Q2": "$-88 to $88", "Q3": "It was less costly to inspect further nodes.", "Q4": "Very motivated"}, "question_order": [0, 1, 2, 3, 4], "trial_id": "final_quiz_control", "trial_type": "survey-multi-choice", "trial_index": 49, "time_elapsed": 1928869, "internal_node_id": "0.0-4.0-2.0"}}, {"uniqueid": "w51333812:a78428398", "current_trial": 50, "dateTime": 1691144015378, "trialdata": {"rt": 69808, "response": {"Q0": "I tried to fine the outer node with the highest value", "Q1": "no", "Q2": "keeping track of the highest node"}, "trial_id": "self_report_control", "trial_type": "survey-text", "trial_index": 50, "time_elapsed": 1998687, "internal_node_id": "0.0-4.0-3.0"}}, {"uniqueid": "w51333812:a78428398", "current_trial": 51, "dateTime": 1691144077234, "trialdata": {"rt": 61850, "response": {"Q0": "Agree", "Q1": "Disagree", "Q2": "Disagree", "Q3": "Agree", "Q4": "Disagree", "Q5": "Agree", "Q6": "Disagree"}, "question_order": [0, 1, 2, 3, 4, 5, 6], "trial_id": "self_report_2", "trial_type": "survey-multi-choice", "trial_index": 51, "time_elapsed": 2060544, "internal_node_id": "0.0-4.0-4.0"}}, {"uniqueid": "w51333812:a78428398", "current_trial": 52, "dateTime": 1691144102222, "trialdata": {"rt": 24981, "response": {"gender": "female", "age": "38", "colorblind": "0", "effort": "0"}, "trial_type": "survey-html-form", "trial_index": 52, "time_elapsed": 2085532, "internal_node_id": "0.0-4.0-5.0"}}, {"uniqueid": "w51333812:a78428398", "current_trial": 53, "dateTime": 1691144118347, "trialdata": {"rt": 16119, "response": {"Q0": "no", "Q1": "no", "Q2": ""}, "trial_type": "survey-text", "trial_index": 53, "time_elapsed": 2101657, "internal_node_id": "0.0-4.0-6.0"}}, {"uniqueid": "w51333812:a78428398", "current_trial": 54, "dateTime": 1691144119955, "trialdata": {"rt": 1603, "stimulus": "Press 'Finish HIT' in order to reach the completion code. Once the data has been saved, you will receive the code either in this window or in the original browser window where you started the experiment.\n", "response": 0, "trial_type": "html-button-response", "trial_index": 54, "time_elapsed": 2103265, "internal_node_id": "0.0-5.0"}}, {"uniqueid": "w51333812:a78428398", "current_trial": 55, "dateTime": 1691144120960, "trialdata": {"success": true, "trial_type": "fullscreen", "trial_index": 55, "time_elapsed": 2104270, "internal_node_id": "0.0-6.0"}}], "questiondata": {"params": {"CODE": "C6DMOQA6", "MIN_TIME": 14, "inspectCost": 1, "startTime": "Fri Aug 04 2023 11:40:13 GMT+0200 (South Africa Standard Time)", "bonusRate": 0.002, "variance": "1_2_4_8_44", "branching": "31123"}, "final_score": 2015.35}, "eventdata": [{"eventtype": "initialized", "value": null, "timestamp": 1691142012765, "interval": 0}, {"eventtype": "window_resize", "value": [1024, 767], "timestamp": 1691142012765, "interval": 0}, {"eventtype": "window_resize", "value": [1024, 767], "timestamp": 1691142013290, "interval": 525}, {"eventtype": "window_resize", "value": [1440, 900], "timestamp": 1691142023518, "interval": 10228}, {"eventtype": "window_resize", "value": [1024, 767], "timestamp": 1691144120207, "interval": 2096689}], "useragent": "Mozilla/5.0 (Macintosh; Intel Mac OS X 10_15_7) AppleWebKit/537.36 (KHTML, like Gecko) Chrome/115.0.0.0 Safari/537.36", "mode": "live", "id": "w51333812:a78428398", "status": "user data saved", "Beginhit": "2023-08-04 09:40:08.979578", "Beginexp": "2023-08-04 09:40:24.450885", "Endhit": "2023-08-04 10:15:22.161489", "psiturkStatus": 3, "browser": "<redacted>", "platform": "macos", "language": "en-GB"}