{"condition": 1, "counterbalance": 0, "assignmentId": "a66676976", "workerId": "w89143715", "hitId": "h57381244", "currenttrial": 56, "bonus": 0, "data": [{"uniqueid": "w89143715:a66676976", "current_trial": 0, "dateTime": 1693481046699, "trialdata": {"success": true, "trial_type": "fullscreen", "trial_index": 0, "time_elapsed": 4239, "internal_node_id": "0.0-0.0"}}, {"uniqueid": "w89143715:a66676976", "current_trial": 1, "dateTime": 1693481049407, "trialdata": {"view_history": [{"page_index": 0, "viewing_time": 2699}], "rt": 2699, "trial_id": "exp_instructions_misaligned", "trial_type": "instructions", "trial_index": 1, "time_elapsed": 6949, "internal_node_id": "0.0-1.0"}}, {"uniqueid": "w89143715:a66676976", "current_trial": 2, "dateTime": 1693481237917, "trialdata": {"view_history": [{"page_index": 0, "viewing_time": 37032}, {"page_index": 1, "viewing_time": 69843}, {"page_index": 2, "viewing_time": 26517}, {"page_index": 1, "viewing_time": 1773}, {"page_index": 0, "viewing_time": 21560}, {"page_index": 1, "viewing_time": 4549}, {"page_index": 2, "viewing_time": 1222}, {"page_index": 3, "viewing_time": 26014}], "rt": 188510, "trial_id": "mouselab_instructions_1_misaligned", "trial_type": "instructions", "trial_index": 2, "time_elapsed": 195459, "internal_node_id": "0.0-2.0-1.0"}}, {"uniqueid": "w89143715:a66676976", "current_trial": 3, "dateTime": 1693481283046, "trialdata": {"revealed_states": [], "clicked_states": ["25", "30", "14", "2", "12", "13", "19", "15", "1", "3"], "num_clicks_accrued": [0, 0, 0, 0, 0, 0, 0, 0, 0, 0, 0, 0, 0], "stateRewards": ["", -10, -10, 10, 10, 10, 10, 10, -10, -10, 10, 10, 10, -10, -10, 10, -10, -10, -10, 10, 10, 10, -10, 10, -10, -10, -10, 10, -10, 10, -10, 10, 10, -10], "withholdReward": false, "trial_id": "practice_1", "block": "test", "trialIndex": 0, "score": 8.5, "costs": -5, "simulationMode": [null, null, null, null, null], "rewards": [-10, -10, 10, 10, 10], "path": ["0", "0", "1", "2", "3", "4", "5"], "rt": [34158, 791, 1192, 889, 314], "actions": ["up", "up", "up", "right", "up"], "actionTimes": [35822, 37117, 38798, 40180, 40989], "queries": {"click": {"state": {"target": ["25", "30", "14", "2", "12", "13", "19", "15", "1", "3"], "time": [3763, 5227, 6673, 8256, 9714, 12587, 15349, 20217, 21884, 29954]}, "edge": {"target": [], "time": []}}, "mouseover": {"state": {"target": ["23", "24", "25", "25", "30", "30", "31", "12", "13", "14", "2", "3", "12", "8", "14", "13", "22", "22", "19", "19", "21", "22", "12", "0", "23", "30", "32", "12", "15", "4", "8", "10", "10", "1", "2", "2", "2", "2", "1", "2", "3", "10", "12", "0", "0", "1"], "time": [2878, 3028, 3059, 3397, 4527, 4963, 5628, 6061, 6128, 6195, 7362, 8880, 9466, 11088, 12018, 12269, 12767, 13418, 13518, 15021, 17194, 18823, 19142, 19174, 19206, 19255, 19575, 19740, 19890, 20907, 21107, 21208, 21496, 21643, 22193, 24182, 25099, 27619, 27714, 28077, 29721, 30382, 33586, 33653, 34391, 35472]}, "edge": {"target": [], "time": []}}, "mouseout": {"state": {"target": ["12", "0", "23", "24", "25", "25", "30", "30", "31", "12", "13", "14", "2", "3", "2", "12", "2", "8", "14", "13", "22", "22", "19", "19", "21", "22", "12", "0", "23", "30", "32", "12", "15", "4", "8", "10", "10", "1", "2", "2", "2", "2", "1", "2", "3", "10", "12", "0", "0", "1", "2", "12"], "time": [1063, 2765, 3011, 3042, 3145, 4478, 4643, 5594, 5777, 6095, 6161, 7012, 8763, 9014, 9264, 10856, 10933, 11943, 12034, 12734, 12833, 13468, 14791, 17127, 18791, 18923, 19157, 19189, 19222, 19272, 19608, 19757, 20790, 20957, 21174, 21359, 21604, 22128, 22309, 24935, 27134, 27647, 27831, 29538, 30336, 33403, 33636, 33670, 35409, 35505, 43695, 43778]}, "edge": {"target": [], "time": []}}}, "displayed_time": "41.50", "trialTime": 44821, "trial_type": "mouselab-mdp", "trial_index": 3, "time_elapsed": 240586, "internal_node_id": "0.0-2.0-2.0-0.0"}}, {"uniqueid": "w89143715:a66676976", "current_trial": 4, "dateTime": 1693481325211, "trialdata": {"revealed_states": [], "clicked_states": ["23", "24", "1", "12", "2", "13", "3", "4", "14", "19"], "num_clicks_accrued": [0, 0, 0, 0, 0, 0, 0, 0, 0, 0, 0, 0, 0], "stateRewards": ["", 10, 10, -10, -10, 10, -10, 10, 10, -10, 10, -10, 10, 10, -10, -10, -10, 10, -10, 10, -10, 10, -10, -10, -10, -10, 10, 10, -10, 10, -10, 10, 10, 10], "withholdReward": false, "trial_id": "practice_2", "block": "test", "trialIndex": 1, "score": 28.5, "costs": -5, "simulationMode": [null, null, null, null, null], "rewards": [10, 10, -10, 10, 10], "path": ["0", "0", "1", "2", "3", "8", "10"], "rt": [28054, 197, 2210, 637, 781], "actions": ["up", "up", "up", "left", "down"], "actionTimes": [29844, 30548, 33264, 34405, 35689], "queries": {"click": {"state": {"target": ["23", "24", "1", "12", "2", "13", "3", "4", "14", "19"], "time": [3921, 6457, 8441, 10632, 13492, 15284, 17450, 19904, 23426, 25082]}, "edge": {"target": [], "time": []}}, "mouseover": {"state": {"target": ["23", "24", "24", "23", "24", "0", "12", "1", "7", "7", "12", "2", "3", "2", "7", "18", "13", "18", "7", "3", "4", "6", "18", "13", "14", "19", "22", "1", "0"], "time": [2208, 2890, 3280, 3563, 5128, 6977, 7010, 7529, 9015, 10149, 10214, 11030, 11097, 12504, 13933, 14066, 14366, 15484, 15551, 15617, 17802, 21776, 22657, 22773, 23260, 23774, 25542, 26915, 27666]}, "edge": {"target": [], "time": []}}, "mouseout": {"state": {"target": ["23", "0", "23", "24", "24", "23", "24", "23", "0", "12", "1", "7", "7", "12", "2", "3", "2", "2", "7", "18", "13", "18", "7", "3", "4", "6", "18", "13", "14", "19", "22", "1", "0"], "time": [858, 2112, 2810, 3191, 3396, 5097, 6929, 6960, 6994, 7311, 8913, 9062, 10165, 10980, 11047, 12354, 13578, 13916, 13983, 14083, 15320, 15517, 15567, 17753, 20290, 22573, 22690, 22892, 23724, 25509, 26428, 27479, 38391]}, "edge": {"target": [], "time": []}}}, "displayed_time": "36.19", "trialTime": 41946, "trial_type": "mouselab-mdp", "trial_index": 4, "time_elapsed": 282752, "internal_node_id": "0.0-2.0-2.0-1.0"}}, {"uniqueid": "w89143715:a66676976", "current_trial": 5, "dateTime": 1693481358568, "trialdata": {"view_history": [{"page_index": 0, "viewing_time": 27249}, {"page_index": 1, "viewing_time": 6100}], "rt": 33349, "trial_id": "mouselab_instructions_2_misaligned", "trial_type": "instructions", "trial_index": 5, "time_elapsed": 316110, "internal_node_id": "0.0-2.0-3.0"}}, {"uniqueid": "w89143715:a66676976", "current_trial": 6, "dateTime": 1693481382612, "trialdata": {"rt": 24041, "response": {"Q0": "The cost for clicking on nodes may vary between nodes.", "Q1": "The better I perform the higher my bonus will be.", "Q2": "No, the amount of cash at each node of the web may be different each time.", "Q3": "To get the highest total score.", "Q4": "Only before moving the spider.", "Q5": "3 seconds"}, "question_order": [0, 1, 2, 3, 4, 5], "correct": {"Q0": "The cost for clicking on nodes may vary between nodes.", "Q1": "The better I perform the higher my bonus will be.", "Q2": "No, the amount of cash at each node of the web may be different each time.", "Q3": "To get the highest total score.", "Q4": "Only before moving the spider.", "Q5": "3 seconds"}, "trial_id": "mouselab_quiz_misaligned", "trial_type": "survey-multi-choice", "trial_index": 6, "time_elapsed": 340154, "internal_node_id": "0.0-2.0-4.0"}}, {"uniqueid": "w89143715:a66676976", "current_trial": 7, "dateTime": 1693481386773, "trialdata": {"rt": 4155, "response": {"Q0": "No"}, "question_order": [0], "trial_id": "repeat_check", "trial_type": "survey-multi-choice", "trial_index": 7, "time_elapsed": 344315, "internal_node_id": "0.0-4.0-0.0"}}, {"uniqueid": "w89143715:a66676976", "current_trial": 8, "dateTime": 1693481401396, "trialdata": {"rt": 14616, "stimulus": "\n<h1> Get ready to start the game! </h1>\n\nThank you for reading the instructions. Get ready start with the 40 rounds of this game.\n<br><br>\nIf you need to take a break, feel free to take one after the end of a round, before continuing to the next one.\n<br><br>\nRemember, the more money the spider gets, the bigger your bonus will be!\n<br><br>\n<div style='text-align: center;'>Press <code>space</code> to begin.</div>\n\n<br><br>\n(If, at any point, the <code>space</code> key does not take you to the next page, click once on the text and try again.)", "response": " ", "trial_id": "mdp_ready", "trial_type": "html-keyboard-response", "trial_index": 8, "time_elapsed": 358938, "internal_node_id": "0.0-6.0-0.0"}}, {"uniqueid": "w89143715:a66676976", "current_trial": 9, "dateTime": 1693481430369, "trialdata": {"revealed_states": [], "clicked_states": ["1", "12", "13", "2", "8", "4", "23", "25"], "num_clicks_accrued": [0, 0, 0, 0, 0, 0, 0, 0, 0, 0, 0, 0, 0], "stateRewards": ["", 1, 4, -8, -13, -13, -87, -77, -10, -44, 54, 42, 2, -3, -4, 12, -9, -80, 52, 9, 84, -2, -65, 1, -4, -5, -6, 8, 80, 32, 13, -59, -5, -13], "withholdReward": false, "trial_id": "mdp_trial_1", "block": "test", "trialIndex": 2, "score": -107, "costs": -4, "simulationMode": [null, null, null, null, null], "rewards": [1, 4, -8, -13, -87], "path": ["0", "0", "1", "2", "3", "4", "6"], "rt": [19153, 93, 176, 834, 966], "actions": ["up", "up", "up", "right", "right"], "actionTimes": [21647, 22233, 22900, 24241, 25710], "queries": {"click": {"state": {"target": ["1", "12", "13", "2", "8", "4", "23", "25"], "time": [2951, 5120, 7507, 8947, 10990, 12188, 14762, 16176]}, "edge": {"target": [], "time": []}}, "mouseover": {"state": {"target": ["1", "2", "2", "3", "2", "12", "13", "13", "2", "2", "7", "4", "3", "8", "3", "4", "7", "1", "23", "23", "24", "25", "24", "30", "25", "26", "28", "23", "0"], "time": [2726, 3140, 3523, 3623, 3940, 4607, 5659, 6092, 8194, 8593, 9311, 9378, 9978, 10233, 11196, 11263, 13031, 14116, 14216, 14589, 15016, 15583, 16785, 18975, 19688, 19720, 20394, 20576, 20774]}, "edge": {"target": [], "time": []}}, "mouseout": {"state": {"target": ["7", "0", "1", "2", "2", "3", "2", "12", "13", "13", "13", "2", "2", "7", "4", "3", "8", "3", "4", "7", "1", "23", "23", "23", "24", "25", "24", "30", "25", "26", "28", "23", "0"], "time": [689, 1559, 3090, 3273, 3556, 3907, 4559, 5627, 5725, 7606, 7676, 8377, 9278, 9328, 9828, 10081, 11179, 11229, 12914, 14069, 14133, 14383, 14824, 14933, 15266, 16552, 18709, 19663, 19705, 20357, 20405, 20724, 28095]}, "edge": {"target": [], "time": []}}}, "displayed_time": "26.21", "trialTime": 28754, "trial_type": "mouselab-mdp", "trial_index": 9, "time_elapsed": 387910, "internal_node_id": "0.0-6.0-1.0-0.0"}}, {"uniqueid": "w89143715:a66676976", "current_trial": 10, "dateTime": 1693481454927, "trialdata": {"revealed_states": [], "clicked_states": ["1", "24", "13", "3", "30", "6", "25", "26"], "num_clicks_accrued": [0, 0, 0, 0, 0, 0, 0, 0, 0, 0, 0, 0, 0], "stateRewards": ["", 2, -1, 5, 8, 75, -35, -77, 1, -9, -81, -58, 1, 2, -7, 5, 77, -16, 19, 16, -10, -18, 40, -2, 3, 7, -5, 64, 1, -62, 10, 27, 10, 65], "withholdReward": false, "trial_id": "mdp_trial_2", "block": "test", "trialIndex": 3, "score": 20.4, "costs": -7.6, "simulationMode": [null, null, null, null, null], "rewards": [-2, 3, 7, 10, 10], "path": ["0", "0", "23", "24", "25", "30", "32"], "rt": [15866, 119, 101, 152, 222], "actions": ["left", "left", "left", "down", "down"], "actionTimes": [16785, 17404, 17998, 18650, 19372], "queries": {"click": {"state": {"target": ["1", "24", "13", "3", "30", "6", "25", "26"], "time": [1855, 2826, 3823, 4882, 6093, 7099, 10055, 10987]}, "edge": {"target": [], "time": []}}, "mouseover": {"state": {"target": ["1", "2", "1", "23", "24", "23", "0", "12", "13", "23", "3", "11", "27", "26", "25", "30", "6", "18", "13", "22", "25", "24", "23", "0", "25", "23", "24", "26", "0", "0"], "time": [1200, 1485, 1634, 2099, 2533, 3083, 3101, 3133, 3200, 4434, 4651, 5418, 5485, 5569, 5654, 5868, 6703, 7403, 7453, 7656, 7820, 8537, 8555, 8572, 9242, 10607, 10657, 10756, 11691, 12680]}, "edge": {"target": [], "time": []}}, "mouseout": {"state": {"target": ["0", "1", "2", "1", "23", "24", "23", "0", "12", "13", "23", "3", "11", "27", "26", "25", "30", "6", "18", "13", "22", "25", "24", "23", "0", "25", "23", "24", "26", "0", "0"], "time": [314, 1300, 1602, 1966, 2485, 3066, 3100, 3116, 3167, 3939, 4451, 5221, 5452, 5535, 5602, 5785, 6173, 7320, 7436, 7470, 7689, 8521, 8554, 8571, 8771, 10289, 10640, 10690, 11206, 11724, 20605]}, "edge": {"target": [], "time": []}}}, "displayed_time": "19.87", "trialTime": 24348, "trial_type": "mouselab-mdp", "trial_index": 10, "time_elapsed": 412468, "internal_node_id": "0.0-6.0-1.0-1.0"}}, {"uniqueid": "w89143715:a66676976", "current_trial": 11, "dateTime": 1693481481926, "trialdata": {"revealed_states": [], "clicked_states": ["12", "1", "23", "25", "27", "32", "31"], "num_clicks_accrued": [0, 0, 0, 0, 0, 0, 0, 0, 0, 0, 0, 0, 0], "stateRewards": ["", 1, -2, -8, -13, 4, 34, -84, -4, -49, 88, -70, -1, 3, -4, 10, -77, 13, -34, 15, -21, -16, 27, 1, -2, 8, -8, -6, 38, -26, 6, -15, 66, -3], "withholdReward": false, "trial_id": "mdp_trial_3", "block": "test", "trialIndex": 4, "score": 72.35, "costs": -6.65, "simulationMode": [null, null, null, null, null], "rewards": [1, -2, 8, 6, 66], "path": ["0", "0", "23", "24", "25", "30", "32"], "rt": [19913, 38, 37, 4, 76], "actions": ["left", "left", "left", "down", "down"], "actionTimes": [21895, 22425, 22959, 23477, 24071], "queries": {"click": {"state": {"target": ["12", "1", "23", "25", "27", "32", "31"], "time": [3280, 4053, 4693, 5659, 7038, 11101, 14712]}, "edge": {"target": [], "time": []}}, "mouseover": {"state": {"target": ["12", "13", "12", "12", "2", "1", "23", "31", "30", "25", "31", "30", "26", "27", "26", "30", "32", "30", "30", "32", "30", "31", "23", "24", "30", "32", "31", "30", "31", "0", "0"], "time": [2554, 2757, 2887, 3123, 3536, 3836, 4353, 5037, 5204, 5387, 6023, 6355, 6572, 6878, 7289, 7455, 7939, 8990, 9224, 9541, 9775, 9825, 9908, 10477, 10542, 10609, 11643, 11810, 13561, 16430, 21081]}, "edge": {"target": [], "time": []}}, "mouseout": {"state": {"target": ["12", "13", "25", "24", "23", "0", "12", "13", "12", "12", "2", "1", "23", "31", "30", "25", "31", "30", "25", "26", "27", "27", "26", "25", "30", "32", "30", "30", "32", "30", "31", "23", "24", "30", "32", "31", "30", "31", "0"], "time": [687, 1085, 1267, 1317, 1350, 2525, 2603, 2807, 2937, 3452, 3786, 4186, 4954, 5054, 5354, 5904, 6171, 6505, 6539, 6622, 7052, 7272, 7305, 7355, 7856, 8823, 9041, 9357, 9624, 9791, 9858, 9994, 10509, 10576, 11576, 11676, 13545, 14786, 17802]}, "edge": {"target": [], "time": []}}}, "displayed_time": "24.57", "trialTime": 26794, "trial_type": "mouselab-mdp", "trial_index": 11, "time_elapsed": 439467, "internal_node_id": "0.0-6.0-1.0-2.0"}}, {"uniqueid": "w89143715:a66676976", "current_trial": 12, "dateTime": 1693481499626, "trialdata": {"revealed_states": [], "clicked_states": ["12", "1", "23", "3", "25", "4", "8"], "num_clicks_accrued": [0, 0, 0, 0, 0, 0, 0, 0, 0, 0, 0, 0, 0], "stateRewards": ["", 1, 2, 2, -15, -84, 28, -26, 13, 31, 86, 30, -2, 1, -1, -8, 66, -40, -1, -10, -32, 57, -17, 1, 2, -2, 9, -23, 77, 85, 12, -32, -62, -35], "withholdReward": false, "trial_id": "mdp_trial_4", "block": "test", "trialIndex": 5, "score": 44.75, "costs": -4.25, "simulationMode": [null, null, null, null, null], "rewards": [1, 2, 2, 13, 31], "path": ["0", "0", "1", "2", "3", "8", "9"], "rt": [11552, 558, 93, 397, 133], "actions": ["up", "up", "up", "left", "up"], "actionTimes": [12530, 13583, 14169, 15055, 15709], "queries": {"click": {"state": {"target": ["12", "1", "23", "3", "25", "4", "8"], "time": [2238, 2987, 3509, 4512, 5678, 7290, 9093]}, "edge": {"target": [], "time": []}}, "mouseover": {"state": {"target": ["13", "12", "2", "1", "23", "2", "3", "10", "28", "24", "25", "30", "24", "23", "1", "2", "4", "6", "8", "8", "10", "0"], "time": [1545, 1815, 2647, 2830, 3264, 3898, 4298, 4848, 4915, 4965, 5232, 6066, 6316, 6533, 6750, 6817, 6917, 7534, 7751, 8992, 10154, 11894]}, "edge": {"target": [], "time": []}}, "mouseout": {"state": {"target": ["0", "13", "12", "2", "1", "23", "2", "3", "10", "28", "24", "25", "30", "24", "23", "1", "2", "4", "6", "8", "8", "10", "0"], "time": [1132, 1629, 2314, 2763, 3214, 3764, 3965, 4802, 4865, 4932, 4999, 5966, 6250, 6333, 6684, 6766, 6867, 7319, 7617, 8540, 10088, 10205, 11923]}, "edge": {"target": [], "time": []}}}, "displayed_time": "16.21", "trialTime": 17501, "trial_type": "mouselab-mdp", "trial_index": 12, "time_elapsed": 457167, "internal_node_id": "0.0-6.0-1.0-3.0"}}, {"uniqueid": "w89143715:a66676976", "current_trial": 13, "dateTime": 1693481522351, "trialdata": {"revealed_states": [], "clicked_states": ["12", "23", "1", "14", "15", "21", "16", "30", "26"], "num_clicks_accrued": [0, 0, 0, 0, 0, 0, 0, 0, 0, 0, 0, 0, 0], "stateRewards": ["", -2, -3, 8, 14, -73, 73, 84, -12, -2, -50, -17, 2, 1, -2, -9, -44, -27, -33, 16, -63, -47, -66, -2, 1, 4, -5, -33, -11, 50, 9, 38, -79, 31], "withholdReward": false, "trial_id": "mdp_trial_5", "block": "test", "trialIndex": 6, "score": 40.85, "costs": -9.15, "simulationMode": [null, null, null, null, null], "rewards": [-2, 1, 4, 9, 38], "path": ["0", "0", "23", "24", "25", "30", "31"], "rt": [16789, 277, 128, 25, 79], "actions": ["left", "left", "left", "down", "right"], "actionTimes": [17846, 18627, 19245, 19775, 20348], "queries": {"click": {"state": {"target": ["12", "23", "1", "14", "15", "21", "16", "30", "26"], "time": [2419, 3052, 3461, 4323, 6606, 7543, 10433, 13609, 14740]}, "edge": {"target": [], "time": []}}, "mouseover": {"state": {"target": ["12", "13", "15", "13", "12", "0", "23", "23", "1", "13", "14", "19", "15", "19", "21", "19", "14", "16", "18", "12", "31", "25", "30", "25", "28", "26", "8", "3", "2", "0", "0"], "time": [1351, 1367, 1500, 1919, 2172, 2567, 2600, 2867, 3284, 3868, 4152, 4687, 5102, 6937, 7054, 7955, 7989, 8071, 11209, 11241, 11457, 11708, 12408, 14077, 14126, 14527, 15495, 15967, 16066, 16145, 16414]}, "edge": {"target": [], "time": []}}, "mouseout": {"state": {"target": ["0", "12", "13", "15", "13", "12", "0", "23", "23", "1", "13", "14", "19", "15", "14", "19", "21", "19", "14", "15", "16", "18", "12", "31", "25", "30", "25", "28", "26", "8", "3", "2", "0", "0"], "time": [1334, 1366, 1399, 1890, 2157, 2550, 2583, 2650, 3141, 3751, 3951, 4637, 4870, 6854, 6904, 6987, 7667, 7972, 8005, 8038, 11192, 11226, 11257, 11624, 12358, 14043, 14093, 14143, 15212, 15511, 16063, 16080, 16161, 17351]}, "edge": {"target": [], "time": []}}}, "displayed_time": "20.85", "trialTime": 22529, "trial_type": "mouselab-mdp", "trial_index": 13, "time_elapsed": 479891, "internal_node_id": "0.0-6.0-1.0-4.0"}}, {"uniqueid": "w89143715:a66676976", "current_trial": 14, "dateTime": 1693481548994, "trialdata": {"revealed_states": [], "clicked_states": ["24", "13", "2", "8", "6", "32"], "num_clicks_accrued": [0, 0, 0, 0, 0, 0, 0, 0, 0, 0, 0, 0, 0], "stateRewards": ["", 1, -1, 1, -14, -10, 67, -28, -11, 72, 40, -65, -1, 1, 1, -2, 8, -55, 34, -10, 61, 33, -15, 2, -4, 7, 4, -75, 63, -21, -16, 61, 19, 21], "withholdReward": false, "trial_id": "mdp_trial_6", "block": "test", "trialIndex": 7, "score": 47.1, "costs": -6.9, "simulationMode": [null, null, null, null, null], "rewards": [1, -1, 1, -14, 67], "path": ["0", "0", "1", "2", "3", "4", "6"], "rt": [11109, 32, 764, 28, 440], "actions": ["up", "up", "up", "right", "right"], "actionTimes": [11954, 12476, 13744, 14276, 15221], "queries": {"click": {"state": {"target": ["24", "13", "2", "8", "6", "32"], "time": [2482, 3303, 4197, 5192, 6101, 8876]}, "edge": {"target": [], "time": []}}, "mouseover": {"state": {"target": ["26", "25", "25", "24", "23", "0", "12", "13", "2", "3", "8", "4", "6", "31", "32", "21", "19", "19", "19", "22", "12", "0"], "time": [1270, 1936, 2140, 2187, 2685, 2718, 2736, 3002, 4019, 4538, 4920, 5437, 5770, 6521, 6872, 9542, 10091, 10426, 10625, 10708, 10791, 11848]}, "edge": {"target": [], "time": []}}, "mouseout": {"state": {"target": ["0", "26", "25", "25", "24", "23", "0", "12", "13", "2", "3", "8", "4", "6", "31", "32", "21", "19", "19", "19", "22", "12", "0", "25", "0", "19", "21", "33", "30"], "time": [383, 1921, 1951, 2170, 2635, 2701, 2735, 2751, 3602, 4308, 4887, 5280, 5470, 6154, 6538, 9240, 10042, 10360, 10443, 10676, 10725, 10841, 16183, 16865, 16888, 16980, 17097, 23853, 23887]}, "edge": {"target": [], "time": []}}}, "displayed_time": "15.71", "trialTime": 26424, "trial_type": "mouselab-mdp", "trial_index": 14, "time_elapsed": 506535, "internal_node_id": "0.0-6.0-1.0-5.0"}}, {"uniqueid": "w89143715:a66676976", "current_trial": 15, "dateTime": 1693481569847, "trialdata": {"revealed_states": [], "clicked_states": ["3", "25", "14", "21", "16", "29"], "num_clicks_accrued": [0, 0, 0, 0, 0, 0, 0, 0, 0, 0, 0, 0, 0], "stateRewards": ["", 1, -3, 4, 13, -72, 52, 5, 5, -58, 5, 14, 2, 1, 3, -14, -86, -4, 73, 6, -58, -50, 49, 2, -3, -4, 2, 33, -41, 42, -11, 81, 45, 53], "withholdReward": false, "trial_id": "mdp_trial_7", "block": "test", "trialIndex": 8, "score": 29.7, "costs": -9.3, "simulationMode": [null, null, null, null, null], "rewards": [2, -3, -4, 2, 42], "path": ["0", "0", "23", "24", "25", "26", "29"], "rt": [15054, 358, 55, 112, 24], "actions": ["left", "left", "left", "up", "left"], "actionTimes": [16322, 17182, 17731, 18357, 18889], "queries": {"click": {"state": {"target": ["3", "25", "14", "21", "16", "29"], "time": [2100, 2954, 3719, 4621, 8142, 11484]}, "edge": {"target": [], "time": []}}, "mouseover": {"state": {"target": ["1", "2", "3", "10", "28", "25", "24", "13", "14", "19", "21", "33", "32", "32", "32", "32", "32", "30", "24", "23", "18", "16", "27", "29", "29", "33", "0"], "time": [1512, 1593, 1813, 2377, 2395, 2696, 3177, 3244, 3561, 4228, 4429, 5279, 5379, 5729, 6363, 6497, 6630, 6680, 7566, 7586, 7615, 7934, 9082, 9850, 10016, 12201, 15307]}, "edge": {"target": [], "time": []}}, "mouseout": {"state": {"target": ["0", "1", "2", "3", "10", "28", "25", "24", "13", "14", "19", "21", "33", "32", "32", "32", "32", "32", "30", "24", "23", "18", "16", "27", "29", "29", "33", "0"], "time": [1454, 1560, 1712, 2346, 2393, 2427, 3110, 3211, 3261, 4130, 4245, 4912, 5296, 5413, 6080, 6380, 6563, 6647, 7537, 7583, 7600, 7631, 8599, 9816, 9866, 12052, 14961, 15390]}, "edge": {"target": [], "time": []}}}, "displayed_time": "19.38", "trialTime": 20628, "trial_type": "mouselab-mdp", "trial_index": 15, "time_elapsed": 527388, "internal_node_id": "0.0-6.0-1.0-6.0"}}, {"uniqueid": "w89143715:a66676976", "current_trial": 16, "dateTime": 1693481586355, "trialdata": {"revealed_states": [], "clicked_states": ["8", "4", "25", "13", "21", "32"], "num_clicks_accrued": [0, 0, 0, 0, 0, 0, 0, 0, 0, 0, 0, 0, 0], "stateRewards": ["", 2, -1, -1, 7, 11, -40, -22, -2, 69, 37, 8, -2, 4, -8, -12, -2, -72, -3, -12, 17, 63, 12, 1, 3, -7, 6, 25, 61, 61, -9, 28, -17, 27], "withholdReward": false, "trial_id": "mdp_trial_8", "block": "test", "trialIndex": 9, "score": 36.3, "costs": -8.7, "simulationMode": [null, null, null, null, null, null], "rewards": [-2, 4, -8, -12, 63], "path": ["0", "0", "12", "13", "14", "19", "21"], "rt": [8226, 1345, 335, 114, 35, 38], "actions": ["right", "right", "right", "right", "down", "down"], "actionTimes": [9121, 10469, 11308, 11916, 12453, 13007], "queries": {"click": {"state": {"target": ["8", "4", "25", "13", "21", "32"], "time": [1738, 2298, 3124, 3832, 4572, 7363]}, "edge": {"target": [], "time": []}}, "mouseover": {"state": {"target": ["8", "3", "4", "2", "25", "24", "12", "13", "19", "21", "32", "32", "30", "24", "23", "0"], "time": [1577, 1975, 2042, 2593, 2993, 3360, 3427, 3677, 4177, 4344, 5028, 5295, 8180, 8230, 8249, 8581]}, "edge": {"target": [], "time": []}}, "mouseout": {"state": {"target": ["0", "8", "3", "4", "2", "25", "24", "12", "13", "19", "21", "32", "32", "30", "24", "23", "0", "0"], "time": [461, 1942, 2009, 2576, 2609, 3343, 3377, 3444, 4029, 4244, 4811, 5078, 7780, 8197, 8247, 8281, 8764, 15590]}, "edge": {"target": [], "time": []}}}, "displayed_time": "14.90", "trialTime": 16283, "trial_type": "mouselab-mdp", "trial_index": 16, "time_elapsed": 543896, "internal_node_id": "0.0-6.0-1.0-7.0"}}, {"uniqueid": "w89143715:a66676976", "current_trial": 17, "dateTime": 1693481605345, "trialdata": {"revealed_states": [], "clicked_states": ["9", "6", "15", "19", "26", "30"], "num_clicks_accrued": [0, 0, 0, 0, 0, 0, 0, 0, 0, 0, 0, 0, 0], "stateRewards": ["", 2, -4, 4, 9, 69, 9, -75, 12, -86, 66, 25, -1, 3, 2, -13, -88, -3, 1, 4, -69, 49, -84, 2, -1, 4, 2, -18, -81, -52, -15, -69, -54, 25], "withholdReward": false, "trial_id": "mdp_trial_9", "block": "test", "trialIndex": 10, "score": -84.5, "costs": -10.5, "simulationMode": [null, null, null, null, null], "rewards": [2, -1, 4, 2, -81], "path": ["0", "0", "23", "24", "25", "26", "28"], "rt": [13935, 86, 67, 25, 1], "actions": ["left", "left", "left", "up", "right"], "actionTimes": [15194, 15771, 16337, 16861, 17371], "queries": {"click": {"state": {"target": ["9", "6", "15", "19", "26", "30"], "time": [2181, 6648, 9876, 10696, 11608, 12198]}, "edge": {"target": [], "time": []}}, "mouseover": {"state": {"target": ["1", "10", "8", "9", "5", "4", "6", "6", "16", "15", "14", "19", "22", "31", "30", "29", "26", "25", "30", "0", "2", "13", "0"], "time": [1428, 1457, 1644, 1990, 2372, 5616, 5863, 6514, 7561, 7660, 10145, 10446, 10982, 11030, 11049, 11297, 11447, 11864, 11947, 12731, 13148, 13867, 14101]}, "edge": {"target": [], "time": []}}, "mouseout": {"state": {"target": ["0", "1", "10", "8", "9", "5", "4", "6", "6", "16", "15", "14", "19", "22", "31", "30", "29", "26", "25", "30", "0", "2", "13"], "time": [992, 1445, 1488, 1674, 2322, 5600, 5845, 5995, 7512, 7579, 10112, 10212, 10966, 10997, 11047, 11064, 11330, 11847, 11897, 12497, 12747, 13438, 13951]}, "edge": {"target": [], "time": []}}}, "displayed_time": "17.89", "trialTime": 18758, "trial_type": "mouselab-mdp", "trial_index": 17, "time_elapsed": 562886, "internal_node_id": "0.0-6.0-1.0-8.0"}}, {"uniqueid": "w89143715:a66676976", "current_trial": 18, "dateTime": 1693481621058, "trialdata": {"revealed_states": [], "clicked_states": ["24", "13", "2", "8", "4", "30", "26", "15", "19"], "num_clicks_accrued": [0, 0, 0, 0, 0, 0, 0, 0, 0, 0, 0, 0, 0], "stateRewards": ["", 1, 1, 6, -14, -40, 37, 16, -13, 33, -68, 49, 2, 4, 3, 6, 55, 27, 32, 10, -65, 20, -87, 2, 1, -6, -5, -42, 12, 29, -8, 16, 76, -33], "withholdReward": false, "trial_id": "mdp_trial_10", "block": "test", "trialIndex": 11, "score": -56.35, "costs": -10.35, "simulationMode": [null, null, null, null, null], "rewards": [2, 4, 3, 10, -65], "path": ["0", "0", "12", "13", "14", "19", "20"], "rt": [10655, 39, 391, 40, 164], "actions": ["right", "right", "right", "down", "right"], "actionTimes": [11501, 12050, 12951, 13489, 14143], "queries": {"click": {"state": {"target": ["24", "13", "2", "8", "4", "30", "26", "15", "19"], "time": [2401, 3050, 3875, 4835, 5508, 6230, 6886, 7798, 8428]}, "edge": {"target": [], "time": []}}, "mouseover": {"state": {"target": ["1", "2", "8", "23", "24", "23", "12", "13", "13", "2", "2", "8", "3", "4", "6", "4", "7", "23", "31", "30", "26", "28", "1", "18", "15", "14", "19", "0"], "time": [1203, 1251, 1454, 1988, 2018, 2535, 2585, 2635, 2852, 3436, 3736, 4319, 4987, 5020, 5070, 5237, 5737, 5787, 5855, 5921, 6738, 7105, 7172, 7255, 7472, 8056, 8273, 10330]}, "edge": {"target": [], "time": []}}, "mouseout": {"state": {"target": ["0", "1", "2", "8", "23", "24", "23", "12", "13", "13", "2", "2", "8", "3", "4", "6", "4", "7", "23", "31", "30", "26", "28", "1", "18", "15", "14", "19", "19", "0"], "time": [1160, 1234, 1301, 1690, 2004, 2461, 2552, 2618, 2685, 3369, 3519, 4187, 4970, 5004, 5037, 5187, 5704, 5754, 5804, 5888, 6338, 7039, 7139, 7189, 7389, 8039, 8073, 8456, 8707, 10628]}, "edge": {"target": [], "time": []}}}, "displayed_time": "14.85", "trialTime": 15485, "trial_type": "mouselab-mdp", "trial_index": 18, "time_elapsed": 578599, "internal_node_id": "0.0-6.0-1.0-9.0"}}, {"uniqueid": "w89143715:a66676976", "current_trial": 19, "dateTime": 1693481637312, "trialdata": {"revealed_states": [], "clicked_states": ["19", "15", "3", "25", "30", "4", "8"], "num_clicks_accrued": [0, 0, 0, 0, 0, 0, 0, 0, 0, 0, 0, 0, 0], "stateRewards": ["", 1, 4, 5, -5, 58, -80, 75, 6, 25, -39, 46, 2, -2, 4, 2, 59, 31, -22, -12, -61, 15, 72, 1, -2, -7, 8, 77, 76, -23, -7, 71, -15, -3], "withholdReward": false, "trial_id": "mdp_trial_11", "block": "test", "trialIndex": 12, "score": 52.35, "costs": -9.65, "simulationMode": [null, null, null, null, null], "rewards": [1, 4, 5, 6, 46], "path": ["0", "0", "1", "2", "3", "8", "11"], "rt": [10961, 393, 185, 24, 21], "actions": ["up", "up", "up", "left", "left"], "actionTimes": [12095, 12982, 13658, 14180, 14717], "queries": {"click": {"state": {"target": ["19", "15", "3", "25", "30", "4", "8"], "time": [1705, 2372, 3142, 5014, 6562, 7588, 8162]}, "edge": {"target": [], "time": []}}, "mouseover": {"state": {"target": ["12", "13", "19", "14", "15", "15", "7", "3", "10", "24", "25", "25", "30", "32", "30", "31", "23", "1", "4", "3", "8", "2", "15", "15", "16", "15", "13"], "time": [1244, 1327, 1411, 1945, 1979, 2245, 2696, 2929, 3463, 3729, 4403, 4633, 5398, 5598, 5998, 6799, 6849, 6899, 7416, 7900, 7933, 8417, 8701, 9693, 11052, 11688, 11737]}, "edge": {"target": [], "time": []}}, "mouseout": {"state": {"target": ["12", "0", "12", "13", "19", "14", "15", "15", "7", "3", "10", "24", "25", "25", "30", "32", "30", "31", "23", "1", "4", "3", "8", "2", "15", "15", "16", "15", "13"], "time": [595, 1227, 1294, 1344, 1895, 1961, 2028, 2646, 2713, 3380, 3580, 3847, 4420, 5331, 5448, 5915, 6749, 6833, 6866, 6916, 7885, 7917, 8367, 8434, 9470, 11002, 11660, 11705, 11770]}, "edge": {"target": [], "time": []}}}, "displayed_time": "15.21", "trialTime": 16052, "trial_type": "mouselab-mdp", "trial_index": 19, "time_elapsed": 594853, "internal_node_id": "0.0-6.0-1.0-10.0"}}, {"uniqueid": "w89143715:a66676976", "current_trial": 20, "dateTime": 1693481653112, "trialdata": {"revealed_states": [], "clicked_states": ["24", "2", "13", "30", "26", "15"], "num_clicks_accrued": [0, 0, 0, 0, 0, 0, 0, 0, 0, 0, 0, 0, 0], "stateRewards": ["", -1, 3, 1, -11, -22, -36, 19, -5, -70, -52, 50, -2, -4, 4, -2, -41, -83, 29, -2, 22, 10, -6, -2, 3, -2, 14, 54, 44, 77, -9, -65, -37, -40], "withholdReward": false, "trial_id": "mdp_trial_12", "block": "test", "trialIndex": 13, "score": 84.3, "costs": -5.699999999999999, "simulationMode": [null, null, null, null, null], "rewards": [-2, 3, -2, 14, 77], "path": ["0", "0", "23", "24", "25", "26", "29"], "rt": [10673, 44, 81, 43, 50], "actions": ["left", "left", "left", "up", "left"], "actionTimes": [11692, 12236, 12806, 13352, 13909], "queries": {"click": {"state": {"target": ["24", "2", "13", "30", "26", "15"], "time": [2733, 3537, 4624, 5809, 6690, 8692]}, "edge": {"target": [], "time": []}}, "mouseover": {"state": {"target": ["1", "24", "24", "23", "1", "2", "12", "13", "30", "25", "26", "2", "7", "12", "0", "18", "16", "15", "0"], "time": [1417, 1732, 2500, 2899, 2982, 3099, 4150, 4367, 5487, 6135, 6502, 7036, 7152, 7469, 7603, 8139, 8343, 8542, 10411]}, "edge": {"target": [], "time": []}}, "mouseout": {"state": {"target": ["12", "0", "1", "24", "24", "23", "1", "2", "12", "13", "13", "30", "25", "26", "2", "7", "12", "0", "18", "16", "15"], "time": [596, 1349, 1688, 1749, 2865, 2932, 3049, 3799, 4317, 4636, 4934, 6085, 6168, 6936, 7102, 7169, 7536, 7636, 8156, 8363, 8978]}, "edge": {"target": [], "time": []}}}, "displayed_time": "15.02", "trialTime": 15608, "trial_type": "mouselab-mdp", "trial_index": 20, "time_elapsed": 610652, "internal_node_id": "0.0-6.0-1.0-11.0"}}, {"uniqueid": "w89143715:a66676976", "current_trial": 21, "dateTime": 1693481668986, "trialdata": {"revealed_states": [], "clicked_states": ["2", "13", "24", "19", "30", "26"], "num_clicks_accrued": [0, 0, 0, 0, 0, 0, 0, 0, 0, 0, 0, 0, 0], "stateRewards": ["", -2, -3, 7, -13, 60, 9, 37, -6, 37, 20, 1, 2, -2, -8, 6, -80, -31, -10, -7, 70, -65, -44, -1, 1, 7, 6, -11, 73, -85, 16, -21, 47, 34], "withholdReward": false, "trial_id": "mdp_trial_13", "block": "test", "trialIndex": 14, "score": -3.6999999999999993, "costs": -5.699999999999999, "simulationMode": [null, null, null, null, null], "rewards": [-1, 1, 7, 16, -21], "path": ["0", "0", "23", "24", "25", "30", "31"], "rt": [9541, 37, 269, 586, 324], "actions": ["left", "left", "left", "down", "right"], "actionTimes": [10604, 11140, 11924, 13007, 13831], "queries": {"click": {"state": {"target": ["2", "13", "24", "19", "30", "26"], "time": [2157, 2856, 3564, 5614, 6753, 7494]}, "edge": {"target": [], "time": []}}, "mouseover": {"state": {"target": ["1", "2", "13", "12", "0", "24", "23", "0", "22", "19", "22", "31", "30", "25", "26", "28", "13", "0", "0"], "time": [1594, 1864, 2560, 3111, 3129, 3428, 5064, 5113, 5246, 5398, 5930, 6097, 6631, 6982, 7181, 7815, 8315, 8765, 9317]}, "edge": {"target": [], "time": []}}, "mouseout": {"state": {"target": ["0", "1", "2", "13", "12", "0", "24", "23", "0", "22", "19", "22", "31", "30", "25", "26", "28", "13", "0", "0"], "time": [1530, 1677, 2410, 3077, 3128, 3144, 5048, 5096, 5129, 5369, 5896, 5946, 6263, 6934, 7031, 7781, 7831, 8349, 8782, 9334]}, "edge": {"target": [], "time": []}}}, "displayed_time": "15.06", "trialTime": 15647, "trial_type": "mouselab-mdp", "trial_index": 21, "time_elapsed": 626527, "internal_node_id": "0.0-6.0-1.0-12.0"}}, {"uniqueid": "w89143715:a66676976", "current_trial": 22, "dateTime": 1693481684790, "trialdata": {"revealed_states": [], "clicked_states": ["2", "13", "24", "25", "14", "4", "8"], "num_clicks_accrued": [0, 0, 0, 0, 0, 0, 0, 0, 0, 0, 0, 0, 0], "stateRewards": ["", 2, -4, 7, 3, 23, -42, 4, 7, -81, -33, 7, -2, -4, 5, -1, 50, -57, -14, -13, -14, 44, 55, -2, -2, 5, -2, 33, 1, 57, -13, -7, 58, 87], "withholdReward": false, "trial_id": "mdp_trial_14", "block": "test", "trialIndex": 15, "score": -75.05, "costs": -6.05, "simulationMode": [null, null, null, null, null], "rewards": [2, -4, 7, 7, -81], "path": ["0", "0", "1", "2", "3", "8", "9"], "rt": [9629, 340, 131, 96, 367], "actions": ["up", "up", "up", "left", "up"], "actionTimes": [10567, 11416, 12039, 12637, 13493], "queries": {"click": {"state": {"target": ["2", "13", "24", "25", "14", "4", "8"], "time": [2149, 2899, 3993, 5462, 6541, 8068, 9039]}, "edge": {"target": [], "time": []}}, "mouseover": {"state": {"target": ["1", "3", "2", "12", "13", "12", "0", "23", "24", "25", "24", "24", "31", "30", "25", "23", "12", "14", "14", "18", "4", "3", "8", "10", "12", "0", "0"], "time": [1348, 1566, 1980, 2448, 2664, 3148, 3166, 3183, 3200, 3232, 3415, 3916, 4401, 5017, 5187, 5868, 5952, 6002, 6237, 7402, 7685, 8454, 8655, 9420, 9604, 10004, 10543]}, "edge": {"target": [], "time": []}}, "mouseout": {"state": {"target": ["0", "1", "3", "2", "12", "13", "12", "0", "23", "24", "25", "24", "24", "31", "30", "25", "23", "12", "14", "14", "18", "4", "3", "8", "10", "12", "0"], "time": [1321, 1365, 1782, 2364, 2464, 2904, 3165, 3182, 3198, 3215, 3365, 3615, 4318, 4984, 5034, 5818, 5902, 5968, 6035, 6968, 7452, 8422, 8487, 9387, 9454, 9687, 10037]}, "edge": {"target": [], "time": []}}}, "displayed_time": "14.94", "trialTime": 15577, "trial_type": "mouselab-mdp", "trial_index": 22, "time_elapsed": 642332, "internal_node_id": "0.0-6.0-1.0-13.0"}}, {"uniqueid": "w89143715:a66676976", "current_trial": 23, "dateTime": 1693481703757, "trialdata": {"revealed_states": [], "clicked_states": ["22", "18"], "num_clicks_accrued": [0, 0, 0, 0, 0, 0, 0, 0, 0, 0, 0, 0, 0], "stateRewards": ["", 2, 1, -3, 7, 46, 11, -36, 16, 71, 5, 1, 2, -2, -8, -3, -4, 6, 55, 7, 68, -54, 2, 1, 1, 6, -6, 42, -4, -84, -11, -65, 63, 25], "withholdReward": false, "trial_id": "mdp_trial_15", "block": "test", "trialIndex": 16, "score": 39.7, "costs": -4.3, "simulationMode": [null, null, null, null, null], "rewards": [2, -2, -8, -3, 55], "path": ["0", "0", "12", "13", "14", "15", "18"], "rt": [9073, 34, 26, 105, 233], "actions": ["right", "right", "right", "up", "left"], "actionTimes": [13291, 13819, 14348, 14942, 15672], "queries": {"click": {"state": {"target": ["22", "18"], "time": [5931, 9114]}, "edge": {"target": [], "time": []}}, "mouseover": {"state": {"target": ["12", "19", "22", "18", "16", "16", "15", "15", "13", "12", "0"], "time": [4763, 5245, 5612, 6644, 9413, 9747, 10449, 10814, 12519, 12549, 12769]}, "edge": {"target": [], "time": []}}, "mouseout": {"state": {"target": ["0", "12", "19", "22", "18", "16", "16", "15", "15", "13", "12", "0"], "time": [2944, 4780, 5565, 6228, 9330, 9463, 10448, 10481, 12501, 12533, 12583, 15591]}, "edge": {"target": [], "time": []}}}, "displayed_time": "18.22", "trialTime": 18754, "trial_type": "mouselab-mdp", "trial_index": 23, "time_elapsed": 661298, "internal_node_id": "0.0-6.0-1.0-14.0"}}, {"uniqueid": "w89143715:a66676976", "current_trial": 24, "dateTime": 1693481723659, "trialdata": {"revealed_states": [], "clicked_states": ["33", "21", "32"], "num_clicks_accrued": [0, 0, 0, 0, 0, 0, 0, 0, 0, 0, 0, 0, 0], "stateRewards": ["", 1, -1, -7, -7, -22, 15, -13, 13, 26, -32, 38, -1, 1, -7, -4, 16, -62, 86, 12, -54, 56, 64, -2, -1, 6, 14, -57, 37, 62, -6, -25, 50, -70], "withholdReward": false, "trial_id": "mdp_trial_16", "block": "test", "trialIndex": 17, "score": 54.55, "costs": -6.449999999999999, "simulationMode": [null, null, null, null, null], "rewards": [-1, 1, -7, 12, 56], "path": ["0", "0", "12", "13", "14", "19", "21"], "rt": [12873, 163, 42, 601, 187], "actions": ["right", "right", "right", "down", "down"], "actionTimes": [15096, 15758, 16304, 17417, 18100], "queries": {"click": {"state": {"target": ["33", "21", "32"], "time": [4150, 7341, 10189]}, "edge": {"target": [], "time": []}}, "mouseover": {"state": {"target": ["31", "30", "33", "33", "30", "31", "21", "32", "31", "0", "12", "13", "14", "22", "0"], "time": [2501, 2656, 2717, 3971, 4418, 4435, 4500, 8170, 10741, 11057, 11107, 11157, 11223, 11707, 12107]}, "edge": {"target": [], "time": []}}, "mouseout": {"state": {"target": ["0", "0", "0", "31", "30", "33", "33", "30", "31", "21", "32", "31", "0", "12", "13", "14", "22", "0"], "time": [1386, 1665, 2475, 2623, 2685, 2750, 4400, 4434, 4450, 7687, 10707, 10773, 11073, 11140, 11190, 11340, 11757, 14014]}, "edge": {"target": [], "time": []}}}, "displayed_time": "18.60", "trialTime": 19664, "trial_type": "mouselab-mdp", "trial_index": 24, "time_elapsed": 681200, "internal_node_id": "0.0-6.0-1.0-15.0"}}, {"uniqueid": "w89143715:a66676976", "current_trial": 25, "dateTime": 1693481740816, "trialdata": {"revealed_states": [], "clicked_states": ["16", "5", "9"], "num_clicks_accrued": [0, 0, 0, 0, 0, 0, 0, 0, 0, 0, 0, 0, 0], "stateRewards": ["", -1, 2, -7, -12, -62, 12, -13, 5, 77, -71, 83, 1, -4, 7, 15, -42, -87, -4, 5, -25, 44, 88, -1, 4, -5, -8, 14, 51, 8, -5, 83, -24, -19], "withholdReward": false, "trial_id": "mdp_trial_17", "block": "test", "trialIndex": 18, "score": 69.55, "costs": -6.449999999999999, "simulationMode": [null, null, null, null, null], "rewards": [-1, 2, -7, 5, 77], "path": ["0", "0", "1", "2", "3", "8", "9"], "rt": [11526, 250, 203, 67, 103], "actions": ["up", "up", "up", "left", "up"], "actionTimes": [12652, 13392, 14095, 14659, 15262], "queries": {"click": {"state": {"target": ["16", "5", "9"], "time": [1806, 4959, 8106]}, "edge": {"target": [], "time": []}}, "mouseover": {"state": {"target": ["16", "5", "9", "11", "27", "27", "27", "1", "0"], "time": [1532, 2431, 5583, 8386, 8404, 8902, 9770, 11589, 11790]}, "edge": {"target": [], "time": []}}, "mouseout": {"state": {"target": ["16", "5", "5", "9", "11", "27", "27", "27", "1", "0"], "time": [2133, 5021, 5249, 8369, 8402, 8419, 9571, 11545, 11678, 16351]}, "edge": {"target": [], "time": []}}}, "displayed_time": "15.76", "trialTime": 16919, "trial_type": "mouselab-mdp", "trial_index": 25, "time_elapsed": 698357, "internal_node_id": "0.0-6.0-1.0-16.0"}}, {"uniqueid": "w89143715:a66676976", "current_trial": 26, "dateTime": 1693481757988, "trialdata": {"revealed_states": [], "clicked_states": ["29", "33"], "num_clicks_accrued": [0, 0, 0, 0, 0, 0, 0, 0, 0, 0, 0, 0, 0], "stateRewards": ["", 2, 3, 8, 14, 69, -27, 17, 2, -71, -65, -10, 2, -3, 7, 8, 65, -10, 65, -12, 73, -12, 13, -2, -2, 6, 10, -79, -69, -18, 10, -85, 67, 74], "withholdReward": false, "trial_id": "mdp_trial_18", "block": "test", "trialIndex": 19, "score": 81.7, "costs": -4.3, "simulationMode": [null, null, null, null, null], "rewards": [-2, -2, 6, 10, 74], "path": ["0", "0", "23", "24", "25", "30", "33"], "rt": [9176, 89, 67, 74, 103], "actions": ["left", "left", "left", "down", "left"], "actionTimes": [11589, 12176, 12737, 13315, 13909], "queries": {"click": {"state": {"target": ["29", "33"], "time": [3151, 6340]}, "edge": {"target": [], "time": []}}, "mouseover": {"state": {"target": ["23", "24", "29", "30", "30", "33", "0", "22", "21", "32", "32", "31", "23", "23"], "time": [2655, 2679, 2915, 3461, 3729, 3914, 6698, 6831, 7348, 7648, 7899, 9890, 9934, 10151]}, "edge": {"target": [], "time": []}}, "mouseout": {"state": {"target": ["31", "25", "0", "0", "23", "24", "29", "30", "30", "33", "0", "22", "21", "32", "32", "31", "23", "23"], "time": [743, 794, 1895, 2635, 2665, 2694, 3395, 3697, 3745, 6597, 6714, 6898, 7483, 7665, 9887, 9917, 9950, 10821]}, "edge": {"target": [], "time": []}}}, "displayed_time": "16.42", "trialTime": 16940, "trial_type": "mouselab-mdp", "trial_index": 26, "time_elapsed": 715529, "internal_node_id": "0.0-6.0-1.0-17.0"}}, {"uniqueid": "w89143715:a66676976", "current_trial": 27, "dateTime": 1693481774715, "trialdata": {"revealed_states": [], "clicked_states": ["17", "22", "18"], "num_clicks_accrued": [0, 0, 0, 0, 0, 0, 0, 0, 0, 0, 0, 0, 0], "stateRewards": ["", -1, 3, 1, -7, 56, 76, 57, 3, 11, -9, 14, 1, -2, 2, 8, -77, -3, 79, -5, 88, 24, -66, -2, -1, 7, -7, -30, 14, -76, 11, -36, 28, -6], "withholdReward": false, "trial_id": "mdp_trial_19", "block": "test", "trialIndex": 20, "score": 81.55, "costs": -6.449999999999999, "simulationMode": [null, null, null, null, null], "rewards": [1, -2, 2, 8, 79], "path": ["0", "0", "12", "13", "14", "15", "18"], "rt": [10556, 54, 107, 461, 33], "actions": ["right", "right", "right", "up", "left"], "actionTimes": [12317, 12866, 13490, 14444, 14979], "queries": {"click": {"state": {"target": ["17", "22", "18"], "time": [2572, 5685, 8831]}, "edge": {"target": [], "time": []}}, "mouseover": {"state": {"target": ["12", "18", "15", "17", "14", "22", "13", "18", "14", "20", "20"], "time": [2037, 2152, 2235, 2419, 2902, 2986, 5955, 6022, 9207, 9324, 9843]}, "edge": {"target": [], "time": []}}, "mouseout": {"state": {"target": ["0", "0", "0", "12", "18", "15", "17", "14", "22", "13", "18", "14", "20"], "time": [208, 1022, 2009, 2052, 2202, 2319, 2853, 2919, 5939, 5988, 9141, 9241, 9391]}, "edge": {"target": [], "time": []}}}, "displayed_time": "15.76", "trialTime": 16494, "trial_type": "mouselab-mdp", "trial_index": 27, "time_elapsed": 732256, "internal_node_id": "0.0-6.0-1.0-18.0"}}, {"uniqueid": "w89143715:a66676976", "current_trial": 28, "dateTime": 1693481799308, "trialdata": {"revealed_states": [], "clicked_states": ["6", "11", "10", "7", "16"], "num_clicks_accrued": [0, 0, 0, 0, 0, 0, 0, 0, 0, 0, 0, 0, 0], "stateRewards": ["", -1, -4, -3, 1, -45, -67, -24, 14, 32, 22, 22, -1, 1, -5, -7, 72, 84, -79, -5, 19, -40, -2, -1, -2, 8, -3, 84, -25, -28, 11, 64, -66, 77], "withholdReward": false, "trial_id": "mdp_trial_20", "block": "test", "trialIndex": 21, "score": 49.25, "costs": -10.75, "simulationMode": [null, null, null, null, null], "rewards": [-1, 1, -5, -7, 72], "path": ["0", "0", "12", "13", "14", "15", "16"], "rt": [16542, 66, 91, 583, 134], "actions": ["right", "right", "right", "up", "up"], "actionTimes": [19790, 20353, 20947, 22023, 22658], "queries": {"click": {"state": {"target": ["6", "11", "10", "7", "16"], "time": [3810, 6894, 10034, 13186, 16347]}, "edge": {"target": [], "time": []}}, "mouseover": {"state": {"target": ["6", "10", "11", "28", "10", "2", "7", "12", "13", "16", "18"], "time": [3607, 4174, 4373, 8126, 8293, 10328, 10346, 13833, 14031, 14331, 16767]}, "edge": {"target": [], "time": []}}, "mouseout": {"state": {"target": ["20", "15", "6", "6", "10", "11", "28", "10", "2", "7", "12", "13", "16", "18", "12"], "time": [287, 353, 2441, 4109, 4323, 7542, 8243, 10311, 10345, 13599, 13898, 14081, 16667, 23796, 23825]}, "edge": {"target": [], "time": []}}}, "displayed_time": "23.16", "trialTime": 24359, "trial_type": "mouselab-mdp", "trial_index": 28, "time_elapsed": 756849, "internal_node_id": "0.0-6.0-1.0-19.0"}}, {"uniqueid": "w89143715:a66676976", "current_trial": 29, "dateTime": 1693481815477, "trialdata": {"revealed_states": [], "clicked_states": ["32"], "num_clicks_accrued": [0, 0, 0, 0, 0, 0, 0, 0, 0, 0, 0, 0, 0], "stateRewards": ["", -2, 2, 5, -14, -56, 64, 84, -5, 52, 39, 85, -2, 1, 7, 8, 21, 29, -78, -9, -10, -69, 10, -2, -1, -7, 15, 72, 20, 41, -2, 52, 80, 22], "withholdReward": false, "trial_id": "mdp_trial_21", "block": "test", "trialIndex": 22, "score": 65.85, "costs": -2.15, "simulationMode": [null, null, null, null, null], "rewards": [-2, -1, -7, -2, 80], "path": ["0", "0", "23", "24", "25", "30", "32"], "rt": [4503, 33, 313, 62, 134], "actions": ["left", "left", "left", "down", "down"], "actionTimes": [5412, 5935, 6749, 7300, 7942], "queries": {"click": {"state": {"target": ["32"], "time": [2003]}, "edge": {"target": [], "time": []}}, "mouseover": {"state": {"target": ["23", "31", "30", "32", "21"], "time": [1351, 1380, 1467, 1631, 2948]}, "edge": {"target": [], "time": []}}, "mouseout": {"state": {"target": ["0", "23", "31", "30", "32"], "time": [614, 1366, 1397, 1602, 2107]}, "edge": {"target": [], "time": []}}}, "displayed_time": "14.91", "trialTime": 15919, "trial_type": "mouselab-mdp", "trial_index": 29, "time_elapsed": 773018, "internal_node_id": "0.0-6.0-1.0-20.0"}}, {"uniqueid": "w89143715:a66676976", "current_trial": 30, "dateTime": 1693481831456, "trialdata": {"revealed_states": [], "clicked_states": ["27"], "num_clicks_accrued": [0, 0, 0, 0, 0, 0, 0, 0, 0, 0, 0, 0, 0], "stateRewards": ["", -2, -3, -7, 7, -54, -69, -4, -14, -77, 22, 40, -2, -1, 5, 6, -35, 50, -60, 10, -28, 75, 57, 1, -4, -2, 2, 68, 34, -18, 12, 3, -21, -43], "withholdReward": false, "trial_id": "mdp_trial_22", "block": "test", "trialIndex": 23, "score": 62.85, "costs": -2.15, "simulationMode": [null, null, null, null, null], "rewards": [1, -4, -2, 2, 68], "path": ["0", "0", "23", "24", "25", "26", "27"], "rt": [4251, 62, 109, 52, 46], "actions": ["left", "left", "left", "up", "up"], "actionTimes": [5218, 5775, 6389, 6932, 7494], "queries": {"click": {"state": {"target": ["27"], "time": [1631]}, "edge": {"target": [], "time": []}}, "mouseover": {"state": {"target": ["27", "33"], "time": [1376, 2226]}, "edge": {"target": [], "time": []}}, "mouseout": {"state": {"target": ["21", "22", "0", "27", "33"], "time": [278, 341, 407, 1895, 9922]}, "edge": {"target": [], "time": []}}}, "displayed_time": "14.97", "trialTime": 15777, "trial_type": "mouselab-mdp", "trial_index": 30, "time_elapsed": 788997, "internal_node_id": "0.0-6.0-1.0-21.0"}}, {"uniqueid": "w89143715:a66676976", "current_trial": 31, "dateTime": 1693481850600, "trialdata": {"revealed_states": [], "clicked_states": ["20", "18", "27"], "num_clicks_accrued": [0, 0, 0, 0, 0, 0, 0, 0, 0, 0, 0, 0, 0], "stateRewards": ["", 1, 1, 4, 11, 83, -66, 18, -16, -23, 5, 25, 1, -3, 1, -12, 18, 24, -86, -11, -64, 36, 40, 2, 1, -6, 13, 55, 29, 72, -2, 81, -72, -41], "withholdReward": false, "trial_id": "mdp_trial_23", "block": "test", "trialIndex": 24, "score": 58.55, "costs": -6.449999999999999, "simulationMode": [null, null, null, null, null], "rewards": [2, 1, -6, 13, 55], "path": ["0", "0", "23", "24", "25", "26", "27"], "rt": [10720, 91, 61, 33, 3], "actions": ["left", "left", "left", "up", "up"], "actionTimes": [12524, 13115, 13672, 14206, 14729], "queries": {"click": {"state": {"target": ["20", "18", "27"], "time": [2878, 6020, 9133]}, "edge": {"target": [], "time": []}}, "mouseover": {"state": {"target": ["12", "19", "20", "20", "15", "18", "2", "10", "29", "33", "12", "18", "2", "10", "26", "27", "27", "11", "9", "9"], "time": [2060, 2097, 2302, 2767, 3196, 3365, 4081, 4113, 4380, 4614, 4998, 5515, 6332, 6366, 6583, 7184, 7633, 9402, 9435, 9835]}, "edge": {"target": [], "time": []}}, "mouseout": {"state": {"target": ["10", "15", "13", "12", "0", "0", "12", "19", "20", "20", "15", "18", "2", "10", "29", "33", "12", "18", "2", "10", "26", "27", "27", "11", "9", "9", "23", "21"], "time": [143, 410, 527, 543, 695, 2032, 2075, 2112, 2398, 3129, 3213, 4048, 4098, 4130, 4397, 4630, 5014, 6282, 6349, 6382, 6599, 7351, 9368, 9418, 9652, 16433, 17241, 17526]}, "edge": {"target": [], "time": []}}}, "displayed_time": "15.81", "trialTime": 18879, "trial_type": "mouselab-mdp", "trial_index": 31, "time_elapsed": 808141, "internal_node_id": "0.0-6.0-1.0-22.0"}}, {"uniqueid": "w89143715:a66676976", "current_trial": 32, "dateTime": 1693481867717, "trialdata": {"revealed_states": [], "clicked_states": ["32", "20", "5"], "num_clicks_accrued": [0, 0, 0, 0, 0, 0, 0, 0, 0, 0, 0, 0, 0], "stateRewards": ["", -1, 1, -6, -1, 80, 23, 2, -11, 73, -81, 59, 1, 3, 5, -1, -26, 28, -3, 16, -59, -13, -50, -2, -2, 2, 15, -50, 86, 17, -4, 37, 35, 44], "withholdReward": false, "trial_id": "mdp_trial_24", "block": "test", "trialIndex": 25, "score": 66.55, "costs": -6.449999999999999, "simulationMode": [null, null, null, null, null], "rewards": [-1, 1, -6, -1, 80], "path": ["0", "0", "1", "2", "3", "4", "5"], "rt": [11531, 481, 162, 15, 63], "actions": ["up", "up", "up", "right", "up"], "actionTimes": [12638, 13614, 14278, 14784, 15369], "queries": {"click": {"state": {"target": ["32", "20", "5"], "time": [1654, 6138, 9334]}, "edge": {"target": [], "time": []}}, "mouseover": {"state": {"target": ["32", "22", "19", "20", "14", "7", "3", "5", "8", "9"], "time": [1455, 2305, 5192, 5980, 7276, 7359, 7394, 7542, 11663, 11847]}, "edge": {"target": [], "time": []}}, "mouseout": {"state": {"target": ["0", "32", "22", "19", "20", "14", "7", "3", "5", "8", "9", "8"], "time": [1171, 2121, 2391, 5258, 6221, 7292, 7376, 7492, 11630, 11680, 16385, 16452]}, "edge": {"target": [], "time": []}}}, "displayed_time": "15.87", "trialTime": 16855, "trial_type": "mouselab-mdp", "trial_index": 32, "time_elapsed": 825258, "internal_node_id": "0.0-6.0-1.0-23.0"}}, {"uniqueid": "w89143715:a66676976", "current_trial": 33, "dateTime": 1693481883985, "trialdata": {"revealed_states": [], "clicked_states": ["29", "32"], "num_clicks_accrued": [0, 0, 0, 0, 0, 0, 0, 0, 0, 0, 0, 0, 0], "stateRewards": ["", 2, -4, -8, -15, 71, -43, -41, 7, -17, 20, 67, -1, -1, -4, 6, 37, -24, -47, 9, 34, 57, 45, 1, 2, -4, -5, -23, 88, -5, 13, -40, 43, 44], "withholdReward": false, "trial_id": "mdp_trial_25", "block": "test", "trialIndex": 26, "score": 50.7, "costs": -4.3, "simulationMode": [null, null, null, null, null], "rewards": [1, 2, -4, 13, 43], "path": ["0", "0", "23", "24", "25", "30", "32"], "rt": [7505, 26, 336, 371, 133], "actions": ["left", "left", "left", "down", "down"], "actionTimes": [8512, 9032, 9876, 10743, 11373], "queries": {"click": {"state": {"target": ["29", "32"], "time": [1663, 4834]}, "edge": {"target": [], "time": []}}, "mouseover": {"state": {"target": ["23", "24", "25", "29", "33", "32", "33", "28", "28"], "time": [1184, 1214, 1264, 1414, 2782, 2982, 5500, 6201, 6452]}, "edge": {"target": [], "time": []}}, "mouseout": {"state": {"target": ["10", "24", "31", "0", "23", "24", "25", "29", "33", "32", "33", "28"], "time": [79, 297, 430, 1151, 1198, 1231, 1348, 2099, 2798, 4920, 6101, 6234]}, "edge": {"target": [], "time": []}}}, "displayed_time": "15.02", "trialTime": 16016, "trial_type": "mouselab-mdp", "trial_index": 33, "time_elapsed": 841525, "internal_node_id": "0.0-6.0-1.0-24.0"}}, {"uniqueid": "w89143715:a66676976", "current_trial": 34, "dateTime": 1693481900276, "trialdata": {"revealed_states": [], "clicked_states": ["11", "17"], "num_clicks_accrued": [0, 0, 0, 0, 0, 0, 0, 0, 0, 0, 0, 0, 0], "stateRewards": ["", -2, -1, -5, 10, -36, -70, 68, -9, 86, 71, -10, 2, -4, 7, -7, 66, 44, -66, -13, -69, 43, 15, -2, 2, 6, -13, 62, 57, 50, -10, -69, 42, -72], "withholdReward": false, "trial_id": "mdp_trial_26", "block": "test", "trialIndex": 27, "score": 37.7, "costs": -4.3, "simulationMode": [null, null, null, null, null], "rewards": [2, -4, 7, -7, 44], "path": ["0", "0", "12", "13", "14", "15", "17"], "rt": [8770, 32, 131, 77, 19], "actions": ["right", "right", "right", "up", "right"], "actionTimes": [9981, 10508, 11144, 11721, 12229], "queries": {"click": {"state": {"target": ["11", "17"], "time": [3179, 6332]}, "edge": {"target": [], "time": []}}, "mouseover": {"state": {"target": ["7", "3", "8", "11", "11", "8", "4", "16", "17", "14", "22"], "time": [1718, 1884, 1968, 2186, 3011, 3552, 3602, 3869, 4436, 7155, 7455]}, "edge": {"target": [], "time": []}}, "mouseout": {"state": {"target": ["28", "23", "0", "7", "3", "8", "11", "11", "8", "4", "16", "17", "14", "22"], "time": [537, 685, 1638, 1835, 1918, 2169, 2390, 3535, 3569, 3635, 3985, 7105, 7188, 13147]}, "edge": {"target": [], "time": []}}}, "displayed_time": "15.21", "trialTime": 16031, "trial_type": "mouselab-mdp", "trial_index": 34, "time_elapsed": 857817, "internal_node_id": "0.0-6.0-1.0-25.0"}}, {"uniqueid": "w89143715:a66676976", "current_trial": 35, "dateTime": 1693481917159, "trialdata": {"revealed_states": [], "clicked_states": ["32", "22", "18"], "num_clicks_accrued": [0, 0, 0, 0, 0, 0, 0, 0, 0, 0, 0, 0, 0], "stateRewards": ["", -1, -2, 4, 9, 10, -75, 39, 16, -43, 88, -19, -1, 1, 2, 4, -31, 10, 73, 12, 41, -64, -81, -2, 2, -6, 1, -81, -1, -26, 3, -59, -3, -20], "withholdReward": false, "trial_id": "mdp_trial_27", "block": "test", "trialIndex": 28, "score": 72.55, "costs": -6.449999999999999, "simulationMode": [null, null, null, null, null], "rewards": [-1, 1, 2, 4, 73], "path": ["0", "0", "12", "13", "14", "15", "18"], "rt": [10364, 102, 86, 70, 92], "actions": ["right", "right", "right", "up", "left"], "actionTimes": [11437, 12040, 12633, 13192, 13782], "queries": {"click": {"state": {"target": ["32", "22", "18"], "time": [1675, 4793, 8001]}, "edge": {"target": [], "time": []}}, "mouseover": {"state": {"target": ["0", "31", "32", "22", "20", "14", "13", "22", "12", "3", "4", "6", "16", "18", "1", "29", "26", "28"], "time": [1148, 1228, 1483, 2012, 2379, 3580, 4030, 4081, 5082, 5148, 5832, 6432, 6766, 7400, 8267, 8568, 8851, 9101]}, "edge": {"target": [], "time": []}}, "mouseout": {"state": {"target": ["0", "31", "32", "22", "20", "14", "13", "22", "12", "3", "4", "6", "16", "18", "1", "29", "26", "28", "24", "31"], "time": [1171, 1245, 1845, 2112, 2579, 3680, 4047, 5049, 5099, 5815, 5882, 6465, 7284, 8234, 8284, 8584, 8901, 15777, 15792, 15807]}, "edge": {"target": [], "time": []}}}, "displayed_time": "15.07", "trialTime": 16644, "trial_type": "mouselab-mdp", "trial_index": 35, "time_elapsed": 874700, "internal_node_id": "0.0-6.0-1.0-26.0"}}, {"uniqueid": "w89143715:a66676976", "current_trial": 36, "dateTime": 1693481933039, "trialdata": {"revealed_states": [], "clicked_states": ["28", "31", "32"], "num_clicks_accrued": [0, 0, 0, 0, 0, 0, 0, 0, 0, 0, 0, 0, 0], "stateRewards": ["", -1, 3, 8, 9, -53, 20, -84, 2, -28, -62, -31, -1, -2, -7, 2, 51, 58, 45, -4, -17, -41, 36, 2, -2, -7, -15, 29, -54, -37, -16, -43, 65, -17], "withholdReward": false, "trial_id": "mdp_trial_28", "block": "test", "trialIndex": 29, "score": 35.55, "costs": -6.449999999999999, "simulationMode": [null, null, null, null, null], "rewards": [2, -2, -7, -16, 65], "path": ["0", "0", "23", "24", "25", "30", "32"], "rt": [10502, 82, 127, 19, 148], "actions": ["left", "left", "left", "down", "down"], "actionTimes": [11673, 12254, 12886, 13412, 14054], "queries": {"click": {"state": {"target": ["28", "31", "32"], "time": [1987, 5145, 8309]}, "edge": {"target": [], "time": []}}, "mouseover": {"state": {"target": ["26", "28", "28", "24", "31", "32", "30", "33", "33", "24", "13", "14", "18"], "time": [1378, 1612, 1829, 3712, 3796, 5514, 8767, 8834, 9084, 9317, 9367, 9401, 9701]}, "edge": {"target": [], "time": []}}, "mouseout": {"state": {"target": ["0", "26", "28", "28", "24", "31", "32", "30", "33", "33", "24", "13", "14"], "time": [1279, 1395, 1645, 3696, 3763, 5465, 8350, 8783, 8867, 9284, 9334, 9384, 9618]}, "edge": {"target": [], "time": []}}}, "displayed_time": "15.17", "trialTime": 15643, "trial_type": "mouselab-mdp", "trial_index": 36, "time_elapsed": 890579, "internal_node_id": "0.0-6.0-1.0-27.0"}}, {"uniqueid": "w89143715:a66676976", "current_trial": 37, "dateTime": 1693481961858, "trialdata": {"revealed_states": [], "clicked_states": ["18", "10", "7", "6", "5", "9", "33"], "num_clicks_accrued": [0, 0, 0, 0, 0, 0, 0, 0, 0, 0, 0, 0, 0], "stateRewards": ["", 2, -2, -3, 10, -4, -1, -11, -8, -9, -36, -78, 2, 1, 7, -7, 44, -1, -31, -1, 26, 47, 83, 2, -4, -4, -6, -52, -76, -81, -1, -59, 45, 67], "withholdReward": false, "trial_id": "mdp_trial_29", "block": "test", "trialIndex": 30, "score": 44.95, "costs": -15.05, "simulationMode": [null, null, null, null, null], "rewards": [2, -4, -4, -1, 67], "path": ["0", "0", "23", "24", "25", "30", "33"], "rt": [22973, 590, 138, 116, 157], "actions": ["left", "left", "left", "down", "left"], "actionTimes": [24563, 25652, 26289, 26897, 27559], "queries": {"click": {"state": {"target": ["18", "10", "7", "6", "5", "9", "33"], "time": [2226, 5318, 8469, 11893, 15052, 18236, 21376]}, "edge": {"target": [], "time": []}}, "mouseover": {"state": {"target": ["18", "15", "18", "11", "10", "2", "7", "6", "6", "5", "9", "28", "30", "33", "32"], "time": [1741, 1774, 1974, 3776, 4226, 5628, 5961, 9281, 9514, 12183, 15769, 18739, 19073, 19272, 21808]}, "edge": {"target": [], "time": []}}, "mouseout": {"state": {"target": ["18", "12", "23", "18", "15", "18", "11", "10", "2", "7", "6", "6", "5", "9", "28", "30", "33", "33"], "time": [694, 859, 1095, 1758, 1941, 3559, 4110, 5611, 5661, 9231, 9314, 12116, 15487, 18656, 18755, 19239, 21397, 21741]}, "edge": {"target": [], "time": []}}}, "displayed_time": "28.05", "trialTime": 28564, "trial_type": "mouselab-mdp", "trial_index": 37, "time_elapsed": 919399, "internal_node_id": "0.0-6.0-1.0-28.0"}}, {"uniqueid": "w89143715:a66676976", "current_trial": 38, "dateTime": 1693481978040, "trialdata": {"revealed_states": [], "clicked_states": ["21"], "num_clicks_accrued": [0, 0, 0, 0, 0, 0, 0, 0, 0, 0, 0, 0, 0], "stateRewards": ["", -1, -1, 4, -16, -75, 81, -51, -7, -84, 73, -30, -2, 1, -3, -16, -77, 33, 14, 1, 45, 87, -66, 2, 2, -5, -7, -19, -17, 79, -3, 8, 49, 47], "withholdReward": false, "trial_id": "mdp_trial_30", "block": "test", "trialIndex": 31, "score": 81.85, "costs": -2.15, "simulationMode": [null, null, null, null, null], "rewards": [-2, 1, -3, 1, 87], "path": ["0", "0", "12", "13", "14", "19", "21"], "rt": [3884, 14, 333, 23, 101], "actions": ["right", "right", "right", "down", "down"], "actionTimes": [5050, 5565, 6418, 6938, 7551], "queries": {"click": {"state": {"target": ["21"], "time": [1745]}, "edge": {"target": [], "time": []}}, "mouseover": {"state": {"target": ["0", "22", "21", "32"], "time": [1209, 1293, 1559, 3612]}, "edge": {"target": [], "time": []}}, "mouseout": {"state": {"target": ["32", "31", "0", "22", "21", "32", "33", "30"], "time": [446, 527, 1226, 1443, 1927, 9973, 13037, 13053]}, "edge": {"target": [], "time": []}}}, "displayed_time": "15.17", "trialTime": 15922, "trial_type": "mouselab-mdp", "trial_index": 38, "time_elapsed": 935581, "internal_node_id": "0.0-6.0-1.0-29.0"}}, {"uniqueid": "w89143715:a66676976", "current_trial": 39, "dateTime": 1693481996192, "trialdata": {"revealed_states": [], "clicked_states": ["17"], "num_clicks_accrued": [0, 0, 0, 0, 0, 0, 0, 0, 0, 0, 0, 0, 0], "stateRewards": ["", -1, 1, 8, -8, -49, 62, -78, 16, 28, -81, 78, -2, -3, -1, -4, 67, 49, -2, -13, -16, -39, 83, 1, -4, 4, -5, -20, 7, 84, 7, -32, -59, 19], "withholdReward": false, "trial_id": "mdp_trial_31", "block": "test", "trialIndex": 32, "score": 36.85, "costs": -2.15, "simulationMode": [null, null, null, null, null], "rewards": [-2, -3, -1, -4, 49], "path": ["0", "0", "12", "13", "14", "15", "17"], "rt": [3858, 5, 47, 530, 87], "actions": ["right", "right", "right", "up", "right"], "actionTimes": [6734, 7246, 7808, 8856, 9450], "queries": {"click": {"state": {"target": ["17"], "time": [3364]}, "edge": {"target": [], "time": []}}, "mouseover": {"state": {"target": ["18", "15", "17", "14", "19", "21", "22"], "time": [3020, 3070, 3120, 3904, 4004, 4104, 4571]}, "edge": {"target": [], "time": []}}, "mouseout": {"state": {"target": ["2", "1", "0", "18", "15", "17", "17", "14", "19", "21", "22", "22"], "time": [2404, 2471, 2884, 3053, 3103, 3412, 3871, 3971, 4071, 4271, 9742, 10401]}, "edge": {"target": [], "time": []}}}, "displayed_time": "16.88", "trialTime": 17885, "trial_type": "mouselab-mdp", "trial_index": 39, "time_elapsed": 953732, "internal_node_id": "0.0-6.0-1.0-30.0"}}, {"uniqueid": "w89143715:a66676976", "current_trial": 40, "dateTime": 1693482013294, "trialdata": {"revealed_states": [], "clicked_states": ["27", "32", "18"], "num_clicks_accrued": [0, 0, 0, 0, 0, 0, 0, 0, 0, 0, 0, 0, 0], "stateRewards": ["", 1, -1, 8, 4, 76, -33, -17, -3, -1, -54, -74, -2, 2, -5, 13, -51, 63, 83, 1, 84, 29, -36, 2, -1, 7, -12, -10, -44, -43, -14, 8, -69, 19], "withholdReward": false, "trial_id": "mdp_trial_32", "block": "test", "trialIndex": 33, "score": 84.55, "costs": -6.449999999999999, "simulationMode": [null, null, null, null, null], "rewards": [-2, 2, -5, 13, 83], "path": ["0", "0", "12", "13", "14", "15", "18"], "rt": [10392, 81, 72, 3, 82], "actions": ["right", "right", "right", "up", "left"], "actionTimes": [12233, 12804, 13380, 13877, 14473], "queries": {"click": {"state": {"target": ["27", "32", "18"], "time": [2540, 5856, 9047]}, "edge": {"target": [], "time": []}}, "mouseover": {"state": {"target": ["28", "27", "31", "32", "31", "16", "18", "15", "20", "19", "22"], "time": [2028, 2351, 3296, 5704, 6183, 6266, 7483, 10419, 10736, 10937, 10970]}, "edge": {"target": [], "time": []}}, "mouseout": {"state": {"target": ["12", "12", "0", "0", "28", "27", "31", "32", "31", "16", "18", "15", "20", "19"], "time": [931, 1263, 1344, 1912, 2148, 3263, 3313, 6168, 6199, 6283, 10386, 10486, 10920, 10953]}, "edge": {"target": [], "time": []}}}, "displayed_time": "15.84", "trialTime": 16815, "trial_type": "mouselab-mdp", "trial_index": 40, "time_elapsed": 970835, "internal_node_id": "0.0-6.0-1.0-31.0"}}, {"uniqueid": "w89143715:a66676976", "current_trial": 41, "dateTime": 1693482042657, "trialdata": {"revealed_states": [], "clicked_states": ["28", "31", "22", "18", "17", "5", "9"], "num_clicks_accrued": [0, 0, 0, 0, 0, 0, 0, 0, 0, 0, 0, 0, 0], "stateRewards": ["", 2, -1, -1, -9, -81, -30, 55, -6, 78, 25, 62, 2, 4, -1, 9, -85, 1, -19, 1, -60, 12, -34, 1, 4, -1, -13, -24, -16, -83, -8, 16, 43, 9], "withholdReward": false, "trial_id": "mdp_trial_33", "block": "test", "trialIndex": 34, "score": 56.95, "costs": -15.05, "simulationMode": [null, null, null, null, null], "rewards": [2, -1, -1, -6, 78], "path": ["0", "0", "1", "2", "3", "8", "9"], "rt": [24176, 46, 51, 3, 82], "actions": ["up", "up", "up", "left", "up"], "actionTimes": [25210, 25764, 26334, 26837, 27433], "queries": {"click": {"state": {"target": ["28", "31", "22", "18", "17", "5", "9"], "time": [2251, 5435, 9033, 12218, 15366, 18613, 21708]}, "edge": {"target": [], "time": []}}, "mouseover": {"state": {"target": ["23", "26", "27", "28", "10", "4", "7", "1", "31", "22", "13", "18", "18", "15", "17", "16", "5", "9", "8", "10", "10"], "time": [1461, 1542, 1782, 2095, 2594, 2727, 3677, 3696, 4645, 6263, 9516, 9582, 9966, 12705, 13452, 16322, 16555, 19440, 22010, 22043, 22493]}, "edge": {"target": [], "time": []}}, "mouseout": {"state": {"target": ["22", "0", "23", "26", "27", "28", "10", "4", "7", "1", "31", "22", "13", "18", "18", "15", "17", "16", "5", "9", "8", "10"], "time": [292, 1429, 1479, 1592, 1811, 2529, 2611, 2826, 3694, 3711, 5830, 9482, 9549, 9749, 12703, 12720, 16289, 16338, 19124, 21976, 22026, 22060]}, "edge": {"target": [], "time": []}}}, "displayed_time": "27.93", "trialTime": 29096, "trial_type": "mouselab-mdp", "trial_index": 41, "time_elapsed": 1000198, "internal_node_id": "0.0-6.0-1.0-32.0"}}, {"uniqueid": "w89143715:a66676976", "current_trial": 42, "dateTime": 1693482084026, "trialdata": {"revealed_states": [], "clicked_states": ["20", "32", "21", "22", "17", "16", "29", "33", "11", "5"], "num_clicks_accrued": [0, 0, 0, 0, 0, 0, 0, 0, 0, 0, 0, 0, 0], "stateRewards": ["", 1, 4, -8, -5, -15, -7, 21, 13, -30, 40, -65, 1, 1, 5, -14, 35, 27, -38, -11, 36, -58, -47, -2, 4, -3, 13, -16, -49, 22, 15, -56, -44, -10], "withholdReward": false, "trial_id": "mdp_trial_34", "block": "test", "trialIndex": 35, "score": 10.500000000000004, "costs": -21.499999999999996, "simulationMode": [null, null, null, null, null], "rewards": [1, 1, 5, -11, 36], "path": ["0", "0", "12", "13", "14", "19", "20"], "rt": [34796, 455, 111, 10, 101], "actions": ["right", "right", "right", "down", "right"], "actionTimes": [36271, 37218, 37825, 38341, 38947], "queries": {"click": {"state": {"target": ["20", "32", "21", "22", "17", "16", "29", "33", "11", "5"], "time": [2103, 5545, 9065, 12238, 15363, 18715, 22220, 26011, 29197, 32434]}, "edge": {"target": [], "time": []}}, "mouseover": {"state": {"target": ["0", "12", "19", "20", "19", "31", "32", "21", "22", "22", "12", "18", "17", "16", "1", "25", "29", "33", "25", "28", "10", "8", "11", "5", "5", "6"], "time": [1616, 1664, 1731, 1764, 2397, 2447, 2730, 8568, 9369, 9604, 12589, 12639, 12889, 15775, 19112, 19211, 19528, 25838, 26335, 26369, 26450, 26667, 26868, 30204, 30604, 35778]}, "edge": {"target": [], "time": []}}, "mouseout": {"state": {"target": ["10", "0", "13", "12", "0", "12", "19", "20", "19", "31", "32", "21", "22", "22", "12", "18", "17", "16", "1", "25", "29", "29", "33", "25", "28", "10", "8", "11", "5", "5", "6"], "time": [316, 734, 863, 979, 1634, 1681, 1747, 2121, 2413, 2463, 8169, 9303, 9386, 12522, 12605, 12656, 15708, 19045, 19129, 19261, 22325, 25585, 26285, 26351, 26385, 26467, 26768, 29555, 30254, 32789, 39735]}, "edge": {"target": [], "time": []}}}, "displayed_time": "39.45", "trialTime": 41093, "trial_type": "mouselab-mdp", "trial_index": 42, "time_elapsed": 1041567, "internal_node_id": "0.0-6.0-1.0-33.0"}}, {"uniqueid": "w89143715:a66676976", "current_trial": 43, "dateTime": 1693482100107, "trialdata": {"revealed_states": [], "clicked_states": ["28", "6"], "num_clicks_accrued": [0, 0, 0, 0, 0, 0, 0, 0, 0, 0, 0, 0, 0], "stateRewards": ["", 1, 2, -3, 6, -88, 74, -45, 7, -46, 40, -77, 1, -4, 4, 3, 22, -25, -59, 8, -83, 19, -60, -1, -1, -1, -8, 26, -29, 64, -7, -88, -51, -55], "withholdReward": false, "trial_id": "mdp_trial_35", "block": "test", "trialIndex": 36, "score": 75.7, "costs": -4.3, "simulationMode": [null, null, null, null, null], "rewards": [1, 2, -3, 6, 74], "path": ["0", "0", "1", "2", "3", "4", "6"], "rt": [7231, 483, 148, 313, 127], "actions": ["up", "up", "up", "right", "right"], "actionTimes": [8777, 9764, 10413, 11227, 11842], "queries": {"click": {"state": {"target": ["28", "6"], "time": [2214, 5349]}, "edge": {"target": [], "time": []}}, "mouseover": {"state": {"target": ["23", "28", "30", "33", "25", "4", "6", "6", "12", "32"], "time": [1621, 2014, 2642, 3257, 3657, 3774, 3808, 4078, 5675, 6092]}, "edge": {"target": [], "time": []}}, "mouseout": {"state": {"target": ["17", "12", "23", "28", "28", "30", "33", "25", "28", "4", "6", "6", "12"], "time": [643, 754, 1638, 2330, 2590, 2656, 3640, 3674, 3707, 3792, 3824, 5625, 5692]}, "edge": {"target": [], "time": []}}}, "displayed_time": "15.55", "trialTime": 15847, "trial_type": "mouselab-mdp", "trial_index": 43, "time_elapsed": 1057648, "internal_node_id": "0.0-6.0-1.0-34.0"}}, {"uniqueid": "w89143715:a66676976", "current_trial": 44, "dateTime": 1693482119356, "trialdata": {"revealed_states": [], "clicked_states": ["33", "31", "28", "18"], "num_clicks_accrued": [0, 0, 0, 0, 0, 0, 0, 0, 0, 0, 0, 0, 0], "stateRewards": ["", -1, 1, 6, -6, 70, 66, 67, -16, -75, -35, 37, -1, 4, 4, -6, 47, -9, 63, 15, 21, -63, 13, 1, 3, -6, 10, 79, -29, 18, -15, 9, -67, -19], "withholdReward": false, "trial_id": "mdp_trial_36", "block": "test", "trialIndex": 37, "score": 55.4, "costs": -8.6, "simulationMode": [null, null, null, null, null], "rewards": [-1, 4, 4, -6, 63], "path": ["0", "0", "12", "13", "14", "15", "18"], "rt": [13822, 59, 41, 546, 65], "actions": ["right", "right", "right", "up", "left"], "actionTimes": [14886, 15438, 15988, 17046, 17615], "queries": {"click": {"state": {"target": ["33", "31", "28", "18"], "time": [2013, 5124, 8412, 11551]}, "edge": {"target": [], "time": []}}, "mouseover": {"state": {"target": ["0", "23", "24", "25", "30", "33", "33", "30", "31", "24", "28", "1", "18", "13", "22", "22"], "time": [1189, 1222, 1251, 1316, 1621, 1684, 1872, 3000, 3317, 5386, 5519, 8789, 9106, 11858, 11942, 12258]}, "edge": {"target": [], "time": []}}, "mouseout": {"state": {"target": ["32", "12", "0", "23", "24", "25", "30", "33", "33", "30", "31", "24", "28", "1", "18", "13", "22", "22"], "time": [81, 566, 1207, 1249, 1282, 1366, 1646, 1717, 2316, 3017, 5210, 5436, 8741, 8807, 11842, 11908, 12008, 18504]}, "edge": {"target": [], "time": []}}}, "displayed_time": "18.11", "trialTime": 19010, "trial_type": "mouselab-mdp", "trial_index": 44, "time_elapsed": 1076896, "internal_node_id": "0.0-6.0-1.0-35.0"}}, {"uniqueid": "w89143715:a66676976", "current_trial": 45, "dateTime": 1693482135006, "trialdata": {"revealed_states": [], "clicked_states": ["6"], "num_clicks_accrued": [0, 0, 0, 0, 0, 0, 0, 0, 0, 0, 0, 0, 0], "stateRewards": ["", -1, 1, -5, -6, -78, 47, -13, 12, 48, -88, 20, 2, -3, -2, 13, -20, 37, -57, 14, -38, 30, 31, -2, -2, 8, 2, -23, 78, 28, 12, -74, -88, 8], "withholdReward": false, "trial_id": "mdp_trial_37", "block": "test", "trialIndex": 38, "score": 33.85, "costs": -2.15, "simulationMode": [null, null, null, null, null], "rewards": [-1, 1, -5, -6, 47], "path": ["0", "0", "1", "2", "3", "4", "6"], "rt": [4213, 41, 15, 423, 100], "actions": ["up", "up", "up", "right", "right"], "actionTimes": [5195, 5735, 6242, 7186, 7782], "queries": {"click": {"state": {"target": ["6"], "time": [1783]}, "edge": {"target": [], "time": []}}, "mouseover": {"state": {"target": ["1", "2", "3", "4", "6", "4", "24", "30", "32", "28", "8", "8"], "time": [1139, 1177, 1326, 1388, 1555, 2505, 2655, 2772, 2989, 4424, 4491, 4759]}, "edge": {"target": [], "time": []}}, "mouseout": {"state": {"target": ["0", "1", "2", "3", "4", "6", "4", "24", "30", "32", "28", "8", "8"], "time": [1070, 1173, 1207, 1356, 1455, 1860, 2522, 2705, 2839, 4374, 4442, 4558, 4777]}, "edge": {"target": [], "time": []}}}, "displayed_time": "14.98", "trialTime": 15381, "trial_type": "mouselab-mdp", "trial_index": 45, "time_elapsed": 1092546, "internal_node_id": "0.0-6.0-1.0-36.0"}}, {"uniqueid": "w89143715:a66676976", "current_trial": 46, "dateTime": 1693482152572, "trialdata": {"revealed_states": [], "clicked_states": ["17", "22", "32"], "num_clicks_accrued": [0, 0, 0, 0, 0, 0, 0, 0, 0, 0, 0, 0, 0], "stateRewards": ["", 2, -4, -4, 13, -80, 62, 13, -11, 57, -13, -44, 1, 4, 3, -4, -29, -88, 15, 16, -58, 68, -45, -1, -3, -1, -9, -44, -86, -19, -7, -36, 59, 66], "withholdReward": false, "trial_id": "mdp_trial_38", "block": "test", "trialIndex": 39, "score": 40.55, "costs": -6.449999999999999, "simulationMode": [null, null, null, null, null], "rewards": [-1, -3, -1, -7, 59], "path": ["0", "0", "23", "24", "25", "30", "32"], "rt": [10670, 81, 101, 370, 204], "actions": ["left", "left", "left", "down", "down"], "actionTimes": [11589, 12172, 12775, 13645, 14348], "queries": {"click": {"state": {"target": ["17", "22", "32"], "time": [1926, 5076, 8170]}, "edge": {"target": [], "time": []}}, "mouseover": {"state": {"target": ["12", "13", "14", "17", "14", "22", "22", "32", "32", "21"], "time": [996, 1046, 1096, 1613, 2264, 2564, 2748, 5650, 6484, 9003]}, "edge": {"target": [], "time": []}}, "mouseout": {"state": {"target": ["0", "12", "13", "14", "17", "14", "22", "22", "32", "32", "21", "21"], "time": [579, 1029, 1063, 1179, 2214, 2297, 2598, 5146, 5734, 8453, 15062, 16145]}, "edge": {"target": [], "time": []}}}, "displayed_time": "14.92", "trialTime": 17296, "trial_type": "mouselab-mdp", "trial_index": 46, "time_elapsed": 1110113, "internal_node_id": "0.0-6.0-1.0-37.0"}}, {"uniqueid": "w89143715:a66676976", "current_trial": 47, "dateTime": 1693482168148, "trialdata": {"revealed_states": [], "clicked_states": ["20", "33"], "num_clicks_accrued": [0, 0, 0, 0, 0, 0, 0, 0, 0, 0, 0, 0, 0], "stateRewards": ["", 1, -1, 1, 13, 31, -56, 72, 2, 41, 5, 63, -2, -3, -2, 3, -71, -26, 52, 13, -31, 24, -67, 2, -2, 5, 4, 66, 43, 72, 9, 86, -26, 44], "withholdReward": false, "trial_id": "mdp_trial_39", "block": "test", "trialIndex": 40, "score": 53.7, "costs": -4.3, "simulationMode": [null, null, null, null, null], "rewards": [2, -2, 5, 9, 44], "path": ["0", "0", "23", "24", "25", "30", "33"], "rt": [7166, 132, 32, 50, 183], "actions": ["left", "left", "left", "down", "left"], "actionTimes": [8039, 8676, 9209, 9763, 10444], "queries": {"click": {"state": {"target": ["20", "33"], "time": [1525, 4665]}, "edge": {"target": [], "time": []}}, "mouseover": {"state": {"target": ["12", "13", "14", "20", "19", "22", "33", "29"], "time": [993, 1010, 1024, 1368, 1736, 1770, 2069, 6693]}, "edge": {"target": [], "time": []}}, "mouseout": {"state": {"target": ["0", "12", "13", "14", "20", "19", "22", "33", "29", "25", "24"], "time": [988, 1008, 1021, 1036, 1719, 1769, 1786, 6375, 11480, 11716, 11746]}, "edge": {"target": [], "time": []}}}, "displayed_time": "14.88", "trialTime": 15294, "trial_type": "mouselab-mdp", "trial_index": 47, "time_elapsed": 1125689, "internal_node_id": "0.0-6.0-1.0-38.0"}}, {"uniqueid": "w89143715:a66676976", "current_trial": 48, "dateTime": 1693482196562, "trialdata": {"revealed_states": [], "clicked_states": ["11", "7", "31", "16", "18", "28", "32"], "num_clicks_accrued": [0, 0, 0, 0, 0, 0, 0, 0, 0, 0, 0, 0, 0], "stateRewards": ["", 2, -3, -4, -1, 25, -16, 16, 10, -71, -20, -55, 1, 3, -4, -9, 1, 32, 11, -6, 32, -50, -41, -1, 4, 4, -8, 7, -81, 70, 2, -52, 45, -10], "withholdReward": false, "trial_id": "mdp_trial_40", "block": "test", "trialIndex": 41, "score": 38.95, "costs": -15.05, "simulationMode": [null, null, null, null, null], "rewards": [-1, 4, 4, 2, 45], "path": ["0", "0", "23", "24", "25", "30", "32"], "rt": [23372, 7, 253, 12, 107], "actions": ["left", "left", "left", "down", "down"], "actionTimes": [24334, 24833, 25594, 26104, 26720], "queries": {"click": {"state": {"target": ["11", "7", "31", "16", "18", "28", "32"], "time": [1592, 4713, 8025, 11180, 14363, 17947, 21095]}, "edge": {"target": [], "time": []}}, "mouseover": {"state": {"target": ["11", "10", "23", "0", "18", "6", "7", "1", "23", "31", "23", "1", "16", "16", "15", "14", "18", "1", "28", "26", "29", "29", "26", "28", "30", "32", "32", "32", "21"], "time": [1404, 1887, 1970, 2922, 3239, 3606, 3940, 5107, 5140, 5256, 8476, 8509, 8860, 9345, 11795, 11879, 12346, 14781, 15015, 15115, 15465, 15766, 15883, 15999, 18385, 18434, 19203, 19671, 22905]}, "edge": {"target": [], "time": []}}, "mouseout": {"state": {"target": ["0", "12", "12", "0", "11", "11", "10", "23", "0", "18", "6", "7", "1", "23", "31", "23", "1", "7", "16", "16", "15", "14", "18", "1", "28", "26", "29", "29", "26", "28", "30", "32", "32", "32", "21"], "time": [371, 453, 554, 1107, 1674, 1837, 1904, 1987, 2939, 3339, 3890, 5090, 5123, 5173, 8104, 8493, 8526, 8659, 8943, 11779, 11829, 12146, 14748, 14815, 15065, 15449, 15499, 15867, 15949, 18284, 18418, 18468, 19253, 22488, 27192]}, "edge": {"target": [], "time": []}}}, "displayed_time": "27.21", "trialTime": 28146, "trial_type": "mouselab-mdp", "trial_index": 48, "time_elapsed": 1154102, "internal_node_id": "0.0-6.0-1.0-39.0"}}, {"uniqueid": "w89143715:a66676976", "current_trial": 49, "dateTime": 1693482234071, "trialdata": {"rt": 37497, "response": {"Q0": "$-2 to $2", "Q1": "$-32 to $32", "Q2": "$-88 to $88", "Q3": "The cost for clicking on nodes varied between nodes.", "Q4": "Slightly motivated"}, "question_order": [0, 1, 2, 3, 4], "trial_id": "final_quiz_control", "trial_type": "survey-multi-choice", "trial_index": 49, "time_elapsed": 1191612, "internal_node_id": "0.0-6.0-2.0"}}, {"uniqueid": "w89143715:a66676976", "current_trial": 50, "dateTime": 1693482416291, "trialdata": {"rt": 182213, "response": {"Q0": "At first, I was just clicking randomly which was costing me money. Then I realised that the further out the nodes, the higher the number but greater the cost of using the node detector. I realised it made sense for me to just click the outer nodes and find a green number as high as possible, then move the spider in that direction.", "Q1": "As above, it made sense to me to just select the outer node and go for one that was at least green/positive and above 30.", "Q2": "It took me a while to realise the structure of the web, that the value of the nodes increase as it went further out from the middle, and that the cost of the node inspector also increased. It was hard waiting to use the node inspector after clicking on the outer nodes as I just wanted to click another one but had to wait."}, "trial_id": "self_report_control", "trial_type": "survey-text", "trial_index": 50, "time_elapsed": 1373833, "internal_node_id": "0.0-6.0-3.0"}}, {"uniqueid": "w89143715:a66676976", "current_trial": 51, "dateTime": 1693482461063, "trialdata": {"rt": 44769, "response": {"Q0": "Agree", "Q1": "Disagree", "Q2": "Agree", "Q3": "Agree", "Q4": "Disagree", "Q5": "Agree", "Q6": "Disagree"}, "question_order": [0, 1, 2, 3, 4, 5, 6], "trial_id": "self_report_2", "trial_type": "survey-multi-choice", "trial_index": 51, "time_elapsed": 1418605, "internal_node_id": "0.0-6.0-4.0"}}, {"uniqueid": "w89143715:a66676976", "current_trial": 52, "dateTime": 1693482475915, "trialdata": {"rt": 14846, "response": {"gender": "female", "age": "30", "colorblind": "0", "effort": "0"}, "trial_type": "survey-html-form", "trial_index": 52, "time_elapsed": 1433457, "internal_node_id": "0.0-6.0-5.0"}}, {"uniqueid": "w89143715:a66676976", "current_trial": 53, "dateTime": 1693482536470, "trialdata": {"rt": 60551, "response": {"Q0": "The description on how to play was a lot to take in but it was quite fun otherwise. Also, the test rounds weren't quite the same as the actual rounds so it took a few rounds of the real game to get used to it. ", "Q1": "No, I've never played this before. ", "Q2": "None, thank you."}, "trial_type": "survey-text", "trial_index": 53, "time_elapsed": 1494012, "internal_node_id": "0.0-6.0-6.0"}}, {"uniqueid": "w89143715:a66676976", "current_trial": 54, "dateTime": 1693482556014, "trialdata": {"rt": 19541, "stimulus": "<h1>Completion Code Instructions (1/2)</h1>\n<br><br><br><br>\nYou have reached the end of the experiment! The completion code consists of two parts: (1) a code with 2 characters (2) a code with 6 characters. On this page, you will receive the second part of the code. The first part of the completion code will be on the next page.\n<br><br>\nThe second part of your completion code is: <b>EWEK22</b>\n<br><br>\nPlease note this down. Then, press 'Finish HIT' in order to find the first part of your completion code. Once the data has been saved, you will receive this code either in this window or in the original browser window where you started the experiment.\n", "response": 0, "trial_type": "html-button-response", "trial_index": 54, "time_elapsed": 1513555, "internal_node_id": "0.0-6.0-7.0"}}, {"uniqueid": "w89143715:a66676976", "current_trial": 55, "dateTime": 1693482557018, "trialdata": {"success": true, "trial_type": "fullscreen", "trial_index": 55, "time_elapsed": 1514559, "internal_node_id": "0.0-7.0"}}], "questiondata": {"params": {"CODE": "C6DMOQA6", "MIN_TIME": 14, "inspectCost": 1, "startTime": "Thu Aug 31 2023 12:24:01 GMT+0100 (British Summer Time)", "bonusRate": 0.002, "variance": "1_2_4_8_44", "branching": "31123"}, "final_score": 1541.9}, "eventdata": [{"eventtype": "initialized", "value": null, "timestamp": 1693481041448, "interval": 0}, {"eventtype": "window_resize", "value": [1024, 767], "timestamp": 1693481041448, "interval": 0}, {"eventtype": "window_resize", "value": [1024, 767], "timestamp": 1693481041758, "interval": 310}, {"eventtype": "window_resize", "value": [1920, 1080], "timestamp": 1693481045898, "interval": 4140}, {"eventtype": "focus", "value": "off", "timestamp": 1693481230750, "interval": 184852}, {"eventtype": "focus", "value": "on", "timestamp": 1693481237798, "interval": 7048}, {"eventtype": "focus", "value": "off", "timestamp": 1693481539007, "interval": 301209}, {"eventtype": "focus", "value": "on", "timestamp": 1693481547149, "interval": 8142}, {"eventtype": "focus", "value": "off", "timestamp": 1693481848496, "interval": 301347}, {"eventtype": "focus", "value": "on", "timestamp": 1693481850124, "interval": 1628}, {"eventtype": "focus", "value": "off", "timestamp": 1693482151003, "interval": 300879}, {"eventtype": "focus", "value": "on", "timestamp": 1693482151927, "interval": 924}, {"eventtype": "focus", "value": "off", "timestamp": 1693482452851, "interval": 300924}, {"eventtype": "focus", "value": "on", "timestamp": 1693482453539, "interval": 688}, {"eventtype": "window_resize", "value": [1024, 767], "timestamp": 1693482556240, "interval": 102701}], "useragent": "Mozilla/5.0 (Windows NT 10.0; Win64; x64) AppleWebKit/537.36 (KHTML, like Gecko) Chrome/116.0.0.0 Safari/537.36", "mode": "live", "id": "w89143715:a66676976", "status": "user data saved", "Beginhit": "2023-08-31 11:24:00.489821", "Beginexp": "2023-08-31 11:24:06.755951", "Endhit": "2023-08-31 11:49:17.466206", "psiturkStatus": 3, "browser": "<redacted>", "platform": "windows", "language": "en-GB"}