{"condition": 0, "counterbalance": 0, "assignmentId": "a39899322", "workerId": "w50672556", "hitId": "h71001470", "currenttrial": 55, "bonus": 0, "data": [{"uniqueid": "w50672556:a39899322", "current_trial": 0, "dateTime": 1693564838557, "trialdata": {"success": true, "trial_type": "fullscreen", "trial_index": 0, "time_elapsed": 35856, "internal_node_id": "0.0-0.0"}}, {"uniqueid": "w50672556:a39899322", "current_trial": 1, "dateTime": 1693564869824, "trialdata": {"view_history": [{"page_index": 0, "viewing_time": 31239}], "rt": 31242, "trial_id": "exp_instructions_control", "trial_type": "instructions", "trial_index": 1, "time_elapsed": 67125, "internal_node_id": "0.0-1.0"}}, {"uniqueid": "w50672556:a39899322", "current_trial": 2, "dateTime": 1693565290961, "trialdata": {"view_history": [{"page_index": 0, "viewing_time": 96694}, {"page_index": 1, "viewing_time": 1726}, {"page_index": 0, "viewing_time": 4402}, {"page_index": 1, "viewing_time": 142318}, {"page_index": 2, "viewing_time": 92113}, {"page_index": 3, "viewing_time": 83875}], "rt": 421130, "trial_id": "mouselab_instructions_1_control", "trial_type": "instructions", "trial_index": 2, "time_elapsed": 488261, "internal_node_id": "0.0-2.0-1.0"}}, {"uniqueid": "w50672556:a39899322", "current_trial": 3, "dateTime": 1693565407086, "trialdata": {"revealed_states": [], "clicked_states": ["2", "1", "3"], "num_clicks_accrued": [0, 0, 0, 0, 0, 0, 0, 0, 0, 0, 0, 0, 0], "stateRewards": ["", 10, 10, 10, -10, 10, 10, -10, -10, -10, -10, 10, 10, 10, 10, 10, 10, 10, -10, 10, 10, -10, 10, -10, -10, -10, -10, -10, -10, -10, -10, -10, 10, 10], "withholdReward": false, "trial_id": "practice_1", "block": "test", "trialIndex": 0, "score": 12, "costs": -1.5, "simulationMode": [null, null, null, null, null], "rewards": [10, 10, 10, -10, -10], "path": ["0", "0", "1", "2", "3", "8", "9"], "rt": [41499, 1739, 1959, 2532, 828], "actions": ["up", "up", "up", "left", "up"], "actionTimes": [47793, 50052, 52539, 55577, 56921], "queries": {"click": {"state": {"target": ["2", "1", "3"], "time": [13651, 21552, 29382]}, "edge": {"target": [], "time": []}}, "mouseover": {"state": {"target": ["1", "2", "1", "1", "2", "3", "6"], "time": [12522, 12683, 18447, 20998, 28564, 28865, 31131]}, "edge": {"target": [], "time": []}}, "mouseout": {"state": {"target": ["20", "19", "0", "1", "2", "1", "1", "2", "3", "6", "15", "8", "9", "7"], "time": [3568, 4403, 4900, 12599, 18283, 18531, 22943, 28594, 31082, 31168, 77754, 79614, 81125, 81269]}, "edge": {"target": [], "time": []}}}, "displayed_time": "57.44", "trialTime": 114038, "trial_type": "mouselab-mdp", "trial_index": 3, "time_elapsed": 604385, "internal_node_id": "0.0-2.0-2.0-0.0"}}, {"uniqueid": "w50672556:a39899322", "current_trial": 4, "dateTime": 1693565457945, "trialdata": {"revealed_states": [], "clicked_states": ["24", "26", "13", "15"], "num_clicks_accrued": [0, 0, 0, 0, 0, 0, 0, 0, 0, 0, 0, 0, 0], "stateRewards": ["", 10, 10, 10, -10, -10, -10, 10, -10, -10, 10, 10, -10, 10, -10, 10, 10, 10, 10, 10, -10, 10, 10, -10, -10, 10, -10, 10, -10, 10, -10, 10, 10, 10], "withholdReward": false, "trial_id": "practice_2", "block": "test", "trialIndex": 1, "score": 11.5, "costs": -2, "simulationMode": [null, null, null, null, null], "rewards": [-10, 10, -10, 10, 10], "path": ["0", "0", "12", "13", "14", "15", "18"], "rt": [32966, 754, 811, 1084, 1614], "actions": ["right", "right", "right", "up", "left"], "actionTimes": [35645, 36950, 38278, 39883, 41996], "queries": {"click": {"state": {"target": ["24", "26", "13", "15"], "time": [6553, 12111, 16590, 22739]}, "edge": {"target": [], "time": []}}, "mouseover": {"state": {"target": ["17", "14", "12", "23", "24", "26", "28", "12", "13", "15"], "time": [2718, 5187, 5250, 5337, 6137, 11284, 14595, 14882, 15181, 22231]}, "edge": {"target": [], "time": []}}, "mouseout": {"state": {"target": ["18", "17", "14", "12", "23", "24", "26", "28", "12", "13", "15"], "time": [1421, 2752, 5230, 5267, 5977, 10984, 14570, 14609, 15066, 22169, 24457]}, "edge": {"target": [], "time": []}}}, "displayed_time": "42.50", "trialTime": 49865, "trial_type": "mouselab-mdp", "trial_index": 4, "time_elapsed": 655244, "internal_node_id": "0.0-2.0-2.0-1.0"}}, {"uniqueid": "w50672556:a39899322", "current_trial": 5, "dateTime": 1693565562652, "trialdata": {"view_history": [{"page_index": 0, "viewing_time": 84330}, {"page_index": 1, "viewing_time": 20363}], "rt": 104694, "trial_id": "mouselab_instructions_2_control", "trial_type": "instructions", "trial_index": 5, "time_elapsed": 759953, "internal_node_id": "0.0-2.0-3.0"}}, {"uniqueid": "w50672556:a39899322", "current_trial": 6, "dateTime": 1693565609877, "trialdata": {"rt": 47198, "response": {"Q0": "The cost for clicking on nodes may vary between nodes.", "Q1": "The better I perform the higher my bonus will be.", "Q2": "No, the amount of cash at each node of the web may be different each time.", "Q3": "To get the highest total score.", "Q4": "Only before moving the spider.", "Q5": "3 seconds"}, "question_order": [0, 1, 2, 3, 4, 5], "correct": {"Q0": "The cost for clicking on nodes may vary between nodes.", "Q1": "The better I perform the higher my bonus will be.", "Q2": "No, the amount of cash at each node of the web may be different each time.", "Q3": "To get the highest total score.", "Q4": "Only before moving the spider.", "Q5": "3 seconds"}, "trial_id": "mouselab_quiz_control", "trial_type": "survey-multi-choice", "trial_index": 6, "time_elapsed": 807177, "internal_node_id": "0.0-2.0-4.0"}}, {"uniqueid": "w50672556:a39899322", "current_trial": 7, "dateTime": 1693565622064, "trialdata": {"rt": 12147, "response": {"Q0": "No"}, "question_order": [0], "trial_id": "repeat_check", "trial_type": "survey-multi-choice", "trial_index": 7, "time_elapsed": 819364, "internal_node_id": "0.0-4.0-0.0"}}, {"uniqueid": "w50672556:a39899322", "current_trial": 8, "dateTime": 1693565654346, "trialdata": {"rt": 32251, "stimulus": "\n<h1> Get ready to start the game! </h1>\n\nThank you for reading the instructions. Get ready start with the 40 rounds of this game.\n<br><br>\nIf you need to take a break, feel free to take one after the end of a round, before continuing to the next one.\n<br><br>\nRemember, the more money the spider gets, the bigger your bonus will be!\n<br><br>\n<div style='text-align: center;'>Press <code>space</code> to begin.</div>\n\n<br><br>\n(If, at any point, the <code>space</code> key does not take you to the next page, click once on the text and try again.)", "response": " ", "trial_id": "mdp_ready", "trial_type": "html-keyboard-response", "trial_index": 8, "time_elapsed": 851647, "internal_node_id": "0.0-6.0-0.0"}}, {"uniqueid": "w50672556:a39899322", "current_trial": 9, "dateTime": 1693565689934, "trialdata": {"revealed_states": [], "clicked_states": [], "num_clicks_accrued": [0, 0, 0, 0, 0, 0, 0, 0, 0, 0, 0, 0, 0], "stateRewards": ["", 1, -2, -2, 10, -31, -77, 35, 9, -47, 8, 48, -2, 1, -4, -3, -26, -50, 43, -11, 76, -38, 17, 1, -1, 6, 10, 15, -9, 12, -8, 85, 11, -55], "withholdReward": false, "trial_id": "mdp_trial_1", "block": "test", "trialIndex": 2, "score": -70, "costs": 0, "simulationMode": [null, null, null, null, null], "rewards": [1, -2, -2, 10, -77], "path": ["0", "0", "1", "2", "3", "4", "6"], "rt": [12034, 1506, 1021, 701, 248], "actions": ["up", "up", "up", "right", "right"], "actionTimes": [17100, 19132, 20670, 21880, 22639], "queries": {"click": {"state": {"target": [], "time": []}, "edge": {"target": [], "time": []}}, "mouseover": {"state": {"target": [], "time": []}, "edge": {"target": [], "time": []}}, "mouseout": {"state": {"target": ["14", "22", "0"], "time": [2407, 2913, 6073]}, "edge": {"target": [], "time": []}}}, "displayed_time": "23.16", "trialTime": 34639, "trial_type": "mouselab-mdp", "trial_index": 9, "time_elapsed": 887233, "internal_node_id": "0.0-6.0-1.0-0.0"}}, {"uniqueid": "w50672556:a39899322", "current_trial": 10, "dateTime": 1693565761899, "trialdata": {"revealed_states": [], "clicked_states": ["24", "30", "32"], "num_clicks_accrued": [0, 0, 0, 0, 0, 0, 0, 0, 0, 0, 0, 0, 0], "stateRewards": ["", -1, -4, -6, -15, 21, -67, -63, 9, 51, 69, -14, -1, 3, 8, -8, 39, 72, 63, 15, 19, 47, 15, 1, 4, 5, 16, -18, 34, 35, -14, -80, 40, 1], "withholdReward": false, "trial_id": "mdp_trial_2", "block": "test", "trialIndex": 3, "score": 31.8, "costs": -4.199999999999999, "simulationMode": [null, null, null, null, null], "rewards": [1, 4, 5, -14, 40], "path": ["0", "0", "23", "24", "25", "30", "32"], "rt": [10590, 1364, 1538, 1431, 1326], "actions": ["left", "left", "left", "down", "down"], "actionTimes": [13213, 15088, 17162, 19105, 20949], "queries": {"click": {"state": {"target": ["24", "30", "32"], "time": [4006, 6260, 9439]}, "edge": {"target": [], "time": []}}, "mouseover": {"state": {"target": ["23", "24", "30", "32"], "time": [3389, 3639, 5953, 8686]}, "edge": {"target": [], "time": []}}, "mouseout": {"state": {"target": ["0", "23", "24", "30", "30", "32"], "time": [3323, 3505, 5637, 6444, 8594, 10236]}, "edge": {"target": [], "time": []}}}, "displayed_time": "21.47", "trialTime": 70841, "trial_type": "mouselab-mdp", "trial_index": 10, "time_elapsed": 959198, "internal_node_id": "0.0-6.0-1.0-1.0"}}, {"uniqueid": "w50672556:a39899322", "current_trial": 11, "dateTime": 1693565889129, "trialdata": {"revealed_states": [], "clicked_states": ["13", "14", "15", "18"], "num_clicks_accrued": [0, 0, 0, 0, 0, 0, 0, 0, 0, 0, 0, 0, 0], "stateRewards": ["", 2, -1, 3, -12, -83, 6, -33, 9, 28, 24, -50, -2, -1, -2, -5, -87, 37, 82, 12, 80, -5, 10, -2, -3, -6, 9, 22, -1, 16, 9, 77, -62, 58], "withholdReward": false, "trial_id": "mdp_trial_3", "block": "test", "trialIndex": 4, "score": 66.4, "costs": -5.6, "simulationMode": [null, null, null, null, null], "rewards": [-2, -1, -2, -5, 82], "path": ["0", "0", "12", "13", "14", "15", "18"], "rt": [12911, 854, 728, 743, 664], "actions": ["right", "right", "right", "up", "left"], "actionTimes": [16010, 17391, 18630, 19894, 21082], "queries": {"click": {"state": {"target": ["13", "14", "15", "18"], "time": [4684, 7119, 9778, 12415]}, "edge": {"target": [], "time": []}}, "mouseover": {"state": {"target": ["12", "13", "14", "15", "18"], "time": [3734, 4371, 6634, 9270, 11999]}, "edge": {"target": [], "time": []}}, "mouseout": {"state": {"target": ["0", "12", "13", "14", "15", "18"], "time": [3688, 4270, 6589, 9183, 11890, 15005]}, "edge": {"target": [], "time": []}}}, "displayed_time": "21.63", "trialTime": 126151, "trial_type": "mouselab-mdp", "trial_index": 11, "time_elapsed": 1086429, "internal_node_id": "0.0-6.0-1.0-2.0"}}, {"uniqueid": "w50672556:a39899322", "current_trial": 12, "dateTime": 1693565937788, "trialdata": {"revealed_states": [], "clicked_states": ["1", "2", "3", "13", "18"], "num_clicks_accrued": [0, 0, 0, 0, 0, 0, 0, 0, 0, 0, 0, 0, 0], "stateRewards": ["", -2, -3, 1, -14, 48, -49, 67, -1, -35, -48, 3, -2, 1, -4, -5, 86, -84, 39, 1, 48, 41, -42, -1, -4, 2, -7, 18, -86, 17, 7, -9, 57, -69], "withholdReward": false, "trial_id": "mdp_trial_4", "block": "test", "trialIndex": 5, "score": 22, "costs": -7, "simulationMode": [null, null, null, null, null], "rewards": [-2, 1, -4, -5, 39], "path": ["0", "0", "12", "13", "14", "15", "18"], "rt": [14066, 470, 486, 551, 358], "actions": ["right", "right", "right", "up", "left"], "actionTimes": [22929, 23905, 24904, 25968, 26837], "queries": {"click": {"state": {"target": ["1", "2", "3", "13", "18"], "time": [10206, 12467, 14928, 17581, 20035]}, "edge": {"target": [], "time": []}}, "mouseover": {"state": {"target": ["1", "2", "3", "13", "18"], "time": [9618, 12166, 14567, 17182, 19649]}, "edge": {"target": [], "time": []}}, "mouseout": {"state": {"target": ["0", "1", "2", "3", "2", "13", "18"], "time": [9486, 11725, 14432, 16500, 16766, 19526, 22087]}, "edge": {"target": [], "time": []}}}, "displayed_time": "27.35", "trialTime": 47637, "trial_type": "mouselab-mdp", "trial_index": 12, "time_elapsed": 1135087, "internal_node_id": "0.0-6.0-1.0-3.0"}}, {"uniqueid": "w50672556:a39899322", "current_trial": 13, "dateTime": 1693565969215, "trialdata": {"revealed_states": [], "clicked_states": ["23", "25", "30", "32"], "num_clicks_accrued": [0, 0, 0, 0, 0, 0, 0, 0, 0, 0, 0, 0, 0], "stateRewards": ["", 1, -3, -6, -5, 47, 80, -29, 11, -71, 10, -29, -2, 3, -6, 12, 2, -78, -6, 8, 34, -16, -5, -1, 3, 3, -13, 84, -36, -62, -3, -27, 66, 15], "withholdReward": false, "trial_id": "mdp_trial_5", "block": "test", "trialIndex": 6, "score": 62.4, "costs": -5.6, "simulationMode": [null, null, null, null, null], "rewards": [-1, 3, 3, -3, 66], "path": ["0", "0", "23", "24", "25", "30", "32"], "rt": [12200, 635, 478, 534, 678], "actions": ["left", "left", "left", "down", "down"], "actionTimes": [15332, 16483, 17487, 18527, 19727], "queries": {"click": {"state": {"target": ["23", "25", "30", "32"], "time": [4387, 7502, 9895, 12335]}, "edge": {"target": [], "time": []}}, "mouseover": {"state": {"target": ["23", "24", "25", "30", "32", "31"], "time": [4001, 5587, 7245, 9364, 11917, 14476]}, "edge": {"target": [], "time": []}}, "mouseout": {"state": {"target": ["0", "23", "24", "25", "25", "30", "32"], "time": [3954, 5501, 7200, 7688, 9335, 11876, 12536]}, "edge": {"target": [], "time": []}}}, "displayed_time": "20.24", "trialTime": 30323, "trial_type": "mouselab-mdp", "trial_index": 13, "time_elapsed": 1166514, "internal_node_id": "0.0-6.0-1.0-4.0"}}, {"uniqueid": "w50672556:a39899322", "current_trial": 14, "dateTime": 1693566078961, "trialdata": {"revealed_states": [], "clicked_states": ["19", "13", "24", "32", "3", "11"], "num_clicks_accrued": [0, 0, 0, 0, 0, 0, 0, 0, 0, 0, 0, 0, 0], "stateRewards": ["", 2, 3, 8, 14, 69, -27, 17, 2, -71, -65, -10, 2, -3, 7, 8, 65, -10, 65, -12, 73, -12, 13, -2, -2, 6, 10, -79, -69, -18, 10, -85, 67, 74], "withholdReward": false, "trial_id": "mdp_trial_6", "block": "test", "trialIndex": 7, "score": 70.6, "costs": -8.4, "simulationMode": [null, null, null, null, null], "rewards": [-2, -2, 6, 10, 67], "path": ["0", "0", "23", "24", "25", "30", "32"], "rt": [17727, 183, 240, 191, 264], "actions": ["left", "left", "left", "down", "down"], "actionTimes": [89173, 89873, 90629, 91330, 92103], "queries": {"click": {"state": {"target": ["19", "13", "24", "32", "3", "11"], "time": [73092, 75771, 78550, 81114, 84025, 86570]}, "edge": {"target": [], "time": []}}, "mouseover": {"state": {"target": ["12", "13", "14", "19", "14", "13", "12", "0", "23", "24", "30", "32", "23", "10", "3", "8", "11", "23"], "time": [72072, 72138, 72240, 72686, 74822, 75096, 77826, 77859, 77907, 78104, 80518, 80769, 83157, 83321, 83553, 86001, 86170, 87451]}, "edge": {"target": [], "time": []}}, "mouseout": {"state": {"target": ["31", "0", "12", "13", "14", "19", "14", "13", "12", "0", "23", "24", "30", "32", "23", "10", "3", "8", "11", "23"], "time": [54706, 72056, 72104, 72188, 72606, 74324, 74838, 77812, 77853, 77873, 77970, 80480, 80576, 82188, 83171, 83402, 85965, 86104, 87269, 87496]}, "edge": {"target": [], "time": []}}}, "displayed_time": "92.62", "trialTime": 108740, "trial_type": "mouselab-mdp", "trial_index": 14, "time_elapsed": 1276260, "internal_node_id": "0.0-6.0-1.0-5.0"}}, {"uniqueid": "w50672556:a39899322", "current_trial": 15, "dateTime": 1693566155936, "trialdata": {"revealed_states": [], "clicked_states": ["5", "33", "32", "21", "18", "27", "28", "11", "9"], "num_clicks_accrued": [0, 0, 0, 0, 0, 0, 0, 0, 0, 0, 0, 0, 0], "stateRewards": ["", 2, 3, -1, 16, -78, -11, 46, 2, -20, 79, -67, 2, 3, 2, 11, -83, -42, -58, -11, -67, -22, 55, 2, -1, -1, -16, -83, -82, 23, -11, -29, 13, 13], "withholdReward": false, "trial_id": "mdp_trial_7", "block": "test", "trialIndex": 8, "score": 72.4, "costs": -12.600000000000001, "simulationMode": [null, null, null, null, null], "rewards": [2, 3, -1, 2, 79], "path": ["0", "0", "1", "2", "3", "8", "10"], "rt": [28185, 277, 315, 244, 574], "actions": ["up", "up", "up", "left", "down"], "actionTimes": [31257, 32068, 32923, 33684, 34780], "queries": {"click": {"state": {"target": ["5", "33", "32", "21", "18", "27", "28", "11", "9"], "time": [5000, 7840, 10569, 13326, 16208, 19300, 22414, 25307, 28237]}, "edge": {"target": [], "time": []}}, "mouseover": {"state": {"target": ["1", "2", "3", "4", "5", "3", "25", "30", "33", "30", "31", "32", "21", "19", "14", "18", "29", "27", "24", "28", "23", "23", "10", "11", "23", "10", "8", "9", "8", "10"], "time": [3812, 4029, 4227, 4298, 4628, 6829, 7048, 7145, 7391, 9367, 9579, 10091, 12775, 15440, 15509, 15788, 18471, 18910, 20557, 21660, 23577, 24571, 24657, 24855, 26409, 27521, 27589, 27852, 29011, 29057]}, "edge": {"target": [], "time": []}}, "mouseout": {"state": {"target": ["0", "1", "2", "3", "4", "5", "3", "25", "30", "33", "30", "31", "32", "21", "19", "14", "18", "29", "27", "24", "28", "23", "23", "10", "11", "23", "10", "8", "9", "8", "10"], "time": [3713, 3930, 4127, 4263, 4313, 6795, 6844, 7096, 7159, 9311, 9474, 9790, 11375, 15417, 15476, 15557, 18288, 18788, 20457, 20691, 23540, 23600, 24610, 24672, 26223, 26476, 27557, 27774, 28988, 29033, 29081]}, "edge": {"target": [], "time": []}}}, "displayed_time": "35.29", "trialTime": 75962, "trial_type": "mouselab-mdp", "trial_index": 15, "time_elapsed": 1353235, "internal_node_id": "0.0-6.0-1.0-6.0"}}, {"uniqueid": "w50672556:a39899322", "current_trial": 16, "dateTime": 1693566223787, "trialdata": {"revealed_states": [], "clicked_states": ["24", "32", "21"], "num_clicks_accrued": [0, 0, 0, 0, 0, 0, 0, 0, 0, 0, 0, 0, 0], "stateRewards": ["", 2, 3, 3, 10, 19, -21, 6, 9, 54, 68, 16, 2, 2, -6, -8, 40, -2, -75, -2, -42, 55, 59, -1, 2, 4, -14, 11, -34, -30, -6, 61, -53, 13], "withholdReward": false, "trial_id": "mdp_trial_8", "block": "test", "trialIndex": 9, "score": 46.8, "costs": -4.199999999999999, "simulationMode": [null, null, null, null, null], "rewards": [2, 2, -6, -2, 55], "path": ["0", "0", "12", "13", "14", "19", "21"], "rt": [8211, 295, 307, 236, 381], "actions": ["right", "right", "right", "down", "down"], "actionTimes": [52343, 53149, 54009, 54758, 55652], "queries": {"click": {"state": {"target": ["24", "32", "21"], "time": [45385, 47154, 49287]}, "edge": {"target": [], "time": []}}, "mouseover": {"state": {"target": ["23", "24", "30", "32", "21", "19", "14", "15", "12"], "time": [44770, 44970, 46454, 46674, 48734, 50752, 50956, 51251, 51686]}, "edge": {"target": [], "time": []}}, "mouseout": {"state": {"target": ["0", "23", "24", "30", "32", "21", "19", "14", "15", "12"], "time": [43108, 44903, 46387, 46557, 47347, 49466, 50849, 51167, 51483, 51772]}, "edge": {"target": [], "time": []}}}, "displayed_time": "58.14", "trialTime": 66701, "trial_type": "mouselab-mdp", "trial_index": 16, "time_elapsed": 1421085, "internal_node_id": "0.0-6.0-1.0-7.0"}}, {"uniqueid": "w50672556:a39899322", "current_trial": 17, "dateTime": 1693566262628, "trialdata": {"revealed_states": [], "clicked_states": ["27", "32", "21", "29", "16"], "num_clicks_accrued": [0, 0, 0, 0, 0, 0, 0, 0, 0, 0, 0, 0, 0], "stateRewards": ["", -1, 2, -2, 13, -56, -28, 10, 14, 53, -80, -29, 1, -3, -3, -14, 14, 9, -40, -9, 18, 18, 48, 1, 1, 1, -9, 64, -39, -9, 7, -52, -78, 7], "withholdReward": false, "trial_id": "mdp_trial_9", "block": "test", "trialIndex": 10, "score": 51, "costs": -7, "simulationMode": [null, null, null, null, null], "rewards": [1, 1, 1, -9, 64], "path": ["0", "0", "23", "24", "25", "26", "27"], "rt": [16491, 455, 481, 368, 494], "actions": ["left", "left", "left", "up", "up"], "actionTimes": [20290, 21266, 22256, 23154, 24153], "queries": {"click": {"state": {"target": ["27", "32", "21", "29", "16"], "time": [5471, 8815, 11592, 14725, 17448]}, "edge": {"target": [], "time": []}}, "mouseover": {"state": {"target": ["23", "28", "27", "26", "25", "30", "32", "21", "31", "29", "26", "18", "16", "12"], "time": [4618, 4692, 5058, 6249, 6337, 6661, 7056, 11160, 13907, 14322, 15220, 16894, 16944, 18311]}, "edge": {"target": [], "time": []}}, "mouseout": {"state": {"target": ["22", "0", "23", "28", "27", "26", "25", "30", "32", "21", "31", "29", "26", "18", "16", "16", "12"], "time": [933, 4603, 4641, 4759, 6213, 6286, 6528, 6869, 10109, 12658, 13922, 15211, 15284, 16938, 17633, 18274, 18333]}, "edge": {"target": [], "time": []}}}, "displayed_time": "24.66", "trialTime": 37637, "trial_type": "mouselab-mdp", "trial_index": 17, "time_elapsed": 1459927, "internal_node_id": "0.0-6.0-1.0-8.0"}}, {"uniqueid": "w50672556:a39899322", "current_trial": 18, "dateTime": 1693566330093, "trialdata": {"revealed_states": [], "clicked_states": ["5", "6", "9", "29", "32", "17"], "num_clicks_accrued": [0, 0, 0, 0, 0, 0, 0, 0, 0, 0, 0, 0, 0], "stateRewards": ["", 1, 3, 1, -13, 52, -28, 67, -14, 3, 63, -70, -1, -4, 7, -11, -10, 47, -18, 6, 69, -9, -61, 2, 3, -6, 10, 63, -34, 40, -6, -79, -35, -32], "withholdReward": false, "trial_id": "mdp_trial_10", "block": "test", "trialIndex": 11, "score": 35.6, "costs": -8.4, "simulationMode": [null, null, null, null, null], "rewards": [1, 3, 1, -13, 52], "path": ["0", "0", "1", "2", "3", "4", "5"], "rt": [18294, 353, 462, 424, 537], "actions": ["up", "up", "up", "right", "up"], "actionTimes": [21299, 22160, 23134, 24094, 25143], "queries": {"click": {"state": {"target": ["5", "6", "9", "29", "32", "17"], "time": [4298, 6947, 9542, 12197, 15344, 18452]}, "edge": {"target": [], "time": []}}, "mouseover": {"state": {"target": ["4", "5", "6", "4", "3", "8", "9", "8", "27", "29", "30", "32", "13", "17"], "time": [3720, 3836, 6164, 8551, 8585, 8792, 9052, 10947, 11555, 11768, 14557, 14981, 17495, 17969]}, "edge": {"target": [], "time": []}}, "mouseout": {"state": {"target": ["0", "4", "5", "6", "4", "3", "8", "9", "8", "27", "29", "30", "32", "13", "17"], "time": [3561, 3757, 5526, 8519, 8568, 8602, 8954, 10721, 11084, 11569, 13988, 14670, 15532, 17517, 19082]}, "edge": {"target": [], "time": []}}}, "displayed_time": "25.66", "trialTime": 66273, "trial_type": "mouselab-mdp", "trial_index": 18, "time_elapsed": 1527392, "internal_node_id": "0.0-6.0-1.0-9.0"}}, {"uniqueid": "w50672556:a39899322", "current_trial": 19, "dateTime": 1693566395532, "trialdata": {"revealed_states": [], "clicked_states": ["27", "17", "21", "9", "33", "6"], "num_clicks_accrued": [0, 0, 0, 0, 0, 0, 0, 0, 0, 0, 0, 0, 0], "stateRewards": ["", -1, 2, 5, -6, 13, -64, -47, 8, -79, -80, -33, 1, 2, -2, -16, 56, -71, -10, 3, 29, 44, 85, -1, 4, 5, 4, -36, -56, 19, 8, 52, -13, -2], "withholdReward": false, "trial_id": "mdp_trial_11", "block": "test", "trialIndex": 12, "score": 39.6, "costs": -8.4, "simulationMode": [null, null, null, null, null], "rewards": [1, 2, -2, 3, 44], "path": ["0", "0", "12", "13", "14", "19", "21"], "rt": [19152, 193, 374, 426, 363], "actions": ["right", "right", "right", "down", "down"], "actionTimes": [22424, 23135, 24030, 24983, 25852], "queries": {"click": {"state": {"target": ["27", "17", "21", "9", "33", "6"], "time": [4440, 6680, 9678, 13152, 16372, 19444]}, "edge": {"target": [], "time": []}}, "mouseover": {"state": {"target": ["1", "27", "10", "2", "7", "15", "17", "21", "19", "18", "7", "3", "9", "8", "10", "31", "33", "30", "31", "7", "6", "12"], "time": [3675, 4079, 4903, 4985, 5096, 5375, 5676, 9162, 12093, 12190, 12382, 12457, 12755, 14143, 14228, 15491, 16023, 16898, 16927, 18740, 19073, 20521]}, "edge": {"target": [], "time": []}}, "mouseout": {"state": {"target": ["14", "13", "12", "0", "1", "27", "10", "2", "7", "15", "17", "21", "19", "18", "7", "3", "9", "8", "10", "31", "33", "30", "31", "7", "6", "12"], "time": [1161, 1244, 1409, 3596, 3737, 4827, 4962, 5089, 5132, 5462, 7591, 10623, 12129, 12273, 12421, 12554, 14106, 14181, 14264, 15586, 16890, 16921, 16959, 18784, 20355, 20558]}, "edge": {"target": [], "time": []}}}, "displayed_time": "26.36", "trialTime": 64000, "trial_type": "mouselab-mdp", "trial_index": 19, "time_elapsed": 1592831, "internal_node_id": "0.0-6.0-1.0-10.0"}}, {"uniqueid": "w50672556:a39899322", "current_trial": 20, "dateTime": 1693566430885, "trialdata": {"revealed_states": [], "clicked_states": ["32", "16", "11", "6"], "num_clicks_accrued": [0, 0, 0, 0, 0, 0, 0, 0, 0, 0, 0, 0, 0], "stateRewards": ["", 2, -4, 1, -12, -59, -53, -74, 16, -88, -66, 66, 1, -2, 8, -9, -14, 22, 25, -1, -39, 47, -14, -1, -1, -2, 1, -4, 52, -26, 15, -7, 46, 43], "withholdReward": false, "trial_id": "mdp_trial_12", "block": "test", "trialIndex": 13, "score": 75.4, "costs": -5.6, "simulationMode": [null, null, null, null, null], "rewards": [2, -4, 1, 16, 66], "path": ["0", "0", "1", "2", "3", "8", "11"], "rt": [14054, 212, 217, 275, 304], "actions": ["up", "up", "up", "left", "left"], "actionTimes": [15845, 16627, 17365, 18155, 18970], "queries": {"click": {"state": {"target": ["32", "16", "11", "6"], "time": [4370, 7148, 9498, 12669]}, "edge": {"target": [], "time": []}}, "mouseover": {"state": {"target": ["32", "13", "14", "17", "16", "2", "10", "11", "2", "4", "6", "0"], "time": [4036, 5683, 5764, 6001, 6691, 8080, 8162, 8365, 11835, 11911, 12234, 14866]}, "edge": {"target": [], "time": []}}, "mouseout": {"state": {"target": ["0", "32", "13", "14", "17", "16", "2", "10", "11", "11", "2", "4", "6", "0"], "time": [798, 4563, 5741, 5858, 6198, 7990, 8140, 8184, 9682, 10264, 11871, 11945, 14779, 14892]}, "edge": {"target": [], "time": []}}}, "displayed_time": "19.48", "trialTime": 34093, "trial_type": "mouselab-mdp", "trial_index": 20, "time_elapsed": 1628184, "internal_node_id": "0.0-6.0-1.0-11.0"}}, {"uniqueid": "w50672556:a39899322", "current_trial": 21, "dateTime": 1693566469370, "trialdata": {"revealed_states": [], "clicked_states": ["32", "21", "10", "29", "17", "20"], "num_clicks_accrued": [0, 0, 0, 0, 0, 0, 0, 0, 0, 0, 0, 0, 0], "stateRewards": ["", -1, -3, -6, 14, 41, 18, 63, -14, 80, 21, 17, -2, -4, -2, -5, 13, 70, 8, -4, -64, -10, -20, 2, -1, 4, -1, -17, -55, 42, -7, 47, 54, 15], "withholdReward": false, "trial_id": "mdp_trial_13", "block": "test", "trialIndex": 14, "score": 48.6, "costs": -8.4, "simulationMode": [null, null, null, null, null], "rewards": [-2, -4, -2, -5, 70], "path": ["0", "0", "12", "13", "14", "15", "17"], "rt": [19151, 451, 508, 705, 854], "actions": ["right", "right", "right", "up", "right"], "actionTimes": [21641, 22611, 23635, 24865, 26239], "queries": {"click": {"state": {"target": ["32", "21", "10", "29", "17", "20"], "time": [4333, 7046, 10001, 13139, 16222, 19010]}, "edge": {"target": [], "time": []}}, "mouseover": {"state": {"target": ["31", "30", "32", "22", "19", "21", "21", "22", "12", "4", "9", "10", "23", "25", "29", "17", "20"], "time": [3477, 3530, 3895, 5015, 5061, 6027, 6760, 7937, 8014, 9012, 9074, 9459, 11234, 12379, 12778, 15858, 18438]}, "edge": {"target": [], "time": []}}, "mouseout": {"state": {"target": ["0", "31", "30", "32", "22", "19", "21", "21", "22", "12", "4", "9", "10", "23", "25", "29", "17", "17", "20"], "time": [2559, 3524, 3548, 4897, 5038, 5132, 6258, 7880, 7959, 8070, 9046, 9096, 11143, 11274, 12409, 15393, 16406, 18241, 28842]}, "edge": {"target": [], "time": []}}}, "displayed_time": "26.76", "trialTime": 37231, "trial_type": "mouselab-mdp", "trial_index": 21, "time_elapsed": 1666669, "internal_node_id": "0.0-6.0-1.0-12.0"}}, {"uniqueid": "w50672556:a39899322", "current_trial": 22, "dateTime": 1693566515595, "trialdata": {"revealed_states": [], "clicked_states": ["32", "22", "16", "11", "3", "8"], "num_clicks_accrued": [0, 0, 0, 0, 0, 0, 0, 0, 0, 0, 0, 0, 0], "stateRewards": ["", -1, -3, -3, 1, -38, 2, -53, -2, -1, -81, 70, -1, 1, -5, -9, 46, 15, 35, -1, -22, 38, 59, -2, 4, -8, 13, 1, -83, -43, 4, 76, 13, 48], "withholdReward": false, "trial_id": "mdp_trial_14", "block": "test", "trialIndex": 15, "score": 52.6, "costs": -8.4, "simulationMode": [null, null, null, null, null], "rewards": [-1, -3, -3, -2, 70], "path": ["0", "0", "1", "2", "3", "8", "11"], "rt": [21894, 658, 570, 618, 484], "actions": ["up", "up", "up", "left", "left"], "actionTimes": [31566, 32767, 33866, 34995, 35994], "queries": {"click": {"state": {"target": ["32", "22", "16", "11", "3", "8"], "time": [11445, 14342, 17286, 20315, 23633, 27303]}, "edge": {"target": [], "time": []}}, "mouseover": {"state": {"target": ["32", "10", "8", "3", "7", "18", "13", "19", "22", "15", "16", "3", "8", "11", "28", "10", "3", "8", "8", "1", "0", "0"], "time": [10954, 12434, 12601, 13078, 13143, 13523, 13587, 13617, 14004, 16708, 16925, 19647, 19761, 19959, 22458, 23008, 23272, 25977, 27062, 28051, 29863, 30121]}, "edge": {"target": [], "time": []}}, "mouseout": {"state": {"target": ["20", "22", "0", "32", "10", "8", "3", "7", "18", "13", "19", "22", "15", "16", "3", "8", "11", "28", "10", "3", "8", "8", "1", "0", "0"], "time": [2631, 2879, 8568, 12328, 12477, 12947, 13094, 13176, 13579, 13610, 13928, 16593, 16809, 19585, 19692, 19894, 22284, 22990, 23064, 25926, 26075, 28009, 28076, 29910, 30169]}, "edge": {"target": [], "time": []}}}, "displayed_time": "36.51", "trialTime": 44917, "trial_type": "mouselab-mdp", "trial_index": 22, "time_elapsed": 1712894, "internal_node_id": "0.0-6.0-1.0-13.0"}}, {"uniqueid": "w50672556:a39899322", "current_trial": 23, "dateTime": 1693566576606, "trialdata": {"revealed_states": [], "clicked_states": ["6", "33", "20", "19", "13"], "num_clicks_accrued": [0, 0, 0, 0, 0, 0, 0, 0, 0, 0, 0, 0, 0], "stateRewards": ["", -1, -3, 1, -4, -48, -63, -49, -2, -84, -19, 65, 2, -2, -2, -12, -4, 59, 9, 6, 75, 69, -13, -1, -3, -3, -2, -37, -68, -36, 13, 32, 18, -14], "withholdReward": false, "trial_id": "mdp_trial_15", "block": "test", "trialIndex": 16, "score": 72, "costs": -7, "simulationMode": [null, null, null, null, null], "rewards": [2, -2, -2, 6, 75], "path": ["0", "0", "12", "13", "14", "19", "20"], "rt": [19336, 648, 778, 826, 704], "actions": ["right", "right", "right", "down", "right"], "actionTimes": [22245, 23404, 24698, 26077, 27291], "queries": {"click": {"state": {"target": ["6", "33", "20", "19", "13"], "time": [4541, 6853, 9368, 13126, 15652]}, "edge": {"target": [], "time": []}}, "mouseover": {"state": {"target": ["7", "6", "33", "33", "33", "30", "31", "19", "20", "14", "13", "18", "14", "19", "13", "14"], "time": [3786, 4155, 5550, 5739, 6233, 7897, 7979, 8553, 9041, 11552, 11657, 11814, 12234, 12684, 14734, 16972]}, "edge": {"target": [], "time": []}}, "mouseout": {"state": {"target": ["0", "7", "6", "33", "33", "33", "30", "31", "19", "20", "14", "13", "18", "14", "19", "13", "14"], "time": [3675, 3987, 5421, 5572, 5762, 7839, 7955, 8003, 8669, 11446, 11569, 11720, 12002, 12667, 14403, 16939, 17123]}, "edge": {"target": [], "time": []}}}, "displayed_time": "27.83", "trialTime": 59714, "trial_type": "mouselab-mdp", "trial_index": 23, "time_elapsed": 1773905, "internal_node_id": "0.0-6.0-1.0-14.0"}}, {"uniqueid": "w50672556:a39899322", "current_trial": 24, "dateTime": 1693566613125, "trialdata": {"revealed_states": [], "clicked_states": ["23", "32", "27", "28", "26", "25"], "num_clicks_accrued": [0, 0, 0, 0, 0, 0, 0, 0, 0, 0, 0, 0, 0], "stateRewards": ["", -1, -4, 8, 8, -68, 47, 24, -7, -61, 49, -69, -1, -1, 8, -7, 42, 1, -45, -11, 10, -63, -6, 1, 4, 6, -16, 79, -37, -58, -12, 81, 18, -53], "withholdReward": false, "trial_id": "mdp_trial_16", "block": "test", "trialIndex": 17, "score": 65.6, "costs": -8.4, "simulationMode": [null, null, null, null, null], "rewards": [1, 4, 6, -16, 79], "path": ["0", "0", "23", "24", "25", "26", "27"], "rt": [20356, 420, 541, 594, 352], "actions": ["left", "left", "left", "up", "up"], "actionTimes": [26324, 27265, 28313, 29422, 30348], "queries": {"click": {"state": {"target": ["23", "32", "27", "28", "26", "25"], "time": [7371, 9379, 11945, 14336, 17195, 21414]}, "edge": {"target": [], "time": []}}, "mouseover": {"state": {"target": ["23", "31", "32", "24", "27", "28", "23", "28", "26", "31", "31", "24", "25", "24"], "time": [6932, 8006, 8488, 11287, 11536, 12488, 12573, 13863, 16690, 17834, 19745, 19866, 21119, 22470]}, "edge": {"target": [], "time": []}}, "mouseout": {"state": {"target": ["13", "12", "0", "0", "23", "31", "32", "24", "27", "28", "23", "28", "26", "31", "31", "24", "25", "24"], "time": [4672, 4721, 4803, 4969, 7961, 8066, 10240, 11340, 12446, 12513, 12792, 16389, 17740, 17859, 19813, 19990, 21607, 22509]}, "edge": {"target": [], "time": []}}}, "displayed_time": "30.85", "trialTime": 35148, "trial_type": "mouselab-mdp", "trial_index": 24, "time_elapsed": 1810424, "internal_node_id": "0.0-6.0-1.0-15.0"}}, {"uniqueid": "w50672556:a39899322", "current_trial": 25, "dateTime": 1693566645467, "trialdata": {"revealed_states": [], "clicked_states": ["6", "11", "5", "7", "2"], "num_clicks_accrued": [0, 0, 0, 0, 0, 0, 0, 0, 0, 0, 0, 0, 0], "stateRewards": ["", 2, -2, -8, 9, -20, 55, -58, 14, 42, 2, 36, 1, -3, -5, 5, -58, 57, 60, 16, 57, 30, -70, -2, 1, 3, 10, 59, 23, 77, -13, -26, 88, -72], "withholdReward": false, "trial_id": "mdp_trial_17", "block": "test", "trialIndex": 18, "score": 49, "costs": -7, "simulationMode": [null, null, null, null, null], "rewards": [2, -2, -8, 9, 55], "path": ["0", "0", "1", "2", "3", "4", "6"], "rt": [19340, 582, 564, 811, 783], "actions": ["up", "up", "up", "right", "right"], "actionTimes": [21471, 22566, 23651, 25009, 26313], "queries": {"click": {"state": {"target": ["6", "11", "5", "7", "2"], "time": [4401, 7395, 10224, 12942, 15841]}, "edge": {"target": [], "time": []}}, "mouseover": {"state": {"target": ["1", "7", "6", "4", "4", "6", "4", "3", "8", "11", "5", "4", "7", "2", "2", "6"], "time": [2750, 2819, 3097, 3333, 3781, 4083, 5591, 5679, 5761, 6363, 9666, 11945, 12378, 15096, 15265, 17951]}, "edge": {"target": [], "time": []}}, "mouseout": {"state": {"target": ["0", "1", "7", "6", "4", "4", "6", "4", "3", "8", "11", "5", "5", "4", "7", "2", "2", "6"], "time": [2702, 2796, 2893, 3280, 3432, 3828, 5565, 5648, 5703, 6113, 9462, 10409, 11878, 12181, 13126, 15137, 16028, 17989]}, "edge": {"target": [], "time": []}}}, "displayed_time": "26.83", "trialTime": 31139, "trial_type": "mouselab-mdp", "trial_index": 25, "time_elapsed": 1842766, "internal_node_id": "0.0-6.0-1.0-16.0"}}, {"uniqueid": "w50672556:a39899322", "current_trial": 26, "dateTime": 1693566679320, "trialdata": {"revealed_states": [], "clicked_states": ["22", "18", "17", "29", "31", "6", "11"], "num_clicks_accrued": [0, 0, 0, 0, 0, 0, 0, 0, 0, 0, 0, 0, 0], "stateRewards": ["", 1, -3, -2, 14, 49, -40, -39, 2, 26, -61, 73, 1, -4, -8, 12, 79, 29, -65, -13, 55, -26, 27, -1, 3, 3, 9, -17, -60, -18, -8, 35, -88, 69], "withholdReward": false, "trial_id": "mdp_trial_18", "block": "test", "trialIndex": 19, "score": 61.2, "costs": -9.8, "simulationMode": [null, null, null, null, null], "rewards": [1, -3, -2, 2, 73], "path": ["0", "0", "1", "2", "3", "8", "11"], "rt": [21821, 1184, 487, 391, 501], "actions": ["up", "up", "up", "left", "left"], "actionTimes": [26207, 27922, 28932, 29836, 30846], "queries": {"click": {"state": {"target": ["22", "18", "17", "29", "31", "6", "11"], "time": [5735, 8327, 10686, 13527, 15843, 18720, 22076]}, "edge": {"target": [], "time": []}}, "mouseover": {"state": {"target": ["12", "13", "14", "19", "22", "13", "18", "15", "17", "28", "26", "29", "25", "31", "23", "1", "7", "6", "4", "2", "8", "11"], "time": [4452, 4529, 4635, 4930, 5317, 7455, 7819, 9879, 10143, 12845, 12911, 13094, 14759, 15096, 17820, 17867, 17910, 18428, 20408, 20858, 21058, 21756]}, "edge": {"target": [], "time": []}}, "mouseout": {"state": {"target": ["6", "16", "12", "12", "13", "14", "19", "22", "13", "18", "15", "17", "28", "26", "29", "29", "25", "31", "23", "1", "7", "6", "4", "2", "8", "11", "11"], "time": [1042, 2825, 3095, 4513, 4585, 4728, 5199, 7383, 7599, 9789, 9963, 12516, 12862, 13010, 13746, 14699, 14855, 17762, 17860, 17892, 17948, 18893, 20427, 20925, 21709, 22261, 24608]}, "edge": {"target": [], "time": []}}}, "displayed_time": "31.36", "trialTime": 32725, "trial_type": "mouselab-mdp", "trial_index": 26, "time_elapsed": 1876618, "internal_node_id": "0.0-6.0-1.0-17.0"}}, {"uniqueid": "w50672556:a39899322", "current_trial": 27, "dateTime": 1693566721894, "trialdata": {"revealed_states": [], "clicked_states": ["32", "21", "5", "9", "29", "33", "31"], "num_clicks_accrued": [0, 0, 0, 0, 0, 0, 0, 0, 0, 0, 0, 0, 0], "stateRewards": ["", 1, -3, 4, 13, -72, 52, 5, 5, -58, 5, 14, 2, 1, 3, -14, -86, -4, 73, 6, -58, -50, 49, 2, -3, -4, 2, 33, -41, 42, -11, 81, 45, 53], "withholdReward": false, "trial_id": "mdp_trial_19", "block": "test", "trialIndex": 20, "score": 55.2, "costs": -9.8, "simulationMode": [null, null, null, null, null], "rewards": [2, -3, -4, -11, 81], "path": ["0", "0", "23", "24", "25", "30", "31"], "rt": [21147, 687, 696, 752, 695], "actions": ["left", "left", "left", "down", "right"], "actionTimes": [26838, 28052, 29258, 30532, 31739], "queries": {"click": {"state": {"target": ["32", "21", "5", "9", "29", "33", "31"], "time": [7498, 9864, 12566, 15114, 17850, 20463, 23618]}, "edge": {"target": [], "time": []}}, "mouseover": {"state": {"target": ["23", "24", "25", "30", "32", "21", "18", "4", "5", "9", "8", "10", "28", "26", "29", "33", "30", "31", "31"], "time": [6433, 6516, 6700, 6881, 7087, 9218, 11818, 12032, 12216, 14502, 16257, 16304, 17144, 17231, 17415, 19878, 22281, 22365, 23282]}, "edge": {"target": [], "time": []}}, "mouseout": {"state": {"target": ["0", "23", "24", "25", "30", "32", "21", "18", "4", "5", "9", "8", "10", "28", "26", "29", "33", "30", "31", "31", "32", "33"], "time": [6415, 6468, 6631, 6855, 6968, 8489, 11736, 11840, 12136, 14461, 16233, 16281, 16329, 17170, 17331, 19715, 20644, 22325, 22763, 24144, 37706, 38093]}, "edge": {"target": [], "time": []}}}, "displayed_time": "32.27", "trialTime": 41251, "trial_type": "mouselab-mdp", "trial_index": 27, "time_elapsed": 1919192, "internal_node_id": "0.0-6.0-1.0-18.0"}}, {"uniqueid": "w50672556:a39899322", "current_trial": 28, "dateTime": 1693566761666, "trialdata": {"revealed_states": [], "clicked_states": ["32", "5", "21", "20", "11", "6", "27"], "num_clicks_accrued": [0, 0, 0, 0, 0, 0, 0, 0, 0, 0, 0, 0, 0], "stateRewards": ["", -1, -2, 8, -6, -79, -6, 87, 9, -5, -66, -38, 2, 2, 5, -6, -82, 74, 85, -8, 67, -30, -15, 1, -2, -2, -2, 87, 64, 49, 7, 2, -38, -9], "withholdReward": false, "trial_id": "mdp_trial_20", "block": "test", "trialIndex": 21, "score": 72.2, "costs": -9.8, "simulationMode": [null, null, null, null, null], "rewards": [1, -2, -2, -2, 87], "path": ["0", "0", "23", "24", "25", "26", "27"], "rt": [25140, 566, 744, 636, 838], "actions": ["left", "left", "left", "up", "up"], "actionTimes": [29031, 30111, 31356, 32512, 33864], "queries": {"click": {"state": {"target": ["32", "5", "21", "20", "11", "6", "27"], "time": [5623, 8105, 10841, 13329, 16081, 19292, 23087]}, "edge": {"target": [], "time": []}}, "mouseover": {"state": {"target": ["31", "32", "3", "5", "4", "13", "21", "20", "13", "12", "1", "10", "11", "8", "3", "4", "6", "10", "27", "28", "23"], "time": [4905, 5259, 6211, 6786, 9648, 9829, 10360, 12823, 15102, 15143, 15197, 15360, 15626, 18455, 18506, 18595, 18948, 22305, 22624, 24418, 24468]}, "edge": {"target": [], "time": []}}, "mouseout": {"state": {"target": ["23", "0", "0", "31", "32", "3", "5", "5", "4", "13", "21", "20", "13", "12", "1", "10", "11", "8", "3", "4", "6", "10", "27", "28", "23"], "time": [2080, 2354, 4844, 4981, 6131, 6237, 8291, 9628, 9677, 9916, 11028, 15053, 15125, 15160, 15225, 15430, 18430, 18499, 18525, 18842, 22261, 22325, 24377, 24443, 24492]}, "edge": {"target": [], "time": []}}}, "displayed_time": "34.38", "trialTime": 38649, "trial_type": "mouselab-mdp", "trial_index": 28, "time_elapsed": 1958965, "internal_node_id": "0.0-6.0-1.0-19.0"}}, {"uniqueid": "w50672556:a39899322", "current_trial": 29, "dateTime": 1693566786108, "trialdata": {"revealed_states": [], "clicked_states": ["32", "5"], "num_clicks_accrued": [0, 0, 0, 0, 0, 0, 0, 0, 0, 0, 0, 0, 0], "stateRewards": ["", -2, 2, -5, 1, 42, -63, -58, -6, 2, 16, 81, -2, 4, 7, -10, 33, 3, -33, -2, -52, -84, -27, 2, -3, -3, 15, -74, -14, -5, -5, -84, 79, -31], "withholdReward": false, "trial_id": "mdp_trial_21", "block": "test", "trialIndex": 22, "score": 67.2, "costs": -2.8, "simulationMode": [null, null, null, null, null], "rewards": [2, -3, -3, -5, 79], "path": ["0", "0", "23", "24", "25", "30", "32"], "rt": [10998, 965, 670, 616, 555], "actions": ["left", "left", "left", "down", "down"], "actionTimes": [15041, 16527, 17710, 18875, 19945], "queries": {"click": {"state": {"target": ["32", "5"], "time": [5838, 9304]}, "edge": {"target": [], "time": []}}, "mouseover": {"state": {"target": ["31", "32", "2", "3", "4", "5", "12"], "time": [4925, 5188, 8526, 8588, 8671, 8888, 10104]}, "edge": {"target": [], "time": []}}, "mouseout": {"state": {"target": ["0", "31", "32", "2", "3", "4", "5", "12"], "time": [4841, 4954, 6023, 8567, 8621, 8689, 9996, 10176]}, "edge": {"target": [], "time": []}}}, "displayed_time": "20.48", "trialTime": 23307, "trial_type": "mouselab-mdp", "trial_index": 29, "time_elapsed": 1983407, "internal_node_id": "0.0-6.0-1.0-20.0"}}, {"uniqueid": "w50672556:a39899322", "current_trial": 30, "dateTime": 1693566826473, "trialdata": {"revealed_states": [], "clicked_states": ["6", "29", "28", "21", "17", "16", "9", "32"], "num_clicks_accrued": [0, 0, 0, 0, 0, 0, 0, 0, 0, 0, 0, 0, 0], "stateRewards": ["", -1, 4, -3, 3, 57, -61, 5, -11, 23, -1, 34, -2, -4, -1, -13, 27, 38, -36, 4, -45, 21, 88, 1, -2, -1, 1, -69, -5, -78, -12, -9, 38, -54], "withholdReward": false, "trial_id": "mdp_trial_22", "block": "test", "trialIndex": 23, "score": 12.799999999999997, "costs": -11.200000000000001, "simulationMode": [null, null, null, null, null], "rewards": [1, -2, -1, -12, 38], "path": ["0", "0", "23", "24", "25", "30", "32"], "rt": [28176, 447, 554, 543, 609], "actions": ["left", "left", "left", "down", "down"], "actionTimes": [30650, 31625, 32717, 33767, 34880], "queries": {"click": {"state": {"target": ["6", "29", "28", "21", "17", "16", "9", "32"], "time": [3682, 6513, 9550, 12648, 15529, 18365, 21412, 24915]}, "edge": {"target": [], "time": []}}, "mouseover": {"state": {"target": ["18", "6", "4", "3", "8", "29", "29", "25", "31", "28", "23", "21", "17", "16", "8", "11", "9", "24", "31", "32"], "time": [2845, 3125, 4773, 4825, 4858, 5683, 6038, 7991, 8746, 8960, 10187, 12126, 14940, 18000, 20571, 20607, 20825, 23887, 23955, 24227]}, "edge": {"target": [], "time": []}}, "mouseout": {"state": {"target": ["0", "18", "6", "4", "3", "8", "29", "29", "25", "31", "28", "28", "23", "21", "17", "16", "8", "11", "9", "24", "31", "32"], "time": [2744, 2875, 4765, 4798, 4850, 4905, 5725, 7767, 8288, 8913, 9740, 10145, 10210, 14775, 16530, 20525, 20589, 20767, 23826, 23923, 23995, 25120]}, "edge": {"target": [], "time": []}}}, "displayed_time": "35.41", "trialTime": 39165, "trial_type": "mouselab-mdp", "trial_index": 30, "time_elapsed": 2023772, "internal_node_id": "0.0-6.0-1.0-21.0"}}, {"uniqueid": "w50672556:a39899322", "current_trial": 31, "dateTime": 1693566864382, "trialdata": {"revealed_states": [], "clicked_states": ["10", "7", "5", "32", "11", "20", "22", "21"], "num_clicks_accrued": [0, 0, 0, 0, 0, 0, 0, 0, 0, 0, 0, 0, 0], "stateRewards": ["", 2, -1, 8, -2, -16, 69, -39, -7, -13, -27, -86, 2, -2, 2, 13, -34, -16, -20, -5, 19, 81, 32, -2, -1, 2, -14, 20, 80, 58, 4, 70, 12, 73], "withholdReward": false, "trial_id": "mdp_trial_23", "block": "test", "trialIndex": 24, "score": 66.8, "costs": -11.200000000000001, "simulationMode": [null, null, null, null, null], "rewards": [2, -2, 2, -5, 81], "path": ["0", "0", "12", "13", "14", "19", "21"], "rt": [23925, 945, 694, 830, 955], "actions": ["right", "right", "right", "down", "down"], "actionTimes": [26932, 28392, 29606, 30980, 32449], "queries": {"click": {"state": {"target": ["10", "7", "5", "32", "11", "20", "22", "21"], "time": [4264, 6608, 9482, 11609, 14412, 17142, 20089, 23104]}, "edge": {"target": [], "time": []}}, "mouseover": {"state": {"target": ["10", "2", "7", "7", "4", "5", "3", "33", "32", "23", "10", "11", "21", "20", "22", "20", "21", "20"], "time": [3594, 5063, 5140, 6194, 8771, 9045, 9939, 10441, 10961, 13696, 13775, 14013, 16309, 16765, 19593, 22325, 22528, 23382]}, "edge": {"target": [], "time": []}}, "mouseout": {"state": {"target": ["0", "10", "2", "7", "7", "4", "5", "3", "33", "32", "23", "10", "11", "21", "20", "20", "22", "20", "21", "20"], "time": [3480, 5038, 5090, 5457, 8714, 8860, 9913, 9971, 10570, 12280, 13730, 13808, 14929, 16447, 17326, 19410, 21182, 22342, 23359, 23405]}, "edge": {"target": [], "time": []}}}, "displayed_time": "32.96", "trialTime": 36720, "trial_type": "mouselab-mdp", "trial_index": 31, "time_elapsed": 2061680, "internal_node_id": "0.0-6.0-1.0-22.0"}}, {"uniqueid": "w50672556:a39899322", "current_trial": 32, "dateTime": 1693566905635, "trialdata": {"revealed_states": [], "clicked_states": ["33", "16", "11", "20", "5", "32", "9", "2"], "num_clicks_accrued": [0, 0, 0, 0, 0, 0, 0, 0, 0, 0, 0, 0, 0], "stateRewards": ["", -1, -3, -7, -4, -85, -70, 79, 8, 84, -66, 42, 2, -2, -3, -16, -54, -66, 68, -3, 21, -14, 7, -2, -1, -3, -8, 75, 80, 86, -7, -84, 73, -16], "withholdReward": false, "trial_id": "mdp_trial_24", "block": "test", "trialIndex": 25, "score": 69.8, "costs": -11.200000000000001, "simulationMode": [null, null, null, null, null], "rewards": [-1, -3, -7, 8, 84], "path": ["0", "0", "1", "2", "3", "8", "9"], "rt": [25572, 370, 205, 191, 620], "actions": ["up", "up", "up", "left", "up"], "actionTimes": [28815, 29705, 30420, 31124, 32299], "queries": {"click": {"state": {"target": ["33", "16", "11", "20", "5", "32", "9", "2"], "time": [4972, 7068, 9284, 11662, 13998, 16177, 19603, 23625]}, "edge": {"target": [], "time": []}}, "mouseover": {"state": {"target": ["33", "25", "7", "16", "16", "7", "11", "2", "14", "20", "20", "14", "4", "5", "10", "24", "31", "32", "24", "11", "9", "8", "10", "0", "2", "1", "0"], "time": [4384, 5521, 5614, 5871, 6207, 7910, 8077, 10004, 10070, 10135, 10477, 12517, 12861, 12965, 14650, 14702, 14756, 14886, 18543, 18803, 19020, 20074, 20107, 23002, 23052, 24338, 24392]}, "edge": {"target": [], "time": []}}, "mouseout": {"state": {"target": ["17", "13", "12", "0", "33", "25", "7", "16", "16", "7", "11", "2", "14", "20", "20", "14", "4", "5", "10", "24", "31", "32", "24", "11", "9", "8", "10", "0", "2", "2", "1", "0"], "time": [1751, 1849, 2051, 4144, 5163, 5547, 5638, 5975, 7867, 7935, 9482, 10028, 10093, 10215, 12508, 12556, 12885, 14603, 14676, 14729, 14783, 16364, 18564, 18846, 20067, 20100, 20132, 23045, 23833, 24331, 24362, 24416]}, "edge": {"target": [], "time": []}}}, "displayed_time": "32.81", "trialTime": 40123, "trial_type": "mouselab-mdp", "trial_index": 32, "time_elapsed": 2102934, "internal_node_id": "0.0-6.0-1.0-23.0"}}, {"uniqueid": "w50672556:a39899322", "current_trial": 33, "dateTime": 1693566941461, "trialdata": {"revealed_states": [], "clicked_states": ["32", "5", "17", "29", "21", "18", "11", "3"], "num_clicks_accrued": [0, 0, 0, 0, 0, 0, 0, 0, 0, 0, 0, 0, 0], "stateRewards": ["", -1, 2, -7, -12, -62, 12, -13, 5, 77, -71, 83, 1, -4, 7, 15, -42, -87, -4, 5, -25, 44, 88, -1, 4, -5, -8, 14, 51, 8, -5, 83, -24, -19], "withholdReward": false, "trial_id": "mdp_trial_25", "block": "test", "trialIndex": 26, "score": 70.8, "costs": -11.200000000000001, "simulationMode": [null, null, null, null, null], "rewards": [-1, 2, -7, 5, 83], "path": ["0", "0", "1", "2", "3", "8", "11"], "rt": [23193, 551, 360, 373, 609], "actions": ["up", "up", "up", "left", "left"], "actionTimes": [26275, 27352, 28225, 29104, 30224], "queries": {"click": {"state": {"target": ["32", "5", "17", "29", "21", "18", "11", "3"], "time": [4488, 6625, 8818, 10915, 13117, 15485, 18558, 22451]}, "edge": {"target": [], "time": []}}, "mouseover": {"state": {"target": ["31", "32", "31", "1", "4", "5", "6", "16", "17", "15", "29", "26", "0", "21", "19", "18", "2", "3", "8", "11", "10", "0", "0", "8", "3", "2", "1", "0"], "time": [3799, 3997, 4875, 4945, 5050, 5306, 7269, 7419, 7679, 9340, 9904, 11413, 11464, 12200, 14296, 14933, 17682, 17825, 17925, 18109, 19060, 19164, 21398, 21476, 22121, 23008, 23043, 23078]}, "edge": {"target": [], "time": []}}, "mouseout": {"state": {"target": ["0", "31", "32", "31", "1", "4", "5", "6", "16", "17", "15", "29", "26", "0", "21", "19", "18", "2", "3", "8", "11", "10", "0", "0", "8", "3", "2", "1", "0"], "time": [3733, 3845, 4848, 4902, 4969, 5075, 7241, 7315, 7469, 9059, 9393, 11401, 11439, 11541, 13788, 14498, 15665, 17708, 17844, 18026, 19014, 19085, 19189, 21453, 21781, 22979, 23036, 23071, 23105]}, "edge": {"target": [], "time": []}}}, "displayed_time": "30.75", "trialTime": 34471, "trial_type": "mouselab-mdp", "trial_index": 33, "time_elapsed": 2138760, "internal_node_id": "0.0-6.0-1.0-24.0"}}, {"uniqueid": "w50672556:a39899322", "current_trial": 34, "dateTime": 1693566968063, "trialdata": {"revealed_states": [], "clicked_states": ["32", "5"], "num_clicks_accrued": [0, 0, 0, 0, 0, 0, 0, 0, 0, 0, 0, 0, 0], "stateRewards": ["", 2, 4, -5, 7, 81, 35, 6, 11, 14, -72, 42, -1, 2, 3, -7, -77, -44, -40, -15, -85, 51, -32, -2, -1, -5, 7, -74, 47, 52, 16, -49, 48, -46], "withholdReward": false, "trial_id": "mdp_trial_26", "block": "test", "trialIndex": 27, "score": 86.2, "costs": -2.8, "simulationMode": [null, null, null, null, null], "rewards": [2, 4, -5, 7, 81], "path": ["0", "0", "1", "2", "3", "4", "5"], "rt": [9431, 467, 512, 964, 831], "actions": ["up", "up", "up", "right", "up"], "actionTimes": [13109, 14089, 15119, 16587, 17937], "queries": {"click": {"state": {"target": ["32", "5"], "time": [4902, 7500]}, "edge": {"target": [], "time": []}}, "mouseover": {"state": {"target": ["31", "32", "0", "1", "7", "4", "5", "16"], "time": [4315, 4385, 6454, 6569, 6724, 6819, 6971, 9600]}, "edge": {"target": [], "time": []}}, "mouseout": {"state": {"target": ["0", "31", "32", "0", "1", "7", "4", "5", "16"], "time": [4270, 4337, 5407, 6488, 6603, 6787, 6907, 8457, 10151]}, "edge": {"target": [], "time": []}}}, "displayed_time": "18.45", "trialTime": 25275, "trial_type": "mouselab-mdp", "trial_index": 34, "time_elapsed": 2165362, "internal_node_id": "0.0-6.0-1.0-25.0"}}, {"uniqueid": "w50672556:a39899322", "current_trial": 35, "dateTime": 1693567004500, "trialdata": {"revealed_states": [], "clicked_states": ["21", "32", "27", "9", "7", "17", "22", "28"], "num_clicks_accrued": [0, 0, 0, 0, 0, 0, 0, 0, 0, 0, 0, 0, 0], "stateRewards": ["", 2, -4, -4, 13, -80, 62, 13, -11, 57, -13, -44, 1, 4, 3, -4, -29, -88, 15, 16, -58, 68, -45, -1, -3, -1, -9, -44, -86, -19, -7, -36, 59, 66], "withholdReward": false, "trial_id": "mdp_trial_27", "block": "test", "trialIndex": 28, "score": 80.8, "costs": -11.200000000000001, "simulationMode": [null, null, null, null, null], "rewards": [1, 4, 3, 16, 68], "path": ["0", "0", "12", "13", "14", "19", "21"], "rt": [25105, 278, 169, 107, 328], "actions": ["right", "right", "right", "down", "down"], "actionTimes": [27820, 28621, 29311, 29934, 30789], "queries": {"click": {"state": {"target": ["21", "32", "27", "9", "7", "17", "22", "28"], "time": [4019, 6650, 10144, 13200, 15416, 18438, 21282, 24248]}, "edge": {"target": [], "time": []}}, "mouseover": {"state": {"target": ["12", "13", "19", "21", "32", "24", "26", "27", "3", "5", "9", "4", "7", "17", "22", "23", "28"], "time": [3060, 3151, 3265, 3637, 6192, 8965, 9125, 9377, 11273, 11648, 12798, 13842, 14260, 17428, 20929, 23530, 23825]}, "edge": {"target": [], "time": []}}, "mouseout": {"state": {"target": ["16", "12", "12", "13", "19", "21", "32", "24", "26", "27", "3", "5", "9", "4", "7", "17", "17", "22", "23", "28"], "time": [1106, 1318, 3127, 3213, 3380, 5558, 7212, 9031, 9278, 10911, 11477, 12664, 13730, 13889, 16534, 18639, 20579, 22511, 23587, 25178]}, "edge": {"target": [], "time": []}}}, "displayed_time": "31.31", "trialTime": 35063, "trial_type": "mouselab-mdp", "trial_index": 35, "time_elapsed": 2201800, "internal_node_id": "0.0-6.0-1.0-26.0"}}, {"uniqueid": "w50672556:a39899322", "current_trial": 36, "dateTime": 1693567037323, "trialdata": {"revealed_states": [], "clicked_states": ["29", "17", "5", "32", "21", "10"], "num_clicks_accrued": [0, 0, 0, 0, 0, 0, 0, 0, 0, 0, 0, 0, 0], "stateRewards": ["", 2, 3, 8, 11, 25, -80, 6, -4, -56, 84, -23, -2, -4, -3, 4, -51, -9, -61, -15, -64, 67, -35, 1, -1, -7, -6, 83, 59, -15, 12, -79, 56, 41], "withholdReward": false, "trial_id": "mdp_trial_28", "block": "test", "trialIndex": 29, "score": 84.6, "costs": -8.4, "simulationMode": [null, null, null, null, null], "rewards": [2, 3, 8, -4, 84], "path": ["0", "0", "1", "2", "3", "8", "10"], "rt": [18458, 623, 403, 523, 456], "actions": ["up", "up", "up", "left", "down"], "actionTimes": [20872, 22000, 22929, 23963, 24932], "queries": {"click": {"state": {"target": ["29", "17", "5", "32", "21", "10"], "time": [3882, 5953, 8056, 10200, 12432, 15288]}, "edge": {"target": [], "time": []}}, "mouseover": {"state": {"target": ["25", "26", "29", "26", "2", "7", "16", "17", "5", "3", "24", "31", "32", "21", "22", "0", "11", "10", "2"], "time": [3203, 3421, 3538, 4301, 4390, 4473, 4606, 5096, 7199, 8603, 8765, 8853, 9113, 10885, 13324, 13375, 13638, 14768, 18839]}, "edge": {"target": [], "time": []}}, "mouseout": {"state": {"target": ["0", "25", "26", "29", "26", "2", "7", "16", "17", "5", "3", "24", "31", "32", "21", "22", "0", "11", "10", "2"], "time": [3067, 3256, 3454, 4274, 4327, 4437, 4499, 4689, 6151, 8579, 8627, 8809, 8916, 10594, 12631, 13350, 13401, 14667, 18489, 19284]}, "edge": {"target": [], "time": []}}}, "displayed_time": "25.44", "trialTime": 31048, "trial_type": "mouselab-mdp", "trial_index": 36, "time_elapsed": 2234622, "internal_node_id": "0.0-6.0-1.0-27.0"}}, {"uniqueid": "w50672556:a39899322", "current_trial": 37, "dateTime": 1693567073797, "trialdata": {"revealed_states": [], "clicked_states": ["29", "17", "7", "31", "18", "28"], "num_clicks_accrued": [0, 0, 0, 0, 0, 0, 0, 0, 0, 0, 0, 0, 0], "stateRewards": ["", 1, 4, -4, 14, 35, 51, 19, -13, 54, 78, -74, -2, -1, -3, 13, -11, -42, -73, -15, -24, -3, -69, 2, -1, 5, 16, -27, 73, 58, 9, -60, 5, -60], "withholdReward": false, "trial_id": "mdp_trial_29", "block": "test", "trialIndex": 30, "score": 86.6, "costs": -8.4, "simulationMode": [null, null, null, null, null], "rewards": [2, -1, 5, 16, 73], "path": ["0", "0", "23", "24", "25", "26", "28"], "rt": [23312, 464, 386, 430, 599], "actions": ["left", "left", "left", "up", "right"], "actionTimes": [26373, 27383, 28302, 29246, 30365], "queries": {"click": {"state": {"target": ["29", "17", "7", "31", "18", "28"], "time": [4732, 6958, 9489, 12525, 15062, 18231]}, "edge": {"target": [], "time": []}}, "mouseover": {"state": {"target": ["24", "29", "15", "17", "16", "7", "2", "10", "2", "7", "31", "13", "18", "1", "28", "23", "22", "22"], "time": [3968, 4154, 5269, 5595, 7845, 8073, 8397, 8520, 8903, 8971, 12151, 14166, 14685, 17506, 17814, 19097, 22099, 22532]}, "edge": {"target": [], "time": []}}, "mouseout": {"state": {"target": ["12", "12", "0", "24", "29", "15", "17", "16", "7", "2", "10", "2", "7", "31", "13", "18", "1", "28", "23", "22", "22"], "time": [1315, 1499, 3889, 4017, 4918, 5568, 7134, 7876, 8371, 8442, 8847, 8951, 10695, 13177, 14196, 17465, 17552, 19049, 19123, 22158, 24022]}, "edge": {"target": [], "time": []}}}, "displayed_time": "30.88", "trialTime": 35091, "trial_type": "mouselab-mdp", "trial_index": 37, "time_elapsed": 2271096, "internal_node_id": "0.0-6.0-1.0-28.0"}}, {"uniqueid": "w50672556:a39899322", "current_trial": 38, "dateTime": 1693567096084, "trialdata": {"revealed_states": [], "clicked_states": ["7", "9", "1"], "num_clicks_accrued": [0, 0, 0, 0, 0, 0, 0, 0, 0, 0, 0, 0, 0], "stateRewards": ["", 1, 1, -2, 7, -31, -6, 76, 1, -36, -16, -53, 2, 1, 7, 13, -47, -10, 47, -7, 72, 46, -56, -2, -2, -2, 11, -80, 44, 38, 16, 67, 85, -78], "withholdReward": false, "trial_id": "mdp_trial_30", "block": "test", "trialIndex": 31, "score": 78.8, "costs": -4.199999999999999, "simulationMode": [null, null, null, null, null], "rewards": [1, 1, -2, 7, 76], "path": ["0", "0", "1", "2", "3", "4", "7"], "rt": [11633, 656, 593, 341, 411], "actions": ["up", "up", "up", "right", "down"], "actionTimes": [13947, 15117, 16223, 17176, 18106], "queries": {"click": {"state": {"target": ["7", "9", "1"], "time": [3383, 5841, 10095]}, "edge": {"target": [], "time": []}}, "mouseover": {"state": {"target": ["7", "3", "9", "5", "6", "7", "1"], "time": [3042, 5198, 5380, 8223, 8275, 9477, 9710]}, "edge": {"target": [], "time": []}}, "mouseout": {"state": {"target": ["0", "7", "3", "9", "5", "6", "7", "1"], "time": [2412, 4198, 5276, 8165, 8244, 8326, 9558, 10380]}, "edge": {"target": [], "time": []}}}, "displayed_time": "18.61", "trialTime": 20879, "trial_type": "mouselab-mdp", "trial_index": 38, "time_elapsed": 2293383, "internal_node_id": "0.0-6.0-1.0-29.0"}}, {"uniqueid": "w50672556:a39899322", "current_trial": 39, "dateTime": 1693567134723, "trialdata": {"revealed_states": [], "clicked_states": ["32", "6", "21", "11", "28", "33", "29", "27"], "num_clicks_accrued": [0, 0, 0, 0, 0, 0, 0, 0, 0, 0, 0, 0, 0], "stateRewards": ["", -2, 1, 6, -2, -10, -78, -69, 14, -15, 7, -1, 1, -1, -2, 13, 77, 32, 87, 5, -74, 30, -26, 1, 3, 4, 12, 39, 54, -43, 2, 10, 23, 13], "withholdReward": false, "trial_id": "mdp_trial_31", "block": "test", "trialIndex": 32, "score": 62.8, "costs": -11.200000000000001, "simulationMode": [null, null, null, null, null], "rewards": [1, 3, 4, 12, 54], "path": ["0", "0", "23", "24", "25", "26", "28"], "rt": [23820, 391, 563, 312, 992], "actions": ["left", "left", "left", "up", "right"], "actionTimes": [27187, 28121, 29205, 30024, 31538], "queries": {"click": {"state": {"target": ["32", "6", "21", "11", "28", "33", "29", "27"], "time": [4959, 7010, 9052, 11240, 13734, 16211, 18582, 21911]}, "edge": {"target": [], "time": []}}, "mouseover": {"state": {"target": ["31", "32", "31", "1", "7", "6", "6", "15", "14", "19", "21", "1", "10", "11", "28", "24", "33", "29", "26", "28", "26", "28", "28", "28", "28", "27", "28"], "time": [4349, 4578, 5542, 5627, 5686, 5764, 6315, 7843, 7900, 7978, 8225, 9936, 10141, 10497, 12547, 14642, 15445, 17666, 19277, 19373, 19723, 19799, 20115, 20494, 21076, 21575, 22568]}, "edge": {"target": [], "time": []}}, "mouseout": {"state": {"target": ["18", "12", "0", "31", "32", "31", "1", "7", "6", "6", "6", "15", "14", "19", "21", "1", "10", "11", "28", "24", "33", "29", "26", "28", "26", "28", "28", "28", "28", "27", "28"], "time": [793, 873, 4231, 4398, 5514, 5575, 5658, 5713, 5992, 7232, 7773, 7872, 7929, 8091, 9264, 9985, 10213, 12033, 14551, 14734, 17452, 19249, 19325, 19486, 19751, 19827, 20229, 20935, 21142, 22515, 22596]}, "edge": {"target": [], "time": []}}}, "displayed_time": "32.05", "trialTime": 37393, "trial_type": "mouselab-mdp", "trial_index": 39, "time_elapsed": 2332022, "internal_node_id": "0.0-6.0-1.0-30.0"}}, {"uniqueid": "w50672556:a39899322", "current_trial": 40, "dateTime": 1693567169892, "trialdata": {"revealed_states": [], "clicked_states": ["6", "20", "16", "18", "28", "31", "33", "5"], "num_clicks_accrued": [0, 0, 0, 0, 0, 0, 0, 0, 0, 0, 0, 0, 0], "stateRewards": ["", 1, 2, -6, -13, -51, 22, -4, -12, -44, -12, 6, -2, -2, -2, -14, -46, -4, -77, -2, 36, -79, 41, 2, -4, 2, -6, -55, 59, 70, -5, 39, -19, 24], "withholdReward": false, "trial_id": "mdp_trial_32", "block": "test", "trialIndex": 33, "score": 41.8, "costs": -11.200000000000001, "simulationMode": [null, null, null, null, null], "rewards": [2, -4, 2, -6, 59], "path": ["0", "0", "23", "24", "25", "26", "28"], "rt": [24083, 397, 257, 352, 516], "actions": ["left", "left", "left", "up", "right"], "actionTimes": [26521, 27432, 28208, 29071, 30100], "queries": {"click": {"state": {"target": ["6", "20", "16", "18", "28", "31", "33", "5"], "time": [4254, 6450, 9093, 11591, 14597, 16998, 19738, 23103]}, "edge": {"target": [], "time": []}}, "mouseover": {"state": {"target": ["6", "14", "19", "20", "19", "14", "15", "16", "15", "18", "28", "26", "26", "28", "24", "31", "30", "33", "30", "1", "6", "5", "4", "7", "18", "13"], "time": [3738, 5108, 5159, 5510, 7625, 8034, 8186, 8620, 11072, 11166, 13681, 13719, 14010, 14168, 15546, 16069, 19164, 19265, 20668, 21784, 22214, 22561, 24031, 24085, 24157, 24269]}, "edge": {"target": [], "time": []}}, "mouseout": {"state": {"target": ["0", "6", "6", "14", "19", "20", "19", "14", "15", "16", "15", "18", "28", "26", "26", "28", "24", "31", "31", "30", "33", "30", "1", "6", "5", "4", "7", "18", "13"], "time": [3331, 4453, 4921, 5134, 5406, 7574, 7699, 8086, 8523, 9269, 11123, 13652, 13705, 13747, 14066, 15497, 15635, 17672, 19137, 19241, 20659, 20757, 21811, 22328, 24001, 24058, 24112, 24184, 24484]}, "edge": {"target": [], "time": []}}}, "displayed_time": "30.62", "trialTime": 33577, "trial_type": "mouselab-mdp", "trial_index": 40, "time_elapsed": 2367191, "internal_node_id": "0.0-6.0-1.0-31.0"}}, {"uniqueid": "w50672556:a39899322", "current_trial": 41, "dateTime": 1693567203229, "trialdata": {"revealed_states": [], "clicked_states": ["11", "9", "10", "33", "18", "17"], "num_clicks_accrued": [0, 0, 0, 0, 0, 0, 0, 0, 0, 0, 0, 0, 0], "stateRewards": ["", -1, 3, -5, -2, -13, -9, -34, -7, -81, 32, 35, -2, -2, 1, -14, -32, 81, 7, 4, 82, 56, -8, -1, 3, -8, 6, -24, -24, -53, 2, 38, 61, 54], "withholdReward": false, "trial_id": "mdp_trial_33", "block": "test", "trialIndex": 34, "score": 55.6, "costs": -8.4, "simulationMode": [null, null, null, null, null], "rewards": [-2, -2, 1, -14, 81], "path": ["0", "0", "12", "13", "14", "15", "17"], "rt": [20027, 445, 398, 421, 338], "actions": ["right", "right", "right", "up", "right"], "actionTimes": [22516, 23471, 24375, 25315, 26165], "queries": {"click": {"state": {"target": ["11", "9", "10", "33", "18", "17"], "time": [4106, 6407, 8490, 11117, 13591, 16674]}, "edge": {"target": [], "time": []}}, "mouseover": {"state": {"target": ["11", "9", "8", "10", "31", "25", "33", "12", "13", "15", "15", "18", "16", "17", "15", "15", "15"], "time": [3760, 5783, 7032, 7173, 9136, 9875, 10612, 11814, 11868, 12332, 12553, 12697, 15941, 16355, 18890, 19573, 19739]}, "edge": {"target": [], "time": []}}, "mouseout": {"state": {"target": ["0", "11", "9", "8", "10", "31", "25", "33", "12", "13", "15", "15", "18", "16", "17", "15", "15", "15", "17"], "time": [1427, 5318, 7004, 7081, 9009, 9790, 10500, 11295, 11842, 12200, 12424, 12644, 15799, 16058, 16868, 18942, 19633, 19804, 19871]}, "edge": {"target": [], "time": []}}}, "displayed_time": "26.68", "trialTime": 31835, "trial_type": "mouselab-mdp", "trial_index": 41, "time_elapsed": 2400528, "internal_node_id": "0.0-6.0-1.0-32.0"}}, {"uniqueid": "w50672556:a39899322", "current_trial": 42, "dateTime": 1693567230673, "trialdata": {"revealed_states": [], "clicked_states": ["7", "31"], "num_clicks_accrued": [0, 0, 0, 0, 0, 0, 0, 0, 0, 0, 0, 0, 0], "stateRewards": ["", 1, 4, 5, -5, 58, -80, 75, 6, 25, -39, 46, 2, -2, 4, 2, 59, 31, -22, -12, -61, 15, 72, 1, -2, -7, 8, 77, 76, -23, -7, 71, -15, -3], "withholdReward": false, "trial_id": "mdp_trial_34", "block": "test", "trialIndex": 35, "score": 77.2, "costs": -2.8, "simulationMode": [null, null, null, null, null], "rewards": [1, 4, 5, -5, 75], "path": ["0", "0", "1", "2", "3", "4", "7"], "rt": [7333, 211, 203, 218, 245], "actions": ["up", "up", "up", "right", "down"], "actionTimes": [13900, 14625, 15349, 16080, 16843], "queries": {"click": {"state": {"target": ["7", "31"], "time": [8695, 10987]}, "edge": {"target": [], "time": []}}, "mouseover": {"state": {"target": ["1", "2", "7", "1", "23", "24", "31"], "time": [7614, 7761, 8125, 9281, 9579, 9737, 10026]}, "edge": {"target": [], "time": []}}, "mouseout": {"state": {"target": ["14", "13", "12", "0", "1", "2", "7", "1", "23", "24", "31"], "time": [4613, 4700, 4925, 7550, 7682, 8093, 9253, 9310, 9607, 9956, 11652]}, "edge": {"target": [], "time": []}}}, "displayed_time": "20.57", "trialTime": 26056, "trial_type": "mouselab-mdp", "trial_index": 42, "time_elapsed": 2427972, "internal_node_id": "0.0-6.0-1.0-33.0"}}, {"uniqueid": "w50672556:a39899322", "current_trial": 43, "dateTime": 1693567255306, "trialdata": {"revealed_states": [], "clicked_states": ["22", "16", "10"], "num_clicks_accrued": [0, 0, 0, 0, 0, 0, 0, 0, 0, 0, 0, 0, 0], "stateRewards": ["", 1, -4, 6, -3, 40, 76, -51, 5, -24, -63, 44, -2, -2, 8, 1, 76, -85, -58, 10, 59, 20, 11, -2, 3, -3, 3, -82, -10, 54, -7, -57, -6, -32], "withholdReward": false, "trial_id": "mdp_trial_35", "block": "test", "trialIndex": 36, "score": 76.8, "costs": -4.199999999999999, "simulationMode": [null, null, null, null, null], "rewards": [-2, -2, 8, 1, 76], "path": ["0", "0", "12", "13", "14", "15", "16"], "rt": [11951, 650, 333, 383, 527], "actions": ["right", "right", "right", "up", "up"], "actionTimes": [14103, 15268, 16117, 17016, 18060], "queries": {"click": {"state": {"target": ["22", "16", "10"], "time": [3796, 6131, 8297]}, "edge": {"target": [], "time": []}}, "mouseover": {"state": {"target": ["12", "13", "14", "22", "14", "15", "16", "7", "2", "10", "8", "10"], "time": [2320, 2420, 3171, 3381, 4409, 4484, 4800, 7001, 7058, 7157, 7405, 7630]}, "edge": {"target": [], "time": []}}, "mouseout": {"state": {"target": ["0", "12", "13", "14", "22", "14", "15", "16", "7", "2", "10", "8", "10"], "time": [1050, 2367, 3106, 3315, 4355, 4436, 4532, 6972, 7030, 7086, 7313, 7473, 8868]}, "edge": {"target": [], "time": []}}}, "displayed_time": "18.57", "trialTime": 23316, "trial_type": "mouselab-mdp", "trial_index": 43, "time_elapsed": 2452605, "internal_node_id": "0.0-6.0-1.0-34.0"}}, {"uniqueid": "w50672556:a39899322", "current_trial": 44, "dateTime": 1693567290147, "trialdata": {"revealed_states": [], "clicked_states": ["32", "21", "5", "10", "31", "29", "17", "14"], "num_clicks_accrued": [0, 0, 0, 0, 0, 0, 0, 0, 0, 0, 0, 0, 0], "stateRewards": ["", -1, -4, -3, 1, -45, -67, -24, 14, 32, 22, 22, -1, 1, -5, -7, 72, 84, -79, -5, 19, -40, -2, -1, -2, 8, -3, 84, -25, -28, 11, 64, -66, 77], "withholdReward": false, "trial_id": "mdp_trial_36", "block": "test", "trialIndex": 37, "score": 60.8, "costs": -11.200000000000001, "simulationMode": [null, null, null, null, null], "rewards": [-1, 1, -5, -7, 84], "path": ["0", "0", "12", "13", "14", "15", "17"], "rt": [24978, 172, 208, 256, 168], "actions": ["right", "right", "right", "up", "right"], "actionTimes": [27310, 28006, 28728, 29474, 30154], "queries": {"click": {"state": {"target": ["32", "21", "5", "10", "31", "29", "17", "14"], "time": [3878, 6248, 8740, 11858, 15142, 17392, 20673, 24180]}, "edge": {"target": [], "time": []}}, "mouseover": {"state": {"target": ["23", "31", "32", "21", "19", "6", "5", "3", "10", "8", "9", "8", "10", "26", "29", "26", "28", "24", "31", "25", "29", "13", "15", "17", "14"], "time": [2987, 3065, 3435, 4957, 7013, 7241, 7516, 10086, 10231, 10917, 10999, 11365, 11464, 12815, 13178, 13413, 13996, 14318, 14825, 15903, 16561, 19730, 19998, 20216, 23615]}, "edge": {"target": [], "time": []}}, "mouseout": {"state": {"target": ["18", "12", "0", "23", "31", "32", "21", "19", "6", "5", "3", "10", "8", "9", "8", "10", "26", "29", "26", "28", "24", "31", "25", "29", "31", "31", "13", "15", "17", "17", "14"], "time": [980, 1083, 1348, 3035, 3136, 4068, 6985, 7043, 7335, 10033, 10146, 10836, 10947, 11311, 11422, 12704, 13045, 13381, 13483, 14246, 14469, 15330, 16160, 17582, 18414, 18924, 19898, 20067, 22771, 23182, 24467]}, "edge": {"target": [], "time": []}}}, "displayed_time": "30.67", "trialTime": 33365, "trial_type": "mouselab-mdp", "trial_index": 44, "time_elapsed": 2487446, "internal_node_id": "0.0-6.0-1.0-35.0"}}, {"uniqueid": "w50672556:a39899322", "current_trial": 45, "dateTime": 1693567316660, "trialdata": {"revealed_states": [], "clicked_states": ["21", "7", "11", "29", "31"], "num_clicks_accrued": [0, 0, 0, 0, 0, 0, 0, 0, 0, 0, 0, 0, 0], "stateRewards": ["", 2, -1, -1, 7, 11, -40, -22, -2, 69, 37, 8, -2, 4, -8, -12, -2, -72, -3, -12, 17, 63, 12, 1, 3, -7, 6, 25, 61, 61, -9, 28, -17, 27], "withholdReward": false, "trial_id": "mdp_trial_37", "block": "test", "trialIndex": 38, "score": 38, "costs": -7, "simulationMode": [null, null, null, null, null], "rewards": [-2, 4, -8, -12, 63], "path": ["0", "0", "12", "13", "14", "19", "21"], "rt": [15935, 157, 182, 89, 222], "actions": ["right", "right", "right", "down", "down"], "actionTimes": [18737, 19410, 20120, 20724, 21473], "queries": {"click": {"state": {"target": ["21", "7", "11", "29", "31"], "time": [4239, 6769, 9317, 12035, 14773]}, "edge": {"target": [], "time": []}}, "mouseover": {"state": {"target": ["12", "19", "21", "13", "18", "7", "2", "8", "11", "27", "29", "25", "31"], "time": [3192, 3553, 3897, 5109, 5227, 6356, 8658, 8814, 8965, 11341, 11646, 13969, 14432]}, "edge": {"target": [], "time": []}}, "mouseout": {"state": {"target": ["20", "12", "12", "19", "21", "13", "18", "7", "2", "8", "11", "11", "27", "29", "25", "31"], "time": [1549, 1614, 3250, 3580, 4429, 5179, 5379, 8604, 8714, 8865, 9515, 11281, 11363, 13907, 14031, 14968]}, "edge": {"target": [], "time": []}}}, "displayed_time": "21.98", "trialTime": 25038, "trial_type": "mouselab-mdp", "trial_index": 45, "time_elapsed": 2513960, "internal_node_id": "0.0-6.0-1.0-36.0"}}, {"uniqueid": "w50672556:a39899322", "current_trial": 46, "dateTime": 1693567348071, "trialdata": {"revealed_states": [], "clicked_states": ["21", "9", "33", "17", "32", "6", "10", "7"], "num_clicks_accrued": [0, 0, 0, 0, 0, 0, 0, 0, 0, 0, 0, 0, 0], "stateRewards": ["", 1, -1, 8, 4, 76, -33, -17, -3, -1, -54, -74, -2, 2, -5, 13, -51, 63, 83, 1, 84, 29, -36, 2, -1, 7, -12, -10, -44, -43, -14, 8, -69, 19], "withholdReward": false, "trial_id": "mdp_trial_38", "block": "test", "trialIndex": 39, "score": 59.8, "costs": -11.200000000000001, "simulationMode": [null, null, null, null, null], "rewards": [-2, 2, -5, 13, 63], "path": ["0", "0", "12", "13", "14", "15", "17"], "rt": [22676, 37, 72, 234, 69], "actions": ["right", "right", "right", "up", "right"], "actionTimes": [25053, 25597, 26265, 27028, 27610], "queries": {"click": {"state": {"target": ["21", "9", "33", "17", "32", "6", "10", "7"], "time": [4991, 7004, 9115, 11166, 13576, 16615, 19335, 22061]}, "edge": {"target": [], "time": []}}, "mouseover": {"state": {"target": ["12", "22", "21", "22", "3", "9", "11", "26", "25", "33", "18", "17", "12", "32", "23", "5", "6", "2", "10", "7", "12"], "time": [3472, 4175, 4718, 5589, 5689, 6029, 7697, 7779, 7843, 7979, 9679, 10181, 11769, 12139, 15039, 16028, 16157, 18673, 18904, 21671, 23125]}, "edge": {"target": [], "time": []}}, "mouseout": {"state": {"target": ["0", "12", "22", "21", "22", "3", "9", "11", "26", "25", "33", "18", "17", "12", "32", "23", "5", "6", "2", "10", "7", "7", "12"], "time": [3426, 3509, 4259, 5176, 5616, 5738, 7665, 7727, 7813, 7876, 9577, 9706, 11717, 11796, 14896, 15608, 16097, 18552, 18810, 20112, 22254, 23097, 23156]}, "edge": {"target": [], "time": []}}}, "displayed_time": "28.12", "trialTime": 30045, "trial_type": "mouselab-mdp", "trial_index": 46, "time_elapsed": 2545370, "internal_node_id": "0.0-6.0-1.0-37.0"}}, {"uniqueid": "w50672556:a39899322", "current_trial": 47, "dateTime": 1693567377493, "trialdata": {"revealed_states": [], "clicked_states": ["27", "10", "18", "31", "7", "9", "11"], "num_clicks_accrued": [0, 0, 0, 0, 0, 0, 0, 0, 0, 0, 0, 0, 0], "stateRewards": ["", -2, 1, -7, -8, -37, -76, -87, 11, 30, -63, 80, -1, 4, 2, -1, 42, 17, 52, -3, -75, -80, -68, 2, -3, -5, -15, -48, 82, 24, -7, 5, -22, -71], "withholdReward": false, "trial_id": "mdp_trial_39", "block": "test", "trialIndex": 40, "score": 73.2, "costs": -9.8, "simulationMode": [null, null, null, null, null], "rewards": [-2, 1, -7, 11, 80], "path": ["0", "0", "1", "2", "3", "8", "11"], "rt": [21123, 133, 57, 9, 159], "actions": ["up", "up", "up", "left", "left"], "actionTimes": [23369, 24014, 24588, 25122, 25822], "queries": {"click": {"state": {"target": ["27", "10", "18", "31", "7", "9", "11"], "time": [4062, 6142, 8191, 10293, 13601, 16551, 19376]}, "edge": {"target": [], "time": []}}, "mouseover": {"state": {"target": ["25", "26", "27", "3", "7", "2", "10", "18", "23", "31", "2", "4", "7", "3", "9", "2", "2", "11", "2", "18"], "time": [3395, 3495, 3613, 4794, 5105, 5358, 5543, 7246, 9029, 9398, 11108, 11574, 13289, 14975, 15377, 17210, 18681, 18913, 19897, 20442]}, "edge": {"target": [], "time": []}}, "mouseout": {"state": {"target": ["0", "25", "26", "27", "3", "7", "2", "10", "18", "23", "31", "2", "4", "7", "3", "9", "2", "2", "11", "2", "18"], "time": [2967, 3466, 3528, 4703, 4887, 5330, 5388, 6769, 8917, 9078, 10480, 11157, 11694, 13795, 15007, 17135, 17240, 18743, 19840, 19930, 21563]}, "edge": {"target": [], "time": []}}}, "displayed_time": "26.35", "trialTime": 28145, "trial_type": "mouselab-mdp", "trial_index": 47, "time_elapsed": 2574792, "internal_node_id": "0.0-6.0-1.0-38.0"}}, {"uniqueid": "w50672556:a39899322", "current_trial": 48, "dateTime": 1693567410190, "trialdata": {"revealed_states": [], "clicked_states": ["33", "17", "20", "7", "9", "28", "29", "27"], "num_clicks_accrued": [0, 0, 0, 0, 0, 0, 0, 0, 0, 0, 0, 0, 0], "stateRewards": ["", -2, 3, 3, -14, 62, 36, 49, 16, 11, 17, -84, 2, -1, 6, 2, -82, -73, 49, -6, -87, 48, 50, -1, -2, -1, -16, -11, 37, -44, 4, 55, 73, -10], "withholdReward": false, "trial_id": "mdp_trial_40", "block": "test", "trialIndex": 41, "score": 27.799999999999997, "costs": -11.200000000000001, "simulationMode": [null, null, null, null, null], "rewards": [-2, 3, 3, -14, 49], "path": ["0", "0", "1", "2", "3", "4", "7"], "rt": [22670, 28, 73, 523, 128], "actions": ["up", "up", "up", "right", "down"], "actionTimes": [25162, 25706, 26301, 27352, 27991], "queries": {"click": {"state": {"target": ["33", "17", "20", "7", "9", "28", "29", "27"], "time": [4000, 6032, 8622, 11307, 13753, 16547, 19487, 22347]}, "edge": {"target": [], "time": []}}, "mouseover": {"state": {"target": ["31", "30", "33", "24", "1", "18", "15", "17", "14", "22", "22", "20", "19", "22", "12", "7", "7", "3", "9", "8", "10", "28", "28", "24", "29", "24", "24", "28", "27"], "time": [3074, 3276, 3611, 4466, 4521, 4663, 4851, 5116, 6733, 6790, 7199, 7947, 9878, 9932, 10029, 10460, 10895, 11894, 12199, 15621, 15650, 15858, 16092, 18823, 19099, 19970, 21665, 21722, 21874]}, "edge": {"target": [], "time": []}}, "mouseout": {"state": {"target": ["0", "31", "30", "33", "24", "1", "18", "15", "17", "14", "22", "22", "20", "19", "22", "12", "7", "7", "3", "9", "8", "10", "28", "28", "28", "24", "29", "24", "24", "28", "27"], "time": [3012, 3136, 3550, 4435, 4494, 4549, 4775, 4965, 6726, 6762, 6820, 7878, 9850, 9905, 9960, 10057, 10596, 11821, 11964, 15556, 15644, 15762, 15928, 16746, 17978, 18858, 19939, 20009, 21715, 21743, 22910]}, "edge": {"target": [], "time": []}}}, "displayed_time": "28.51", "trialTime": 31448, "trial_type": "mouselab-mdp", "trial_index": 48, "time_elapsed": 2607489, "internal_node_id": "0.0-6.0-1.0-39.0"}}, {"uniqueid": "w50672556:a39899322", "current_trial": 49, "dateTime": 1693567550310, "trialdata": {"rt": 140080, "response": {"Q0": "$-2 to $2", "Q1": "$-16 to $16", "Q2": "$-88 to $88", "Q3": "The cost was always $1.4.", "Q4": "Very motivated"}, "question_order": [0, 1, 2, 3, 4], "trial_id": "final_quiz_control", "trial_type": "survey-multi-choice", "trial_index": 49, "time_elapsed": 2747610, "internal_node_id": "0.0-6.0-2.0"}}, {"uniqueid": "w50672556:a39899322", "current_trial": 50, "dateTime": 1693567968113, "trialdata": {"rt": 417761, "response": {"Q0": "Using the node inspector, I would first look at the values of the nodes that are the furthest (at the edge). If I found a node that was at least $60-$88, especially the ones above $80, I would stop inspecting and start moving the spider. This is because I realized the first few nodes didn't carry much weight. So, even if there were negative ones, I would still make a greater profit if I went for the furthest node (the ones with $60-$88).", "Q1": "Yes, at first I would just randomly inspect the first nodes, the ones closest to me. But overtime, I realized I could make more money if I paid more attention to the nodes at the edges. ", "Q2": "On a scale of 1-10? I would say maybe a 6. The difficulty lied in the fact that I did not really know what came next. I had to guess, with the help of the node inspector of course. "}, "trial_id": "self_report_control", "trial_type": "survey-text", "trial_index": 50, "time_elapsed": 3165414, "internal_node_id": "0.0-6.0-3.0"}}, {"uniqueid": "w50672556:a39899322", "current_trial": 51, "dateTime": 1693567999272, "trialdata": {"rt": 31128, "response": {"gender": "male", "age": "21", "colorblind": "0", "effort": "0"}, "trial_type": "survey-html-form", "trial_index": 51, "time_elapsed": 3196573, "internal_node_id": "0.0-6.0-4.0"}}, {"uniqueid": "w50672556:a39899322", "current_trial": 52, "dateTime": 1693568138155, "trialdata": {"rt": 138844, "response": {"Q0": "No", "Q1": "No", "Q2": "I absolutely loved this game. I will admit, at first I wasn't looking forward to the 40 rounds. But as I played more and more, the 40 rounds started to feel a bit small. I wanted more. That's how much I enjoyed. Looking forward to working with you again, should a second version be released."}, "trial_type": "survey-text", "trial_index": 52, "time_elapsed": 3335455, "internal_node_id": "0.0-6.0-5.0"}}, {"uniqueid": "w50672556:a39899322", "current_trial": 53, "dateTime": 1693568163516, "trialdata": {"rt": 25323, "stimulus": "<h1>Completion Code Instructions (1/2)</h1>\n<br><br><br><br>\nYou have reached the end of the experiment! The completion code consists of two parts: (1) a code with 2 characters (2) a code with 6 characters. On this page, you will receive the second part of the code. The first part of the completion code will be on the next page.\n<br><br>\nThe second part of your completion code is: <b>EWEK22</b>\n<br><br>\nPlease note this down. Then, press 'Finish HIT' in order to find the first part of your completion code. Once the data has been saved, you will receive this code either in this window or in the original browser window where you started the experiment.\n", "response": 0, "trial_type": "html-button-response", "trial_index": 53, "time_elapsed": 3360816, "internal_node_id": "0.0-6.0-6.0"}}, {"uniqueid": "w50672556:a39899322", "current_trial": 54, "dateTime": 1693568164546, "trialdata": {"success": true, "trial_type": "fullscreen", "trial_index": 54, "time_elapsed": 3361846, "internal_node_id": "0.0-7.0"}}], "questiondata": {"params": {"CODE": "C6DMOQA6", "MIN_TIME": 14, "inspectCost": 1, "startTime": "Fri Sep 01 2023 12:40:00 GMT+0200 (South Africa Standard Time)", "bonusRate": 0.002, "variance": "1_2_4_8_44", "branching": "31123"}, "final_score": 2258.6}, "eventdata": [{"eventtype": "initialized", "value": null, "timestamp": 1693564799738, "interval": 0}, {"eventtype": "window_resize", "value": [1024, 646], "timestamp": 1693564799738, "interval": 0}, {"eventtype": "window_resize", "value": [1024, 646], "timestamp": 1693564800402, "interval": 664}, {"eventtype": "window_resize", "value": [1366, 768], "timestamp": 1693564837862, "interval": 37460}, {"eventtype": "window_resize", "value": [1024, 646], "timestamp": 1693568163920, "interval": 3326058}], "useragent": "Mozilla/5.0 (Windows NT 10.0; Win64; x64) AppleWebKit/537.36 (KHTML, like Gecko) Chrome/116.0.0.0 Safari/537.36", "mode": "live", "id": "w50672556:a39899322", "status": "user data saved", "Beginhit": "2023-09-01 10:39:56.641143", "Beginexp": "2023-09-01 10:40:39.505983", "Endhit": "2023-09-01 11:36:07.091169", "psiturkStatus": 3, "browser": "<redacted>", "platform": "windows", "language": "en-ZA"}