{"condition": 0, "counterbalance": 0, "assignmentId": "a75047306", "workerId": "w45475537", "hitId": "h35515886", "currenttrial": 62, "bonus": 0, "data": [{"uniqueid": "w45475537:a75047306", "current_trial": 0, "dateTime": 1691485190859, "trialdata": {"success": true, "trial_type": "fullscreen", "trial_index": 0, "time_elapsed": 5481, "internal_node_id": "0.0-0.0"}}, {"uniqueid": "w45475537:a75047306", "current_trial": 1, "dateTime": 1691485213913, "trialdata": {"view_history": [{"page_index": 0, "viewing_time": 23042}], "rt": 23043, "trial_id": "exp_instructions_misaligned", "trial_type": "instructions", "trial_index": 1, "time_elapsed": 28536, "internal_node_id": "0.0-1.0"}}, {"uniqueid": "w45475537:a75047306", "current_trial": 2, "dateTime": 1691485217828, "trialdata": {"success": true, "trial_type": "fullscreen", "trial_index": 2, "time_elapsed": 32451, "internal_node_id": "0.0-2.0-0.0"}}, {"uniqueid": "w45475537:a75047306", "current_trial": 3, "dateTime": 1691485488307, "trialdata": {"view_history": [{"page_index": 0, "viewing_time": 104821}, {"page_index": 1, "viewing_time": 80164}, {"page_index": 2, "viewing_time": 38193}, {"page_index": 3, "viewing_time": 47295}], "rt": 270474, "trial_id": "mouselab_instructions_1_misaligned", "trial_type": "instructions", "trial_index": 3, "time_elapsed": 302930, "internal_node_id": "0.0-2.0-1.0"}}, {"uniqueid": "w45475537:a75047306", "current_trial": 4, "dateTime": 1691485529494, "trialdata": {"revealed_states": [], "clicked_states": ["27", "21", "32", "3", "17", "18"], "num_clicks_accrued": [0, 0, 0, 0, 0, 0, 0, 0, 0, 0, 0, 0, 0], "stateRewards": ["", -10, 10, -10, -10, 10, 10, -10, -10, -10, 10, -10, -10, -10, -10, 10, 10, 10, 10, -10, -10, 10, 10, 10, 10, -10, -10, -10, 10, -10, -10, -10, -10, 10], "withholdReward": false, "trial_id": "practice_1", "block": "test", "trialIndex": 0, "score": -9.5, "costs": -3, "simulationMode": [null, null, null, null, null], "rewards": [-10, -10, -10, 10, 10], "path": ["0", "0", "12", "13", "14", "15", "17"], "rt": [26532, 11, 897, 1397, 244], "actions": ["right", "right", "right", "up", "right"], "actionTimes": [30249, 30787, 32269, 34184, 34954], "queries": {"click": {"state": {"target": ["27", "21", "32", "3", "17", "18"], "time": [12193, 15931, 18081, 20948, 24373, 25749]}, "edge": {"target": [], "time": []}}, "mouseover": {"state": {"target": ["23", "28", "26", "27", "26", "27", "10", "2", "7", "7", "3", "2", "1", "12", "22", "21", "32", "31", "0", "3", "17", "15", "18", "12", "13", "14"], "time": [5675, 5855, 6072, 7342, 7822, 11854, 13202, 13270, 13388, 14089, 14270, 14852, 15023, 15138, 15287, 15571, 17671, 19271, 19421, 20605, 22154, 25106, 25222, 27855, 28719, 29071]}, "edge": {"target": [], "time": []}}, "mouseout": {"state": {"target": ["0", "23", "28", "26", "27", "26", "27", "10", "2", "7", "7", "3", "2", "1", "12", "22", "21", "32", "31", "0", "3", "17", "17", "15", "18", "12", "13", "14", "19"], "time": [5542, 5755, 5924, 6255, 7687, 11686, 13076, 13260, 13322, 13471, 14192, 14821, 14939, 15042, 15205, 15315, 16637, 19159, 19296, 19455, 21856, 24449, 25040, 25156, 26222, 28322, 29022, 29120, 38121]}, "edge": {"target": [], "time": []}}}, "displayed_time": "35.50", "trialTime": 39549, "trial_type": "mouselab-mdp", "trial_index": 4, "time_elapsed": 344116, "internal_node_id": "0.0-2.0-2.0-0.0"}}, {"uniqueid": "w45475537:a75047306", "current_trial": 5, "dateTime": 1691485549922, "trialdata": {"revealed_states": [], "clicked_states": ["29", "32"], "num_clicks_accrued": [0, 0, 0, 0, 0, 0, 0, 0, 0, 0, 0, 0, 0], "stateRewards": ["", 10, 10, 10, 10, -10, 10, 10, -10, -10, 10, 10, 10, 10, -10, 10, -10, -10, 10, -10, -10, -10, 10, -10, 10, -10, -10, 10, 10, 10, -10, 10, 10, 10], "withholdReward": false, "trial_id": "practice_2", "block": "test", "trialIndex": 1, "score": -7.5, "costs": -1, "simulationMode": [null, null, null, null, null], "rewards": [-10, 10, -10, -10, 10], "path": ["0", "0", "23", "24", "25", "30", "32"], "rt": [8113, 140, 422, 419, 13], "actions": ["left", "left", "left", "down", "down"], "actionTimes": [10788, 11466, 12412, 13358, 13918], "queries": {"click": {"state": {"target": ["29", "32"], "time": [5967, 7459]}, "edge": {"target": [], "time": []}}, "mouseover": {"state": {"target": ["0", "12", "18", "15", "18", "1", "28", "26", "29", "32"], "time": [4076, 4712, 4892, 5022, 5112, 5259, 5407, 5456, 5624, 7173]}, "edge": {"target": [], "time": []}}, "mouseout": {"state": {"target": ["23", "0", "12", "18", "15", "18", "1", "28", "26", "29", "29", "32", "14", "13"], "time": [1140, 4693, 4759, 4912, 5093, 5142, 5293, 5447, 5591, 6025, 6725, 8723, 16022, 16407]}, "edge": {"target": [], "time": []}}}, "displayed_time": "14.47", "trialTime": 19214, "trial_type": "mouselab-mdp", "trial_index": 5, "time_elapsed": 364544, "internal_node_id": "0.0-2.0-2.0-1.0"}}, {"uniqueid": "w45475537:a75047306", "current_trial": 6, "dateTime": 1691485597367, "trialdata": {"view_history": [{"page_index": 0, "viewing_time": 38431}, {"page_index": 1, "viewing_time": 9004}], "rt": 47436, "trial_id": "mouselab_instructions_2_misaligned", "trial_type": "instructions", "trial_index": 6, "time_elapsed": 411990, "internal_node_id": "0.0-2.0-3.0"}}, {"uniqueid": "w45475537:a75047306", "current_trial": 7, "dateTime": 1691485650990, "trialdata": {"rt": 53613, "response": {"Q0": "The cost for clicking on nodes may vary between nodes.", "Q1": "I will receive a $1 bonus if I perform well, otherwise I will receive no bonus.", "Q2": "No, the amount of cash at each node of the web may be different each time.", "Q3": "To get the highest total score.", "Q4": "Only before moving the spider.", "Q5": "3 seconds"}, "question_order": [0, 1, 2, 3, 4, 5], "correct": {"Q0": "The cost for clicking on nodes may vary between nodes.", "Q1": "The better I perform the higher my bonus will be.", "Q2": "No, the amount of cash at each node of the web may be different each time.", "Q3": "To get the highest total score.", "Q4": "Only before moving the spider.", "Q5": "3 seconds"}, "trial_id": "mouselab_quiz_misaligned", "trial_type": "survey-multi-choice", "trial_index": 7, "time_elapsed": 465613, "internal_node_id": "0.0-2.0-4.0"}}, {"uniqueid": "w45475537:a75047306", "current_trial": 8, "dateTime": 1691485659552, "trialdata": {"success": true, "trial_type": "fullscreen", "trial_index": 8, "time_elapsed": 474175, "internal_node_id": "0.0-2.1-0.1"}}, {"uniqueid": "w45475537:a75047306", "current_trial": 9, "dateTime": 1691485810661, "trialdata": {"view_history": [{"page_index": 0, "viewing_time": 49249}, {"page_index": 1, "viewing_time": 53369}, {"page_index": 2, "viewing_time": 13606}, {"page_index": 3, "viewing_time": 34877}], "rt": 151103, "trial_id": "mouselab_instructions_1_misaligned", "trial_type": "instructions", "trial_index": 9, "time_elapsed": 625284, "internal_node_id": "0.0-2.1-1.1"}}, {"uniqueid": "w45475537:a75047306", "current_trial": 10, "dateTime": 1691485829236, "trialdata": {"revealed_states": [], "clicked_states": ["16"], "num_clicks_accrued": [0, 0, 0, 0, 0, 0, 0, 0, 0, 0, 0, 0, 0], "stateRewards": ["", -10, 10, -10, -10, 10, 10, -10, -10, -10, 10, -10, -10, -10, -10, 10, 10, 10, 10, -10, -10, 10, 10, 10, 10, -10, -10, -10, 10, -10, -10, -10, -10, 10], "withholdReward": false, "trial_id": "practice_1", "block": "test", "trialIndex": 2, "score": -7, "costs": -0.5, "simulationMode": [null, null, null, null, null], "rewards": [-10, -10, -10, 10, 10], "path": ["0", "0", "12", "13", "14", "15", "16"], "rt": [6899, 38, 302, 765, 459], "actions": ["right", "right", "right", "up", "up"], "actionTimes": [9815, 10383, 11200, 12497, 13472], "queries": {"click": {"state": {"target": ["16"], "time": [5378]}, "edge": {"target": [], "time": []}}, "mouseover": {"state": {"target": ["12", "13", "14", "15", "16", "18", "13", "14"], "time": [4368, 4448, 4530, 4647, 5063, 6830, 7399, 8231]}, "edge": {"target": [], "time": []}}, "mouseout": {"state": {"target": ["0", "12", "13", "14", "15", "16", "18", "13", "14", "22"], "time": [4348, 4417, 4483, 4562, 4697, 6032, 6857, 7962, 15213, 15447]}, "edge": {"target": [], "time": []}}}, "displayed_time": "13.99", "trialTime": 17317, "trial_type": "mouselab-mdp", "trial_index": 10, "time_elapsed": 643857, "internal_node_id": "0.0-2.1-2.1-0.1"}}, {"uniqueid": "w45475537:a75047306", "current_trial": 11, "dateTime": 1691485846891, "trialdata": {"revealed_states": [], "clicked_states": ["11"], "num_clicks_accrued": [0, 0, 0, 0, 0, 0, 0, 0, 0, 0, 0, 0, 0], "stateRewards": ["", 10, 10, 10, 10, -10, 10, 10, -10, -10, 10, 10, 10, 10, -10, 10, -10, -10, 10, -10, -10, -10, 10, -10, 10, -10, -10, 10, 10, 10, -10, 10, 10, 10], "withholdReward": false, "trial_id": "practice_2", "block": "test", "trialIndex": 3, "score": 33, "costs": -0.5, "simulationMode": [null, null, null, null, null], "rewards": [10, 10, 10, -10, 10], "path": ["0", "0", "1", "2", "3", "8", "11"], "rt": [5789, 5, 72, 586, 376], "actions": ["up", "up", "up", "left", "left"], "actionTimes": [8717, 9259, 9882, 11000, 11917], "queries": {"click": {"state": {"target": ["11"], "time": [5958]}, "edge": {"target": [], "time": []}}, "mouseover": {"state": {"target": ["23", "10", "8", "11"], "time": [4308, 4872, 5190, 5605]}, "edge": {"target": [], "time": []}}, "mouseout": {"state": {"target": ["0", "23", "10", "8", "11", "23"], "time": [4257, 4756, 4906, 5524, 7424, 14506]}, "edge": {"target": [], "time": []}}}, "displayed_time": "12.48", "trialTime": 16481, "trial_type": "mouselab-mdp", "trial_index": 11, "time_elapsed": 661513, "internal_node_id": "0.0-2.1-2.1-1.1"}}, {"uniqueid": "w45475537:a75047306", "current_trial": 12, "dateTime": 1691485876040, "trialdata": {"view_history": [{"page_index": 0, "viewing_time": 26706}, {"page_index": 1, "viewing_time": 2435}], "rt": 29141, "trial_id": "mouselab_instructions_2_misaligned", "trial_type": "instructions", "trial_index": 12, "time_elapsed": 690663, "internal_node_id": "0.0-2.1-3.1"}}, {"uniqueid": "w45475537:a75047306", "current_trial": 13, "dateTime": 1691485921416, "trialdata": {"rt": 45366, "response": {"Q0": "The cost for clicking on nodes may vary between nodes.", "Q1": "The better I perform the higher my bonus will be.", "Q2": "No, the amount of cash at each node of the web may be different each time.", "Q3": "To get the highest total score.", "Q4": "Only before moving the spider.", "Q5": "3 seconds"}, "question_order": [0, 1, 2, 3, 4, 5], "correct": {"Q0": "The cost for clicking on nodes may vary between nodes.", "Q1": "The better I perform the higher my bonus will be.", "Q2": "No, the amount of cash at each node of the web may be different each time.", "Q3": "To get the highest total score.", "Q4": "Only before moving the spider.", "Q5": "3 seconds"}, "trial_id": "mouselab_quiz_misaligned", "trial_type": "survey-multi-choice", "trial_index": 13, "time_elapsed": 736039, "internal_node_id": "0.0-2.1-4.1"}}, {"uniqueid": "w45475537:a75047306", "current_trial": 14, "dateTime": 1691485933249, "trialdata": {"rt": 11810, "stimulus": "\n<h1> Get ready to start the game! </h1>\n\nThank you for reading the instructions. Get ready start with the 40 rounds of this game.\n<br><br>\nIf you need to take a break, feel free to take one after the end of a round, before continuing to the next one.\n<br><br>\nRemember, the more money the spider gets, the bigger your bonus will be!\n<br><br>\n<div style='text-align: center;'>Press <code>space</code> to begin.</div>\n\n<br><br>\n(If, at any point, the <code>space</code> key does not take you to the next page, click once on the text and try again.)", "response": " ", "trial_id": "mdp_ready", "trial_type": "html-keyboard-response", "trial_index": 14, "time_elapsed": 747872, "internal_node_id": "0.0-4.0-0.0"}}, {"uniqueid": "w45475537:a75047306", "current_trial": 15, "dateTime": 1691485977012, "trialdata": {"revealed_states": [], "clicked_states": ["6", "32", "27", "16", "11", "21"], "num_clicks_accrued": [0, 0, 0, 0, 0, 0, 0, 0, 0, 0, 0, 0, 0], "stateRewards": ["", 1, 2, 7, 13, 88, -71, 27, 3, 60, 5, -53, -2, 2, -6, -1, -30, 79, 47, -4, -14, 46, 68, 1, 1, 8, 10, -14, 86, 48, -11, -67, -44, 5], "withholdReward": false, "trial_id": "mdp_trial_1", "block": "test", "trialIndex": 4, "score": 23.1, "costs": -12.9, "simulationMode": [null, null, null, null, null], "rewards": [-2, 2, -6, -4, 46], "path": ["0", "0", "12", "13", "14", "19", "21"], "rt": [32465, 136, 240, 773, 294], "actions": ["right", "right", "right", "down", "down"], "actionTimes": [35698, 36376, 37155, 38461, 39299], "queries": {"click": {"state": {"target": ["6", "32", "27", "16", "11", "21"], "time": [6070, 11579, 16507, 21343, 26046, 30798]}, "edge": {"target": [], "time": []}}, "mouseover": {"state": {"target": ["23", "2", "7", "6", "7", "0", "23", "24", "30", "32", "31", "24", "26", "27", "26", "28", "23", "22", "17", "16", "15", "13", "12", "0", "10", "11", "10", "1", "12", "22", "21"], "time": [4852, 5385, 5416, 5652, 7532, 10751, 10820, 10917, 11053, 11269, 15685, 15788, 15987, 16219, 17361, 17975, 18232, 20270, 20668, 21036, 22189, 23726, 24854, 25049, 25253, 25510, 29967, 30030, 30085, 30151, 30400]}, "edge": {"target": [], "time": []}}, "mouseout": {"state": {"target": ["0", "0", "0", "23", "2", "7", "6", "7", "0", "23", "24", "30", "32", "31", "24", "26", "27", "26", "28", "23", "22", "17", "16", "15", "13", "12", "0", "10", "11", "10", "1", "12", "22", "21"], "time": [1400, 1681, 3298, 5052, 5406, 5441, 6653, 8303, 10772, 10884, 10953, 11221, 12333, 15718, 15855, 16136, 17205, 17454, 18013, 18399, 20353, 20886, 22037, 22499, 24284, 24968, 25081, 25280, 27217, 30001, 30056, 30106, 30203, 34717]}, "edge": {"target": [], "time": []}}}, "displayed_time": "39.84", "trialTime": 42337, "trial_type": "mouselab-mdp", "trial_index": 15, "time_elapsed": 791633, "internal_node_id": "0.0-4.0-1.0-0.0"}}, {"uniqueid": "w45475537:a75047306", "current_trial": 16, "dateTime": 1691485996703, "trialdata": {"revealed_states": [], "clicked_states": ["11"], "num_clicks_accrued": [0, 0, 0, 0, 0, 0, 0, 0, 0, 0, 0, 0, 0], "stateRewards": ["", -2, -2, -7, -13, -10, 49, -68, -1, 84, 70, 88, 1, 4, 4, 12, -57, 25, 30, 8, -1, -77, 57, 2, 3, 2, 3, -18, -80, 23, -15, -41, 70, 11], "withholdReward": false, "trial_id": "mdp_trial_2", "block": "test", "trialIndex": 5, "score": 73.85, "costs": -2.15, "simulationMode": [null, null, null, null, null], "rewards": [-2, -2, -7, -1, 88], "path": ["0", "0", "1", "2", "3", "8", "11"], "rt": [6214, 130, 18, 560, 266], "actions": ["up", "up", "up", "left", "left"], "actionTimes": [8217, 8873, 9442, 10544, 11343], "queries": {"click": {"state": {"target": ["11"], "time": [3503]}, "edge": {"target": [], "time": []}}, "mouseover": {"state": {"target": ["11"], "time": [3110]}, "edge": {"target": [], "time": []}}, "mouseout": {"state": {"target": ["22", "12", "11", "23"], "time": [26, 509, 5060, 14012]}, "edge": {"target": [], "time": []}}}, "displayed_time": "16.01", "trialTime": 18174, "trial_type": "mouselab-mdp", "trial_index": 16, "time_elapsed": 811325, "internal_node_id": "0.0-4.0-1.0-1.0"}}, {"uniqueid": "w45475537:a75047306", "current_trial": 17, "dateTime": 1691486023613, "trialdata": {"revealed_states": [], "clicked_states": ["32", "6", "17"], "num_clicks_accrued": [0, 0, 0, 0, 0, 0, 0, 0, 0, 0, 0, 0, 0], "stateRewards": ["", -2, -3, -7, 7, -54, -69, -4, -14, -77, 22, 40, -2, -1, 5, 6, -35, 50, -60, 10, -28, 75, 57, 1, -4, -2, 2, 68, 34, -18, 12, 3, -21, -43], "withholdReward": false, "trial_id": "mdp_trial_3", "block": "test", "trialIndex": 6, "score": 51.55, "costs": -6.449999999999999, "simulationMode": [null, null, null, null, null], "rewards": [-2, -1, 5, 6, 50], "path": ["0", "0", "12", "13", "14", "15", "17"], "rt": [15993, 316, 119, 629, 160], "actions": ["right", "right", "right", "up", "right"], "actionTimes": [18410, 19245, 19973, 21138, 21854], "queries": {"click": {"state": {"target": ["32", "6", "17"], "time": [4402, 8850, 13445]}, "edge": {"target": [], "time": []}}, "mouseover": {"state": {"target": ["0", "31", "32", "31", "23", "6", "16", "17"], "time": [3638, 3806, 3989, 8107, 8166, 8558, 12855, 13107]}, "edge": {"target": [], "time": []}}, "mouseout": {"state": {"target": ["0", "0", "31", "32", "31", "23", "6", "16", "17", "15", "13"], "time": [989, 3690, 3826, 8010, 8141, 8188, 12691, 12956, 23341, 23471, 23838]}, "edge": {"target": [], "time": []}}}, "displayed_time": "22.38", "trialTime": 25395, "trial_type": "mouselab-mdp", "trial_index": 17, "time_elapsed": 838235, "internal_node_id": "0.0-4.0-1.0-2.0"}}, {"uniqueid": "w45475537:a75047306", "current_trial": 18, "dateTime": 1691486045228, "trialdata": {"revealed_states": [], "clicked_states": [], "num_clicks_accrued": [0, 0, 0, 0, 0, 0, 0, 0, 0, 0, 0, 0, 0], "stateRewards": ["", -1, -3, 3, 5, 56, 39, 50, -1, -80, 33, -46, 1, -2, -6, -8, 87, 48, 54, -11, -20, -64, -54, -2, 3, -7, -3, 12, 88, 35, -16, -46, -70, -3], "withholdReward": false, "trial_id": "mdp_trial_4", "block": "test", "trialIndex": 7, "score": 72, "costs": 0, "simulationMode": [null, null, null, null, null], "rewards": [1, -2, -6, -8, 87], "path": ["0", "0", "12", "13", "14", "15", "16"], "rt": [8197, 128, 498, 579, 59], "actions": ["right", "right", "right", "up", "up"], "actionTimes": [11913, 12567, 13589, 14703, 15312], "queries": {"click": {"state": {"target": [], "time": []}, "edge": {"target": [], "time": []}}, "mouseover": {"state": {"target": ["0", "23", "24", "25", "26", "27", "27", "26", "24"], "time": [5914, 6133, 6270, 6331, 6436, 6499, 6784, 8865, 9316]}, "edge": {"target": [], "time": []}}, "mouseout": {"state": {"target": ["0", "0", "23", "24", "25", "26", "27", "27", "26", "24", "24", "31"], "time": [2713, 5968, 6249, 6300, 6354, 6459, 6617, 8533, 9134, 10003, 17499, 19214]}, "edge": {"target": [], "time": []}}}, "displayed_time": "17.72", "trialTime": 20104, "trial_type": "mouselab-mdp", "trial_index": 18, "time_elapsed": 859850, "internal_node_id": "0.0-4.0-1.0-3.0"}}, {"uniqueid": "w45475537:a75047306", "current_trial": 19, "dateTime": 1691486067051, "trialdata": {"revealed_states": [], "clicked_states": ["29", "16"], "num_clicks_accrued": [0, 0, 0, 0, 0, 0, 0, 0, 0, 0, 0, 0, 0], "stateRewards": ["", -2, -4, -6, 12, -58, -70, -80, 2, 16, -88, -62, 1, 2, -5, 11, 77, -35, -44, -5, 18, -83, 87, 1, -3, -5, 13, -44, -21, -86, 10, -52, 8, 29], "withholdReward": false, "trial_id": "mdp_trial_5", "block": "test", "trialIndex": 8, "score": 81.7, "costs": -4.3, "simulationMode": [null, null, null, null, null], "rewards": [1, 2, -5, 11, 77], "path": ["0", "0", "12", "13", "14", "15", "16"], "rt": [10741, 130, 418, 741, 158], "actions": ["right", "right", "right", "up", "up"], "actionTimes": [13822, 14470, 15415, 16699, 17372], "queries": {"click": {"state": {"target": ["29", "16"], "time": [4840, 8764]}, "edge": {"target": [], "time": []}}, "mouseover": {"state": {"target": ["23", "24", "25", "29", "26", "28", "1", "16", "16", "18", "13"], "time": [3778, 3896, 4029, 4596, 7092, 7262, 7541, 8093, 8181, 12396, 13044]}, "edge": {"target": [], "time": []}}, "mouseout": {"state": {"target": ["31", "0", "23", "24", "25", "29", "26", "28", "1", "16", "16", "16", "18", "13"], "time": [712, 975, 3874, 3923, 4178, 7049, 7215, 7381, 7582, 8126, 8813, 11943, 12433, 18610]}, "edge": {"target": [], "time": []}}}, "displayed_time": "17.97", "trialTime": 20309, "trial_type": "mouselab-mdp", "trial_index": 19, "time_elapsed": 881673, "internal_node_id": "0.0-4.0-1.0-4.0"}}, {"uniqueid": "w45475537:a75047306", "current_trial": 20, "dateTime": 1691486103026, "trialdata": {"revealed_states": [], "clicked_states": ["21", "32", "9", "29", "16"], "num_clicks_accrued": [0, 0, 0, 0, 0, 0, 0, 0, 0, 0, 0, 0, 0], "stateRewards": ["", 1, 2, -3, -5, 66, -50, -47, -5, 1, 28, -27, 1, 1, -1, -6, 37, -25, 56, 1, -82, -66, -40, -1, -4, -7, 15, -61, -23, 26, 10, 14, -56, 29], "withholdReward": false, "trial_id": "mdp_trial_6", "block": "test", "trialIndex": 9, "score": 21.25, "costs": -10.75, "simulationMode": [null, null, null, null, null], "rewards": [1, 1, -1, -6, 37], "path": ["0", "0", "12", "13", "14", "15", "16"], "rt": [23143, 54, 36, 665, 212], "actions": ["right", "right", "right", "up", "up"], "actionTimes": [25570, 26171, 26752, 27979, 28738], "queries": {"click": {"state": {"target": ["21", "32", "9", "29", "16"], "time": [3683, 7970, 12083, 16555, 21324]}, "edge": {"target": [], "time": []}}, "mouseover": {"state": {"target": ["21", "32", "30", "28", "8", "9", "11", "27", "29", "29", "26", "1", "16", "18"], "time": [3412, 7694, 11462, 11576, 11696, 11815, 15811, 15867, 15929, 16262, 20292, 20342, 20844, 22099]}, "edge": {"target": [], "time": []}}, "mouseout": {"state": {"target": ["0", "21", "32", "30", "28", "8", "9", "11", "27", "29", "29", "26", "1", "16", "18", "0"], "time": [2995, 7216, 11363, 11516, 11599, 11743, 15780, 15844, 15898, 15994, 20261, 20312, 20363, 22020, 22136, 33495]}, "edge": {"target": [], "time": []}}}, "displayed_time": "29.26", "trialTime": 34402, "trial_type": "mouselab-mdp", "trial_index": 20, "time_elapsed": 917648, "internal_node_id": "0.0-4.0-1.0-5.0"}}, {"uniqueid": "w45475537:a75047306", "current_trial": 21, "dateTime": 1691486122942, "trialdata": {"revealed_states": [], "clicked_states": ["29"], "num_clicks_accrued": [0, 0, 0, 0, 0, 0, 0, 0, 0, 0, 0, 0, 0], "stateRewards": ["", -2, -4, 6, 14, -34, 49, 36, -8, -3, 32, -4, 1, -2, 1, -8, -20, -71, -57, -7, -86, -62, -16, -2, -3, -5, 11, 23, -21, 53, 5, -5, 85, 73], "withholdReward": false, "trial_id": "mdp_trial_7", "block": "test", "trialIndex": 10, "score": 51.85, "costs": -2.15, "simulationMode": [null, null, null, null, null], "rewards": [-2, -3, -5, 11, 53], "path": ["0", "0", "23", "24", "25", "26", "29"], "rt": [6114, 59, 448, 624, 311], "actions": ["left", "left", "left", "up", "left"], "actionTimes": [8184, 8834, 9830, 10996, 11829], "queries": {"click": {"state": {"target": ["29"], "time": [3675]}, "edge": {"target": [], "time": []}}, "mouseover": {"state": {"target": ["23", "24", "26", "29", "25"], "time": [2836, 2908, 3055, 3402, 5268]}, "edge": {"target": [], "time": []}}, "mouseout": {"state": {"target": ["0", "23", "24", "26", "29", "25", "24", "31"], "time": [1052, 2885, 2968, 3187, 4990, 7404, 13387, 17219]}, "edge": {"target": [], "time": []}}}, "displayed_time": "16.07", "trialTime": 18445, "trial_type": "mouselab-mdp", "trial_index": 21, "time_elapsed": 937564, "internal_node_id": "0.0-4.0-1.0-6.0"}}, {"uniqueid": "w45475537:a75047306", "current_trial": 22, "dateTime": 1691486158747, "trialdata": {"revealed_states": [], "clicked_states": ["6", "33", "31", "21", "16"], "num_clicks_accrued": [0, 0, 0, 0, 0, 0, 0, 0, 0, 0, 0, 0, 0], "stateRewards": ["", -1, 3, 8, 9, -53, 20, -84, 2, -28, -62, -31, -1, -2, -7, 2, 51, 58, 45, -4, -17, -41, 36, 2, -2, -7, -15, 29, -54, -37, -16, -43, 65, -17], "withholdReward": false, "trial_id": "mdp_trial_8", "block": "test", "trialIndex": 11, "score": 32.25, "costs": -10.75, "simulationMode": [null, null, null, null, null], "rewards": [-1, -2, -7, 2, 51], "path": ["0", "0", "12", "13", "14", "15", "16"], "rt": [23291, 61, 347, 496, 47], "actions": ["right", "right", "right", "up", "up"], "actionTimes": [25241, 25857, 26740, 27770, 28361], "queries": {"click": {"state": {"target": ["6", "33", "31", "21", "16"], "time": [4077, 8925, 12724, 16838, 21120]}, "edge": {"target": [], "time": []}}, "mouseover": {"state": {"target": ["1", "2", "4", "6", "7", "2", "10", "26", "33", "30", "31", "21", "19", "14", "15", "16"], "time": [3262, 3363, 3496, 3794, 7613, 7666, 7722, 8196, 8594, 12282, 12322, 16362, 20582, 20646, 20679, 20760]}, "edge": {"target": [], "time": []}}, "mouseout": {"state": {"target": ["0", "1", "2", "4", "6", "6", "7", "2", "10", "26", "33", "30", "31", "21", "19", "14", "15", "16", "18", "12", "0"], "time": [1077, 3333, 3396, 3531, 4166, 5538, 7646, 7694, 7746, 8278, 12262, 12313, 16210, 20561, 20615, 20670, 20712, 29921, 30410, 30794, 31261]}, "edge": {"target": [], "time": []}}}, "displayed_time": "28.89", "trialTime": 34110, "trial_type": "mouselab-mdp", "trial_index": 22, "time_elapsed": 973369, "internal_node_id": "0.0-4.0-1.0-7.0"}}, {"uniqueid": "w45475537:a75047306", "current_trial": 23, "dateTime": 1691486180086, "trialdata": {"revealed_states": [], "clicked_states": ["29", "11"], "num_clicks_accrued": [0, 0, 0, 0, 0, 0, 0, 0, 0, 0, 0, 0, 0], "stateRewards": ["", -1, 2, 6, 11, 21, -21, -21, -6, 48, -71, 88, -1, -3, 3, 7, 64, 2, 9, -4, 37, -67, 72, 2, 2, -8, -8, -10, 71, -40, -3, 73, 80, 47], "withholdReward": false, "trial_id": "mdp_trial_9", "block": "test", "trialIndex": 12, "score": 84.7, "costs": -4.3, "simulationMode": [null, null, null, null, null], "rewards": [-1, 2, 6, -6, 88], "path": ["0", "0", "1", "2", "3", "8", "11"], "rt": [9769, 35, 264, 288, 134], "actions": ["up", "up", "up", "left", "left"], "actionTimes": [11570, 12168, 12943, 13809, 14466], "queries": {"click": {"state": {"target": ["29", "11"], "time": [3158, 6540]}, "edge": {"target": [], "time": []}}, "mouseover": {"state": {"target": ["28", "26", "29", "26", "11", "10", "2", "7"], "time": [2433, 2684, 2914, 4075, 5825, 8668, 9046, 9183]}, "edge": {"target": [], "time": []}}, "mouseout": {"state": {"target": ["0", "28", "26", "29", "26", "11", "10", "2", "7", "3", "3", "2"], "time": [1833, 2466, 2747, 3529, 4277, 8307, 8856, 9175, 16543, 16564, 17980, 18612]}, "edge": {"target": [], "time": []}}}, "displayed_time": "15.81", "trialTime": 19569, "trial_type": "mouselab-mdp", "trial_index": 23, "time_elapsed": 994708, "internal_node_id": "0.0-4.0-1.0-8.0"}}, {"uniqueid": "w45475537:a75047306", "current_trial": 24, "dateTime": 1691486200951, "trialdata": {"revealed_states": [], "clicked_states": ["7"], "num_clicks_accrued": [0, 0, 0, 0, 0, 0, 0, 0, 0, 0, 0, 0, 0], "stateRewards": ["", 2, 3, 6, -12, -29, 12, 87, 4, 35, -30, 67, 2, 3, -5, -9, 44, 69, -8, 1, 45, -8, 28, -2, -1, -8, 11, -12, -5, 81, 9, 87, 82, 88], "withholdReward": false, "trial_id": "mdp_trial_10", "block": "test", "trialIndex": 13, "score": 83.85, "costs": -2.15, "simulationMode": [null, null, null, null, null], "rewards": [2, 3, 6, -12, 87], "path": ["0", "0", "1", "2", "3", "4", "7"], "rt": [6500, 130, 44, 597, 337], "actions": ["up", "up", "up", "right", "down"], "actionTimes": [10129, 10812, 11394, 12534, 13424], "queries": {"click": {"state": {"target": ["7"], "time": [5322]}, "edge": {"target": [], "time": []}}, "mouseover": {"state": {"target": ["1", "2", "8", "3", "4", "7", "7"], "time": [4290, 4355, 4472, 4570, 4646, 4787, 4902]}, "edge": {"target": [], "time": []}}, "mouseout": {"state": {"target": ["1", "23", "0", "1", "2", "8", "3", "4", "7", "7"], "time": [365, 1944, 2131, 4329, 4412, 4518, 4601, 4760, 4831, 15517]}, "edge": {"target": [], "time": []}}}, "displayed_time": "17.63", "trialTime": 19088, "trial_type": "mouselab-mdp", "trial_index": 24, "time_elapsed": 1015573, "internal_node_id": "0.0-4.0-1.0-9.0"}}, {"uniqueid": "w45475537:a75047306", "current_trial": 25, "dateTime": 1691486221522, "trialdata": {"revealed_states": [], "clicked_states": [], "num_clicks_accrued": [0, 0, 0, 0, 0, 0, 0, 0, 0, 0, 0, 0, 0], "stateRewards": ["", 2, 4, 7, 7, -79, -2, -21, -5, -53, 47, -21, 1, -3, -1, 7, 83, 7, 84, -7, 80, -37, 69, 2, -4, 5, 2, 4, -20, -30, 7, 71, 44, -81], "withholdReward": false, "trial_id": "mdp_trial_11", "block": "test", "trialIndex": 14, "score": 81, "costs": 0, "simulationMode": [null, null, null, null, null], "rewards": [2, -4, 5, 7, 71], "path": ["0", "0", "23", "24", "25", "30", "31"], "rt": [6923, 62, 79, 802, 629], "actions": ["left", "left", "left", "down", "right"], "actionTimes": [9678, 10300, 10920, 12240, 13404], "queries": {"click": {"state": {"target": [], "time": []}, "edge": {"target": [], "time": []}}, "mouseover": {"state": {"target": ["1", "23", "24", "30", "33", "30", "31"], "time": [4054, 4237, 4336, 4837, 5084, 5236, 5554]}, "edge": {"target": [], "time": []}}, "mouseout": {"state": {"target": ["1", "1", "23", "24", "30", "33", "30", "31"], "time": [1418, 4103, 4258, 4418, 5037, 5152, 5437, 7886]}, "edge": {"target": [], "time": []}}}, "displayed_time": "16.76", "trialTime": 18914, "trial_type": "mouselab-mdp", "trial_index": 25, "time_elapsed": 1036145, "internal_node_id": "0.0-4.0-1.0-10.0"}}, {"uniqueid": "w45475537:a75047306", "current_trial": 26, "dateTime": 1691486286269, "trialdata": {"revealed_states": [], "clicked_states": ["28", "22", "20", "17", "11", "6", "7", "32", "21", "29", "27"], "num_clicks_accrued": [0, 0, 0, 0, 0, 0, 0, 0, 0, 0, 0, 0, 0], "stateRewards": ["", -2, 2, 3, -7, -31, -33, 29, -8, -57, 50, -83, -1, -1, 5, 13, -23, -62, 25, 5, -66, -85, 14, 1, -2, -1, 16, 71, 33, -19, -14, 5, -43, 79], "withholdReward": false, "trial_id": "mdp_trial_12", "block": "test", "trialIndex": 15, "score": 61.35000000000001, "costs": -23.649999999999995, "simulationMode": [null, null, null, null, null], "rewards": [1, -2, -1, 16, 71], "path": ["0", "0", "23", "24", "25", "26", "27"], "rt": [52950, 24, 47, 784, 96], "actions": ["left", "left", "left", "up", "up"], "actionTimes": [55548, 56107, 56689, 58027, 58648], "queries": {"click": {"state": {"target": ["28", "22", "20", "17", "11", "6", "7", "32", "21", "29", "27"], "time": [4793, 9170, 13678, 17544, 22164, 26544, 31850, 36883, 41657, 46225, 50365]}, "edge": {"target": [], "time": []}}, "mouseover": {"state": {"target": ["23", "30", "33", "29", "26", "28", "23", "0", "12", "22", "19", "20", "20", "17", "15", "18", "2", "11", "2", "7", "6", "6", "7", "2", "10", "24", "31", "32", "21", "29", "27"], "time": [3246, 3333, 3402, 3915, 4309, 4552, 8349, 8412, 8550, 8812, 12857, 12891, 13216, 17265, 21053, 21095, 21283, 21731, 25798, 25850, 25982, 26247, 31531, 35631, 35720, 36162, 36258, 36450, 41296, 45846, 49761]}, "edge": {"target": [], "time": []}}, "mouseout": {"state": {"target": ["0", "23", "30", "33", "29", "26", "28", "23", "0", "12", "22", "19", "20", "20", "17", "15", "18", "2", "11", "2", "7", "6", "6", "7", "2", "10", "24", "31", "32", "21", "21", "29", "27", "24", "31"], "time": [3217, 3283, 3369, 3618, 4282, 4362, 5819, 8386, 8437, 8583, 12849, 12879, 12913, 17187, 21020, 21084, 21135, 21420, 23069, 25819, 25932, 26012, 31014, 35615, 35712, 35963, 36212, 36300, 40702, 41769, 45164, 49681, 60862, 61996, 62130]}, "edge": {"target": [], "time": []}}}, "displayed_time": "59.16", "trialTime": 63024, "trial_type": "mouselab-mdp", "trial_index": 26, "time_elapsed": 1100892, "internal_node_id": "0.0-4.0-1.0-11.0"}}, {"uniqueid": "w45475537:a75047306", "current_trial": 27, "dateTime": 1691486333739, "trialdata": {"revealed_states": [], "clicked_states": ["6", "33", "16", "21", "28", "27", "11", "5"], "num_clicks_accrued": [0, 0, 0, 0, 0, 0, 0, 0, 0, 0, 0, 0, 0], "stateRewards": ["", 2, 4, 7, -6, -76, -81, 2, 5, -66, -3, 36, -2, -4, 6, -2, -69, 4, -49, -6, 67, 38, -67, 2, 1, 1, 6, -68, -21, 52, -16, -16, 6, -70], "withholdReward": false, "trial_id": "mdp_trial_13", "block": "test", "trialIndex": 16, "score": 14.8, "costs": -17.2, "simulationMode": [null, null, null, null, null], "rewards": [-2, -4, 6, -6, 38], "path": ["0", "0", "12", "13", "14", "19", "21"], "rt": [36268, 31, 33, 554, 9], "actions": ["right", "right", "right", "down", "down"], "actionTimes": [38438, 39060, 39644, 40755, 41282], "queries": {"click": {"state": {"target": ["6", "33", "16", "21", "28", "27", "11", "5"], "time": [3397, 7965, 11971, 15957, 20425, 24688, 28734, 33081]}, "edge": {"target": [], "time": []}}, "mouseover": {"state": {"target": ["6", "7", "2", "1", "23", "24", "30", "33", "1", "16", "15", "14", "19", "21", "19", "23", "28", "28", "26", "27", "8", "11", "8", "3", "5", "22"], "time": [3137, 7028, 7075, 7133, 7300, 7354, 7522, 7595, 11373, 11702, 15399, 15453, 15513, 15688, 19568, 19668, 19769, 20118, 23922, 24318, 28253, 28401, 29763, 32445, 32751, 36803]}, "edge": {"target": [], "time": []}}, "mouseout": {"state": {"target": ["0", "6", "7", "2", "1", "23", "24", "30", "33", "1", "16", "15", "14", "19", "21", "19", "23", "28", "28", "26", "27", "8", "11", "8", "3", "5", "22", "22"], "time": [2721, 6989, 7054, 7115, 7169, 7323, 7404, 7552, 11353, 11400, 15364, 15425, 15482, 15538, 16071, 19591, 19691, 19872, 23884, 24018, 28097, 28273, 29623, 32437, 32502, 36770, 36830, 43484]}, "edge": {"target": [], "time": []}}}, "displayed_time": "41.89", "trialTime": 45486, "trial_type": "mouselab-mdp", "trial_index": 27, "time_elapsed": 1148361, "internal_node_id": "0.0-4.0-1.0-12.0"}}, {"uniqueid": "w45475537:a75047306", "current_trial": 28, "dateTime": 1691486371153, "trialdata": {"revealed_states": [], "clicked_states": ["5", "21", "32", "16", "29"], "num_clicks_accrued": [0, 0, 0, 0, 0, 0, 0, 0, 0, 0, 0, 0, 0], "stateRewards": ["", 2, 3, -6, -5, -3, 55, 40, 11, 61, 11, 51, 2, -4, -6, 9, -25, 29, -15, -6, 7, -77, -2, -2, -4, 1, 14, -43, -1, 56, -12, -54, 41, -74], "withholdReward": false, "trial_id": "mdp_trial_14", "block": "test", "trialIndex": 17, "score": 54.25, "costs": -10.75, "simulationMode": [null, null, null, null, null], "rewards": [-2, -4, 1, 14, 56], "path": ["0", "0", "23", "24", "25", "26", "29"], "rt": [25623, 38, 41, 823, 9], "actions": ["left", "left", "left", "up", "left"], "actionTimes": [27949, 28537, 29115, 30472, 31013], "queries": {"click": {"state": {"target": ["5", "21", "32", "16", "29"], "time": [4127, 8583, 12775, 16826, 22256]}, "edge": {"target": [], "time": []}}, "mouseover": {"state": {"target": ["1", "7", "4", "5", "4", "7", "13", "21", "19", "13", "31", "32", "31", "0", "18", "16", "18", "12", "0", "29", "25", "25"], "time": [3353, 3488, 3556, 3855, 7673, 7790, 7923, 8170, 11738, 11938, 12139, 12453, 14019, 14129, 14265, 14430, 20555, 20904, 21039, 21955, 23548, 26790]}, "edge": {"target": [], "time": []}}, "mouseout": {"state": {"target": ["24", "23", "0", "1", "7", "4", "5", "4", "7", "13", "21", "19", "13", "31", "32", "31", "0", "18", "16", "16", "18", "12", "0", "29", "25", "25", "28"], "time": [853, 1071, 3003, 3438, 3520, 3704, 7606, 7753, 7831, 7990, 11272, 11767, 11993, 12196, 13426, 14058, 14169, 14370, 16899, 20439, 20823, 20972, 21059, 23392, 23738, 26889, 32558]}, "edge": {"target": [], "time": []}}}, "displayed_time": "31.57", "trialTime": 34838, "trial_type": "mouselab-mdp", "trial_index": 28, "time_elapsed": 1185775, "internal_node_id": "0.0-4.0-1.0-13.0"}}, {"uniqueid": "w45475537:a75047306", "current_trial": 29, "dateTime": 1691486392570, "trialdata": {"revealed_states": [], "clicked_states": [], "num_clicks_accrued": [0, 0, 0, 0, 0, 0, 0, 0, 0, 0, 0, 0, 0], "stateRewards": ["", 1, -4, -4, 8, 1, -79, 68, -10, -79, 8, -74, -1, -3, -6, 14, 43, 23, 9, 5, -51, 63, 61, -2, 4, 6, -10, 69, -32, 57, 15, -80, -80, -77], "withholdReward": false, "trial_id": "mdp_trial_15", "block": "test", "trialIndex": 18, "score": -9, "costs": 0, "simulationMode": [null, null, null, null, null], "rewards": [1, -4, -4, -10, 8], "path": ["0", "0", "1", "2", "3", "8", "10"], "rt": [7244, 380, 976, 473, 421], "actions": ["up", "up", "up", "left", "down"], "actionTimes": [10770, 11687, 13196, 14206, 15168], "queries": {"click": {"state": {"target": [], "time": []}, "edge": {"target": [], "time": []}}, "mouseover": {"state": {"target": ["28", "8", "11", "10", "10"], "time": [4745, 5142, 5709, 6743, 6942]}, "edge": {"target": [], "time": []}}, "mouseout": {"state": {"target": ["4", "7", "12", "28", "8", "11", "10", "10", "8", "11", "28"], "time": [1858, 1974, 2224, 4778, 5575, 6491, 6792, 17074, 17544, 17710, 18358]}, "edge": {"target": [], "time": []}}}, "displayed_time": "17.53", "trialTime": 19694, "trial_type": "mouselab-mdp", "trial_index": 29, "time_elapsed": 1207192, "internal_node_id": "0.0-4.0-1.0-14.0"}}, {"uniqueid": "w45475537:a75047306", "current_trial": 30, "dateTime": 1691486412697, "trialdata": {"revealed_states": [], "clicked_states": ["7"], "num_clicks_accrued": [0, 0, 0, 0, 0, 0, 0, 0, 0, 0, 0, 0, 0], "stateRewards": ["", 2, 3, -2, -8, -8, -41, 74, 15, -23, -80, 1, 1, 3, 3, -15, -63, -78, 67, 13, 75, -41, 86, 2, -2, 6, -3, -8, -49, 50, -6, 83, 74, 80], "withholdReward": false, "trial_id": "mdp_trial_16", "block": "test", "trialIndex": 19, "score": 66.85, "costs": -2.15, "simulationMode": [null, null, null, null, null], "rewards": [2, 3, -2, -8, 74], "path": ["0", "0", "1", "2", "3", "4", "7"], "rt": [7147, 102, 457, 220, 506], "actions": ["up", "up", "up", "right", "down"], "actionTimes": [9181, 9794, 10774, 11530, 12560], "queries": {"click": {"state": {"target": ["7"], "time": [3567]}, "edge": {"target": [], "time": []}}, "mouseover": {"state": {"target": ["1", "7", "4", "7"], "time": [2612, 2778, 2879, 3114]}, "edge": {"target": [], "time": []}}, "mouseout": {"state": {"target": ["1", "7", "4", "7", "1"], "time": [2696, 2811, 2900, 4455, 17229]}, "edge": {"target": [], "time": []}}}, "displayed_time": "16.04", "trialTime": 18375, "trial_type": "mouselab-mdp", "trial_index": 30, "time_elapsed": 1227319, "internal_node_id": "0.0-4.0-1.0-15.0"}}, {"uniqueid": "w45475537:a75047306", "current_trial": 31, "dateTime": 1691486457683, "trialdata": {"revealed_states": [], "clicked_states": ["31", "28", "18", "17", "21", "9", "10"], "num_clicks_accrued": [0, 0, 0, 0, 0, 0, 0, 0, 0, 0, 0, 0, 0], "stateRewards": ["", 2, -3, 5, 11, -79, 54, 11, -9, -78, 33, 22, -2, -1, 2, 14, 43, 34, 1, 10, 49, -65, 39, -1, 1, -1, 3, -16, -2, 11, 2, 12, 48, -65], "withholdReward": false, "trial_id": "mdp_trial_17", "block": "test", "trialIndex": 20, "score": 12.95, "costs": -15.05, "simulationMode": [null, null, null, null, null], "rewards": [2, -3, 5, -9, 33], "path": ["0", "0", "1", "2", "3", "8", "10"], "rt": [31717, 69, 82, 632, 1007], "actions": ["up", "up", "up", "left", "down"], "actionTimes": [33782, 34388, 35019, 36165, 37694], "queries": {"click": {"state": {"target": ["31", "28", "18", "17", "21", "9", "10"], "time": [3101, 7013, 10759, 14726, 18911, 23386, 28159]}, "edge": {"target": [], "time": []}}, "mouseover": {"state": {"target": ["0", "31", "31", "28", "18", "18", "15", "17", "14", "19", "21", "9", "11", "10", "26", "28"], "time": [2493, 2667, 2852, 6685, 10218, 10479, 14151, 14281, 18318, 18402, 18582, 23081, 27105, 27848, 31854, 32533]}, "edge": {"target": [], "time": []}}, "mouseout": {"state": {"target": ["0", "31", "31", "28", "18", "18", "15", "17", "14", "19", "21", "9", "9", "11", "10", "26", "28"], "time": [2517, 2688, 6314, 9248, 10298, 14118, 14250, 18252, 18363, 18432, 22605, 23453, 26871, 27614, 31834, 32431, 32582]}, "edge": {"target": [], "time": []}}}, "displayed_time": "38.22", "trialTime": 43351, "trial_type": "mouselab-mdp", "trial_index": 31, "time_elapsed": 1272305, "internal_node_id": "0.0-4.0-1.0-16.0"}}, {"uniqueid": "w45475537:a75047306", "current_trial": 32, "dateTime": 1691486477815, "trialdata": {"revealed_states": [], "clicked_states": ["32"], "num_clicks_accrued": [0, 0, 0, 0, 0, 0, 0, 0, 0, 0, 0, 0, 0], "stateRewards": ["", -1, -3, -6, 14, 41, 18, 63, -14, 80, 21, 17, -2, -4, -2, -5, 13, 70, 8, -4, -64, -10, -20, 2, -1, 4, -1, -17, -55, 42, -7, 47, 54, 15], "withholdReward": false, "trial_id": "mdp_trial_18", "block": "test", "trialIndex": 21, "score": 49.85, "costs": -2.15, "simulationMode": [null, null, null, null, null], "rewards": [2, -1, 4, -7, 54], "path": ["0", "0", "23", "24", "25", "30", "32"], "rt": [6224, 61, 313, 650, 25], "actions": ["left", "left", "left", "down", "down"], "actionTimes": [8315, 8910, 9872, 11056, 11611], "queries": {"click": {"state": {"target": ["32"], "time": [3356]}, "edge": {"target": [], "time": []}}, "mouseover": {"state": {"target": ["23", "31", "32"], "time": [2686, 2754, 3068]}, "edge": {"target": [], "time": []}}, "mouseout": {"state": {"target": ["1", "23", "31", "32"], "time": [701, 2722, 2852, 3696]}, "edge": {"target": [], "time": []}}}, "displayed_time": "16.09", "trialTime": 18188, "trial_type": "mouselab-mdp", "trial_index": 32, "time_elapsed": 1292438, "internal_node_id": "0.0-4.0-1.0-17.0"}}, {"uniqueid": "w45475537:a75047306", "current_trial": 33, "dateTime": 1691486529058, "trialdata": {"revealed_states": [], "clicked_states": ["27", "11", "7", "22", "20", "32", "33", "6", "5"], "num_clicks_accrued": [0, 0, 0, 0, 0, 0, 0, 0, 0, 0, 0, 0, 0], "stateRewards": ["", -2, -1, 3, -3, 71, -58, -21, 7, -10, -75, -37, 2, 4, -1, -12, -79, -29, -48, 3, -41, -10, -30, -1, -2, 1, -15, 13, 66, 22, -1, -42, -86, -55], "withholdReward": false, "trial_id": "mdp_trial_19", "block": "test", "trialIndex": 22, "score": 48.650000000000006, "costs": -19.349999999999998, "simulationMode": [null, null, null, null, null], "rewards": [-2, -1, 3, -3, 71], "path": ["0", "0", "1", "2", "3", "4", "5"], "rt": [39725, 85, 425, 361, 790], "actions": ["up", "up", "up", "right", "up"], "actionTimes": [41742, 42358, 43307, 44220, 45582], "queries": {"click": {"state": {"target": ["27", "11", "7", "22", "20", "32", "33", "6", "5"], "time": [3181, 7291, 10812, 14976, 18896, 23328, 28296, 32906, 36825]}, "edge": {"target": [], "time": []}}, "mouseover": {"state": {"target": ["0", "23", "27", "11", "2", "7", "13", "22", "19", "20", "19", "32", "32", "31", "24", "25", "33", "0", "12", "18", "6", "5"], "time": [2418, 2492, 2898, 6997, 8056, 9643, 14510, 14598, 18274, 18612, 22348, 22746, 22877, 26761, 27064, 27445, 27981, 31881, 31917, 31980, 32509, 36512]}, "edge": {"target": [], "time": []}}, "mouseout": {"state": {"target": ["0", "23", "27", "11", "2", "7", "13", "22", "19", "20", "19", "32", "32", "31", "24", "25", "33", "0", "12", "18", "6", "5"], "time": [2451, 2514, 6646, 7851, 9182, 14397, 14545, 18246, 18412, 22312, 22378, 22811, 26581, 26912, 27395, 27693, 31795, 31909, 31949, 32179, 36313, 47645]}, "edge": {"target": [], "time": []}}}, "displayed_time": "46.09", "trialTime": 49309, "trial_type": "mouselab-mdp", "trial_index": 33, "time_elapsed": 1343680, "internal_node_id": "0.0-4.0-1.0-18.0"}}, {"uniqueid": "w45475537:a75047306", "current_trial": 34, "dateTime": 1691486552452, "trialdata": {"revealed_states": [], "clicked_states": ["29", "6"], "num_clicks_accrued": [0, 0, 0, 0, 0, 0, 0, 0, 0, 0, 0, 0, 0], "stateRewards": ["", -1, -2, -1, -10, -57, 73, -72, -16, 75, -14, -46, -2, -3, -7, -1, -61, -60, 76, -4, 50, 4, 14, 2, 2, -7, 12, -65, -32, 15, -8, -76, -25, -61], "withholdReward": false, "trial_id": "mdp_trial_20", "block": "test", "trialIndex": 23, "score": 54.7, "costs": -4.3, "simulationMode": [null, null, null, null, null], "rewards": [-1, -2, -1, -10, 73], "path": ["0", "0", "1", "2", "3", "4", "6"], "rt": [10405, 86, 81, 459, 21], "actions": ["up", "up", "up", "right", "right"], "actionTimes": [12975, 13593, 14205, 15225, 15773], "queries": {"click": {"state": {"target": ["29", "6"], "time": [4275, 8392]}, "edge": {"target": [], "time": []}}, "mouseover": {"state": {"target": ["23", "24", "26", "29", "26", "28", "1", "7", "6"], "time": [3565, 3642, 3907, 4006, 7447, 7541, 7681, 7764, 7913]}, "edge": {"target": [], "time": []}}, "mouseout": {"state": {"target": ["23", "24", "26", "29", "26", "28", "1", "7", "6", "7", "1"], "time": [3613, 3676, 3966, 7381, 7514, 7579, 7710, 7814, 20332, 20361, 20481]}, "edge": {"target": [], "time": []}}}, "displayed_time": "16.57", "trialTime": 21521, "trial_type": "mouselab-mdp", "trial_index": 34, "time_elapsed": 1367074, "internal_node_id": "0.0-4.0-1.0-19.0"}}, {"uniqueid": "w45475537:a75047306", "current_trial": 35, "dateTime": 1691486584757, "trialdata": {"revealed_states": [], "clicked_states": ["11", "7", "22", "32"], "num_clicks_accrued": [0, 0, 0, 0, 0, 0, 0, 0, 0, 0, 0, 0, 0], "stateRewards": ["", -1, -4, -6, -15, 21, -67, -63, 9, 51, 69, -14, -1, 3, 8, -8, 39, 72, 63, 15, 19, 47, 15, 1, 4, 5, 16, -18, 34, 35, -14, -80, 40, 1], "withholdReward": false, "trial_id": "mdp_trial_21", "block": "test", "trialIndex": 24, "score": 27.4, "costs": -8.6, "simulationMode": [null, null, null, null, null], "rewards": [1, 4, 5, -14, 40], "path": ["0", "0", "23", "24", "25", "30", "32"], "rt": [20819, 52, 19, 477, 34], "actions": ["left", "left", "left", "down", "down"], "actionTimes": [23841, 24420, 25019, 26065, 26634], "queries": {"click": {"state": {"target": ["11", "7", "22", "32"], "time": [5149, 9197, 13812, 19156]}, "edge": {"target": [], "time": []}}, "mouseover": {"state": {"target": ["2", "28", "26", "11", "7", "13", "22", "19", "21", "32"], "time": [4253, 4384, 4457, 4852, 8920, 13036, 13287, 17986, 18369, 18901]}, "edge": {"target": [], "time": []}}, "mouseout": {"state": {"target": ["1", "0", "0", "2", "28", "26", "11", "7", "7", "13", "22", "19", "21", "32", "32"], "time": [1137, 1168, 3657, 4288, 4421, 4536, 8405, 9282, 10833, 13148, 17401, 18053, 18399, 28080, 28438]}, "edge": {"target": [], "time": []}}}, "displayed_time": "27.18", "trialTime": 30468, "trial_type": "mouselab-mdp", "trial_index": 35, "time_elapsed": 1399379, "internal_node_id": "0.0-4.0-1.0-20.0"}}, {"uniqueid": "w45475537:a75047306", "current_trial": 36, "dateTime": 1691486625667, "trialdata": {"revealed_states": [], "clicked_states": ["6", "29", "17", "11", "9", "21"], "num_clicks_accrued": [0, 0, 0, 0, 0, 0, 0, 0, 0, 0, 0, 0, 0], "stateRewards": ["", 2, 3, 8, 11, 25, -80, 6, -4, -56, 84, -23, -2, -4, -3, 4, -51, -9, -61, -15, -64, 67, -35, 1, -1, -7, -6, 83, 59, -15, 12, -79, 56, 41], "withholdReward": false, "trial_id": "mdp_trial_22", "block": "test", "trialIndex": 25, "score": 30.1, "costs": -12.9, "simulationMode": [null, null, null, null, null], "rewards": [-2, -4, -3, -15, 67], "path": ["0", "0", "12", "13", "14", "19", "21"], "rt": [29200, 24, 394, 501, 10], "actions": ["right", "right", "right", "down", "down"], "actionTimes": [31643, 32215, 33135, 34202, 34734], "queries": {"click": {"state": {"target": ["6", "29", "17", "11", "9", "21"], "time": [4316, 8444, 12877, 18493, 22437, 26741]}, "edge": {"target": [], "time": []}}, "mouseover": {"state": {"target": ["6", "28", "29", "23", "19", "20", "17", "15", "11", "11", "9", "11", "9", "8", "2", "12", "22", "21"], "time": [3906, 7790, 8142, 11951, 12010, 12057, 12607, 16327, 16826, 17040, 17541, 18174, 22089, 26001, 26036, 26089, 26157, 26439]}, "edge": {"target": [], "time": []}}, "mouseout": {"state": {"target": ["0", "0", "6", "28", "29", "23", "19", "20", "17", "15", "11", "11", "9", "11", "9", "8", "2", "12", "22", "21", "22"], "time": [321, 3258, 7719, 7835, 11925, 11984, 12049, 12125, 16321, 16359, 16873, 17389, 18006, 21957, 25993, 26027, 26062, 26119, 26273, 30322, 36532]}, "edge": {"target": [], "time": []}}}, "displayed_time": "35.29", "trialTime": 38851, "trial_type": "mouselab-mdp", "trial_index": 36, "time_elapsed": 1440289, "internal_node_id": "0.0-4.0-1.0-21.0"}}, {"uniqueid": "w45475537:a75047306", "current_trial": 37, "dateTime": 1691486648771, "trialdata": {"revealed_states": [], "clicked_states": ["33"], "num_clicks_accrued": [0, 0, 0, 0, 0, 0, 0, 0, 0, 0, 0, 0, 0], "stateRewards": ["", 1, -2, -8, -3, 31, -84, -55, -14, 15, -58, 17, -2, -3, 7, 7, -12, 48, 67, 4, -44, -68, 46, 2, 3, -5, -7, 76, 27, 5, 11, 57, 52, 59], "withholdReward": false, "trial_id": "mdp_trial_23", "block": "test", "trialIndex": 26, "score": 60.85, "costs": -2.15, "simulationMode": [null, null, null, null, null], "rewards": [2, 3, -5, 11, 52], "path": ["0", "0", "23", "24", "25", "30", "32"], "rt": [8311, 22, 382, 376, 7], "actions": ["left", "left", "left", "down", "down"], "actionTimes": [11175, 11734, 12656, 13558, 14084], "queries": {"click": {"state": {"target": ["33"], "time": [4562]}, "edge": {"target": [], "time": []}}, "mouseover": {"state": {"target": ["23", "24", "25", "33"], "time": [3579, 3779, 3962, 4212]}, "edge": {"target": [], "time": []}}, "mouseout": {"state": {"target": ["0", "23", "24", "25", "33"], "time": [1563, 3615, 3808, 4046, 19261]}, "edge": {"target": [], "time": []}}}, "displayed_time": "16.86", "trialTime": 21197, "trial_type": "mouselab-mdp", "trial_index": 37, "time_elapsed": 1463394, "internal_node_id": "0.0-4.0-1.0-22.0"}}, {"uniqueid": "w45475537:a75047306", "current_trial": 38, "dateTime": 1691486671713, "trialdata": {"revealed_states": [], "clicked_states": ["32", "27"], "num_clicks_accrued": [0, 0, 0, 0, 0, 0, 0, 0, 0, 0, 0, 0, 0], "stateRewards": ["", -2, 1, -5, 2, -68, 80, 33, 10, 67, -59, 20, -1, -3, 3, 14, 74, -2, 24, -16, 63, 80, 46, -1, 4, 6, 12, 83, -38, -43, -4, 43, 14, -79], "withholdReward": false, "trial_id": "mdp_trial_24", "block": "test", "trialIndex": 27, "score": 99.7, "costs": -4.3, "simulationMode": [null, null, null, null, null], "rewards": [-1, 4, 6, 12, 83], "path": ["0", "0", "23", "24", "25", "26", "27"], "rt": [10570, 109, 12, 455, 55], "actions": ["left", "left", "left", "up", "up"], "actionTimes": [12731, 13362, 13913, 14931, 15504], "queries": {"click": {"state": {"target": ["32", "27"], "time": [3481, 8183]}, "edge": {"target": [], "time": []}}, "mouseover": {"state": {"target": ["31", "32", "30", "11", "27"], "time": [2833, 3200, 7185, 7244, 7632]}, "edge": {"target": [], "time": []}}, "mouseout": {"state": {"target": ["0", "31", "32", "30", "11", "27"], "time": [2771, 2861, 7180, 7214, 7272, 8269]}, "edge": {"target": [], "time": []}}}, "displayed_time": "16.16", "trialTime": 21142, "trial_type": "mouselab-mdp", "trial_index": 38, "time_elapsed": 1486334, "internal_node_id": "0.0-4.0-1.0-23.0"}}, {"uniqueid": "w45475537:a75047306", "current_trial": 39, "dateTime": 1691486697822, "trialdata": {"revealed_states": [], "clicked_states": ["21", "17", "11"], "num_clicks_accrued": [0, 0, 0, 0, 0, 0, 0, 0, 0, 0, 0, 0, 0], "stateRewards": ["", 2, -1, -3, 16, -3, -16, -62, -1, 13, -26, 43, -1, 4, 3, -9, -54, -37, -3, -12, -71, -68, -57, 1, -3, 2, -9, 2, -2, -9, -11, 84, -52, 55], "withholdReward": false, "trial_id": "mdp_trial_25", "block": "test", "trialIndex": 28, "score": 33.55, "costs": -6.449999999999999, "simulationMode": [null, null, null, null, null], "rewards": [2, -1, -3, -1, 43], "path": ["0", "0", "1", "2", "3", "8", "11"], "rt": [15125, 101, 582, 343, 83], "actions": ["up", "up", "up", "left", "left"], "actionTimes": [17349, 17997, 19113, 19991, 20596], "queries": {"click": {"state": {"target": ["21", "17", "11"], "time": [3574, 7433, 11556]}, "edge": {"target": [], "time": []}}, "mouseover": {"state": {"target": ["0", "22", "21", "19", "14", "15", "16", "17", "15", "1", "11", "10", "10", "2"], "time": [2903, 2991, 3268, 4748, 4817, 4965, 5294, 7135, 10856, 10967, 11286, 12626, 12976, 13916]}, "edge": {"target": [], "time": []}}, "mouseout": {"state": {"target": ["0", "22", "21", "19", "14", "15", "16", "17", "15", "1", "11", "10", "10", "2"], "time": [2932, 3150, 4573, 4804, 4896, 5073, 6917, 10849, 10930, 11021, 12221, 12722, 13812, 14014]}, "edge": {"target": [], "time": []}}}, "displayed_time": "21.13", "trialTime": 24070, "trial_type": "mouselab-mdp", "trial_index": 39, "time_elapsed": 1512443, "internal_node_id": "0.0-4.0-1.0-24.0"}}, {"uniqueid": "w45475537:a75047306", "current_trial": 40, "dateTime": 1691486719652, "trialdata": {"revealed_states": [], "clicked_states": ["7", "33"], "num_clicks_accrued": [0, 0, 0, 0, 0, 0, 0, 0, 0, 0, 0, 0, 0], "stateRewards": ["", -1, 2, -6, 6, -82, -19, -39, -16, -83, 11, -33, -2, -2, 4, -6, -82, -1, -19, -6, -10, -67, -41, -2, 1, -7, 16, -23, -78, -52, 14, 31, -71, 74], "withholdReward": false, "trial_id": "mdp_trial_26", "block": "test", "trialIndex": 29, "score": 75.7, "costs": -4.3, "simulationMode": [null, null, null, null, null], "rewards": [-2, 1, -7, 14, 74], "path": ["0", "0", "23", "24", "25", "30", "33"], "rt": [10042, 101, 203, 368, 62], "actions": ["left", "left", "left", "down", "left"], "actionTimes": [11933, 12564, 13312, 14223, 14828], "queries": {"click": {"state": {"target": ["7", "33"], "time": [2991, 7492]}, "edge": {"target": [], "time": []}}, "mouseover": {"state": {"target": ["1", "7", "1", "24", "31", "30", "33"], "time": [2437, 2719, 4199, 6736, 6820, 7037, 7202]}, "edge": {"target": [], "time": []}}, "mouseout": {"state": {"target": ["1", "1", "1", "7", "1", "24", "31", "30", "33", "25"], "time": [450, 617, 2467, 4066, 6535, 6772, 6934, 7152, 16616, 18867]}, "edge": {"target": [], "time": []}}}, "displayed_time": "15.89", "trialTime": 19671, "trial_type": "mouselab-mdp", "trial_index": 40, "time_elapsed": 1534274, "internal_node_id": "0.0-4.0-1.0-25.0"}}, {"uniqueid": "w45475537:a75047306", "current_trial": 41, "dateTime": 1691486744674, "trialdata": {"revealed_states": [], "clicked_states": ["29", "27", "28"], "num_clicks_accrued": [0, 0, 0, 0, 0, 0, 0, 0, 0, 0, 0, 0, 0], "stateRewards": ["", -1, 3, -4, -14, 78, 67, 2, 13, -32, 28, 39, -2, 1, -4, -4, -4, -42, -86, 11, 64, -29, -32, -1, -4, 2, -7, 5, 68, -61, 2, -21, 85, 50], "withholdReward": false, "trial_id": "mdp_trial_27", "block": "test", "trialIndex": 30, "score": 51.55, "costs": -6.449999999999999, "simulationMode": [null, null, null, null, null], "rewards": [-1, -4, 2, -7, 68], "path": ["0", "0", "23", "24", "25", "26", "28"], "rt": [14584, 174, 37, 998, 262], "actions": ["left", "left", "left", "up", "right"], "actionTimes": [16755, 17468, 18026, 19567, 20382], "queries": {"click": {"state": {"target": ["29", "27", "28"], "time": [3965, 8015, 12204]}, "edge": {"target": [], "time": []}}, "mouseover": {"state": {"target": ["23", "24", "26", "26", "29", "27", "28"], "time": [3039, 3118, 3175, 3439, 3654, 7340, 11904]}, "edge": {"target": [], "time": []}}, "mouseout": {"state": {"target": ["25", "24", "23", "23", "24", "26", "26", "29", "29", "27"], "time": [590, 654, 736, 3072, 3152, 3323, 3474, 4082, 7241, 11533]}, "edge": {"target": [], "time": []}}}, "displayed_time": "20.93", "trialTime": 23015, "trial_type": "mouselab-mdp", "trial_index": 41, "time_elapsed": 1559297, "internal_node_id": "0.0-4.0-1.0-26.0"}}, {"uniqueid": "w45475537:a75047306", "current_trial": 42, "dateTime": 1691486765496, "trialdata": {"revealed_states": [], "clicked_states": ["7", "6"], "num_clicks_accrued": [0, 0, 0, 0, 0, 0, 0, 0, 0, 0, 0, 0, 0], "stateRewards": ["", -1, -1, 4, -16, -75, 81, -51, -7, -84, 73, -30, -2, 1, -3, -16, -77, 33, 14, 1, 45, 87, -66, 2, 2, -5, -7, -19, -17, 79, -3, 8, 49, 47], "withholdReward": false, "trial_id": "mdp_trial_28", "block": "test", "trialIndex": 31, "score": 62.7, "costs": -4.3, "simulationMode": [null, null, null, null, null], "rewards": [-1, -1, 4, -16, 81], "path": ["0", "0", "1", "2", "3", "4", "6"], "rt": [9714, 27, 322, 93, 51], "actions": ["up", "up", "up", "right", "right"], "actionTimes": [12027, 12592, 13438, 14066, 14651], "queries": {"click": {"state": {"target": ["7", "6"], "time": [3432, 7360]}, "edge": {"target": [], "time": []}}, "mouseover": {"state": {"target": ["1", "7", "6"], "time": [2817, 3132, 7097]}, "edge": {"target": [], "time": []}}, "mouseout": {"state": {"target": ["28", "23", "1", "7", "7", "6", "7"], "time": [29, 747, 2849, 4542, 6798, 8021, 8381]}, "edge": {"target": [], "time": []}}}, "displayed_time": "16.31", "trialTime": 18064, "trial_type": "mouselab-mdp", "trial_index": 42, "time_elapsed": 1580118, "internal_node_id": "0.0-4.0-1.0-27.0"}}, {"uniqueid": "w45475537:a75047306", "current_trial": 43, "dateTime": 1691486785509, "trialdata": {"revealed_states": [], "clicked_states": ["10"], "num_clicks_accrued": [0, 0, 0, 0, 0, 0, 0, 0, 0, 0, 0, 0, 0], "stateRewards": ["", -1, -4, 8, 8, -68, 47, 24, -7, -61, 49, -69, -1, -1, 8, -7, 42, 1, -45, -11, 10, -63, -6, 1, 4, 6, -16, 79, -37, -58, -12, 81, 18, -53], "withholdReward": false, "trial_id": "mdp_trial_29", "block": "test", "trialIndex": 32, "score": 42.85, "costs": -2.15, "simulationMode": [null, null, null, null, null], "rewards": [-1, -4, 8, -7, 49], "path": ["0", "0", "1", "2", "3", "8", "10"], "rt": [8423, 92, 474, 415, 446], "actions": ["up", "up", "up", "left", "down"], "actionTimes": [10579, 11206, 12196, 13162, 14150], "queries": {"click": {"state": {"target": ["10"], "time": [4847]}, "edge": {"target": [], "time": []}}, "mouseover": {"state": {"target": ["10"], "time": [4452]}, "edge": {"target": [], "time": []}}, "mouseout": {"state": {"target": ["1", "10", "10"], "time": [800, 15653, 15951]}, "edge": {"target": [], "time": []}}}, "displayed_time": "16.16", "trialTime": 18014, "trial_type": "mouselab-mdp", "trial_index": 43, "time_elapsed": 1600131, "internal_node_id": "0.0-4.0-1.0-28.0"}}, {"uniqueid": "w45475537:a75047306", "current_trial": 44, "dateTime": 1691486809518, "trialdata": {"revealed_states": [], "clicked_states": ["17", "20"], "num_clicks_accrued": [0, 0, 0, 0, 0, 0, 0, 0, 0, 0, 0, 0, 0], "stateRewards": ["", 1, -1, 4, 5, -32, 18, 20, 6, -88, -74, 9, -2, 1, -2, -14, 34, -77, -38, -1, 80, -36, 73, 2, 3, -8, 10, -48, -73, -71, -11, -22, 20, 54], "withholdReward": false, "trial_id": "mdp_trial_30", "block": "test", "trialIndex": 33, "score": 71.7, "costs": -4.3, "simulationMode": [null, null, null, null, null], "rewards": [-2, 1, -2, -1, 80], "path": ["0", "0", "12", "13", "14", "19", "20"], "rt": [10561, 153, 391, 490, 27], "actions": ["right", "right", "right", "down", "right"], "actionTimes": [12934, 13622, 14544, 15559, 16126], "queries": {"click": {"state": {"target": ["17", "20"], "time": [4353, 8506]}, "edge": {"target": [], "time": []}}, "mouseover": {"state": {"target": ["12", "15", "17", "14", "20", "20"], "time": [3040, 3401, 3634, 7812, 7884, 8196]}, "edge": {"target": [], "time": []}}, "mouseout": {"state": {"target": ["10", "0", "0", "12", "15", "17", "14", "20", "20", "19", "22"], "time": [567, 680, 3001, 3068, 3436, 5004, 7838, 8033, 20671, 20705, 20743]}, "edge": {"target": [], "time": []}}}, "displayed_time": "16.76", "trialTime": 21954, "trial_type": "mouselab-mdp", "trial_index": 44, "time_elapsed": 1624140, "internal_node_id": "0.0-4.0-1.0-29.0"}}, {"uniqueid": "w45475537:a75047306", "current_trial": 45, "dateTime": 1691486829099, "trialdata": {"revealed_states": [], "clicked_states": ["32"], "num_clicks_accrued": [0, 0, 0, 0, 0, 0, 0, 0, 0, 0, 0, 0, 0], "stateRewards": ["", -2, -3, 1, -14, 48, -49, 67, -1, -35, -48, 3, -2, 1, -4, -5, 86, -84, 39, 1, 48, 41, -42, -1, -4, 2, -7, 18, -86, 17, 7, -9, 57, -69], "withholdReward": false, "trial_id": "mdp_trial_31", "block": "test", "trialIndex": 34, "score": 58.85, "costs": -2.15, "simulationMode": [null, null, null, null, null], "rewards": [-1, -4, 2, 7, 57], "path": ["0", "0", "23", "24", "25", "30", "32"], "rt": [6770, 102, 80, 649, 19], "actions": ["left", "left", "left", "down", "down"], "actionTimes": [8891, 9517, 10168, 11360, 11904], "queries": {"click": {"state": {"target": ["32"], "time": [3318]}, "edge": {"target": [], "time": []}}, "mouseover": {"state": {"target": ["31", "32", "31"], "time": [2774, 3007, 7306]}, "edge": {"target": [], "time": []}}, "mouseout": {"state": {"target": ["0", "31", "32", "31"], "time": [2658, 2826, 3391, 17055]}, "edge": {"target": [], "time": []}}}, "displayed_time": "16.12", "trialTime": 17744, "trial_type": "mouselab-mdp", "trial_index": 45, "time_elapsed": 1643720, "internal_node_id": "0.0-4.0-1.0-30.0"}}, {"uniqueid": "w45475537:a75047306", "current_trial": 46, "dateTime": 1691486884752, "trialdata": {"revealed_states": [], "clicked_states": ["11", "10", "5", "31", "28", "17", "7", "6", "21", "32"], "num_clicks_accrued": [0, 0, 0, 0, 0, 0, 0, 0, 0, 0, 0, 0, 0], "stateRewards": ["", 2, -3, -4, -1, 25, -16, 16, 10, -71, -20, -55, 1, 3, -4, -9, 1, 32, 11, -6, 32, -50, -41, -1, 4, 4, -8, 7, -81, 70, 2, -52, 45, -10], "withholdReward": false, "trial_id": "mdp_trial_32", "block": "test", "trialIndex": 35, "score": 32.5, "costs": -21.499999999999996, "simulationMode": [null, null, null, null, null], "rewards": [-1, 4, 4, 2, 45], "path": ["0", "0", "23", "24", "25", "30", "32"], "rt": [45480, 51, 27, 486, 15], "actions": ["left", "left", "left", "down", "down"], "actionTimes": [47953, 48558, 49145, 50164, 50716], "queries": {"click": {"state": {"target": ["11", "10", "5", "31", "28", "17", "7", "6", "21", "32"], "time": [3650, 7761, 11691, 16515, 20261, 24267, 29077, 33235, 37762, 42260]}, "edge": {"target": [], "time": []}}, "mouseover": {"state": {"target": ["0", "23", "11", "10", "2", "4", "5", "4", "7", "23", "30", "31", "24", "28", "24", "19", "20", "17", "14", "18", "7", "12", "6", "19", "21", "32", "31", "31"], "time": [2914, 2991, 3403, 7468, 10985, 11053, 11404, 12039, 12133, 15420, 15702, 16098, 19850, 19933, 21136, 21285, 21332, 23951, 27738, 28185, 28820, 29671, 32935, 36968, 37468, 41966, 45733, 46833]}, "edge": {"target": [], "time": []}}, "mouseout": {"state": {"target": ["31", "0", "0", "23", "11", "10", "2", "4", "5", "4", "7", "23", "30", "31", "24", "28", "24", "19", "20", "17", "14", "18", "7", "12", "6", "19", "21", "32", "31", "31"], "time": [835, 1198, 2951, 3021, 4037, 8150, 11014, 11219, 11980, 12087, 12182, 15451, 16069, 19815, 19904, 20958, 21185, 21320, 21435, 25239, 27767, 28468, 29436, 32369, 33738, 37019, 41217, 42668, 45851, 46950]}, "edge": {"target": [], "time": []}}}, "displayed_time": "51.25", "trialTime": 53445, "trial_type": "mouselab-mdp", "trial_index": 46, "time_elapsed": 1699374, "internal_node_id": "0.0-4.0-1.0-31.0"}}, {"uniqueid": "w45475537:a75047306", "current_trial": 47, "dateTime": 1691486907022, "trialdata": {"revealed_states": [], "clicked_states": ["9"], "num_clicks_accrued": [0, 0, 0, 0, 0, 0, 0, 0, 0, 0, 0, 0, 0], "stateRewards": ["", 2, 3, 3, 10, 19, -21, 6, 9, 54, 68, 16, 2, 2, -6, -8, 40, -2, -75, -2, -42, 55, 59, -1, 2, 4, -14, 11, -34, -30, -6, 61, -53, 13], "withholdReward": false, "trial_id": "mdp_trial_33", "block": "test", "trialIndex": 36, "score": 68.85, "costs": -2.15, "simulationMode": [null, null, null, null, null], "rewards": [2, 3, 3, 9, 54], "path": ["0", "0", "1", "2", "3", "8", "9"], "rt": [9664, 44, 352, 403, 815], "actions": ["up", "up", "up", "left", "up"], "actionTimes": [12182, 12762, 13674, 14595, 15961], "queries": {"click": {"state": {"target": ["9"], "time": [4759]}, "edge": {"target": [], "time": []}}, "mouseover": {"state": {"target": ["8", "9", "8", "10"], "time": [4287, 4520, 5207, 5354]}, "edge": {"target": [], "time": []}}, "mouseout": {"state": {"target": ["0", "0", "8", "9", "8", "10"], "time": [867, 4135, 4451, 5156, 5308, 18723]}, "edge": {"target": [], "time": []}}}, "displayed_time": "16.52", "trialTime": 20135, "trial_type": "mouselab-mdp", "trial_index": 47, "time_elapsed": 1721644, "internal_node_id": "0.0-4.0-1.0-32.0"}}, {"uniqueid": "w45475537:a75047306", "current_trial": 48, "dateTime": 1691486927802, "trialdata": {"revealed_states": [], "clicked_states": ["6"], "num_clicks_accrued": [0, 0, 0, 0, 0, 0, 0, 0, 0, 0, 0, 0, 0], "stateRewards": ["", 1, -4, 6, -3, 40, 76, -51, 5, -24, -63, 44, -2, -2, 8, 1, 76, -85, -58, 10, 59, 20, 11, -2, 3, -3, 3, -82, -10, 54, -7, -57, -6, -32], "withholdReward": false, "trial_id": "mdp_trial_34", "block": "test", "trialIndex": 37, "score": 73.85, "costs": -2.15, "simulationMode": [null, null, null, null, null], "rewards": [1, -4, 6, -3, 76], "path": ["0", "0", "1", "2", "3", "4", "6"], "rt": [5570, 51, 146, 173, 14], "actions": ["up", "up", "up", "right", "right"], "actionTimes": [7931, 8526, 9297, 10012, 10567], "queries": {"click": {"state": {"target": ["6"], "time": [3434]}, "edge": {"target": [], "time": []}}, "mouseover": {"state": {"target": ["6"], "time": [3166]}, "edge": {"target": [], "time": []}}, "mouseout": {"state": {"target": ["0", "0", "6", "7"], "time": [717, 831, 13550, 14214]}, "edge": {"target": [], "time": []}}}, "displayed_time": "16.36", "trialTime": 18448, "trial_type": "mouselab-mdp", "trial_index": 48, "time_elapsed": 1742424, "internal_node_id": "0.0-4.0-1.0-33.0"}}, {"uniqueid": "w45475537:a75047306", "current_trial": 49, "dateTime": 1691486967648, "trialdata": {"revealed_states": [], "clicked_states": ["21", "20", "18", "33", "31", "11", "10"], "num_clicks_accrued": [0, 0, 0, 0, 0, 0, 0, 0, 0, 0, 0, 0, 0], "stateRewards": ["", -1, -3, -7, -7, -76, 30, -49, 11, -70, 56, 2, 1, 4, -3, -14, -59, -83, -25, -9, -21, -67, -73, -2, 4, 4, -9, -11, -32, 60, 9, -87, 22, -64], "withholdReward": false, "trial_id": "mdp_trial_35", "block": "test", "trialIndex": 38, "score": 40.95, "costs": -15.05, "simulationMode": [null, null, null, null, null], "rewards": [-1, -3, -7, 11, 56], "path": ["0", "0", "1", "2", "3", "8", "10"], "rt": [28371, 90, 64, 348, 239], "actions": ["up", "up", "up", "left", "down"], "actionTimes": [30516, 31148, 31802, 32697, 33467], "queries": {"click": {"state": {"target": ["21", "20", "18", "33", "31", "11", "10"], "time": [3661, 7108, 11266, 15292, 19172, 22546, 25909]}, "edge": {"target": [], "time": []}}, "mouseover": {"state": {"target": ["19", "21", "20", "18", "12", "31", "30", "33", "31", "11", "10", "1", "7"], "time": [3051, 3415, 5781, 10899, 12206, 14731, 14862, 15032, 18867, 21485, 25550, 27608, 27814]}, "edge": {"target": [], "time": []}}, "mouseout": {"state": {"target": ["1", "0", "19", "21", "20", "18", "12", "31", "30", "33", "31", "11", "10", "10", "1", "7"], "time": [679, 3015, 3115, 5582, 10526, 11984, 12343, 14818, 14986, 15762, 21196, 22844, 26053, 26775, 27661, 36563]}, "edge": {"target": [], "time": []}}}, "displayed_time": "34.00", "trialTime": 37509, "trial_type": "mouselab-mdp", "trial_index": 49, "time_elapsed": 1782271, "internal_node_id": "0.0-4.0-1.0-34.0"}}, {"uniqueid": "w45475537:a75047306", "current_trial": 50, "dateTime": 1691487025227, "trialdata": {"revealed_states": [], "clicked_states": ["6", "22", "16", "27", "32", "7", "11", "9", "10", "5"], "num_clicks_accrued": [0, 0, 0, 0, 0, 0, 0, 0, 0, 0, 0, 0, 0], "stateRewards": ["", -2, 4, -5, -12, 85, -24, -18, -15, -78, -22, 26, -1, -1, 2, 14, -45, 52, -23, 7, -33, 24, -6, -2, -4, 5, -7, -16, 36, -39, 5, 71, -87, -23], "withholdReward": false, "trial_id": "mdp_trial_36", "block": "test", "trialIndex": 39, "score": 48.5, "costs": -21.499999999999996, "simulationMode": [null, null, null, null, null], "rewards": [-2, 4, -5, -12, 85], "path": ["0", "0", "1", "2", "3", "4", "5"], "rt": [45236, 88, 41, 546, 539], "actions": ["up", "up", "up", "right", "up"], "actionTimes": [47832, 48449, 49044, 50130, 51195], "queries": {"click": {"state": {"target": ["6", "22", "16", "27", "32", "7", "11", "9", "10", "5"], "time": [3916, 8638, 12488, 16922, 20871, 25671, 29436, 34433, 38438, 42979]}, "edge": {"target": [], "time": []}}, "mouseover": {"state": {"target": ["16", "6", "18", "13", "22", "14", "15", "16", "15", "18", "28", "27", "26", "25", "30", "32", "31", "2", "7", "1", "10", "11", "10", "9", "8", "10", "2", "5", "2", "4"], "time": [3395, 3680, 7878, 7951, 8362, 11931, 12095, 12262, 13500, 15850, 16078, 16461, 20216, 20262, 20308, 20596, 24863, 25180, 25343, 28928, 29010, 29192, 29829, 33712, 35303, 38160, 42444, 42711, 44158, 46743]}, "edge": {"target": [], "time": []}}, "mouseout": {"state": {"target": ["1", "0", "16", "6", "6", "18", "13", "22", "14", "15", "16", "15", "18", "28", "27", "26", "25", "30", "32", "31", "2", "7", "1", "10", "11", "10", "9", "8", "10", "2", "5", "2", "4", "6"], "time": [null, 2925, 3430, 4007, 4835, 7917, 7991, 11880, 11996, 12212, 13293, 15816, 15895, 16279, 17624, 20255, 20300, 20347, 21648, 24928, 25292, 26326, 28962, 29095, 29744, 29878, 35197, 35406, 39114, 42488, 43753, 46624, 46811, 53494]}, "edge": {"target": [], "time": []}}}, "displayed_time": "51.73", "trialTime": 54820, "trial_type": "mouselab-mdp", "trial_index": 50, "time_elapsed": 1839848, "internal_node_id": "0.0-4.0-1.0-35.0"}}, {"uniqueid": "w45475537:a75047306", "current_trial": 51, "dateTime": 1691487054760, "trialdata": {"revealed_states": [], "clicked_states": ["5", "29", "28", "16"], "num_clicks_accrued": [0, 0, 0, 0, 0, 0, 0, 0, 0, 0, 0, 0, 0], "stateRewards": ["", -2, -1, -4, -15, -14, -67, 32, -3, -59, 63, 31, 2, -1, -7, -15, 71, -66, -27, -3, -54, -39, 72, 2, 1, 1, -13, 77, -40, 35, -9, 35, 75, 57], "withholdReward": false, "trial_id": "mdp_trial_37", "block": "test", "trialIndex": 40, "score": 41.4, "costs": -8.6, "simulationMode": [null, null, null, null, null], "rewards": [2, -1, -7, -15, 71], "path": ["0", "0", "12", "13", "14", "15", "16"], "rt": [18328, 58, 1121, 309, 393], "actions": ["right", "right", "right", "up", "up"], "actionTimes": [20564, 21162, 22822, 23654, 24607], "queries": {"click": {"state": {"target": ["5", "29", "28", "16"], "time": [4222, 8367, 11970, 16030]}, "edge": {"target": [], "time": []}}, "mouseover": {"state": {"target": ["1", "2", "4", "5", "3", "26", "29", "25", "31", "31", "24", "28", "24", "31", "16", "15"], "time": [3587, 3664, 3770, 3976, 4770, 8054, 8138, 8699, 8869, 11132, 11435, 11654, 12284, 12472, 15838, 19808]}, "edge": {"target": [], "time": []}}, "mouseout": {"state": {"target": ["10", "1", "1", "2", "4", "5", "3", "26", "29", "25", "31", "31", "24", "28", "24", "31", "16", "15", "18", "12"], "time": [687, 769, 3625, 3689, 3936, 4682, 4859, 8099, 8690, 8772, 9130, 11305, 11586, 12236, 12385, 15308, 16557, 25921, 26052, 26251]}, "edge": {"target": [], "time": []}}}, "displayed_time": "25.12", "trialTime": 27599, "trial_type": "mouselab-mdp", "trial_index": 51, "time_elapsed": 1869382, "internal_node_id": "0.0-4.0-1.0-36.0"}}, {"uniqueid": "w45475537:a75047306", "current_trial": 52, "dateTime": 1691487074860, "trialdata": {"revealed_states": [], "clicked_states": ["32"], "num_clicks_accrued": [0, 0, 0, 0, 0, 0, 0, 0, 0, 0, 0, 0, 0], "stateRewards": ["", 1, 1, -3, 2, 22, -25, -11, -5, 50, 49, 3, 1, -1, 8, 14, -85, -30, 57, -6, -39, -16, 59, -2, -1, 5, 5, 59, -16, 8, 4, 67, 56, -9], "withholdReward": false, "trial_id": "mdp_trial_38", "block": "test", "trialIndex": 41, "score": 59.85, "costs": -2.15, "simulationMode": [null, null, null, null, null], "rewards": [-2, -1, 5, 4, 56], "path": ["0", "0", "23", "24", "25", "30", "32"], "rt": [6099, 123, 292, 196, 27], "actions": ["left", "left", "left", "down", "down"], "actionTimes": [8316, 8976, 9847, 10579, 11127], "queries": {"click": {"state": {"target": ["32"], "time": [3637]}, "edge": {"target": [], "time": []}}, "mouseover": {"state": {"target": ["31", "32"], "time": [3133, 3365]}, "edge": {"target": [], "time": []}}, "mouseout": {"state": {"target": ["0", "31", "32"], "time": [749, 3200, 4642]}, "edge": {"target": [], "time": []}}}, "displayed_time": "16.22", "trialTime": 17898, "trial_type": "mouselab-mdp", "trial_index": 52, "time_elapsed": 1889482, "internal_node_id": "0.0-4.0-1.0-37.0"}}, {"uniqueid": "w45475537:a75047306", "current_trial": 53, "dateTime": 1691487101714, "trialdata": {"revealed_states": [], "clicked_states": ["21", "9", "16"], "num_clicks_accrued": [0, 0, 0, 0, 0, 0, 0, 0, 0, 0, 0, 0, 0], "stateRewards": ["", -2, 1, 6, -2, -10, -78, -69, 14, -15, 7, -1, 1, -1, -2, 13, 77, 32, 87, 5, -74, 30, -26, 1, 3, 4, 12, 39, 54, -43, 2, 10, 23, 13], "withholdReward": false, "trial_id": "mdp_trial_39", "block": "test", "trialIndex": 42, "score": 81.55, "costs": -6.449999999999999, "simulationMode": [null, null, null, null, null], "rewards": [1, -1, -2, 13, 77], "path": ["0", "0", "12", "13", "14", "15", "16"], "rt": [14483, 117, 288, 1012, 159], "actions": ["right", "right", "right", "up", "up"], "actionTimes": [16930, 17578, 18473, 20022, 20727], "queries": {"click": {"state": {"target": ["21", "9", "16"], "time": [3658, 8355, 12445]}, "edge": {"target": [], "time": []}}, "mouseover": {"state": {"target": ["21", "21", "19", "14", "18", "2", "3", "8", "9", "18", "16", "16"], "time": [3101, 3368, 7252, 7321, 7468, 7602, 7738, 7852, 8002, 11786, 11884, 12202]}, "edge": {"target": [], "time": []}}, "mouseout": {"state": {"target": ["0", "21", "21", "21", "19", "14", "18", "2", "3", "8", "9", "18", "16", "16", "18", "1"], "time": [2971, 3133, 4141, 7187, 7288, 7366, 7501, 7637, 7768, 7902, 8648, 11821, 11986, 12990, 22517, 23103]}, "edge": {"target": [], "time": []}}}, "displayed_time": "21.26", "trialTime": 24620, "trial_type": "mouselab-mdp", "trial_index": 53, "time_elapsed": 1916336, "internal_node_id": "0.0-4.0-1.0-38.0"}}, {"uniqueid": "w45475537:a75047306", "current_trial": 54, "dateTime": 1691487138361, "trialdata": {"revealed_states": [], "clicked_states": ["33", "31", "11", "27", "28"], "num_clicks_accrued": [0, 0, 0, 0, 0, 0, 0, 0, 0, 0, 0, 0, 0], "stateRewards": ["", -2, 3, -5, -7, 66, 43, -60, -4, -70, -75, 4, -1, 2, 2, -13, 54, 11, -40, -1, 77, 32, 15, -2, 3, -8, -9, -35, 83, -27, 6, -74, -34, 44], "withholdReward": false, "trial_id": "mdp_trial_40", "block": "test", "trialIndex": 43, "score": 56.25, "costs": -10.75, "simulationMode": [null, null, null, null, null], "rewards": [-2, 3, -8, -9, 83], "path": ["0", "0", "23", "24", "25", "26", "28"], "rt": [23753, 62, 328, 884, 1023], "actions": ["left", "left", "left", "up", "right"], "actionTimes": [26193, 26806, 27677, 29091, 30754], "queries": {"click": {"state": {"target": ["33", "31", "11", "27", "28"], "time": [4180, 8380, 13144, 17632, 21725]}, "edge": {"target": [], "time": []}}, "mouseover": {"state": {"target": ["0", "31", "32", "33", "32", "31", "24", "10", "8", "11", "25", "27", "26", "28", "7", "6"], "time": [3121, 3342, 3561, 3896, 4737, 8065, 12415, 12565, 12659, 12849, 16629, 17280, 18065, 21467, 22593, 22937]}, "edge": {"target": [], "time": []}}, "mouseout": {"state": {"target": ["0", "0", "31", "32", "33", "32", "31", "24", "10", "8", "11", "11", "25", "27", "26", "28", "7", "6"], "time": [1213, 3164, 3425, 3715, 4663, 4779, 12375, 12449, 12617, 12813, 13215, 13501, 16667, 17966, 18166, 21890, 22687, 33048]}, "edge": {"target": [], "time": []}}}, "displayed_time": "31.29", "trialTime": 34350, "trial_type": "mouselab-mdp", "trial_index": 54, "time_elapsed": 1952984, "internal_node_id": "0.0-4.0-1.0-39.0"}}, {"uniqueid": "w45475537:a75047306", "current_trial": 55, "dateTime": 1691487215647, "trialdata": {"rt": 77272, "response": {"Q0": "$-16 to 16", "Q1": "$-32 to $32", "Q2": "$-88 to $88", "Q3": "The cost for clicking on nodes varied between nodes.", "Q4": "Very motivated"}, "question_order": [0, 1, 2, 3, 4], "trial_id": "final_quiz_control", "trial_type": "survey-multi-choice", "trial_index": 55, "time_elapsed": 2030269, "internal_node_id": "0.0-4.0-2.0"}}, {"uniqueid": "w45475537:a75047306", "current_trial": 56, "dateTime": 1691487343828, "trialdata": {"rt": 128150, "response": {"Q0": "I just tried to score as high as possible, seeking the highest monetary value/nodes.", "Q1": "Not really. I guessed where the higher monetary values/nodes would be. ", "Q2": "Not too difficult. I guess I played it more as a memory game."}, "trial_id": "self_report_control", "trial_type": "survey-text", "trial_index": 56, "time_elapsed": 2158451, "internal_node_id": "0.0-4.0-3.0"}}, {"uniqueid": "w45475537:a75047306", "current_trial": 57, "dateTime": 1691487406240, "trialdata": {"rt": 62399, "response": {"Q0": "Neither disagree nor agree", "Q1": "Disagree", "Q2": "Neither disagree nor agree", "Q3": "Agree", "Q4": "Neither disagree nor agree", "Q5": "Neither disagree nor agree", "Q6": "Agree"}, "question_order": [0, 1, 2, 3, 4, 5, 6], "trial_id": "self_report_2", "trial_type": "survey-multi-choice", "trial_index": 57, "time_elapsed": 2220863, "internal_node_id": "0.0-4.0-4.0"}}, {"uniqueid": "w45475537:a75047306", "current_trial": 58, "dateTime": 1691487434591, "trialdata": {"rt": 28331, "response": {"gender": "female", "age": "47", "colorblind": "0", "effort": "0"}, "trial_type": "survey-html-form", "trial_index": 58, "time_elapsed": 2249214, "internal_node_id": "0.0-4.0-5.0"}}, {"uniqueid": "w45475537:a75047306", "current_trial": 59, "dateTime": 1691487488381, "trialdata": {"rt": 53760, "response": {"Q0": "No, I enjoyed the game. Thanks!", "Q1": "No, I think this is the first time that I've played this. ", "Q2": ""}, "trial_type": "survey-text", "trial_index": 59, "time_elapsed": 2303004, "internal_node_id": "0.0-4.0-6.0"}}, {"uniqueid": "w45475537:a75047306", "current_trial": 60, "dateTime": 1691487495814, "trialdata": {"rt": 7420, "stimulus": "Press 'Finish HIT' in order to reach the completion code. Once the data has been saved, you will receive the code either in this window or in the original browser window where you started the experiment.\n", "response": 0, "trial_type": "html-button-response", "trial_index": 60, "time_elapsed": 2310436, "internal_node_id": "0.0-5.0"}}, {"uniqueid": "w45475537:a75047306", "current_trial": 61, "dateTime": 1691487496836, "trialdata": {"success": true, "trial_type": "fullscreen", "trial_index": 61, "time_elapsed": 2311459, "internal_node_id": "0.0-6.0"}}], "questiondata": {"params": {"CODE": "C6DMOQA6", "MIN_TIME": 14, "inspectCost": 1, "startTime": "Tue Aug 08 2023 10:59:39 GMT+0200 (South Africa Standard Time)", "bonusRate": 0.002, "variance": "1_2_4_8_44", "branching": "31123"}}, "eventdata": [{"eventtype": "initialized", "value": null, "timestamp": 1691485178611, "interval": 0}, {"eventtype": "window_resize", "value": [1366, 670], "timestamp": 1691485178611, "interval": 0}, {"eventtype": "window_resize", "value": [1366, 670], "timestamp": 1691485179245, "interval": 634}, {"eventtype": "window_resize", "value": [1366, 768], "timestamp": 1691485190120, "interval": 10875}, {"eventtype": "focus", "value": "off", "timestamp": 1691485656404, "interval": 466284}, {"eventtype": "focus", "value": "on", "timestamp": 1691485656405, "interval": 1}, {"eventtype": "window_resize", "value": [1366, 670], "timestamp": 1691485656651, "interval": 246}, {"eventtype": "window_resize", "value": [1366, 768], "timestamp": 1691485658801, "interval": 2150}, {"eventtype": "window_resize", "value": [1366, 670], "timestamp": 1691487496100, "interval": 1837299}], "useragent": "Mozilla/5.0 (Windows NT 10.0; Win64; x64) AppleWebKit/537.36 (KHTML, like Gecko) Chrome/115.0.0.0 Safari/537.36", "mode": "live", "id": "w45475537:a75047306", "status": "user data saved", "Beginhit": "2023-08-08 08:59:33.587128", "Beginexp": "2023-08-08 08:59:53.161562", "Endhit": "2023-08-08 09:38:20.53082", "psiturkStatus": 3, "browser": "<redacted>", "platform": "windows", "language": "en-US"}