{"condition": 1, "counterbalance": 0, "assignmentId": "a88261060", "workerId": "w58574820", "hitId": "h25970125", "currenttrial": 62, "bonus": 0, "data": [{"uniqueid": "w58574820:a88261060", "current_trial": 0, "dateTime": 1693834727974, "trialdata": {"success": true, "trial_type": "fullscreen", "trial_index": 0, "time_elapsed": 5837, "internal_node_id": "0.0-0.0"}}, {"uniqueid": "w58574820:a88261060", "current_trial": 1, "dateTime": 1693834749129, "trialdata": {"view_history": [{"page_index": 0, "viewing_time": 21145}], "rt": 21145, "trial_id": "exp_instructions_misaligned", "trial_type": "instructions", "trial_index": 1, "time_elapsed": 26992, "internal_node_id": "0.0-1.0"}}, {"uniqueid": "w58574820:a88261060", "current_trial": 2, "dateTime": 1693834959297, "trialdata": {"view_history": [{"page_index": 0, "viewing_time": 78009}, {"page_index": 1, "viewing_time": 85088}, {"page_index": 2, "viewing_time": 20743}, {"page_index": 3, "viewing_time": 26325}], "rt": 210166, "trial_id": "mouselab_instructions_1_misaligned", "trial_type": "instructions", "trial_index": 2, "time_elapsed": 237160, "internal_node_id": "0.0-2.0-1.0"}}, {"uniqueid": "w58574820:a88261060", "current_trial": 3, "dateTime": 1693834984776, "trialdata": {"revealed_states": [], "clicked_states": [], "num_clicks_accrued": [0, 0, 0, 0, 0, 0, 0, 0, 0, 0, 0, 0, 0], "stateRewards": ["", 10, -10, 10, -10, -10, -10, -10, -10, 10, 10, 10, 10, 10, 10, 10, 10, 10, 10, 10, -10, -10, -10, -10, 10, 10, 10, 10, -10, -10, -10, -10, -10, -10], "withholdReward": false, "trial_id": "practice_1", "block": "test", "trialIndex": 0, "score": 33.5, "costs": 0, "simulationMode": [null, null, null, null, null], "rewards": [-10, 10, 10, 10, 10], "path": ["0", "0", "23", "24", "25", "26", "27"], "rt": [3942, 1657, 422, 530, 183], "actions": ["left", "left", "left", "up", "up"], "actionTimes": [14172, 16339, 17270, 18291, 18978], "queries": {"click": {"state": {"target": [], "time": []}, "edge": {"target": [], "time": []}}, "mouseover": {"state": {"target": ["28", "23"], "time": [10514, 11284]}, "edge": {"target": [], "time": []}}, "mouseout": {"state": {"target": ["0", "20", "19", "0", "28", "23"], "time": [1784, 6182, 6281, 9198, 11216, 11331]}, "edge": {"target": [], "time": []}}}, "displayed_time": "19.48", "trialTime": 24133, "trial_type": "mouselab-mdp", "trial_index": 3, "time_elapsed": 262638, "internal_node_id": "0.0-2.0-2.0-0.0"}}, {"uniqueid": "w58574820:a88261060", "current_trial": 4, "dateTime": 1693835003091, "trialdata": {"revealed_states": [], "clicked_states": [], "num_clicks_accrued": [0, 0, 0, 0, 0, 0, 0, 0, 0, 0, 0, 0, 0], "stateRewards": ["", -10, -10, 10, 10, -10, 10, 10, -10, 10, 10, -10, 10, -10, -10, -10, -10, -10, -10, 10, -10, -10, -10, -10, 10, -10, 10, 10, -10, -10, -10, -10, -10, -10], "withholdReward": false, "trial_id": "practice_2", "block": "test", "trialIndex": 1, "score": 13.5, "costs": 0, "simulationMode": [null, null, null, null, null], "rewards": [-10, -10, 10, 10, 10], "path": ["0", "0", "1", "2", "3", "4", "6"], "rt": [2751, 360, 358, 63, 121], "actions": ["up", "up", "up", "right", "right"], "actionTimes": [7867, 8753, 9609, 10182, 10824], "queries": {"click": {"state": {"target": [], "time": []}, "edge": {"target": [], "time": []}}, "mouseover": {"state": {"target": ["0"], "time": [5122]}, "edge": {"target": [], "time": []}}, "mouseout": {"state": {"target": ["0", "0", "22"], "time": [2137, 12576, 16435]}, "edge": {"target": [], "time": []}}}, "displayed_time": "11.33", "trialTime": 18106, "trial_type": "mouselab-mdp", "trial_index": 4, "time_elapsed": 280953, "internal_node_id": "0.0-2.0-2.0-1.0"}}, {"uniqueid": "w58574820:a88261060", "current_trial": 5, "dateTime": 1693835032004, "trialdata": {"view_history": [{"page_index": 0, "viewing_time": 22701}, {"page_index": 1, "viewing_time": 6203}], "rt": 28905, "trial_id": "mouselab_instructions_2_misaligned", "trial_type": "instructions", "trial_index": 5, "time_elapsed": 309867, "internal_node_id": "0.0-2.0-3.0"}}, {"uniqueid": "w58574820:a88261060", "current_trial": 6, "dateTime": 1693835089727, "trialdata": {"rt": 57717, "response": {"Q0": "The cost for clicking on nodes may vary between nodes.", "Q1": "The better I perform the higher my bonus will be.", "Q2": "No, the amount of cash at each node of the web may be different each time.", "Q3": "To finish the game in the shortest amount of time.", "Q4": "Only before moving the spider.", "Q5": "3 seconds"}, "question_order": [0, 1, 2, 3, 4, 5], "correct": {"Q0": "The cost for clicking on nodes may vary between nodes.", "Q1": "The better I perform the higher my bonus will be.", "Q2": "No, the amount of cash at each node of the web may be different each time.", "Q3": "To get the highest total score.", "Q4": "Only before moving the spider.", "Q5": "3 seconds"}, "trial_id": "mouselab_quiz_misaligned", "trial_type": "survey-multi-choice", "trial_index": 6, "time_elapsed": 367589, "internal_node_id": "0.0-2.0-4.0"}}, {"uniqueid": "w58574820:a88261060", "current_trial": 7, "dateTime": 1693835104550, "trialdata": {"success": true, "trial_type": "fullscreen", "trial_index": 7, "time_elapsed": 382413, "internal_node_id": "0.0-2.1-0.1-0.1"}}, {"uniqueid": "w58574820:a88261060", "current_trial": 8, "dateTime": 1693835138593, "trialdata": {"view_history": [{"page_index": 0, "viewing_time": 3405}, {"page_index": 1, "viewing_time": 801}, {"page_index": 2, "viewing_time": 2324}, {"page_index": 1, "viewing_time": 4176}, {"page_index": 0, "viewing_time": 19520}, {"page_index": 1, "viewing_time": 880}, {"page_index": 2, "viewing_time": 2068}, {"page_index": 3, "viewing_time": 864}], "rt": 34038, "trial_id": "mouselab_instructions_1_misaligned", "trial_type": "instructions", "trial_index": 8, "time_elapsed": 416456, "internal_node_id": "0.0-2.1-1.1"}}, {"uniqueid": "w58574820:a88261060", "current_trial": 9, "dateTime": 1693835150992, "trialdata": {"revealed_states": [], "clicked_states": [], "num_clicks_accrued": [0, 0, 0, 0, 0, 0, 0, 0, 0, 0, 0, 0, 0], "stateRewards": ["", 10, -10, 10, -10, -10, -10, -10, -10, 10, 10, 10, 10, 10, 10, 10, 10, 10, 10, 10, -10, -10, -10, -10, 10, 10, 10, 10, -10, -10, -10, -10, -10, -10], "withholdReward": false, "trial_id": "practice_1", "block": "test", "trialIndex": 2, "score": 33.5, "costs": 0, "simulationMode": [null, null, null, null, null], "rewards": [-10, 10, 10, 10, 10], "path": ["0", "0", "23", "24", "25", "26", "27"], "rt": [2418, 586, 383, 200, 407], "actions": ["left", "left", "left", "up", "up"], "actionTimes": [3762, 4836, 5723, 6420, 7341], "queries": {"click": {"state": {"target": [], "time": []}, "edge": {"target": [], "time": []}}, "mouseover": {"state": {"target": ["1"], "time": [2038]}, "edge": {"target": [], "time": []}}, "mouseout": {"state": {"target": ["0", "1", "1", "0", "0", "0", "1", "18", "12"], "time": [1622, 2405, 8788, 8871, 9957, 10148, 10488, 11138, 11168]}, "edge": {"target": [], "time": []}}}, "displayed_time": "7.83", "trialTime": 12197, "trial_type": "mouselab-mdp", "trial_index": 9, "time_elapsed": 428854, "internal_node_id": "0.0-2.1-2.1-0.1"}}, {"uniqueid": "w58574820:a88261060", "current_trial": 10, "dateTime": 1693835165400, "trialdata": {"revealed_states": [], "clicked_states": ["23"], "num_clicks_accrued": [0, 0, 0, 0, 0, 0, 0, 0, 0, 0, 0, 0, 0], "stateRewards": ["", -10, -10, 10, 10, -10, 10, 10, -10, 10, 10, -10, 10, -10, -10, -10, -10, -10, -10, 10, -10, -10, -10, -10, 10, -10, 10, 10, -10, -10, -10, -10, -10, -10], "withholdReward": false, "trial_id": "practice_2", "block": "test", "trialIndex": 3, "score": -7, "costs": -0.5, "simulationMode": [null, null, null, null, null, null], "rewards": [-10, 10, -10, 10, -10], "path": ["0", "0", "23", "24", "25", "26", "28"], "rt": [2979, 1578, 514, 178, 724, 134], "actions": ["left", "left", "left", "left", "up", "right"], "actionTimes": [6559, 8140, 9162, 9838, 11068, 11695], "queries": {"click": {"state": {"target": ["23"], "time": [6550]}, "edge": {"target": [], "time": []}}, "mouseover": {"state": {"target": ["23", "24", "24"], "time": [6446, 7162, 7849]}, "edge": {"target": [], "time": []}}, "mouseout": {"state": {"target": ["0", "23", "24", "23", "24", "24"], "time": [2662, 7112, 7259, 7593, 8169, 13078]}, "edge": {"target": [], "time": []}}}, "displayed_time": "12.21", "trialTime": 14181, "trial_type": "mouselab-mdp", "trial_index": 10, "time_elapsed": 443261, "internal_node_id": "0.0-2.1-2.1-1.1"}}, {"uniqueid": "w58574820:a88261060", "current_trial": 11, "dateTime": 1693835173441, "trialdata": {"view_history": [{"page_index": 0, "viewing_time": 4127}, {"page_index": 1, "viewing_time": 3906}], "rt": 8033, "trial_id": "mouselab_instructions_2_misaligned", "trial_type": "instructions", "trial_index": 11, "time_elapsed": 451304, "internal_node_id": "0.0-2.1-3.1"}}, {"uniqueid": "w58574820:a88261060", "current_trial": 12, "dateTime": 1693835212766, "trialdata": {"rt": 39322, "response": {"Q0": "The cost for clicking on nodes may vary between nodes.", "Q1": "The better I perform the higher my bonus will be.", "Q2": "No, the amount of cash at each node of the web may be different each time.", "Q3": "To get the highest total score.", "Q4": "Only before moving the spider.", "Q5": "3 seconds"}, "question_order": [0, 1, 2, 3, 4, 5], "correct": {"Q0": "The cost for clicking on nodes may vary between nodes.", "Q1": "The better I perform the higher my bonus will be.", "Q2": "No, the amount of cash at each node of the web may be different each time.", "Q3": "To get the highest total score.", "Q4": "Only before moving the spider.", "Q5": "3 seconds"}, "trial_id": "mouselab_quiz_misaligned", "trial_type": "survey-multi-choice", "trial_index": 12, "time_elapsed": 490629, "internal_node_id": "0.0-2.1-4.1"}}, {"uniqueid": "w58574820:a88261060", "current_trial": 13, "dateTime": 1693835224838, "trialdata": {"rt": 12061, "response": {"Q0": "No"}, "question_order": [0], "trial_id": "repeat_check", "trial_type": "survey-multi-choice", "trial_index": 13, "time_elapsed": 502700, "internal_node_id": "0.0-4.0-0.0"}}, {"uniqueid": "w58574820:a88261060", "current_trial": 14, "dateTime": 1693835228132, "trialdata": {"rt": 3286, "stimulus": "\n<h1> Get ready to start the game! </h1>\n\nThank you for reading the instructions. Get ready start with the 40 rounds of this game.\n<br><br>\nIf you need to take a break, feel free to take one after the end of a round, before continuing to the next one.\n<br><br>\nRemember, the more money the spider gets, the bigger your bonus will be!\n<br><br>\n<div style='text-align: center;'>Press <code>space</code> to begin.</div>\n\n<br><br>\n(If, at any point, the <code>space</code> key does not take you to the next page, click once on the text and try again.)", "response": " ", "trial_id": "mdp_ready", "trial_type": "html-keyboard-response", "trial_index": 14, "time_elapsed": 505995, "internal_node_id": "0.0-6.0-0.0"}}, {"uniqueid": "w58574820:a88261060", "current_trial": 15, "dateTime": 1693835247634, "trialdata": {"revealed_states": [], "clicked_states": ["12"], "num_clicks_accrued": [0, 0, 0, 0, 0, 0, 0, 0, 0, 0, 0, 0, 0], "stateRewards": ["", -1, 3, 8, 9, -53, 20, -84, 2, -28, -62, -31, -1, -2, -7, 2, 51, 58, 45, -4, -17, -41, 36, 2, -2, -7, -15, 29, -54, -37, -16, -43, 65, -17], "withholdReward": false, "trial_id": "mdp_trial_1", "block": "test", "trialIndex": 4, "score": 39.25, "costs": 0.25, "simulationMode": [null, null, null, null, null], "rewards": [-1, 3, 8, 9, 20], "path": ["0", "0", "1", "2", "3", "4", "6"], "rt": [2612, 127, 186, 63, 88], "actions": ["up", "up", "up", "right", "right"], "actionTimes": [5946, 6895, 7589, 8165, 8775], "queries": {"click": {"state": {"target": ["12"], "time": [4187]}, "edge": {"target": [], "time": []}}, "mouseover": {"state": {"target": ["12"], "time": [3975]}, "edge": {"target": [], "time": []}}, "mouseout": {"state": {"target": ["23", "24", "25", "0", "0", "12", "22", "18", "13"], "time": [1053, 1086, 1102, 1505, 3629, 4634, 14772, 18189, 18438]}, "edge": {"target": [], "time": []}}}, "displayed_time": "17.34", "trialTime": 19262, "trial_type": "mouselab-mdp", "trial_index": 15, "time_elapsed": 525496, "internal_node_id": "0.0-6.0-1.0-0.0"}}, {"uniqueid": "w58574820:a88261060", "current_trial": 16, "dateTime": 1693835264486, "trialdata": {"revealed_states": [], "clicked_states": ["23"], "num_clicks_accrued": [0, 0, 0, 0, 0, 0, 0, 0, 0, 0, 0, 0, 0], "stateRewards": ["", -1, -3, -7, -7, -76, 30, -49, 11, -70, 56, 2, 1, 4, -3, -14, -59, -83, -25, -9, -21, -67, -73, -2, 4, 4, -9, -11, -32, 60, 9, -87, 22, -64], "withholdReward": false, "trial_id": "mdp_trial_2", "block": "test", "trialIndex": 5, "score": 2.25, "costs": 0.25, "simulationMode": [null, null, null, null, null], "rewards": [-1, -3, -7, 11, 2], "path": ["0", "0", "1", "2", "3", "8", "11"], "rt": [2765, 768, 390, 101, 113], "actions": ["up", "up", "up", "left", "left"], "actionTimes": [4249, 5534, 6425, 7030, 7659], "queries": {"click": {"state": {"target": ["23"], "time": [2837]}, "edge": {"target": [], "time": []}}, "mouseover": {"state": {"target": ["0", "23", "0", "12", "13"], "time": [1934, 2117, 3827, 3878, 3944]}, "edge": {"target": [], "time": []}}, "mouseout": {"state": {"target": ["0", "0", "23", "0", "12", "13", "12"], "time": [1114, 2050, 3811, 3861, 3910, 8668, 9078]}, "edge": {"target": [], "time": []}}}, "displayed_time": "15.49", "trialTime": 16608, "trial_type": "mouselab-mdp", "trial_index": 16, "time_elapsed": 542348, "internal_node_id": "0.0-6.0-1.0-1.0"}}, {"uniqueid": "w58574820:a88261060", "current_trial": 17, "dateTime": 1693835283811, "trialdata": {"revealed_states": [], "clicked_states": [], "num_clicks_accrued": [0, 0, 0, 0, 0, 0, 0, 0, 0, 0, 0, 0, 0], "stateRewards": ["", 1, 4, -8, -13, -13, -87, -77, -10, -44, 54, 42, 2, -3, -4, 12, -9, -80, 52, 9, 84, -2, -65, 1, -4, -5, -6, 8, 80, 32, 13, -59, -5, -13], "withholdReward": false, "trial_id": "mdp_trial_3", "block": "test", "trialIndex": 6, "score": -73, "costs": 0, "simulationMode": [null, null, null, null, null], "rewards": [2, -3, -4, 12, -80], "path": ["0", "0", "12", "13", "14", "15", "17"], "rt": [995, 277, 171, 56, 40], "actions": ["right", "right", "right", "up", "right"], "actionTimes": [2513, 3300, 3982, 4549, 5097], "queries": {"click": {"state": {"target": [], "time": []}, "edge": {"target": [], "time": []}}, "mouseover": {"state": {"target": [], "time": []}, "edge": {"target": [], "time": []}}, "mouseout": {"state": {"target": ["0", "12", "13", "14", "15", "17", "14", "22"], "time": [6026, 7860, 7960, 8241, 9859, 10594, 10677, 10822]}, "edge": {"target": [], "time": []}}}, "displayed_time": "15.52", "trialTime": 19044, "trial_type": "mouselab-mdp", "trial_index": 17, "time_elapsed": 561673, "internal_node_id": "0.0-6.0-1.0-2.0"}}, {"uniqueid": "w58574820:a88261060", "current_trial": 18, "dateTime": 1693835301696, "trialdata": {"revealed_states": [], "clicked_states": ["1"], "num_clicks_accrued": [0, 0, 0, 0, 0, 0, 0, 0, 0, 0, 0, 0, 0], "stateRewards": ["", 1, 1, -7, -9, -44, 24, -83, -15, 44, -24, 72, -2, -3, 4, -5, 57, 55, 29, -11, 22, 12, -25, -1, 2, 7, 12, 33, -8, 47, -4, 8, 50, -4], "withholdReward": false, "trial_id": "mdp_trial_4", "block": "test", "trialIndex": 7, "score": 10.25, "costs": 0.25, "simulationMode": [null, null, null, null, null], "rewards": [1, 1, -7, -9, 24], "path": ["0", "0", "1", "2", "3", "4", "6"], "rt": [1709, 353, 294, 72, 257], "actions": ["up", "up", "up", "right", "right"], "actionTimes": [3870, 4734, 5559, 6142, 6908], "queries": {"click": {"state": {"target": ["1"], "time": [2956]}, "edge": {"target": [], "time": []}}, "mouseover": {"state": {"target": ["1", "12"], "time": [2753, 3632]}, "edge": {"target": [], "time": []}}, "mouseout": {"state": {"target": ["0", "23", "1", "23", "0", "0", "1", "12"], "time": [350, 869, 1151, 1382, 1529, 2176, 3600, 3680]}, "edge": {"target": [], "time": []}}}, "displayed_time": "16.16", "trialTime": 17555, "trial_type": "mouselab-mdp", "trial_index": 18, "time_elapsed": 579558, "internal_node_id": "0.0-6.0-1.0-3.0"}}, {"uniqueid": "w58574820:a88261060", "current_trial": 19, "dateTime": 1693835318603, "trialdata": {"revealed_states": [], "clicked_states": ["23"], "num_clicks_accrued": [0, 0, 0, 0, 0, 0, 0, 0, 0, 0, 0, 0, 0], "stateRewards": ["", -1, 2, -2, 5, 80, -61, -27, 12, 44, -26, -75, -2, -4, 1, -16, 42, -49, -50, 4, -44, 2, 80, -2, -2, 5, -2, 59, 10, 24, 7, -48, -86, -44], "withholdReward": false, "trial_id": "mdp_trial_5", "block": "test", "trialIndex": 8, "score": 1.25, "costs": 0.25, "simulationMode": [null, null, null, null, null], "rewards": [-2, -4, 1, 4, 2], "path": ["0", "0", "12", "13", "14", "19", "21"], "rt": [2035, 515, 281, 158, 222], "actions": ["right", "right", "right", "down", "down"], "actionTimes": [3797, 4820, 5602, 6269, 7012], "queries": {"click": {"state": {"target": ["23"], "time": [2628]}, "edge": {"target": [], "time": []}}, "mouseover": {"state": {"target": ["23", "0"], "time": [2237, 3335]}, "edge": {"target": [], "time": []}}, "mouseout": {"state": {"target": ["0", "23", "0"], "time": [2120, 3302, 14125]}, "edge": {"target": [], "time": []}}}, "displayed_time": "15.77", "trialTime": 16617, "trial_type": "mouselab-mdp", "trial_index": 19, "time_elapsed": 596465, "internal_node_id": "0.0-6.0-1.0-4.0"}}, {"uniqueid": "w58574820:a88261060", "current_trial": 20, "dateTime": 1693835335322, "trialdata": {"revealed_states": [], "clicked_states": ["12"], "num_clicks_accrued": [0, 0, 0, 0, 0, 0, 0, 0, 0, 0, 0, 0, 0], "stateRewards": ["", 2, -1, -1, 7, 11, -40, -22, -2, 69, 37, 8, -2, 4, -8, -12, -2, -72, -3, -12, 17, 63, 12, 1, 3, -7, 6, 25, 61, 61, -9, 28, -17, 27], "withholdReward": false, "trial_id": "mdp_trial_6", "block": "test", "trialIndex": 9, "score": 18.25, "costs": 0.25, "simulationMode": [null, null, null, null, null], "rewards": [2, -1, -1, 7, 11], "path": ["0", "0", "1", "2", "3", "4", "5"], "rt": [2597, 301, 465, 240, 510], "actions": ["up", "up", "up", "right", "up"], "actionTimes": [3926, 4747, 5731, 6486, 7510], "queries": {"click": {"state": {"target": ["12"], "time": [2681]}, "edge": {"target": [], "time": []}}, "mouseover": {"state": {"target": ["1", "12", "13", "14", "14"], "time": [2179, 2399, 3379, 3414, 3762]}, "edge": {"target": [], "time": []}}, "mouseout": {"state": {"target": ["0", "1", "12", "13", "14", "14", "14", "14", "22"], "time": [1718, 2354, 2701, 3412, 3430, 6580, 7778, 13200, 13265]}, "edge": {"target": [], "time": []}}}, "displayed_time": "15.33", "trialTime": 16379, "trial_type": "mouselab-mdp", "trial_index": 20, "time_elapsed": 613183, "internal_node_id": "0.0-6.0-1.0-5.0"}}, {"uniqueid": "w58574820:a88261060", "current_trial": 21, "dateTime": 1693835352148, "trialdata": {"revealed_states": [], "clicked_states": ["1"], "num_clicks_accrued": [0, 0, 0, 0, 0, 0, 0, 0, 0, 0, 0, 0, 0], "stateRewards": ["", -2, 4, -5, -12, 85, -24, -18, -15, -78, -22, 26, -1, -1, 2, 14, -45, 52, -23, 7, -33, 24, -6, -2, -4, 5, -7, -16, 36, -39, 5, 71, -87, -23], "withholdReward": false, "trial_id": "mdp_trial_7", "block": "test", "trialIndex": 10, "score": -82.75, "costs": 0.25, "simulationMode": [null, null, null, null, null], "rewards": [-2, -4, 5, 5, -87], "path": ["0", "0", "23", "24", "25", "30", "32"], "rt": [2355, 382, 338, 165, 313], "actions": ["left", "left", "left", "down", "down"], "actionTimes": [3718, 4630, 5487, 6163, 7011], "queries": {"click": {"state": {"target": ["1"], "time": [2872]}, "edge": {"target": [], "time": []}}, "mouseover": {"state": {"target": ["12", "1", "0"], "time": [2081, 2635, 3345]}, "edge": {"target": [], "time": []}}, "mouseout": {"state": {"target": ["0", "12", "1", "0", "0"], "time": [1735, 2320, 3295, 3379, 9467]}, "edge": {"target": [], "time": []}}}, "displayed_time": "15.37", "trialTime": 16507, "trial_type": "mouselab-mdp", "trial_index": 21, "time_elapsed": 630010, "internal_node_id": "0.0-6.0-1.0-6.0"}}, {"uniqueid": "w58574820:a88261060", "current_trial": 22, "dateTime": 1693835368721, "trialdata": {"revealed_states": [], "clicked_states": ["12"], "num_clicks_accrued": [0, 0, 0, 0, 0, 0, 0, 0, 0, 0, 0, 0, 0], "stateRewards": ["", -2, -3, 4, 1, 33, -53, 15, 9, -12, 61, -6, -2, 4, 6, -11, 47, -43, -7, -11, 46, 23, -28, -1, -1, 3, -10, 11, 76, -76, 10, 18, -38, 87], "withholdReward": false, "trial_id": "mdp_trial_8", "block": "test", "trialIndex": 11, "score": -52.75, "costs": 0.25, "simulationMode": [null, null, null, null, null], "rewards": [-2, -3, 4, 1, -53], "path": ["0", "0", "1", "2", "3", "4", "6"], "rt": [1950, 291, 207, 236, 320], "actions": ["up", "up", "up", "right", "right"], "actionTimes": [3047, 3874, 4587, 5333, 6170], "queries": {"click": {"state": {"target": ["12"], "time": [1983]}, "edge": {"target": [], "time": []}}, "mouseover": {"state": {"target": ["0", "12"], "time": [1685, 1901]}, "edge": {"target": [], "time": []}}, "mouseout": {"state": {"target": ["0", "0", "12"], "time": [682, 1714, 2896]}, "edge": {"target": [], "time": []}}}, "displayed_time": "15.10", "trialTime": 16264, "trial_type": "mouselab-mdp", "trial_index": 22, "time_elapsed": 646582, "internal_node_id": "0.0-6.0-1.0-7.0"}}, {"uniqueid": "w58574820:a88261060", "current_trial": 23, "dateTime": 1693835385533, "trialdata": {"revealed_states": [], "clicked_states": ["1", "12", "23"], "num_clicks_accrued": [0, 0, 0, 0, 0, 0, 0, 0, 0, 0, 0, 0, 0], "stateRewards": ["", -2, -3, -6, -7, 9, 16, 65, 5, -41, 20, -25, -1, -4, 1, -11, -49, -4, 71, 1, 39, -62, 52, -2, -3, 7, -9, -28, -70, 84, 8, 24, -58, 82], "withholdReward": false, "trial_id": "mdp_trial_9", "block": "test", "trialIndex": 12, "score": -64.25, "costs": 0.75, "simulationMode": [null, null, null, null, null], "rewards": [-1, -4, 1, 1, -62], "path": ["0", "0", "12", "13", "14", "19", "21"], "rt": [5505, 89, 375, 304, 9], "actions": ["right", "right", "right", "down", "down"], "actionTimes": [6438, 7058, 7945, 9134, 9651], "queries": {"click": {"state": {"target": ["1", "12", "23"], "time": [3204, 4435, 5376]}, "edge": {"target": [], "time": []}}, "mouseover": {"state": {"target": ["1", "23", "23", "1", "12", "0", "23", "0"], "time": [1441, 1902, 2502, 3036, 4168, 4801, 5084, 6052]}, "edge": {"target": [], "time": []}}, "mouseout": {"state": {"target": ["0", "1", "23", "23", "1", "12", "0", "23", "12"], "time": [1358, 1607, 2186, 2775, 3601, 4768, 4935, 5718, 6017]}, "edge": {"target": [], "time": []}}}, "displayed_time": "14.94", "trialTime": 16499, "trial_type": "mouselab-mdp", "trial_index": 23, "time_elapsed": 663394, "internal_node_id": "0.0-6.0-1.0-8.0"}}, {"uniqueid": "w58574820:a88261060", "current_trial": 24, "dateTime": 1693835404127, "trialdata": {"revealed_states": [], "clicked_states": ["12", "13", "14"], "num_clicks_accrued": [0, 0, 0, 0, 0, 0, 0, 0, 0, 0, 0, 0, 0], "stateRewards": ["", -1, -3, -6, -2, -7, 80, -45, -3, -38, -72, 76, 2, 1, 7, 4, -62, 14, -74, 14, -87, -21, -88, -2, 1, -7, -10, 66, 56, -76, 10, -29, -72, -70], "withholdReward": false, "trial_id": "mdp_trial_10", "block": "test", "trialIndex": 13, "score": 1.9499999999999993, "costs": -1.0499999999999998, "simulationMode": [null, null, null, null, null], "rewards": [2, 1, 7, 14, -21], "path": ["0", "0", "12", "13", "14", "19", "21"], "rt": [3143, 124, 677, 364, 239], "actions": ["right", "right", "right", "down", "down"], "actionTimes": [6216, 6869, 8056, 8926, 9667], "queries": {"click": {"state": {"target": ["12", "13", "14"], "time": [4082, 4949, 5467]}, "edge": {"target": [], "time": []}}, "mouseover": {"state": {"target": ["12", "13", "14"], "time": [3569, 4343, 4963]}, "edge": {"target": [], "time": []}}, "mouseout": {"state": {"target": ["0", "0", "23", "0", "12", "13", "14", "19", "20"], "time": [859, 1932, 2348, 3082, 4309, 4961, 5876, 9662, 9793]}, "edge": {"target": [], "time": []}}}, "displayed_time": "17.08", "trialTime": 18306, "trial_type": "mouselab-mdp", "trial_index": 24, "time_elapsed": 681990, "internal_node_id": "0.0-6.0-1.0-9.0"}}, {"uniqueid": "w58574820:a88261060", "current_trial": 25, "dateTime": 1693835423086, "trialdata": {"revealed_states": [], "clicked_states": ["16"], "num_clicks_accrued": [0, 0, 0, 0, 0, 0, 0, 0, 0, 0, 0, 0, 0], "stateRewards": ["", 2, 3, 8, 14, 69, -27, 17, 2, -71, -65, -10, 2, -3, 7, 8, 65, -10, 65, -12, 73, -12, 13, -2, -2, 6, 10, -79, -69, -18, 10, -85, 67, 74], "withholdReward": false, "trial_id": "mdp_trial_11", "block": "test", "trialIndex": 14, "score": 76.85, "costs": -2.15, "simulationMode": [null, null, null, null, null], "rewards": [2, -3, 7, 8, 65], "path": ["0", "0", "12", "13", "14", "15", "16"], "rt": [6574, 81, 274, 200, 246], "actions": ["right", "right", "right", "up", "up"], "actionTimes": [8492, 9092, 9884, 10596, 11357], "queries": {"click": {"state": {"target": ["16"], "time": [4598]}, "edge": {"target": [], "time": []}}, "mouseover": {"state": {"target": ["12", "15", "17", "16", "15", "17", "17", "13"], "time": [2364, 2697, 2928, 3610, 5158, 5259, 5574, 8262]}, "edge": {"target": [], "time": []}}, "mouseout": {"state": {"target": ["19", "22", "0", "12", "18", "0", "12", "15", "17", "16", "15", "17", "17", "13", "22"], "time": [325, 392, 724, 927, 1259, 2265, 2414, 2883, 3381, 4908, 5208, 5425, 7831, 16464, 16949]}, "edge": {"target": [], "time": []}}}, "displayed_time": "15.92", "trialTime": 18645, "trial_type": "mouselab-mdp", "trial_index": 25, "time_elapsed": 700948, "internal_node_id": "0.0-6.0-1.0-10.0"}}, {"uniqueid": "w58574820:a88261060", "current_trial": 26, "dateTime": 1693835440973, "trialdata": {"revealed_states": [], "clicked_states": ["16", "27"], "num_clicks_accrued": [0, 0, 0, 0, 0, 0, 0, 0, 0, 0, 0, 0, 0], "stateRewards": ["", 2, 4, 4, 9, -88, -10, 44, 16, -54, 64, 78, 1, 2, 5, 16, 80, 36, 7, -4, 9, -47, -70, -1, -3, 6, -16, 11, 80, 28, 8, -1, 34, -17], "withholdReward": false, "trial_id": "mdp_trial_12", "block": "test", "trialIndex": 15, "score": 99.7, "costs": -4.3, "simulationMode": [null, null, null, null, null, null], "rewards": [1, 2, 5, 16, 80], "path": ["0", "0", "12", "13", "14", "15", "16"], "rt": [5776, 690, 191, 338, 196, 326], "actions": ["right", "right", "right", "right", "up", "up"], "actionTimes": [7950, 8642, 9339, 10186, 10893, 11725], "queries": {"click": {"state": {"target": ["16", "27"], "time": [3251, 6214]}, "edge": {"target": [], "time": []}}, "mouseover": {"state": {"target": ["7", "4", "6", "16", "1", "28", "26", "29", "27", "11", "5", "6"], "time": [2400, 2464, 2680, 3018, 3630, 3679, 3745, 3829, 4513, 6712, 7046, 7929]}, "edge": {"target": [], "time": []}}, "mouseout": {"state": {"target": ["0", "0", "7", "4", "6", "16", "16", "1", "28", "26", "29", "27", "11", "5", "6"], "time": [1153, 1749, 2447, 2528, 2732, 3352, 3586, 3645, 3712, 3812, 3863, 6662, 6729, 7813, 8029]}, "edge": {"target": [], "time": []}}}, "displayed_time": "16.18", "trialTime": 17586, "trial_type": "mouselab-mdp", "trial_index": 26, "time_elapsed": 718834, "internal_node_id": "0.0-6.0-1.0-11.0"}}, {"uniqueid": "w58574820:a88261060", "current_trial": 27, "dateTime": 1693835461331, "trialdata": {"revealed_states": [], "clicked_states": ["16", "5"], "num_clicks_accrued": [0, 0, 0, 0, 0, 0, 0, 0, 0, 0, 0, 0, 0], "stateRewards": ["", 1, 1, 4, 11, 83, -66, 18, -16, -23, 5, 25, 1, -3, 1, -12, 18, 24, -86, -11, -64, 36, 40, 2, 1, -6, 13, 55, 29, 72, -2, 81, -72, -41], "withholdReward": false, "trial_id": "mdp_trial_13", "block": "test", "trialIndex": 16, "score": 95.7, "costs": -4.3, "simulationMode": [null, null, null, null, null], "rewards": [1, 1, 4, 11, 83], "path": ["0", "0", "1", "2", "3", "4", "5"], "rt": [8159, 574, 54, 13, 63], "actions": ["up", "up", "up", "right", "up"], "actionTimes": [12172, 13262, 13827, 14349, 14932], "queries": {"click": {"state": {"target": ["16", "5"], "time": [5066, 8809]}, "edge": {"target": [], "time": []}}, "mouseover": {"state": {"target": ["0", "18", "16", "7", "2", "3", "5", "5", "6", "6", "5", "5", "9"], "time": [4441, 4575, 4902, 5451, 5518, 5668, 6318, 6656, 6851, 7985, 8137, 8560, 9468]}, "edge": {"target": [], "time": []}}, "mouseout": {"state": {"target": ["17", "15", "18", "1", "7", "16", "15", "18", "16", "15", "18", "0", "0", "0", "18", "16", "7", "2", "3", "5", "5", "6", "16", "6", "5", "5", "9", "4", "22", "19", "20", "17", "12"], "time": [254, 286, 336, 619, 1505, 1719, 1919, 2086, 2403, 2520, 2653, 3471, 3621, 4473, 4617, 5384, 5468, 5601, 5768, 6484, 6769, 6885, 7857, 8021, 8304, 9152, 15468, 15571, 16173, 16805, 16921, 19257, 19370]}, "edge": {"target": [], "time": []}}}, "displayed_time": "18.01", "trialTime": 20018, "trial_type": "mouselab-mdp", "trial_index": 27, "time_elapsed": 739192, "internal_node_id": "0.0-6.0-1.0-12.0"}}, {"uniqueid": "w58574820:a88261060", "current_trial": 28, "dateTime": 1693835480408, "trialdata": {"revealed_states": [], "clicked_states": ["9", "5"], "num_clicks_accrued": [0, 0, 0, 0, 0, 0, 0, 0, 0, 0, 0, 0, 0], "stateRewards": ["", -1, 2, -2, 13, -56, -28, 10, 14, 53, -80, -29, 1, -3, -3, -14, 14, 9, -40, -9, 18, 18, 48, 1, 1, 1, -9, 64, -39, -9, 7, -52, -78, 7], "withholdReward": false, "trial_id": "mdp_trial_14", "block": "test", "trialIndex": 17, "score": 61.7, "costs": -4.3, "simulationMode": [null, null, null, null, null], "rewards": [-1, 2, -2, 14, 53], "path": ["0", "0", "1", "2", "3", "8", "9"], "rt": [7984, 573, 57, 21, 61], "actions": ["up", "up", "up", "left", "up"], "actionTimes": [9520, 10603, 11169, 11717, 12290], "queries": {"click": {"state": {"target": ["9", "5"], "time": [2590, 6180]}, "edge": {"target": [], "time": []}}, "mouseover": {"state": {"target": ["1", "10", "11", "9", "5", "6", "16"], "time": [1945, 1995, 2047, 2396, 3045, 6612, 6695]}, "edge": {"target": [], "time": []}}, "mouseout": {"state": {"target": ["30", "31", "23", "1", "10", "11", "9", "5", "6", "16", "15", "14", "22", "22", "13"], "time": [616, 649, 679, 1961, 2030, 2095, 3029, 6595, 6645, 7263, 13247, 13346, 13412, 14867, 18033]}, "edge": {"target": [], "time": []}}}, "displayed_time": "15.54", "trialTime": 18740, "trial_type": "mouselab-mdp", "trial_index": 28, "time_elapsed": 758270, "internal_node_id": "0.0-6.0-1.0-13.0"}}, {"uniqueid": "w58574820:a88261060", "current_trial": 29, "dateTime": 1693835502623, "trialdata": {"revealed_states": [], "clicked_states": ["32", "21"], "num_clicks_accrued": [0, 0, 0, 0, 0, 0, 0, 0, 0, 0, 0, 0, 0], "stateRewards": ["", -2, -3, 7, -13, 60, 9, 37, -6, 37, 20, 1, 2, -2, -8, 6, -80, -31, -10, -7, 70, -65, -44, -1, 1, 7, 6, -11, 73, -85, 16, -21, 47, 34], "withholdReward": false, "trial_id": "mdp_trial_15", "block": "test", "trialIndex": 18, "score": 65.7, "costs": -4.3, "simulationMode": [null, null, null, null, null], "rewards": [-1, 1, 7, 16, 47], "path": ["0", "0", "23", "24", "25", "30", "32"], "rt": [8868, 597, 98, 108, 358], "actions": ["left", "left", "left", "down", "down"], "actionTimes": [10597, 11703, 12305, 12932, 13799], "queries": {"click": {"state": {"target": ["32", "21"], "time": [3487, 7080]}, "edge": {"target": [], "time": []}}, "mouseover": {"state": {"target": ["33", "30", "32", "21", "21", "19", "19"], "time": [2856, 2923, 3355, 4622, 6475, 9305, 10378]}, "edge": {"target": [], "time": []}}, "mouseout": {"state": {"target": ["12", "0", "33", "30", "32", "21", "21", "19", "19", "13", "18"], "time": [1174, 2162, 2907, 2973, 3788, 6379, 7605, 9455, 10540, 19926, 20476]}, "edge": {"target": [], "time": []}}}, "displayed_time": "15.73", "trialTime": 21916, "trial_type": "mouselab-mdp", "trial_index": 29, "time_elapsed": 780485, "internal_node_id": "0.0-6.0-1.0-14.0"}}, {"uniqueid": "w58574820:a88261060", "current_trial": 30, "dateTime": 1693835520183, "trialdata": {"revealed_states": [], "clicked_states": ["5", "9"], "num_clicks_accrued": [0, 0, 0, 0, 0, 0, 0, 0, 0, 0, 0, 0, 0], "stateRewards": ["", -1, -4, -6, -15, 21, -67, -63, 9, 51, 69, -14, -1, 3, 8, -8, 39, 72, 63, 15, 19, 47, 15, 1, 4, 5, 16, -18, 34, 35, -14, -80, 40, 1], "withholdReward": false, "trial_id": "mdp_trial_16", "block": "test", "trialIndex": 19, "score": 44.7, "costs": -4.3, "simulationMode": [null, null, null, null, null], "rewards": [-1, -4, -6, 9, 51], "path": ["0", "0", "1", "2", "3", "8", "9"], "rt": [9472, 22, 138, 10, 79], "actions": ["up", "up", "up", "left", "up"], "actionTimes": [11674, 12208, 12871, 13395, 14012], "queries": {"click": {"state": {"target": ["5", "9"], "time": [3650, 7392]}, "edge": {"target": [], "time": []}}, "mouseover": {"state": {"target": ["2", "8", "9", "5", "9", "9", "9", "4", "6", "16"], "time": [2819, 2850, 3015, 3352, 4197, 4714, 7255, 7814, 7881, 10130]}, "edge": {"target": [], "time": []}}, "mouseout": {"state": {"target": ["12", "13", "12", "0", "2", "8", "9", "5", "5", "9", "9", "9", "4", "6", "16", "18", "0"], "time": [451, 613, 1617, 2542, 2837, 2867, 3065, 3776, 4098, 4233, 7020, 7748, 7847, 7980, 14733, 15554, 16050]}, "edge": {"target": [], "time": []}}}, "displayed_time": "16.20", "trialTime": 17269, "trial_type": "mouselab-mdp", "trial_index": 30, "time_elapsed": 798045, "internal_node_id": "0.0-6.0-1.0-15.0"}}, {"uniqueid": "w58574820:a88261060", "current_trial": 31, "dateTime": 1693835539453, "trialdata": {"revealed_states": [], "clicked_states": ["16", "27"], "num_clicks_accrued": [0, 0, 0, 0, 0, 0, 0, 0, 0, 0, 0, 0, 0], "stateRewards": ["", 1, 2, -5, 14, 54, -14, -25, 16, -5, -87, 78, -1, 1, 3, -3, 52, 53, 53, -10, 73, -69, -48, 2, 3, 1, 8, -62, -7, 85, 7, 82, 52, -28], "withholdReward": false, "trial_id": "mdp_trial_17", "block": "test", "trialIndex": 20, "score": 47.7, "costs": -4.3, "simulationMode": [null, null, null, null, null], "rewards": [-1, 1, 3, -3, 52], "path": ["0", "0", "12", "13", "14", "15", "16"], "rt": [7840, 11, 192, 13, 131], "actions": ["right", "right", "right", "up", "up"], "actionTimes": [10973, 11494, 12211, 12729, 13402], "queries": {"click": {"state": {"target": ["16", "27"], "time": [4154, 7720]}, "edge": {"target": [], "time": []}}, "mouseover": {"state": {"target": ["0", "16", "27"], "time": [3139, 3854, 5150]}, "edge": {"target": [], "time": []}}, "mouseout": {"state": {"target": ["0", "12", "18", "7", "7", "0", "16", "27", "0", "12"], "time": [324, 1683, 2149, 2250, 2602, 3143, 4648, 8232, 14484, 16705]}, "edge": {"target": [], "time": []}}}, "displayed_time": "17.14", "trialTime": 18956, "trial_type": "mouselab-mdp", "trial_index": 31, "time_elapsed": 817313, "internal_node_id": "0.0-6.0-1.0-16.0"}}, {"uniqueid": "w58574820:a88261060", "current_trial": 32, "dateTime": 1693835561063, "trialdata": {"revealed_states": [], "clicked_states": ["5", "16", "27", "9"], "num_clicks_accrued": [0, 0, 0, 0, 0, 0, 0, 0, 0, 0, 0, 0, 0], "stateRewards": ["", -2, -4, 2, 10, -17, 18, 73, 11, -32, 23, -13, -2, -4, 7, 12, -25, 66, -23, 15, 40, -76, -9, 1, 2, -7, -5, -20, 24, 3, -5, 16, -73, 70], "withholdReward": false, "trial_id": "mdp_trial_18", "block": "test", "trialIndex": 21, "score": -19.6, "costs": -8.6, "simulationMode": [null, null, null, null, null, null], "rewards": [-2, -4, 2, 10, -17], "path": ["0", "0", "1", "2", "3", "4", "5"], "rt": [12858, 1378, 35, 244, 617, 477], "actions": ["up", "up", "up", "up", "right", "up"], "actionTimes": [13909, 15290, 15859, 16601, 17723, 18703], "queries": {"click": {"state": {"target": ["5", "16", "27", "9"], "time": [2351, 5675, 9441, 13365]}, "edge": {"target": [], "time": []}}, "mouseover": {"state": {"target": ["1", "2", "3", "5", "4", "15", "16", "7", "8", "11", "27", "11", "9"], "time": [1672, 1774, 1907, 2127, 3071, 3338, 3604, 6155, 8929, 8967, 9187, 11121, 13194]}, "edge": {"target": [], "time": []}}, "mouseout": {"state": {"target": ["0", "0", "1", "2", "3", "5", "4", "15", "16", "7", "8", "11", "27", "11", "9", "9", "3", "4", "16", "18", "13"], "time": [456, 1584, 1722, 1841, 1925, 3021, 3138, 3438, 6088, 6188, 8954, 9074, 10038, 12795, 18804, 19138, 19221, 19255, 19813, 20092, 20360]}, "edge": {"target": [], "time": []}}}, "displayed_time": "19.21", "trialTime": 21308, "trial_type": "mouselab-mdp", "trial_index": 32, "time_elapsed": 838925, "internal_node_id": "0.0-6.0-1.0-17.0"}}, {"uniqueid": "w58574820:a88261060", "current_trial": 33, "dateTime": 1693835580381, "trialdata": {"revealed_states": [], "clicked_states": ["16", "27", "5"], "num_clicks_accrued": [0, 0, 0, 0, 0, 0, 0, 0, 0, 0, 0, 0, 0], "stateRewards": ["", -1, 1, -2, 5, 73, 15, 61, 8, 7, 38, 76, 2, 2, -4, -6, -6, -26, 43, -5, -45, -85, -35, -2, 1, -4, 15, -10, 69, 72, -11, 84, -49, -38], "withholdReward": false, "trial_id": "mdp_trial_19", "block": "test", "trialIndex": 22, "score": 69.55, "costs": -6.449999999999999, "simulationMode": [null, null, null, null, null], "rewards": [-1, 1, -2, 5, 73], "path": ["0", "0", "1", "2", "3", "4", "5"], "rt": [11550, 408, 6, 600, 528], "actions": ["up", "up", "up", "right", "up"], "actionTimes": [13039, 13955, 14497, 15610, 16637], "queries": {"click": {"state": {"target": ["16", "27", "5"], "time": [2586, 6582, 9822]}, "edge": {"target": [], "time": []}}, "mouseover": {"state": {"target": ["1", "16", "16", "10", "27", "8", "5", "9"], "time": [2012, 2125, 2429, 5762, 6441, 7021, 7606, 10222]}, "edge": {"target": [], "time": []}}, "mouseout": {"state": {"target": ["0", "1", "16", "16", "10", "27", "8", "5", "9", "9", "22"], "time": [1694, 2039, 2172, 4214, 5808, 6947, 7139, 9839, 15689, 16855, 17810]}, "edge": {"target": [], "time": []}}}, "displayed_time": "17.14", "trialTime": 18995, "trial_type": "mouselab-mdp", "trial_index": 33, "time_elapsed": 858243, "internal_node_id": "0.0-6.0-1.0-18.0"}}, {"uniqueid": "w58574820:a88261060", "current_trial": 34, "dateTime": 1693835605776, "trialdata": {"revealed_states": [], "clicked_states": ["5", "16", "27"], "num_clicks_accrued": [0, 0, 0, 0, 0, 0, 0, 0, 0, 0, 0, 0, 0], "stateRewards": ["", 1, -2, 4, 7, -43, -83, -60, -5, -86, -80, 83, -1, -2, 6, 11, -15, 21, 13, 9, 29, -49, 11, -1, 4, -6, -11, 87, 40, 63, -8, -39, -11, 62], "withholdReward": false, "trial_id": "mdp_trial_20", "block": "test", "trialIndex": 23, "score": -94.45, "costs": -6.449999999999999, "simulationMode": [null, null, null, null, null], "rewards": [1, -2, 4, -5, -86], "path": ["0", "0", "1", "2", "3", "8", "9"], "rt": [11749, 1365, 640, 392, 10], "actions": ["up", "up", "up", "left", "up"], "actionTimes": [14900, 16776, 17916, 18817, 19335], "queries": {"click": {"state": {"target": ["5", "16", "27"], "time": [4750, 8149, 11447]}, "edge": {"target": [], "time": []}}, "mouseover": {"state": {"target": ["1", "4", "5", "4", "7", "18", "16", "16", "18", "12", "23", "24", "26", "27", "11", "9"], "time": [4263, 4325, 4558, 5107, 5208, 5624, 5960, 7927, 8558, 8591, 8724, 8791, 8924, 9174, 12241, 12641]}, "edge": {"target": [], "time": []}}, "mouseout": {"state": {"target": ["13", "0", "1", "4", "5", "4", "7", "18", "16", "16", "16", "18", "12", "23", "24", "26", "27", "11", "9", "8", "10", "28", "27", "23", "0"], "time": [1029, 3795, 4287, 4375, 5075, 5158, 5291, 5791, 6007, 8241, 8541, 8574, 8607, 8757, 8808, 8957, 12191, 12374, 20293, 20375, 20457, 20794, 20859, 21797, 23051]}, "edge": {"target": [], "time": []}}}, "displayed_time": "19.84", "trialTime": 25058, "trial_type": "mouselab-mdp", "trial_index": 34, "time_elapsed": 883637, "internal_node_id": "0.0-6.0-1.0-19.0"}}, {"uniqueid": "w58574820:a88261060", "current_trial": 35, "dateTime": 1693835622183, "trialdata": {"revealed_states": [], "clicked_states": ["27"], "num_clicks_accrued": [0, 0, 0, 0, 0, 0, 0, 0, 0, 0, 0, 0, 0], "stateRewards": ["", 1, -1, 1, 13, 31, -56, 72, 2, 41, 5, 63, -2, -3, -2, 3, -71, -26, 52, 13, -31, 24, -67, 2, -2, 5, 4, 66, 43, 72, 9, 86, -26, 44], "withholdReward": false, "trial_id": "mdp_trial_21", "block": "test", "trialIndex": 24, "score": 72.85, "costs": -2.15, "simulationMode": [null, null, null, null, null], "rewards": [2, -2, 5, 4, 66], "path": ["0", "0", "23", "24", "25", "26", "27"], "rt": [4445, 97, 158, 119, 189], "actions": ["left", "left", "left", "up", "up"], "actionTimes": [5710, 6325, 7002, 7630, 8337], "queries": {"click": {"state": {"target": ["27"], "time": [2050]}, "edge": {"target": [], "time": []}}, "mouseover": {"state": {"target": ["28", "27", "10", "7", "16", "16"], "time": [1616, 1794, 2426, 2476, 2527, 2944]}, "edge": {"target": [], "time": []}}, "mouseout": {"state": {"target": ["0", "28", "27", "10", "7", "16", "16", "15", "22"], "time": [478, 1728, 2379, 2443, 2493, 2560, 9181, 10248, 10293]}, "edge": {"target": [], "time": []}}}, "displayed_time": "15.27", "trialTime": 16135, "trial_type": "mouselab-mdp", "trial_index": 35, "time_elapsed": 900044, "internal_node_id": "0.0-6.0-1.0-20.0"}}, {"uniqueid": "w58574820:a88261060", "current_trial": 36, "dateTime": 1693835675016, "trialdata": {"revealed_states": [], "clicked_states": [], "num_clicks_accrued": [0, 0, 0, 0, 0, 0, 0, 0, 0, 0, 0, 0, 0], "stateRewards": ["", 2, 3, 8, 11, 25, -80, 6, -4, -56, 84, -23, -2, -4, -3, 4, -51, -9, -61, -15, -64, 67, -35, 1, -1, -7, -6, 83, 59, -15, 12, -79, 56, 41], "withholdReward": false, "trial_id": "mdp_trial_22", "block": "test", "trialIndex": 25, "score": -56, "costs": 0, "simulationMode": [null, null, null, null, null], "rewards": [-2, -4, -3, 4, -51], "path": ["0", "0", "12", "13", "14", "15", "16"], "rt": [13035, 847, 431, 30, 102], "actions": ["right", "right", "right", "up", "up"], "actionTimes": [46355, 47708, 48659, 49205, 49826], "queries": {"click": {"state": {"target": [], "time": []}, "edge": {"target": [], "time": []}}, "mouseover": {"state": {"target": ["1", "2", "7", "17", "16", "18", "12"], "time": [37108, 37162, 37326, 37558, 37963, 40229, 40375]}, "edge": {"target": [], "time": []}}, "mouseout": {"state": {"target": ["2", "0", "8", "28", "27", "11", "10", "0", "1", "2", "7", "17", "16", "18", "12"], "time": [5261, 9372, 25836, 31906, 31942, 32023, 32140, 36715, 37133, 37212, 37349, 37626, 40109, 40257, 40409]}, "edge": {"target": [], "time": []}}}, "displayed_time": "50.34", "trialTime": 52464, "trial_type": "mouselab-mdp", "trial_index": 36, "time_elapsed": 952878, "internal_node_id": "0.0-6.0-1.0-21.0"}}, {"uniqueid": "w58574820:a88261060", "current_trial": 37, "dateTime": 1693835694643, "trialdata": {"revealed_states": [], "clicked_states": ["5"], "num_clicks_accrued": [0, 0, 0, 0, 0, 0, 0, 0, 0, 0, 0, 0, 0], "stateRewards": ["", 1, -1, 8, 4, 76, -33, -17, -3, -1, -54, -74, -2, 2, -5, 13, -51, 63, 83, 1, 84, 29, -36, 2, -1, 7, -12, -10, -44, -43, -14, 8, -69, 19], "withholdReward": false, "trial_id": "mdp_trial_23", "block": "test", "trialIndex": 26, "score": 85.85, "costs": -2.15, "simulationMode": [null, null, null, null, null], "rewards": [1, -1, 8, 4, 76], "path": ["0", "0", "1", "2", "3", "4", "5"], "rt": [4546, 576, 142, 88, 45], "actions": ["up", "up", "up", "right", "up"], "actionTimes": [8359, 9470, 10122, 10734, 11287], "queries": {"click": {"state": {"target": ["5"], "time": [5153]}, "edge": {"target": [], "time": []}}, "mouseover": {"state": {"target": ["0", "1", "2", "4", "5", "6", "16", "16"], "time": [4077, 4311, 4373, 4561, 4911, 5670, 5710, 6140]}, "edge": {"target": [], "time": []}}, "mouseout": {"state": {"target": ["0", "1", "2", "4", "5", "6", "16", "16", "14", "15", "13", "22"], "time": [4244, 4350, 4400, 4587, 5643, 5686, 5773, 15111, 15877, 16444, 17813, 18927]}, "edge": {"target": [], "time": []}}}, "displayed_time": "17.83", "trialTime": 19213, "trial_type": "mouselab-mdp", "trial_index": 37, "time_elapsed": 972505, "internal_node_id": "0.0-6.0-1.0-22.0"}}, {"uniqueid": "w58574820:a88261060", "current_trial": 38, "dateTime": 1693835716961, "trialdata": {"revealed_states": [], "clicked_states": ["5", "9", "16"], "num_clicks_accrued": [0, 0, 0, 0, 0, 0, 0, 0, 0, 0, 0, 0, 0], "stateRewards": ["", 1, 1, 5, 6, -29, -7, 3, -16, 9, -46, 65, -1, 4, -1, -16, -63, -77, -87, 8, 80, -50, 43, -1, -1, -5, 5, -38, -71, -62, 9, 81, -50, -52], "withholdReward": false, "trial_id": "mdp_trial_24", "block": "test", "trialIndex": 27, "score": -46.45, "costs": -6.449999999999999, "simulationMode": [null, null, null, null, null], "rewards": [-1, -1, -5, 5, -38], "path": ["0", "0", "23", "24", "25", "26", "27"], "rt": [12637, 1343, 474, 40, 28], "actions": ["left", "left", "left", "up", "up"], "actionTimes": [15715, 17581, 18577, 19125, 19696], "queries": {"click": {"state": {"target": ["5", "9", "16"], "time": [5353, 8737, 12190]}, "edge": {"target": [], "time": []}}, "mouseover": {"state": {"target": ["5", "5", "9", "9", "6", "16", "27"], "time": [4650, 5163, 7938, 8516, 9109, 9781, 13264]}, "edge": {"target": [], "time": []}}, "mouseout": {"state": {"target": ["1", "2", "2", "0", "0", "5", "5", "9", "9", "6", "16", "16", "27", "28", "23"], "time": [783, 1032, 1298, 2065, 4368, 4673, 6695, 7987, 9048, 9143, 12269, 12495, 20095, 20177, 20263]}, "edge": {"target": [], "time": []}}}, "displayed_time": "20.20", "trialTime": 21888, "trial_type": "mouselab-mdp", "trial_index": 38, "time_elapsed": 994822, "internal_node_id": "0.0-6.0-1.0-23.0"}}, {"uniqueid": "w58574820:a88261060", "current_trial": 39, "dateTime": 1693835742409, "trialdata": {"revealed_states": [], "clicked_states": ["16", "27", "9", "5"], "num_clicks_accrued": [0, 0, 0, 0, 0, 0, 0, 0, 0, 0, 0, 0, 0], "stateRewards": ["", -1, 3, 1, -7, 56, 76, 57, 3, 11, -9, 14, 1, -2, 2, 8, -77, -3, 79, -5, 88, 24, -66, -2, -1, 7, -7, -30, 14, -76, 11, -36, 28, -6], "withholdReward": false, "trial_id": "mdp_trial_25", "block": "test", "trialIndex": 28, "score": 43.4, "costs": -8.6, "simulationMode": [null, null, null, null, null], "rewards": [-1, 3, 1, -7, 56], "path": ["0", "0", "1", "2", "3", "4", "5"], "rt": [14200, 6, 512, 451, 151], "actions": ["up", "up", "up", "right", "up"], "actionTimes": [18691, 19212, 20282, 21287, 21966], "queries": {"click": {"state": {"target": ["16", "27", "9", "5"], "time": [5755, 8961, 12191, 15538]}, "edge": {"target": [], "time": []}}, "mouseover": {"state": {"target": ["18", "15", "16", "7", "27", "8", "9", "5"], "time": [5150, 5184, 5585, 6263, 7919, 11039, 11693, 12745]}, "edge": {"target": [], "time": []}}, "mouseout": {"state": {"target": ["0", "18", "15", "16", "7", "27", "8", "9", "5", "6", "12"], "time": [5028, 5175, 5210, 6214, 6279, 10333, 11240, 12536, 16572, 22598, 23036]}, "edge": {"target": [], "time": []}}}, "displayed_time": "22.48", "trialTime": 25037, "trial_type": "mouselab-mdp", "trial_index": 39, "time_elapsed": 1020271, "internal_node_id": "0.0-6.0-1.0-24.0"}}, {"uniqueid": "w58574820:a88261060", "current_trial": 40, "dateTime": 1693835760442, "trialdata": {"revealed_states": [], "clicked_states": ["16"], "num_clicks_accrued": [0, 0, 0, 0, 0, 0, 0, 0, 0, 0, 0, 0, 0], "stateRewards": ["", -2, 4, -7, -3, -76, 39, -28, 10, 14, 12, 60, 2, -3, 6, -10, 88, -34, -41, -3, 72, -13, -56, 1, 3, 2, 8, -51, 23, -57, 1, 14, -46, -16], "withholdReward": false, "trial_id": "mdp_trial_26", "block": "test", "trialIndex": 29, "score": 80.85, "costs": -2.15, "simulationMode": [null, null, null, null, null], "rewards": [2, -3, 6, -10, 88], "path": ["0", "0", "12", "13", "14", "15", "16"], "rt": [4775, 18, 235, 496, 8], "actions": ["right", "right", "right", "up", "up"], "actionTimes": [7035, 7557, 8324, 9330, 9864], "queries": {"click": {"state": {"target": ["16"], "time": [3718]}, "edge": {"target": [], "time": []}}, "mouseover": {"state": {"target": ["1", "2", "7", "16", "7", "2", "10", "27"], "time": [2904, 2954, 3122, 3437, 4099, 4133, 4169, 4533]}, "edge": {"target": [], "time": []}}, "mouseout": {"state": {"target": ["0", "1", "2", "7", "16", "7", "2", "10", "27", "26"], "time": [2837, 2929, 3056, 3158, 4015, 4116, 4166, 4199, 11287, 11643]}, "edge": {"target": [], "time": []}}}, "displayed_time": "16.26", "trialTime": 17640, "trial_type": "mouselab-mdp", "trial_index": 40, "time_elapsed": 1038304, "internal_node_id": "0.0-6.0-1.0-25.0"}}, {"uniqueid": "w58574820:a88261060", "current_trial": 41, "dateTime": 1693835778774, "trialdata": {"revealed_states": [], "clicked_states": ["16", "27"], "num_clicks_accrued": [0, 0, 0, 0, 0, 0, 0, 0, 0, 0, 0, 0, 0], "stateRewards": ["", -2, 2, 5, -14, -56, 64, 84, -5, 52, 39, 85, -2, 1, 7, 8, 21, 29, -78, -9, -10, -69, 10, -2, -1, -7, 15, 72, 20, 41, -2, 52, 80, 22], "withholdReward": false, "trial_id": "mdp_trial_27", "block": "test", "trialIndex": 30, "score": 72.7, "costs": -4.3, "simulationMode": [null, null, null, null, null], "rewards": [-2, -1, -7, 15, 72], "path": ["0", "0", "23", "24", "25", "26", "27"], "rt": [7683, 526, 135, 71, 81], "actions": ["left", "left", "left", "up", "up"], "actionTimes": [10434, 11468, 12115, 12713, 13309], "queries": {"click": {"state": {"target": ["16", "27"], "time": [3790, 7137]}, "edge": {"target": [], "time": []}}, "mouseover": {"state": {"target": ["16", "16", "7", "2", "10", "27", "11", "9"], "time": [3228, 3630, 4190, 4239, 4288, 4588, 7583, 8044]}, "edge": {"target": [], "time": []}}, "mouseout": {"state": {"target": ["24", "23", "0", "16", "16", "7", "2", "10", "27", "11", "9", "8", "10", "0"], "time": [1876, 2159, 2763, 3283, 4088, 4223, 4272, 4390, 7495, 7621, 14377, 14482, 14541, 14777]}, "edge": {"target": [], "time": []}}}, "displayed_time": "16.76", "trialTime": 17896, "trial_type": "mouselab-mdp", "trial_index": 41, "time_elapsed": 1056636, "internal_node_id": "0.0-6.0-1.0-26.0"}}, {"uniqueid": "w58574820:a88261060", "current_trial": 42, "dateTime": 1693835801475, "trialdata": {"revealed_states": [], "clicked_states": ["16", "27", "9", "5"], "num_clicks_accrued": [0, 0, 0, 0, 0, 0, 0, 0, 0, 0, 0, 0, 0], "stateRewards": ["", 2, -1, 8, -2, -16, 69, -39, -7, -13, -27, -86, 2, -2, 2, 13, -34, -16, -20, -5, 19, 81, 32, -2, -1, 2, -14, 20, 80, 58, 4, 70, 12, 73], "withholdReward": false, "trial_id": "mdp_trial_28", "block": "test", "trialIndex": 31, "score": -3.6000000000000014, "costs": -8.6, "simulationMode": [null, null, null, null, null, null], "rewards": [-2, -1, 2, -14, 20], "path": ["0", "0", "23", "24", "25", "26", "27"], "rt": [11165, 2882, 57, 256, 501, 3], "actions": ["left", "left", "left", "left", "up", "up"], "actionTimes": [12964, 15857, 16430, 17217, 18247, 18763], "queries": {"click": {"state": {"target": ["16", "27", "9", "5"], "time": [2825, 6003, 9632, 12769]}, "edge": {"target": [], "time": []}}, "mouseover": {"state": {"target": ["16", "7", "2", "10", "27", "11", "9", "5", "2", "1", "7", "4"], "time": [2618, 3157, 3199, 3247, 3860, 6490, 6980, 10122, 15046, 15220, 15446, 15606]}, "edge": {"target": [], "time": []}}, "mouseout": {"state": {"target": ["0", "16", "7", "2", "10", "27", "11", "9", "5", "2", "1", "7", "4", "12"], "time": [1098, 2911, 3194, 3224, 3273, 6421, 6707, 9977, 14498, 15153, 15376, 15572, 15623, 20078]}, "edge": {"target": [], "time": []}}}, "displayed_time": "19.28", "trialTime": 22265, "trial_type": "mouselab-mdp", "trial_index": 42, "time_elapsed": 1079336, "internal_node_id": "0.0-6.0-1.0-27.0"}}, {"uniqueid": "w58574820:a88261060", "current_trial": 43, "dateTime": 1693835821658, "trialdata": {"revealed_states": [], "clicked_states": ["16", "5", "9"], "num_clicks_accrued": [0, 0, 0, 0, 0, 0, 0, 0, 0, 0, 0, 0, 0], "stateRewards": ["", -1, -3, -7, -4, -85, -70, 79, 8, 84, -66, 42, 2, -2, -3, -16, -54, -66, 68, -3, 21, -14, 7, -2, -1, -3, -8, 75, 80, 86, -7, -84, 73, -16], "withholdReward": false, "trial_id": "mdp_trial_29", "block": "test", "trialIndex": 32, "score": 74.55, "costs": -6.449999999999999, "simulationMode": [null, null, null, null, null], "rewards": [-1, -3, -7, 8, 84], "path": ["0", "0", "1", "2", "3", "8", "9"], "rt": [10932, 483, 6, 715, 472], "actions": ["up", "up", "up", "left", "up"], "actionTimes": [13355, 14346, 14868, 16123, 17114], "queries": {"click": {"state": {"target": ["16", "5", "9"], "time": [3464, 6802, 10003]}, "edge": {"target": [], "time": []}}, "mouseover": {"state": {"target": ["18", "16", "4", "5", "9", "11", "27"], "time": [3158, 3223, 3876, 4069, 7319, 10369, 10877]}, "edge": {"target": [], "time": []}}, "mouseout": {"state": {"target": ["0", "18", "16", "4", "5", "9", "9", "11", "27", "24"], "time": [2741, 3185, 3735, 3952, 6892, 10085, 10303, 10457, 18494, 18805]}, "edge": {"target": [], "time": []}}}, "displayed_time": "17.63", "trialTime": 19748, "trial_type": "mouselab-mdp", "trial_index": 43, "time_elapsed": 1099520, "internal_node_id": "0.0-6.0-1.0-28.0"}}, {"uniqueid": "w58574820:a88261060", "current_trial": 44, "dateTime": 1693835846463, "trialdata": {"revealed_states": [], "clicked_states": ["16", "27", "5", "9"], "num_clicks_accrued": [0, 0, 0, 0, 0, 0, 0, 0, 0, 0, 0, 0, 0], "stateRewards": ["", 1, 1, -5, 8, -6, 45, 16, -6, -7, -22, -38, -1, -4, 8, -11, -16, 21, -45, -15, -59, -32, 42, -1, 3, 6, 11, -7, 34, -27, -8, 85, 43, -9], "withholdReward": false, "trial_id": "mdp_trial_30", "block": "test", "trialIndex": 33, "score": -9.6, "costs": -8.6, "simulationMode": [null, null, null, null, null, null], "rewards": [1, 1, -5, 8, -6], "path": ["0", "0", "1", "2", "3", "4", "5"], "rt": [11209, 2465, 602, 254, 483, 45], "actions": ["up", "up", "up", "up", "right", "up"], "actionTimes": [15330, 17797, 19137, 19451, 21094, 21651], "queries": {"click": {"state": {"target": ["16", "27", "5", "9"], "time": [5068, 8223, 11463, 14666]}, "edge": {"target": [], "time": []}}, "mouseover": {"state": {"target": ["18", "16", "7", "2", "27", "11", "8", "5", "9", "8"], "time": [4559, 4909, 5447, 5520, 6087, 8636, 8683, 8871, 12095, 16936]}, "edge": {"target": [], "time": []}}, "mouseout": {"state": {"target": ["0", "18", "16", "7", "2", "27", "11", "8", "5", "9", "9", "8", "2", "1", "0"], "time": [4213, 4599, 5408, 5479, 5688, 8500, 8658, 8726, 11736, 14745, 16073, 17123, 22656, 22780, 23319]}, "edge": {"target": [], "time": []}}}, "displayed_time": "22.19", "trialTime": 24405, "trial_type": "mouselab-mdp", "trial_index": 44, "time_elapsed": 1124324, "internal_node_id": "0.0-6.0-1.0-29.0"}}, {"uniqueid": "w58574820:a88261060", "current_trial": 45, "dateTime": 1693835864977, "trialdata": {"revealed_states": [], "clicked_states": ["16"], "num_clicks_accrued": [0, 0, 0, 0, 0, 0, 0, 0, 0, 0, 0, 0, 0], "stateRewards": ["", -2, -4, -6, 12, -58, -70, -80, 2, 16, -88, -62, 1, 2, -5, 11, 77, -35, -44, -5, 18, -83, 87, 1, -3, -5, 13, -44, -21, -86, 10, -52, 8, 29], "withholdReward": false, "trial_id": "mdp_trial_31", "block": "test", "trialIndex": 34, "score": 83.85, "costs": -2.15, "simulationMode": [null, null, null, null, null], "rewards": [1, 2, -5, 11, 77], "path": ["0", "0", "12", "13", "14", "15", "16"], "rt": [4536, 78, 96, 11, 75], "actions": ["right", "right", "right", "up", "up"], "actionTimes": [7177, 7793, 8400, 8950, 9561], "queries": {"click": {"state": {"target": ["16"], "time": [3692]}, "edge": {"target": [], "time": []}}, "mouseover": {"state": {"target": ["18", "16", "27"], "time": [3289, 3435, 4950]}, "edge": {"target": [], "time": []}}, "mouseout": {"state": {"target": ["0", "18", "16", "27", "23"], "time": [2237, 3343, 4274, 10342, 10422]}, "edge": {"target": [], "time": []}}}, "displayed_time": "16.65", "trialTime": 18099, "trial_type": "mouselab-mdp", "trial_index": 45, "time_elapsed": 1142838, "internal_node_id": "0.0-6.0-1.0-30.0"}}, {"uniqueid": "w58574820:a88261060", "current_trial": 46, "dateTime": 1693835883951, "trialdata": {"revealed_states": [], "clicked_states": ["16", "27"], "num_clicks_accrued": [0, 0, 0, 0, 0, 0, 0, 0, 0, 0, 0, 0, 0], "stateRewards": ["", 2, 1, -3, 7, 46, 11, -36, 16, 71, 5, 1, 2, -2, -8, -3, -4, 6, 55, 7, 68, -54, 2, 1, 1, 6, -6, 42, -4, -84, -11, -65, 63, 25], "withholdReward": false, "trial_id": "mdp_trial_32", "block": "test", "trialIndex": 35, "score": 39.7, "costs": -4.3, "simulationMode": [null, null, null, null, null], "rewards": [1, 1, 6, -6, 42], "path": ["0", "0", "23", "24", "25", "26", "27"], "rt": [7806, 39, 59, 5, 130], "actions": ["left", "left", "left", "up", "up"], "actionTimes": [10518, 11080, 11688, 12217, 12892], "queries": {"click": {"state": {"target": ["16", "27"], "time": [3927, 7194]}, "edge": {"target": [], "time": []}}, "mouseover": {"state": {"target": ["18", "16", "7", "27", "11", "9"], "time": [3449, 3759, 4389, 4705, 7691, 8027]}, "edge": {"target": [], "time": []}}, "mouseout": {"state": {"target": ["12", "0", "0", "18", "16", "7", "27", "11", "9", "8", "23"], "time": [1792, 1823, 2296, 3511, 4256, 4423, 7298, 7763, 14742, 14930, 15410]}, "edge": {"target": [], "time": []}}}, "displayed_time": "16.72", "trialTime": 18514, "trial_type": "mouselab-mdp", "trial_index": 46, "time_elapsed": 1161812, "internal_node_id": "0.0-6.0-1.0-31.0"}}, {"uniqueid": "w58574820:a88261060", "current_trial": 47, "dateTime": 1693835907719, "trialdata": {"revealed_states": [], "clicked_states": ["16", "27", "9", "5"], "num_clicks_accrued": [0, 0, 0, 0, 0, 0, 0, 0, 0, 0, 0, 0, 0], "stateRewards": ["", 1, -1, -7, -7, -22, 15, -13, 13, 26, -32, 38, -1, 1, -7, -4, 16, -62, 86, 12, -54, 56, 64, -2, -1, 6, 14, -57, 37, 62, -6, -25, 50, -70], "withholdReward": false, "trial_id": "mdp_trial_33", "block": "test", "trialIndex": 36, "score": 23.4, "costs": -8.6, "simulationMode": [null, null, null, null, null], "rewards": [1, -1, -7, 13, 26], "path": ["0", "0", "1", "2", "3", "8", "9"], "rt": [14486, 19, 24, 584, 490], "actions": ["up", "up", "up", "left", "up"], "actionTimes": [16314, 16851, 17408, 18519, 19524], "queries": {"click": {"state": {"target": ["16", "27", "9", "5"], "time": [3065, 6608, 10014, 13325]}, "edge": {"target": [], "time": []}}, "mouseover": {"state": {"target": ["16", "27", "27", "11", "9", "9", "5", "4", "7"], "time": [2649, 3875, 4278, 7019, 7048, 7689, 10695, 14280, 14533]}, "edge": {"target": [], "time": []}}, "mouseout": {"state": {"target": ["0", "16", "27", "27", "11", "9", "9", "5", "4", "7"], "time": [2313, 3406, 3934, 6704, 7042, 7072, 10361, 13945, 14416, 14752]}, "edge": {"target": [], "time": []}}}, "displayed_time": "20.04", "trialTime": 22140, "trial_type": "mouselab-mdp", "trial_index": 47, "time_elapsed": 1185581, "internal_node_id": "0.0-6.0-1.0-32.0"}}, {"uniqueid": "w58574820:a88261060", "current_trial": 48, "dateTime": 1693835928737, "trialdata": {"revealed_states": [], "clicked_states": ["27", "16"], "num_clicks_accrued": [0, 0, 0, 0, 0, 0, 0, 0, 0, 0, 0, 0, 0], "stateRewards": ["", 2, 3, 3, 10, 19, -21, 6, 9, 54, 68, 16, 2, 2, -6, -8, 40, -2, -75, -2, -42, 55, 59, -1, 2, 4, -14, 11, -34, -30, -6, 61, -53, 13], "withholdReward": false, "trial_id": "mdp_trial_34", "block": "test", "trialIndex": 37, "score": 25.7, "costs": -4.3, "simulationMode": [null, null, null, null, null], "rewards": [2, 2, -6, -8, 40], "path": ["0", "0", "12", "13", "14", "15", "16"], "rt": [7932, 87, 804, 92, 269], "actions": ["right", "right", "right", "up", "up"], "actionTimes": [10836, 11437, 12757, 13360, 14141], "queries": {"click": {"state": {"target": ["27", "16"], "time": [3966, 7449]}, "edge": {"target": [], "time": []}}, "mouseover": {"state": {"target": ["23", "28", "27", "10", "2", "7", "16", "16", "4", "3", "8", "5"], "time": [3332, 3367, 3801, 4265, 4316, 4338, 4401, 6097, 7967, 8031, 8132, 9314]}, "edge": {"target": [], "time": []}}, "mouseout": {"state": {"target": ["31", "23", "0", "23", "28", "27", "10", "2", "7", "16", "16", "4", "3", "8", "5", "0"], "time": [2004, 2248, 2496, 3358, 3397, 4199, 4299, 4334, 4358, 4505, 7800, 8009, 8073, 8179, 15133, 17081]}, "edge": {"target": [], "time": []}}}, "displayed_time": "16.92", "trialTime": 20574, "trial_type": "mouselab-mdp", "trial_index": 48, "time_elapsed": 1206599, "internal_node_id": "0.0-6.0-1.0-33.0"}}, {"uniqueid": "w58574820:a88261060", "current_trial": 49, "dateTime": 1693835946560, "trialdata": {"revealed_states": [], "clicked_states": ["16"], "num_clicks_accrued": [0, 0, 0, 0, 0, 0, 0, 0, 0, 0, 0, 0, 0], "stateRewards": ["", -1, -2, -8, 8, -27, -82, 19, -14, -62, 4, 1, -2, 2, 6, 10, 73, -51, -2, 2, 73, -48, 54, -1, 2, -4, 11, -25, 47, 86, 15, 33, 43, -42], "withholdReward": false, "trial_id": "mdp_trial_35", "block": "test", "trialIndex": 38, "score": 86.85, "costs": -2.15, "simulationMode": [null, null, null, null, null], "rewards": [-2, 2, 6, 10, 73], "path": ["0", "0", "12", "13", "14", "15", "16"], "rt": [4226, 510, 75, 11, 92], "actions": ["right", "right", "right", "up", "up"], "actionTimes": [6451, 7481, 8063, 8595, 9233], "queries": {"click": {"state": {"target": ["16"], "time": [3191]}, "edge": {"target": [], "time": []}}, "mouseover": {"state": {"target": ["7", "16", "7", "2", "10", "27"], "time": [2621, 2991, 3424, 3466, 3497, 4039]}, "edge": {"target": [], "time": []}}, "mouseout": {"state": {"target": ["0", "7", "16", "7", "2", "10", "27", "26", "25", "31"], "time": [1854, 2648, 3365, 3448, 3476, 3515, 11535, 11690, 11769, 11902]}, "edge": {"target": [], "time": []}}}, "displayed_time": "16.23", "trialTime": 17399, "trial_type": "mouselab-mdp", "trial_index": 49, "time_elapsed": 1224421, "internal_node_id": "0.0-6.0-1.0-34.0"}}, {"uniqueid": "w58574820:a88261060", "current_trial": 50, "dateTime": 1693835964448, "trialdata": {"revealed_states": [], "clicked_states": ["16", "27"], "num_clicks_accrued": [0, 0, 0, 0, 0, 0, 0, 0, 0, 0, 0, 0, 0], "stateRewards": ["", 1, -3, -6, -5, 47, 80, -29, 11, -71, 10, -29, -2, 3, -6, 12, 2, -78, -6, 8, 34, -16, -5, -1, 3, 3, -13, 84, -36, -62, -3, -27, 66, 15], "withholdReward": false, "trial_id": "mdp_trial_36", "block": "test", "trialIndex": 39, "score": 71.7, "costs": -4.3, "simulationMode": [null, null, null, null, null], "rewards": [-1, 3, 3, -13, 84], "path": ["0", "0", "23", "24", "25", "26", "27"], "rt": [7858, 467, 105, 483, 71], "actions": ["left", "left", "left", "up", "up"], "actionTimes": [9276, 10271, 10908, 11905, 12487], "queries": {"click": {"state": {"target": ["16", "27"], "time": [2667, 5905]}, "edge": {"target": [], "time": []}}, "mouseover": {"state": {"target": ["18", "16", "27", "11", "9"], "time": [2235, 2472, 3996, 6281, 6654]}, "edge": {"target": [], "time": []}}, "mouseout": {"state": {"target": ["0", "18", "16", "27", "11", "9", "8", "10"], "time": [2118, 2285, 3016, 5936, 6296, 10677, 13134, 13235]}, "edge": {"target": [], "time": []}}}, "displayed_time": "15.42", "trialTime": 17436, "trial_type": "mouselab-mdp", "trial_index": 50, "time_elapsed": 1242310, "internal_node_id": "0.0-6.0-1.0-35.0"}}, {"uniqueid": "w58574820:a88261060", "current_trial": 51, "dateTime": 1693835982148, "trialdata": {"revealed_states": [], "clicked_states": ["27"], "num_clicks_accrued": [0, 0, 0, 0, 0, 0, 0, 0, 0, 0, 0, 0, 0], "stateRewards": ["", -1, 4, -8, 12, 14, 69, -8, 5, -72, -14, 56, -1, -1, -1, 9, 67, 19, 11, -9, -88, -58, 3, 2, -4, -8, 4, 62, 77, -74, 5, -31, 65, 88], "withholdReward": false, "trial_id": "mdp_trial_37", "block": "test", "trialIndex": 40, "score": 53.85, "costs": -2.15, "simulationMode": [null, null, null, null, null], "rewards": [2, -4, -8, 4, 62], "path": ["0", "0", "23", "24", "25", "26", "27"], "rt": [4336, 48, 116, 75, 156], "actions": ["left", "left", "left", "up", "up"], "actionTimes": [6626, 7177, 7829, 8421, 9129], "queries": {"click": {"state": {"target": ["27"], "time": [3302]}, "edge": {"target": [], "time": []}}, "mouseover": {"state": {"target": ["28", "27", "16", "16"], "time": [2919, 3118, 3756, 4152]}, "edge": {"target": [], "time": []}}, "mouseout": {"state": {"target": ["0", "28", "27", "16", "16", "18", "13"], "time": [1861, 2948, 3630, 3831, 13981, 16247, 16996]}, "edge": {"target": [], "time": []}}}, "displayed_time": "16.29", "trialTime": 17248, "trial_type": "mouselab-mdp", "trial_index": 51, "time_elapsed": 1260010, "internal_node_id": "0.0-6.0-1.0-36.0"}}, {"uniqueid": "w58574820:a88261060", "current_trial": 52, "dateTime": 1693835999304, "trialdata": {"revealed_states": [], "clicked_states": ["16", "27"], "num_clicks_accrued": [0, 0, 0, 0, 0, 0, 0, 0, 0, 0, 0, 0, 0], "stateRewards": ["", -1, -3, -5, -14, -13, -47, 79, 8, -60, -64, 41, -1, 2, 3, 13, -46, 61, -79, -11, -64, -65, 23, 1, -2, 6, -14, 46, 32, 21, 7, 75, -66, 15], "withholdReward": false, "trial_id": "mdp_trial_38", "block": "test", "trialIndex": 41, "score": 32.7, "costs": -4.3, "simulationMode": [null, null, null, null, null], "rewards": [1, -2, 6, -14, 46], "path": ["0", "0", "23", "24", "25", "26", "27"], "rt": [8646, 522, 104, 56, 53], "actions": ["left", "left", "left", "up", "up"], "actionTimes": [10136, 11206, 11818, 12391, 12987], "queries": {"click": {"state": {"target": ["16", "27"], "time": [2957, 6911]}, "edge": {"target": [], "time": []}}, "mouseover": {"state": {"target": ["7", "16", "16", "7", "8", "27", "11", "9", "9"], "time": [2083, 2232, 2699, 6198, 6365, 6664, 7294, 7427, 8153]}, "edge": {"target": [], "time": []}}, "mouseout": {"state": {"target": ["12", "0", "7", "16", "16", "7", "8", "27", "11", "9", "9", "8", "10", "2"], "time": [685, 1848, 2130, 2271, 6133, 6231, 6448, 7178, 7361, 7821, 13598, 13829, 13902, 13955]}, "edge": {"target": [], "time": []}}}, "displayed_time": "15.50", "trialTime": 16692, "trial_type": "mouselab-mdp", "trial_index": 52, "time_elapsed": 1277165, "internal_node_id": "0.0-6.0-1.0-37.0"}}, {"uniqueid": "w58574820:a88261060", "current_trial": 53, "dateTime": 1693836022611, "trialdata": {"revealed_states": [], "clicked_states": ["9", "5", "16", "27"], "num_clicks_accrued": [0, 0, 0, 0, 0, 0, 0, 0, 0, 0, 0, 0, 0], "stateRewards": ["", -1, 2, -6, 6, -82, -19, -39, -16, -83, 11, -33, -2, -2, 4, -6, -82, -1, -19, -6, -10, -67, -41, -2, 1, -7, 16, -23, -78, -52, 14, 31, -71, 74], "withholdReward": false, "trial_id": "mdp_trial_39", "block": "test", "trialIndex": 42, "score": -23.6, "costs": -8.6, "simulationMode": [null, null, null, null, null], "rewards": [-2, 1, -7, 16, -23], "path": ["0", "0", "23", "24", "25", "26", "27"], "rt": [14803, 312, 10, 5, 52], "actions": ["left", "left", "left", "up", "up"], "actionTimes": [16615, 17438, 17971, 18488, 19056], "queries": {"click": {"state": {"target": ["9", "5", "16", "27"], "time": [3287, 6570, 9769, 12940]}, "edge": {"target": [], "time": []}}, "mouseover": {"state": {"target": ["9", "5", "5", "16", "7", "2", "10", "27", "27"], "time": [2989, 3812, 4278, 7259, 10046, 10078, 10099, 10195, 10684]}, "edge": {"target": [], "time": []}}, "mouseout": {"state": {"target": ["0", "9", "5", "5", "16", "7", "2", "10", "27", "27", "27"], "time": [2530, 3778, 3835, 6911, 9996, 10061, 10096, 10112, 10287, 13029, 13489]}, "edge": {"target": [], "time": []}}}, "displayed_time": "19.57", "trialTime": 22919, "trial_type": "mouselab-mdp", "trial_index": 53, "time_elapsed": 1300473, "internal_node_id": "0.0-6.0-1.0-38.0"}}, {"uniqueid": "w58574820:a88261060", "current_trial": 54, "dateTime": 1693836042575, "trialdata": {"revealed_states": [], "clicked_states": [], "num_clicks_accrued": [0, 0, 0, 0, 0, 0, 0, 0, 0, 0, 0, 0, 0], "stateRewards": ["", -2, -1, -4, -15, -14, -67, 32, -3, -59, 63, 31, 2, -1, -7, -15, 71, -66, -27, -3, -54, -39, 72, 2, 1, 1, -13, 77, -40, 35, -9, 35, 75, 57], "withholdReward": false, "trial_id": "mdp_trial_40", "block": "test", "trialIndex": 43, "score": -69, "costs": 0, "simulationMode": [null, null, null, null, null], "rewards": [-2, -1, -4, -3, -59], "path": ["0", "0", "1", "2", "3", "8", "9"], "rt": [9025, 99, 694, 439, 25], "actions": ["up", "up", "up", "left", "up"], "actionTimes": [13089, 13700, 14917, 15857, 16390], "queries": {"click": {"state": {"target": [], "time": []}, "edge": {"target": [], "time": []}}, "mouseover": {"state": {"target": ["1", "3", "11", "9", "9", "5", "5", "4", "7", "12"], "time": [5098, 5333, 7570, 8203, 8634, 9338, 10388, 10550, 10634, 10784]}, "edge": {"target": [], "time": []}}, "mouseout": {"state": {"target": ["28", "0", "1", "3", "11", "9", "9", "5", "5", "4", "7", "12", "0"], "time": [1947, 3680, 5134, 5698, 7613, 8383, 9185, 9616, 10501, 10602, 10675, 10990, 13177]}, "edge": {"target": [], "time": []}}}, "displayed_time": "18.07", "trialTime": 19566, "trial_type": "mouselab-mdp", "trial_index": 54, "time_elapsed": 1320436, "internal_node_id": "0.0-6.0-1.0-39.0"}}, {"uniqueid": "w58574820:a88261060", "current_trial": 55, "dateTime": 1693836092411, "trialdata": {"rt": 49411, "response": {"Q0": "$-2 to $2", "Q1": "$-4 to $4", "Q2": "$-88 to $88", "Q3": "The cost for clicking on nodes varied between nodes.", "Q4": "Slightly motivated"}, "question_order": [0, 1, 2, 3, 4], "trial_id": "final_quiz_control", "trial_type": "survey-multi-choice", "trial_index": 55, "time_elapsed": 1370272, "internal_node_id": "0.0-6.0-2.0"}}, {"uniqueid": "w58574820:a88261060", "current_trial": 56, "dateTime": 1693836207746, "trialdata": {"rt": 114836, "response": {"Q0": "I would click on the final result and see what was the end result", "Q1": "I ended up selecting only two and if i selected them all i would go for the one with the most points", "Q2": "It was very easy from my observation."}, "trial_id": "self_report_control", "trial_type": "survey-text", "trial_index": 56, "time_elapsed": 1485609, "internal_node_id": "0.0-6.0-3.0"}}, {"uniqueid": "w58574820:a88261060", "current_trial": 57, "dateTime": 1693836290887, "trialdata": {"rt": 83140, "response": {"Q0": "Strongly agree", "Q1": "Neither disagree nor agree", "Q2": "Neither disagree nor agree", "Q3": "Strongly agree", "Q4": "Agree", "Q5": "Strongly agree", "Q6": "Disagree"}, "question_order": [0, 1, 2, 3, 4, 5, 6], "trial_id": "self_report_2", "trial_type": "survey-multi-choice", "trial_index": 57, "time_elapsed": 1568750, "internal_node_id": "0.0-6.0-4.0"}}, {"uniqueid": "w58574820:a88261060", "current_trial": 58, "dateTime": 1693836318070, "trialdata": {"rt": 27152, "response": {"gender": "male", "age": "27", "colorblind": "0", "effort": "0"}, "trial_type": "survey-html-form", "trial_index": 58, "time_elapsed": 1595933, "internal_node_id": "0.0-6.0-5.0"}}, {"uniqueid": "w58574820:a88261060", "current_trial": 59, "dateTime": 1693836375601, "trialdata": {"rt": 57514, "response": {"Q0": "nope", "Q1": "no I didnt actually this was my first atempt", "Q2": ""}, "trial_type": "survey-text", "trial_index": 59, "time_elapsed": 1653464, "internal_node_id": "0.0-6.0-6.0"}}, {"uniqueid": "w58574820:a88261060", "current_trial": 60, "dateTime": 1693836417856, "trialdata": {"rt": 42252, "stimulus": "<h1>Completion Code Instructions (1/2)</h1>\n<br><br><br><br>\nYou have reached the end of the experiment! The completion code consists of two parts: (1) a code with 2 characters (2) a code with 6 characters. On this page, you will receive the second part of the code. The first part of the completion code will be on the next page.\n<br><br>\nThe second part of your completion code is: <b>EWEK22</b>\n<br><br>\nPlease note this down. Then, press 'Next' in order to find the first part of your completion code. Once the data has been saved, you will receive this code either in this window or in the original browser window where you started the experiment.\n <br><br>\n<h2 style='color: red;'>Note: this is <strong>NOT</strong> the full completion code. Copy this down and click 'Next' to get the full completion code on the next page.</h2>", "response": 0, "trial_type": "html-button-response", "trial_index": 60, "time_elapsed": 1695719, "internal_node_id": "0.0-6.0-7.0"}}, {"uniqueid": "w58574820:a88261060", "current_trial": 61, "dateTime": 1693836420709, "trialdata": {"success": true, "trial_type": "fullscreen", "trial_index": 61, "time_elapsed": 1698572, "internal_node_id": "0.0-7.0"}}], "questiondata": {"params": {"CODE": "C6DMOQA6", "MIN_TIME": 14, "inspectCost": 1, "startTime": "Mon Sep 04 2023 15:38:39 GMT+0200 (South Africa Standard Time)", "bonusRate": 0.002, "variance": "1_2_4_8_44", "branching": "31123"}, "final_score": 887.7}, "eventdata": [{"eventtype": "initialized", "value": null, "timestamp": 1693834718836, "interval": 0}, {"eventtype": "window_resize", "value": [1024, 646], "timestamp": 1693834718837, "interval": 1}, {"eventtype": "window_resize", "value": [1024, 646], "timestamp": 1693834719586, "interval": 749}, {"eventtype": "window_resize", "value": [1366, 768], "timestamp": 1693834727195, "interval": 7609}, {"eventtype": "focus", "value": "off", "timestamp": 1693835101854, "interval": 374659}, {"eventtype": "focus", "value": "on", "timestamp": 1693835101854, "interval": 0}, {"eventtype": "window_resize", "value": [1024, 646], "timestamp": 1693835102088, "interval": 234}, {"eventtype": "window_resize", "value": [1366, 768], "timestamp": 1693835103771, "interval": 1683}], "useragent": "Mozilla/5.0 (Windows NT 10.0; Win64; x64) AppleWebKit/537.36 (KHTML, like Gecko) Chrome/116.0.0.0 Safari/537.36", "mode": "live", "id": "w58574820:a88261060", "status": "user data saved", "Beginhit": "2023-09-04 13:38:33.606358", "Beginexp": "2023-09-04 13:38:47.25288", "Endhit": "2023-09-04 14:07:04.472503", "psiturkStatus": 3, "browser": "<redacted>", "platform": "windows", "language": "en-US"}