{"condition": 1, "counterbalance": 0, "assignmentId": "a12759928", "workerId": "w92189155", "hitId": "h27726238", "currenttrial": 56, "bonus": 0, "data": [{"uniqueid": "w92189155:a12759928", "current_trial": 0, "dateTime": 1693481391031, "trialdata": {"success": true, "trial_type": "fullscreen", "trial_index": 0, "time_elapsed": 4642, "internal_node_id": "0.0-0.0"}}, {"uniqueid": "w92189155:a12759928", "current_trial": 1, "dateTime": 1693481408052, "trialdata": {"view_history": [{"page_index": 0, "viewing_time": 17012}], "rt": 17013, "trial_id": "exp_instructions_misaligned", "trial_type": "instructions", "trial_index": 1, "time_elapsed": 21663, "internal_node_id": "0.0-1.0"}}, {"uniqueid": "w92189155:a12759928", "current_trial": 2, "dateTime": 1693481590947, "trialdata": {"view_history": [{"page_index": 0, "viewing_time": 64038}, {"page_index": 1, "viewing_time": 69768}, {"page_index": 2, "viewing_time": 17464}, {"page_index": 3, "viewing_time": 31624}], "rt": 182893, "trial_id": "mouselab_instructions_1_misaligned", "trial_type": "instructions", "trial_index": 2, "time_elapsed": 204558, "internal_node_id": "0.0-2.0-1.0"}}, {"uniqueid": "w92189155:a12759928", "current_trial": 3, "dateTime": 1693481634655, "trialdata": {"revealed_states": [], "clicked_states": ["15", "26", "30", "19", "2", "3", "1"], "num_clicks_accrued": [0, 0, 0, 0, 0, 0, 0, 0, 0, 0, 0, 0, 0], "stateRewards": ["", -10, 10, 10, -10, -10, -10, 10, -10, 10, -10, 10, 10, -10, -10, -10, 10, 10, -10, 10, -10, -10, 10, -10, -10, -10, 10, -10, -10, 10, 10, 10, 10, -10], "withholdReward": false, "trial_id": "practice_1", "block": "test", "trialIndex": 0, "score": -10, "costs": -3.5, "simulationMode": [null, null, null, null, null], "rewards": [-10, -10, -10, 10, 10], "path": ["0", "0", "23", "24", "25", "26", "29"], "rt": [27224, 498, 157, 2417, 462], "actions": ["left", "left", "left", "up", "left"], "actionTimes": [32564, 33567, 34264, 37199, 38166], "queries": {"click": {"state": {"target": ["15", "26", "30", "19", "2", "3", "1"], "time": [8001, 10390, 11941, 14149, 16349, 21628, 23548]}, "edge": {"target": [], "time": []}}, "mouseover": {"state": {"target": ["18", "15", "18", "1", "28", "26", "25", "30", "31", "0", "12", "19", "12", "0", "1", "2", "1", "0", "1", "3", "2", "1"], "time": [7206, 7282, 9355, 9556, 9675, 9806, 11192, 11342, 12389, 12543, 13311, 13624, 14726, 14791, 15305, 15465, 16829, 18530, 20406, 21109, 22164, 22294]}, "edge": {"target": [], "time": []}}, "mouseout": {"state": {"target": ["22", "22", "0", "18", "15", "18", "1", "28", "26", "25", "30", "31", "0", "12", "19", "12", "0", "1", "2", "1", "0", "1", "3", "2", "1"], "time": [605, 1808, 6867, 7255, 9289, 9438, 9584, 9757, 11130, 11281, 12356, 12421, 13242, 13373, 14568, 14759, 15258, 15335, 16796, 16890, 18833, 20455, 22102, 22198, 24906]}, "edge": {"target": [], "time": []}}}, "displayed_time": "38.67", "trialTime": 42989, "trial_type": "mouselab-mdp", "trial_index": 3, "time_elapsed": 248266, "internal_node_id": "0.0-2.0-2.0-0.0"}}, {"uniqueid": "w92189155:a12759928", "current_trial": 4, "dateTime": 1693481657594, "trialdata": {"revealed_states": [], "clicked_states": ["1", "26", "33", "31"], "num_clicks_accrued": [0, 0, 0, 0, 0, 0, 0, 0, 0, 0, 0, 0, 0], "stateRewards": ["", -10, 10, 10, -10, -10, 10, 10, 10, 10, -10, -10, 10, 10, -10, 10, -10, 10, 10, -10, -10, -10, 10, -10, -10, 10, -10, -10, 10, 10, 10, -10, 10, -10], "withholdReward": false, "trial_id": "practice_2", "block": "test", "trialIndex": 1, "score": -28.5, "costs": -2, "simulationMode": [null, null, null, null, null], "rewards": [-10, -10, 10, -10, -10], "path": ["0", "0", "23", "24", "25", "26", "27"], "rt": [10179, 359, 580, 510, 341], "actions": ["left", "left", "left", "up", "up"], "actionTimes": [14709, 15597, 16681, 17725, 18576], "queries": {"click": {"state": {"target": ["1", "26", "33", "31"], "time": [6252, 7731, 9755, 11572]}, "edge": {"target": [], "time": []}}, "mouseover": {"state": {"target": ["1", "2", "2", "1", "2", "10", "26", "29", "33", "30", "31", "0"], "time": [5153, 5233, 5720, 6019, 6439, 7130, 7472, 8129, 9236, 10307, 11237, 12290]}, "edge": {"target": [], "time": []}}, "mouseout": {"state": {"target": ["0", "12", "12", "0", "1", "2", "2", "1", "2", "10", "26", "29", "33", "30", "31", "0"], "time": [3069, 3272, 3605, 5087, 5203, 5287, 5852, 6405, 7035, 7253, 8067, 8816, 10244, 11152, 11959, 13149]}, "edge": {"target": [], "time": []}}}, "displayed_time": "19.09", "trialTime": 22358, "trial_type": "mouselab-mdp", "trial_index": 4, "time_elapsed": 271204, "internal_node_id": "0.0-2.0-2.0-1.0"}}, {"uniqueid": "w92189155:a12759928", "current_trial": 5, "dateTime": 1693481693850, "trialdata": {"view_history": [{"page_index": 0, "viewing_time": 21715}, {"page_index": 1, "viewing_time": 14536}], "rt": 36251, "trial_id": "mouselab_instructions_2_misaligned", "trial_type": "instructions", "trial_index": 5, "time_elapsed": 307461, "internal_node_id": "0.0-2.0-3.0"}}, {"uniqueid": "w92189155:a12759928", "current_trial": 6, "dateTime": 1693481729036, "trialdata": {"rt": 35181, "response": {"Q0": "The cost for clicking on nodes may vary between nodes.", "Q1": "The better I perform the higher my bonus will be.", "Q2": "No, the amount of cash at each node of the web may be different each time.", "Q3": "To get the highest total score.", "Q4": "Only before moving the spider.", "Q5": "3 seconds"}, "question_order": [0, 1, 2, 3, 4, 5], "correct": {"Q0": "The cost for clicking on nodes may vary between nodes.", "Q1": "The better I perform the higher my bonus will be.", "Q2": "No, the amount of cash at each node of the web may be different each time.", "Q3": "To get the highest total score.", "Q4": "Only before moving the spider.", "Q5": "3 seconds"}, "trial_id": "mouselab_quiz_misaligned", "trial_type": "survey-multi-choice", "trial_index": 6, "time_elapsed": 342647, "internal_node_id": "0.0-2.0-4.0"}}, {"uniqueid": "w92189155:a12759928", "current_trial": 7, "dateTime": 1693481737843, "trialdata": {"rt": 8801, "response": {"Q0": "No"}, "question_order": [0], "trial_id": "repeat_check", "trial_type": "survey-multi-choice", "trial_index": 7, "time_elapsed": 351454, "internal_node_id": "0.0-4.0-0.0"}}, {"uniqueid": "w92189155:a12759928", "current_trial": 8, "dateTime": 1693481753349, "trialdata": {"rt": 15501, "stimulus": "\n<h1> Get ready to start the game! </h1>\n\nThank you for reading the instructions. Get ready start with the 40 rounds of this game.\n<br><br>\nIf you need to take a break, feel free to take one after the end of a round, before continuing to the next one.\n<br><br>\nRemember, the more money the spider gets, the bigger your bonus will be!\n<br><br>\n<div style='text-align: center;'>Press <code>space</code> to begin.</div>\n\n<br><br>\n(If, at any point, the <code>space</code> key does not take you to the next page, click once on the text and try again.)", "response": " ", "trial_id": "mdp_ready", "trial_type": "html-keyboard-response", "trial_index": 8, "time_elapsed": 366960, "internal_node_id": "0.0-6.0-0.0"}}, {"uniqueid": "w92189155:a12759928", "current_trial": 9, "dateTime": 1693481781094, "trialdata": {"revealed_states": [], "clicked_states": ["3", "6"], "num_clicks_accrued": [0, 0, 0, 0, 0, 0, 0, 0, 0, 0, 0, 0, 0], "stateRewards": ["", -1, -1, 4, -16, -75, 81, -51, -7, -84, 73, -30, -2, 1, -3, -16, -77, 33, 14, 1, 45, 87, -66, 2, 2, -5, -7, -19, -17, 79, -3, 8, 49, 47], "withholdReward": false, "trial_id": "mdp_trial_1", "block": "test", "trialIndex": 2, "score": 9.899999999999999, "costs": -3.0999999999999996, "simulationMode": [null, null, null, null, null], "rewards": [-2, 1, -3, -16, 33], "path": ["0", "0", "12", "13", "14", "15", "17"], "rt": [9827, 484, 621, 2788, 2015], "actions": ["right", "right", "right", "up", "right"], "actionTimes": [14951, 15955, 17115, 20419, 22969], "queries": {"click": {"state": {"target": ["3", "6"], "time": [6659, 7969]}, "edge": {"target": [], "time": []}}, "mouseover": {"state": {"target": ["7", "4", "3", "4", "6", "18", "0"], "time": [5806, 5920, 6108, 7361, 7502, 9086, 11339]}, "edge": {"target": [], "time": []}}, "mouseout": {"state": {"target": ["20", "19", "22", "0", "7", "4", "3", "4", "6", "18", "0"], "time": [3304, 3372, 3554, 5623, 5857, 6073, 7357, 7418, 8424, 10351, 11773]}, "edge": {"target": [], "time": []}}}, "displayed_time": "23.50", "trialTime": 27175, "trial_type": "mouselab-mdp", "trial_index": 9, "time_elapsed": 394704, "internal_node_id": "0.0-6.0-1.0-0.0"}}, {"uniqueid": "w92189155:a12759928", "current_trial": 10, "dateTime": 1693481802223, "trialdata": {"revealed_states": [], "clicked_states": [], "num_clicks_accrued": [0, 0, 0, 0, 0, 0, 0, 0, 0, 0, 0, 0, 0], "stateRewards": ["", 2, 4, 7, -6, -76, -81, 2, 5, -66, -3, 36, -2, -4, 6, -2, -69, 4, -49, -6, 67, 38, -67, 2, 1, 1, 6, -68, -21, 52, -16, -16, 6, -70], "withholdReward": false, "trial_id": "mdp_trial_2", "block": "test", "trialIndex": 3, "score": 32, "costs": 0, "simulationMode": [null, null, null, null, null], "rewards": [-2, -4, 6, -6, 38], "path": ["0", "0", "12", "13", "14", "19", "21"], "rt": [8226, 369, 361, 725, 785], "actions": ["right", "right", "right", "down", "down"], "actionTimes": [11342, 12230, 13103, 14339, 15654], "queries": {"click": {"state": {"target": [], "time": []}, "edge": {"target": [], "time": []}}, "mouseover": {"state": {"target": ["9", "27", "24", "10", "2", "1", "0"], "time": [5908, 5964, 6056, 6341, 6557, 9309, 9539]}, "edge": {"target": [], "time": []}}, "mouseout": {"state": {"target": ["13", "18", "0", "9", "27", "24", "10", "2", "1", "0"], "time": [2074, 2274, 5610, 5958, 6007, 6159, 6440, 9092, 9389, 9573]}, "edge": {"target": [], "time": []}}}, "displayed_time": "17.12", "trialTime": 20540, "trial_type": "mouselab-mdp", "trial_index": 10, "time_elapsed": 415833, "internal_node_id": "0.0-6.0-1.0-1.0"}}, {"uniqueid": "w92189155:a12759928", "current_trial": 11, "dateTime": 1693481828199, "trialdata": {"revealed_states": [], "clicked_states": ["19", "25", "30", "11", "1"], "num_clicks_accrued": [0, 0, 0, 0, 0, 0, 0, 0, 0, 0, 0, 0, 0], "stateRewards": ["", 2, 3, 6, -5, -74, -53, 17, -12, 46, 44, 18, -2, 4, 1, -8, 22, -23, -49, 9, -45, 55, 81, 1, -1, -7, -16, -83, -71, -45, 2, 51, 82, 61], "withholdReward": false, "trial_id": "mdp_trial_3", "block": "test", "trialIndex": 4, "score": -73.95, "costs": -5.949999999999999, "simulationMode": [null, null, null, null, null], "rewards": [2, 3, 6, -5, -74], "path": ["0", "0", "1", "2", "3", "4", "5"], "rt": [11313, 449, 491, 1826, 1780], "actions": ["up", "up", "up", "right", "up"], "actionTimes": [14562, 15566, 16572, 18917, 21235], "queries": {"click": {"state": {"target": ["19", "25", "30", "11", "1"], "time": [4357, 5756, 6550, 7788, 12004]}, "edge": {"target": [], "time": []}}, "mouseover": {"state": {"target": ["0", "22", "19", "22", "0", "23", "24", "25", "30", "11", "8", "3", "2", "1", "0", "31", "1"], "time": [3584, 3846, 4062, 4959, 5023, 5058, 5152, 5410, 6248, 7362, 8338, 9003, 9922, 9995, 10211, 10606, 11513]}, "edge": {"target": [], "time": []}}, "mouseout": {"state": {"target": ["0", "0", "22", "19", "22", "0", "23", "24", "25", "30", "25", "11", "8", "3", "2", "1", "0", "31", "1"], "time": [2096, 3621, 3896, 4927, 4991, 5055, 5119, 5214, 6127, 6783, 6940, 8154, 8904, 9918, 9959, 10058, 10245, 10996, 12290]}, "edge": {"target": [], "time": []}}}, "displayed_time": "21.75", "trialTime": 25403, "trial_type": "mouselab-mdp", "trial_index": 11, "time_elapsed": 441809, "internal_node_id": "0.0-6.0-1.0-2.0"}}, {"uniqueid": "w92189155:a12759928", "current_trial": 12, "dateTime": 1693481855766, "trialdata": {"revealed_states": [], "clicked_states": ["24", "26", "27", "1"], "num_clicks_accrued": [0, 0, 0, 0, 0, 0, 0, 0, 0, 0, 0, 0, 0], "stateRewards": ["", 1, 1, 5, 6, -29, -7, 3, -16, 9, -46, 65, -1, 4, -1, -16, -63, -77, -87, 8, 80, -50, 43, -1, -1, -5, 5, -38, -71, -62, 9, 81, -50, -52], "withholdReward": false, "trial_id": "mdp_trial_4", "block": "test", "trialIndex": 5, "score": 2.1999999999999993, "costs": -3.8, "simulationMode": [null, null, null, null, null], "rewards": [1, 1, 5, 6, -7], "path": ["0", "0", "1", "2", "3", "4", "6"], "rt": [13489, 493, 425, 1257, 883], "actions": ["up", "up", "up", "right", "right"], "actionTimes": [18737, 19780, 20709, 22486, 23917], "queries": {"click": {"state": {"target": ["24", "26", "27", "1"], "time": [7334, 8798, 10221, 15453]}, "edge": {"target": [], "time": []}}, "mouseover": {"state": {"target": ["23", "24", "26", "29", "27", "8", "10", "1", "1"], "time": [6374, 6521, 7949, 9106, 9855, 11788, 13187, 14374, 14956]}, "edge": {"target": [], "time": []}}, "mouseout": {"state": {"target": ["3", "1", "10", "1", "0", "23", "24", "26", "29", "27", "8", "10", "1", "1"], "time": [2972, 3021, 3872, 4005, 5574, 6410, 7744, 9071, 9142, 10414, 12688, 13351, 14413, 16504]}, "edge": {"target": [], "time": []}}}, "displayed_time": "24.43", "trialTime": 26965, "trial_type": "mouselab-mdp", "trial_index": 12, "time_elapsed": 469376, "internal_node_id": "0.0-6.0-1.0-3.0"}}, {"uniqueid": "w92189155:a12759928", "current_trial": 13, "dateTime": 1693481884341, "trialdata": {"revealed_states": [], "clicked_states": ["1", "2", "10", "12"], "num_clicks_accrued": [0, 0, 0, 0, 0, 0, 0, 0, 0, 0, 0, 0, 0], "stateRewards": ["", 2, 4, -3, 16, -58, 30, -35, 11, -60, 47, 27, -2, -1, -7, -16, 23, -70, 68, -10, -65, -43, -34, -2, 1, 7, 9, -63, 34, -31, -8, -12, -86, 59], "withholdReward": false, "trial_id": "mdp_trial_5", "block": "test", "trialIndex": 6, "score": -87, "costs": -2, "simulationMode": [null, null, null, null, null], "rewards": [-2, -1, -7, -10, -65], "path": ["0", "0", "12", "13", "14", "19", "20"], "rt": [14214, 827, 489, 2449, 757], "actions": ["right", "right", "right", "down", "right"], "actionTimes": [17531, 18883, 19888, 22865, 24141], "queries": {"click": {"state": {"target": ["1", "2", "10", "12"], "time": [5500, 7731, 9027, 13260]}, "edge": {"target": [], "time": []}}, "mouseover": {"state": {"target": ["1", "2", "10", "23", "24", "28", "1", "15", "18", "1", "12"], "time": [5196, 7363, 8651, 9625, 9780, 9998, 11300, 11892, 11953, 12110, 12362]}, "edge": {"target": [], "time": []}}, "mouseout": {"state": {"target": ["1", "2", "2", "10", "23", "24", "28", "1", "15", "18", "1", "12"], "time": [5642, 7907, 8267, 9495, 9717, 9934, 11083, 11335, 11923, 11984, 12147, 13422]}, "edge": {"target": [], "time": []}}}, "displayed_time": "24.69", "trialTime": 27962, "trial_type": "mouselab-mdp", "trial_index": 13, "time_elapsed": 497951, "internal_node_id": "0.0-6.0-1.0-4.0"}}, {"uniqueid": "w92189155:a12759928", "current_trial": 14, "dateTime": 1693481911135, "trialdata": {"revealed_states": [], "clicked_states": ["1", "2", "7", "19", "22"], "num_clicks_accrued": [0, 0, 0, 0, 0, 0, 0, 0, 0, 0, 0, 0, 0], "stateRewards": ["", 2, 3, 6, -12, -29, 12, 87, 4, 35, -30, 67, 2, 3, -5, -9, 44, 69, -8, 1, 45, -8, 28, -2, -1, -8, 11, -12, -5, 81, 9, 87, 82, 88], "withholdReward": false, "trial_id": "mdp_trial_6", "block": "test", "trialIndex": 7, "score": 44.05, "costs": -5.949999999999999, "simulationMode": [null, null, null, null, null], "rewards": [2, 3, 6, 4, 35], "path": ["0", "0", "1", "2", "3", "8", "9"], "rt": [12403, 369, 325, 1918, 1021], "actions": ["up", "up", "up", "left", "up"], "actionTimes": [16641, 17568, 18419, 20853, 22399], "queries": {"click": {"state": {"target": ["1", "2", "7", "19", "22"], "time": [5563, 6460, 7172, 10034, 11268]}, "edge": {"target": [], "time": []}}, "mouseover": {"state": {"target": ["1", "2", "7", "14", "14", "19", "19", "22", "21", "21"], "time": [4669, 6071, 6823, 7764, 8365, 9069, 9568, 10378, 11617, 12072]}, "edge": {"target": [], "time": []}}, "mouseout": {"state": {"target": ["2", "12", "0", "1", "2", "7", "14", "14", "19", "19", "22", "21", "21", "12", "15"], "time": [1167, 1567, 3434, 5762, 6757, 7554, 8064, 9034, 9164, 10307, 11583, 11680, 14043, 25385, 25421]}, "edge": {"target": [], "time": []}}}, "displayed_time": "22.91", "trialTime": 26180, "trial_type": "mouselab-mdp", "trial_index": 14, "time_elapsed": 524745, "internal_node_id": "0.0-6.0-1.0-5.0"}}, {"uniqueid": "w92189155:a12759928", "current_trial": 15, "dateTime": 1693481931293, "trialdata": {"revealed_states": [], "clicked_states": ["12", "13", "14", "15", "16"], "num_clicks_accrued": [0, 0, 0, 0, 0, 0, 0, 0, 0, 0, 0, 0, 0], "stateRewards": ["", 2, -3, -2, 14, -4, 85, 46, 15, -28, 41, 31, -1, -1, -1, 5, 62, 79, 57, 12, -73, -64, 86, -1, 1, -3, -5, 68, 11, -32, 8, -80, -21, -56], "withholdReward": false, "trial_id": "mdp_trial_7", "block": "test", "trialIndex": 8, "score": 91.25, "costs": -4.75, "simulationMode": [null, null, null, null, null], "rewards": [2, -3, -2, 14, 85], "path": ["0", "0", "1", "2", "3", "4", "6"], "rt": [7350, 592, 406, 1700, 492], "actions": ["up", "up", "up", "right", "right"], "actionTimes": [11507, 12627, 13555, 15757, 16763], "queries": {"click": {"state": {"target": ["12", "13", "14", "15", "16"], "time": [4999, 5689, 6227, 6747, 7430]}, "edge": {"target": [], "time": []}}, "mouseover": {"state": {"target": ["12", "13", "14", "15", "16", "16", "6", "4", "4", "7"], "time": [4742, 5439, 5970, 6434, 6951, 7206, 7959, 8411, 8780, 9238]}, "edge": {"target": [], "time": []}}, "mouseout": {"state": {"target": ["19", "2", "10", "28", "24", "0", "12", "13", "14", "15", "16", "16", "6", "4", "4", "7"], "time": [2687, 2803, 2833, 2886, 2934, 4705, 5373, 5864, 6359, 6881, 6989, 7562, 8377, 8445, 9204, 9657]}, "edge": {"target": [], "time": []}}}, "displayed_time": "18.16", "trialTime": 19541, "trial_type": "mouselab-mdp", "trial_index": 15, "time_elapsed": 544903, "internal_node_id": "0.0-6.0-1.0-6.0"}}, {"uniqueid": "w92189155:a12759928", "current_trial": 16, "dateTime": 1693481950619, "trialdata": {"revealed_states": [], "clicked_states": [], "num_clicks_accrued": [0, 0, 0, 0, 0, 0, 0, 0, 0, 0, 0, 0, 0], "stateRewards": ["", -1, -3, -6, 14, 41, 18, 63, -14, 80, 21, 17, -2, -4, -2, -5, 13, 70, 8, -4, -64, -10, -20, 2, -1, 4, -1, -17, -55, 42, -7, 47, 54, 15], "withholdReward": false, "trial_id": "mdp_trial_8", "block": "test", "trialIndex": 9, "score": -7, "costs": 0, "simulationMode": [null, null, null, null, null], "rewards": [-1, -3, -6, -14, 17], "path": ["0", "0", "1", "2", "3", "8", "11"], "rt": [2780, 235, 144, 1177, 97], "actions": ["up", "up", "up", "left", "left"], "actionTimes": [4637, 5371, 6029, 7707, 8327], "queries": {"click": {"state": {"target": [], "time": []}, "edge": {"target": [], "time": []}}, "mouseover": {"state": {"target": [], "time": []}, "edge": {"target": [], "time": []}}, "mouseout": {"state": {"target": ["0"], "time": [2546]}, "edge": {"target": [], "time": []}}}, "displayed_time": "15.86", "trialTime": 18709, "trial_type": "mouselab-mdp", "trial_index": 16, "time_elapsed": 564229, "internal_node_id": "0.0-6.0-1.0-7.0"}}, {"uniqueid": "w92189155:a12759928", "current_trial": 17, "dateTime": 1693481975524, "trialdata": {"revealed_states": [], "clicked_states": ["32", "27", "29"], "num_clicks_accrued": [0, 0, 0, 0, 0, 0, 0, 0, 0, 0, 0, 0, 0], "stateRewards": ["", 1, 3, -2, 15, 51, 15, -19, 11, 67, -45, -73, 2, 4, -2, -13, 36, 9, -28, 10, -30, 31, 16, 1, 2, -1, -16, 14, -22, 36, -1, 88, -5, 45], "withholdReward": false, "trial_id": "mdp_trial_9", "block": "test", "trialIndex": 10, "score": 39.55, "costs": -6.449999999999999, "simulationMode": [null, null, null, null, null], "rewards": [1, 2, -1, -1, 45], "path": ["0", "0", "23", "24", "25", "30", "33"], "rt": [15238, 276, 542, 787, 430], "actions": ["left", "left", "left", "down", "left"], "actionTimes": [16914, 17725, 18808, 20123, 21090], "queries": {"click": {"state": {"target": ["32", "27", "29"], "time": [2856, 7641, 10845]}, "edge": {"target": [], "time": []}}, "mouseover": {"state": {"target": ["0", "31", "32", "30", "25", "26", "27", "29", "25"], "time": [2137, 2284, 2418, 3393, 3958, 4091, 4448, 8735, 12590]}, "edge": {"target": [], "time": []}}, "mouseout": {"state": {"target": ["0", "0", "0", "31", "32", "30", "25", "26", "27", "29", "25"], "time": [323, 1001, 2183, 2312, 3272, 3894, 4055, 4289, 8545, 12461, 12693]}, "edge": {"target": [], "time": []}}}, "displayed_time": "21.62", "trialTime": 24254, "trial_type": "mouselab-mdp", "trial_index": 17, "time_elapsed": 589134, "internal_node_id": "0.0-6.0-1.0-8.0"}}, {"uniqueid": "w92189155:a12759928", "current_trial": 18, "dateTime": 1693481999475, "trialdata": {"revealed_states": [], "clicked_states": [], "num_clicks_accrued": [0, 0, 0, 0, 0, 0, 0, 0, 0, 0, 0, 0, 0], "stateRewards": ["", 1, 2, -5, 14, 54, -14, -25, 16, -5, -87, 78, -1, 1, 3, -3, 52, 53, 53, -10, 73, -69, -48, 2, 3, 1, 8, -62, -7, 85, 7, 82, 52, -28], "withholdReward": false, "trial_id": "mdp_trial_10", "block": "test", "trialIndex": 11, "score": -2, "costs": 0, "simulationMode": [null, null, null, null, null], "rewards": [1, 2, -5, 14, -14], "path": ["0", "0", "1", "2", "3", "4", "6"], "rt": [616, 398, 427, 2189, 1505], "actions": ["up", "up", "up", "right", "right"], "actionTimes": [7311, 8241, 9173, 11876, 13886], "queries": {"click": {"state": {"target": [], "time": []}, "edge": {"target": [], "time": []}}, "mouseover": {"state": {"target": [], "time": []}, "edge": {"target": [], "time": []}}, "mouseout": {"state": {"target": ["23", "26", "29", "30", "23"], "time": [2586, 2616, 4471, 4603, 5487]}, "edge": {"target": [], "time": []}}}, "displayed_time": "20.70", "trialTime": 23305, "trial_type": "mouselab-mdp", "trial_index": 18, "time_elapsed": 613085, "internal_node_id": "0.0-6.0-1.0-9.0"}}, {"uniqueid": "w92189155:a12759928", "current_trial": 19, "dateTime": 1693482018863, "trialdata": {"revealed_states": [], "clicked_states": [], "num_clicks_accrued": [0, 0, 0, 0, 0, 0, 0, 0, 0, 0, 0, 0, 0], "stateRewards": ["", -2, 2, -5, -6, 10, -66, -58, -10, -11, -63, -70, -1, -4, -5, 7, 66, -64, -43, -3, 45, -37, 4, -2, -2, -6, -4, -30, 33, 43, 15, -32, -65, -59], "withholdReward": false, "trial_id": "mdp_trial_11", "block": "test", "trialIndex": 12, "score": -67, "costs": 0, "simulationMode": [null, null, null, null, null], "rewards": [-1, -4, -5, 7, -64], "path": ["0", "0", "12", "13", "14", "15", "17"], "rt": [2626, 57, 260, 773, 290], "actions": ["right", "right", "right", "up", "right"], "actionTimes": [4273, 4852, 5666, 6941, 7754], "queries": {"click": {"state": {"target": [], "time": []}, "edge": {"target": [], "time": []}}, "mouseover": {"state": {"target": [], "time": []}, "edge": {"target": [], "time": []}}, "mouseout": {"state": {"target": ["0", "0"], "time": [1215, 12427]}, "edge": {"target": [], "time": []}}}, "displayed_time": "15.65", "trialTime": 18716, "trial_type": "mouselab-mdp", "trial_index": 19, "time_elapsed": 632473, "internal_node_id": "0.0-6.0-1.0-10.0"}}, {"uniqueid": "w92189155:a12759928", "current_trial": 20, "dateTime": 1693482038697, "trialdata": {"revealed_states": [], "clicked_states": [], "num_clicks_accrued": [0, 0, 0, 0, 0, 0, 0, 0, 0, 0, 0, 0, 0], "stateRewards": ["", -1, 3, -7, 16, -32, -74, -48, 2, 10, 15, -30, 1, 1, -2, 10, 12, -83, 67, 13, -66, 47, 65, -2, 4, 2, -14, -8, -57, 24, 9, 65, 12, 46], "withholdReward": false, "trial_id": "mdp_trial_12", "block": "test", "trialIndex": 13, "score": 25, "costs": 0, "simulationMode": [null, null, null, null, null], "rewards": [-2, 4, 2, 9, 12], "path": ["0", "0", "23", "24", "25", "30", "32"], "rt": [3041, 859, 552, 1222, 384], "actions": ["left", "left", "left", "down", "down"], "actionTimes": [4799, 6189, 7271, 9011, 9924], "queries": {"click": {"state": {"target": [], "time": []}, "edge": {"target": [], "time": []}}, "mouseover": {"state": {"target": [], "time": []}, "edge": {"target": [], "time": []}}, "mouseout": {"state": {"target": ["0", "0"], "time": [2821, 13475]}, "edge": {"target": [], "time": []}}}, "displayed_time": "15.76", "trialTime": 19148, "trial_type": "mouselab-mdp", "trial_index": 20, "time_elapsed": 652307, "internal_node_id": "0.0-6.0-1.0-11.0"}}, {"uniqueid": "w92189155:a12759928", "current_trial": 21, "dateTime": 1693482062405, "trialdata": {"revealed_states": [], "clicked_states": [], "num_clicks_accrued": [0, 0, 0, 0, 0, 0, 0, 0, 0, 0, 0, 0, 0], "stateRewards": ["", 2, 3, 3, 10, 19, -21, 6, 9, 54, 68, 16, 2, 2, -6, -8, 40, -2, -75, -2, -42, 55, 59, -1, 2, 4, -14, 11, -34, -30, -6, 61, -53, 13], "withholdReward": false, "trial_id": "mdp_trial_13", "block": "test", "trialIndex": 14, "score": -54, "costs": 0, "simulationMode": [null, null, null, null, null], "rewards": [-1, 2, 4, -6, -53], "path": ["0", "0", "23", "24", "25", "30", "32"], "rt": [3789, 342, 393, 432, 389], "actions": ["left", "left", "left", "down", "down"], "actionTimes": [5099, 5987, 6915, 7882, 8811], "queries": {"click": {"state": {"target": [], "time": []}, "edge": {"target": [], "time": []}}, "mouseover": {"state": {"target": [], "time": []}, "edge": {"target": [], "time": []}}, "mouseout": {"state": {"target": ["0", "1", "0", "0"], "time": [20005, 20372, 20870, 21320]}, "edge": {"target": [], "time": []}}}, "displayed_time": "15.31", "trialTime": 23052, "trial_type": "mouselab-mdp", "trial_index": 21, "time_elapsed": 676015, "internal_node_id": "0.0-6.0-1.0-12.0"}}, {"uniqueid": "w92189155:a12759928", "current_trial": 22, "dateTime": 1693482081906, "trialdata": {"revealed_states": [], "clicked_states": [], "num_clicks_accrued": [0, 0, 0, 0, 0, 0, 0, 0, 0, 0, 0, 0, 0], "stateRewards": ["", -1, -1, 7, -15, -43, -21, -84, -9, -45, -66, 2, 1, -2, 2, 8, -27, 44, -52, -5, -84, 11, 53, 1, 4, -4, 16, 83, -82, -15, -16, 68, -43, 81], "withholdReward": false, "trial_id": "mdp_trial_14", "block": "test", "trialIndex": 15, "score": 2, "costs": 0, "simulationMode": [null, null, null, null, null], "rewards": [1, 4, -4, 16, -15], "path": ["0", "0", "23", "24", "25", "26", "29"], "rt": [4514, 2972, 766, 721, 626], "actions": ["left", "left", "left", "up", "left"], "actionTimes": [7105, 10617, 11893, 13130, 14291], "queries": {"click": {"state": {"target": [], "time": []}, "edge": {"target": [], "time": []}}, "mouseover": {"state": {"target": ["1", "1"], "time": [5555, 6255]}, "edge": {"target": [], "time": []}}, "mouseout": {"state": {"target": ["23", "0", "0", "1", "1", "12"], "time": [1253, 1487, 4907, 5956, 17439, 17723]}, "edge": {"target": [], "time": []}}}, "displayed_time": "16.59", "trialTime": 18806, "trial_type": "mouselab-mdp", "trial_index": 22, "time_elapsed": 695517, "internal_node_id": "0.0-6.0-1.0-13.0"}}, {"uniqueid": "w92189155:a12759928", "current_trial": 23, "dateTime": 1693482099095, "trialdata": {"revealed_states": [], "clicked_states": [], "num_clicks_accrued": [0, 0, 0, 0, 0, 0, 0, 0, 0, 0, 0, 0, 0], "stateRewards": ["", -1, 3, 1, -11, -22, -36, 19, -5, -70, -52, 50, -2, -4, 4, -2, -41, -83, 29, -2, 22, 10, -6, -2, 3, -2, 14, 54, 44, 77, -9, -65, -37, -40], "withholdReward": false, "trial_id": "mdp_trial_15", "block": "test", "trialIndex": 16, "score": -30, "costs": 0, "simulationMode": [null, null, null, null, null], "rewards": [-1, 3, 1, -11, -22], "path": ["0", "0", "1", "2", "3", "4", "5"], "rt": [2735, 41, 447, 1264, 2062], "actions": ["up", "up", "up", "right", "up"], "actionTimes": [3923, 4503, 5473, 7251, 9839], "queries": {"click": {"state": {"target": [], "time": []}, "edge": {"target": [], "time": []}}, "mouseover": {"state": {"target": [], "time": []}, "edge": {"target": [], "time": []}}, "mouseout": {"state": {"target": ["0"], "time": [12039]}, "edge": {"target": [], "time": []}}}, "displayed_time": "15.19", "trialTime": 16477, "trial_type": "mouselab-mdp", "trial_index": 23, "time_elapsed": 712705, "internal_node_id": "0.0-6.0-1.0-14.0"}}, {"uniqueid": "w92189155:a12759928", "current_trial": 24, "dateTime": 1693482120874, "trialdata": {"revealed_states": [], "clicked_states": [], "num_clicks_accrued": [0, 0, 0, 0, 0, 0, 0, 0, 0, 0, 0, 0, 0], "stateRewards": ["", 2, -4, 1, -12, -59, -53, -74, 16, -88, -66, 66, 1, -2, 8, -9, -14, 22, 25, -1, -39, 47, -14, -1, -1, -2, 1, -4, 52, -26, 15, -7, 46, 43], "withholdReward": false, "trial_id": "mdp_trial_16", "block": "test", "trialIndex": 17, "score": 20, "costs": 0, "simulationMode": [null, null, null, null, null], "rewards": [1, -2, 8, -9, 22], "path": ["0", "0", "12", "13", "14", "15", "17"], "rt": [1995, 63, 190, 1396, 164], "actions": ["right", "right", "right", "up", "right"], "actionTimes": [6160, 6740, 7476, 9408, 10105], "queries": {"click": {"state": {"target": [], "time": []}, "edge": {"target": [], "time": []}}, "mouseover": {"state": {"target": [], "time": []}, "edge": {"target": [], "time": []}}, "mouseout": {"state": {"target": ["0", "23", "24"], "time": [19121, 19220, 19421]}, "edge": {"target": [], "time": []}}}, "displayed_time": "18.17", "trialTime": 21104, "trial_type": "mouselab-mdp", "trial_index": 24, "time_elapsed": 734484, "internal_node_id": "0.0-6.0-1.0-15.0"}}, {"uniqueid": "w92189155:a12759928", "current_trial": 25, "dateTime": 1693482144583, "trialdata": {"revealed_states": [], "clicked_states": [], "num_clicks_accrued": [0, 0, 0, 0, 0, 0, 0, 0, 0, 0, 0, 0, 0], "stateRewards": ["", 2, 3, -6, -5, -3, 55, 40, 11, 61, 11, 51, 2, -4, -6, 9, -25, 29, -15, -6, 7, -77, -2, -2, -4, 1, 14, -43, -1, 56, -12, -54, 41, -74], "withholdReward": false, "trial_id": "mdp_trial_17", "block": "test", "trialIndex": 18, "score": -24, "costs": 0, "simulationMode": [null, null, null, null, null], "rewards": [2, -4, -6, 9, -25], "path": ["0", "0", "12", "13", "14", "15", "16"], "rt": [2567, 222, 391, 625, 3076], "actions": ["right", "right", "right", "up", "up"], "actionTimes": [3692, 4428, 5356, 6516, 10108], "queries": {"click": {"state": {"target": [], "time": []}, "edge": {"target": [], "time": []}}, "mouseover": {"state": {"target": ["0"], "time": [3267]}, "edge": {"target": [], "time": []}}, "mouseout": {"state": {"target": ["0", "23", "24", "24", "23", "32"], "time": [13135, 13250, 16733, 17166, 17201, 17517]}, "edge": {"target": [], "time": []}}}, "displayed_time": "15.13", "trialTime": 22961, "trial_type": "mouselab-mdp", "trial_index": 25, "time_elapsed": 758193, "internal_node_id": "0.0-6.0-1.0-16.0"}}, {"uniqueid": "w92189155:a12759928", "current_trial": 26, "dateTime": 1693482162233, "trialdata": {"revealed_states": [], "clicked_states": ["12", "13"], "num_clicks_accrued": [0, 0, 0, 0, 0, 0, 0, 0, 0, 0, 0, 0, 0], "stateRewards": ["", 1, 3, 1, -13, 52, -28, 67, -14, 3, 63, -70, -1, -4, 7, -11, -10, 47, -18, 6, 69, -9, -61, 2, 3, -6, 10, 63, -34, 40, -6, -79, -35, -32], "withholdReward": false, "trial_id": "mdp_trial_18", "block": "test", "trialIndex": 19, "score": -79.1, "costs": -0.09999999999999998, "simulationMode": [null, null, null, null, null], "rewards": [1, 3, 1, -14, -70], "path": ["0", "0", "1", "2", "3", "8", "11"], "rt": [5711, 908, 349, 1686, 398], "actions": ["up", "up", "up", "left", "left"], "actionTimes": [7121, 8549, 9439, 11642, 12570], "queries": {"click": {"state": {"target": ["12", "13"], "time": [2520, 3775]}, "edge": {"target": [], "time": []}}, "mouseover": {"state": {"target": ["12", "12", "13", "0"], "time": [1875, 2238, 3321, 4834]}, "edge": {"target": [], "time": []}}, "mouseout": {"state": {"target": ["0", "12", "12", "13", "12", "0"], "time": [1837, 1916, 3286, 4504, 4735, 15521]}, "edge": {"target": [], "time": []}}}, "displayed_time": "15.41", "trialTime": 16931, "trial_type": "mouselab-mdp", "trial_index": 26, "time_elapsed": 775843, "internal_node_id": "0.0-6.0-1.0-17.0"}}, {"uniqueid": "w92189155:a12759928", "current_trial": 27, "dateTime": 1693482179496, "trialdata": {"revealed_states": [], "clicked_states": [], "num_clicks_accrued": [0, 0, 0, 0, 0, 0, 0, 0, 0, 0, 0, 0, 0], "stateRewards": ["", -2, 4, -5, -12, 85, -24, -18, -15, -78, -22, 26, -1, -1, 2, 14, -45, 52, -23, 7, -33, 24, -6, -2, -4, 5, -7, -16, 36, -39, 5, 71, -87, -23], "withholdReward": false, "trial_id": "mdp_trial_19", "block": "test", "trialIndex": 20, "score": 31, "costs": 0, "simulationMode": [null, null, null, null, null], "rewards": [-1, -1, 2, 7, 24], "path": ["0", "0", "12", "13", "14", "19", "21"], "rt": [2134, 1223, 772, 905, 1204], "actions": ["right", "right", "right", "down", "down"], "actionTimes": [3947, 5686, 6962, 8392, 10093], "queries": {"click": {"state": {"target": [], "time": []}, "edge": {"target": [], "time": []}}, "mouseover": {"state": {"target": [], "time": []}, "edge": {"target": [], "time": []}}, "mouseout": {"state": {"target": [], "time": []}, "edge": {"target": [], "time": []}}}, "displayed_time": "15.81", "trialTime": 16576, "trial_type": "mouselab-mdp", "trial_index": 27, "time_elapsed": 793106, "internal_node_id": "0.0-6.0-1.0-18.0"}}, {"uniqueid": "w92189155:a12759928", "current_trial": 28, "dateTime": 1693482197223, "trialdata": {"revealed_states": [], "clicked_states": [], "num_clicks_accrued": [0, 0, 0, 0, 0, 0, 0, 0, 0, 0, 0, 0, 0], "stateRewards": ["", 1, 2, 3, 16, 63, -25, 16, -4, -14, 82, -66, -1, -3, -3, -11, -14, 19, 46, 3, -34, -82, 66, -2, -3, 4, -5, -63, 77, -37, -1, -45, -41, 84], "withholdReward": false, "trial_id": "mdp_trial_20", "block": "test", "trialIndex": 21, "score": 82, "costs": 0, "simulationMode": [null, null, null, null, null], "rewards": [-2, -3, 4, -1, 84], "path": ["0", "0", "23", "24", "25", "30", "33"], "rt": [2742, 267, 667, 1337, 528], "actions": ["left", "left", "left", "down", "left"], "actionTimes": [4801, 5573, 6772, 8627, 9672], "queries": {"click": {"state": {"target": [], "time": []}, "edge": {"target": [], "time": []}}, "mouseover": {"state": {"target": [], "time": []}, "edge": {"target": [], "time": []}}, "mouseout": {"state": {"target": [], "time": []}, "edge": {"target": [], "time": []}}}, "displayed_time": "16.06", "trialTime": 17003, "trial_type": "mouselab-mdp", "trial_index": 28, "time_elapsed": 810833, "internal_node_id": "0.0-6.0-1.0-19.0"}}, {"uniqueid": "w92189155:a12759928", "current_trial": 29, "dateTime": 1693482216533, "trialdata": {"revealed_states": [], "clicked_states": [], "num_clicks_accrued": [0, 0, 0, 0, 0, 0, 0, 0, 0, 0, 0, 0, 0], "stateRewards": ["", -1, -3, -6, -2, -7, 80, -45, -3, -38, -72, 76, 2, 1, 7, 4, -62, 14, -74, 14, -87, -21, -88, -2, 1, -7, -10, 66, 56, -76, 10, -29, -72, -70], "withholdReward": false, "trial_id": "mdp_trial_21", "block": "test", "trialIndex": 22, "score": 68, "costs": 0, "simulationMode": [null, null, null, null, null], "rewards": [-1, -3, -6, -2, 80], "path": ["0", "0", "1", "2", "3", "4", "6"], "rt": [2861, 340, 277, 2957, 455], "actions": ["up", "up", "up", "right", "right"], "actionTimes": [5471, 6321, 7134, 10610, 11577], "queries": {"click": {"state": {"target": [], "time": []}, "edge": {"target": [], "time": []}}, "mouseover": {"state": {"target": [], "time": []}, "edge": {"target": [], "time": []}}, "mouseout": {"state": {"target": ["0"], "time": [15323]}, "edge": {"target": [], "time": []}}}, "displayed_time": "16.61", "trialTime": 18601, "trial_type": "mouselab-mdp", "trial_index": 29, "time_elapsed": 830143, "internal_node_id": "0.0-6.0-1.0-20.0"}}, {"uniqueid": "w92189155:a12759928", "current_trial": 30, "dateTime": 1693482235562, "trialdata": {"revealed_states": [], "clicked_states": ["1", "2"], "num_clicks_accrued": [0, 0, 0, 0, 0, 0, 0, 0, 0, 0, 0, 0, 0], "stateRewards": ["", -2, -1, -1, 5, -54, -87, 35, 2, -8, 20, -22, 1, 3, 6, 13, -75, -32, -55, -3, 56, 62, -22, -1, -4, -1, -7, -51, 84, 70, 7, -15, 5, 55], "withholdReward": false, "trial_id": "mdp_trial_22", "block": "test", "trialIndex": 23, "score": 56.9, "costs": -0.09999999999999998, "simulationMode": [null, null, null, null, null], "rewards": [-1, -4, -1, -7, 70], "path": ["0", "0", "23", "24", "25", "26", "29"], "rt": [10348, 430, 329, 599, 219], "actions": ["left", "left", "left", "up", "left"], "actionTimes": [11611, 12567, 13418, 14540, 15275], "queries": {"click": {"state": {"target": ["1", "2"], "time": [2359, 4559]}, "edge": {"target": [], "time": []}}, "mouseover": {"state": {"target": ["1", "2", "1", "0"], "time": [2011, 3625, 6451, 6518]}, "edge": {"target": [], "time": []}}, "mouseout": {"state": {"target": ["0", "1", "2", "1", "0"], "time": [1812, 3528, 6411, 6484, 6551]}, "edge": {"target": [], "time": []}}}, "displayed_time": "15.80", "trialTime": 18285, "trial_type": "mouselab-mdp", "trial_index": 30, "time_elapsed": 849172, "internal_node_id": "0.0-6.0-1.0-21.0"}}, {"uniqueid": "w92189155:a12759928", "current_trial": 31, "dateTime": 1693482253642, "trialdata": {"revealed_states": [], "clicked_states": [], "num_clicks_accrued": [0, 0, 0, 0, 0, 0, 0, 0, 0, 0, 0, 0, 0], "stateRewards": ["", -1, 3, 8, 10, -86, 61, -36, 10, 17, -60, 24, -1, -3, 3, 11, 50, 60, 33, -3, -20, 58, -6, 1, -4, -4, 13, -70, -71, 43, 14, 52, 82, -11], "withholdReward": false, "trial_id": "mdp_trial_23", "block": "test", "trialIndex": 24, "score": -4, "costs": 0, "simulationMode": [null, null, null, null, null], "rewards": [1, -4, -4, 14, -11], "path": ["0", "0", "23", "24", "25", "30", "33"], "rt": [2745, 1050, 900, 2549, 439], "actions": ["left", "left", "left", "down", "left"], "actionTimes": [5609, 7194, 8625, 11678, 12646], "queries": {"click": {"state": {"target": [], "time": []}, "edge": {"target": [], "time": []}}, "mouseover": {"state": {"target": [], "time": []}, "edge": {"target": [], "time": []}}, "mouseout": {"state": {"target": ["0"], "time": [4785]}, "edge": {"target": [], "time": []}}}, "displayed_time": "16.87", "trialTime": 17355, "trial_type": "mouselab-mdp", "trial_index": 31, "time_elapsed": 867253, "internal_node_id": "0.0-6.0-1.0-22.0"}}, {"uniqueid": "w92189155:a12759928", "current_trial": 32, "dateTime": 1693482271033, "trialdata": {"revealed_states": [], "clicked_states": [], "num_clicks_accrued": [0, 0, 0, 0, 0, 0, 0, 0, 0, 0, 0, 0, 0], "stateRewards": ["", 1, 1, 1, 15, -76, 52, -32, 14, -57, 37, 49, 1, -4, -3, 6, 83, -76, 25, 9, 36, -1, -17, -1, 4, 4, -2, -22, -21, 58, -15, -57, 49, -24], "withholdReward": false, "trial_id": "mdp_trial_24", "block": "test", "trialIndex": 25, "score": -58, "costs": 0, "simulationMode": [null, null, null, null, null], "rewards": [1, 1, 1, 15, -76], "path": ["0", "0", "1", "2", "3", "4", "5"], "rt": [3033, 287, 377, 1443, 1542], "actions": ["up", "up", "up", "right", "up"], "actionTimes": [5085, 5936, 6864, 8818, 10866], "queries": {"click": {"state": {"target": [], "time": []}, "edge": {"target": [], "time": []}}, "mouseover": {"state": {"target": [], "time": []}, "edge": {"target": [], "time": []}}, "mouseout": {"state": {"target": [], "time": []}, "edge": {"target": [], "time": []}}}, "displayed_time": "16.05", "trialTime": 16616, "trial_type": "mouselab-mdp", "trial_index": 32, "time_elapsed": 884643, "internal_node_id": "0.0-6.0-1.0-23.0"}}, {"uniqueid": "w92189155:a12759928", "current_trial": 33, "dateTime": 1693482289521, "trialdata": {"revealed_states": [], "clicked_states": [], "num_clicks_accrued": [0, 0, 0, 0, 0, 0, 0, 0, 0, 0, 0, 0, 0], "stateRewards": ["", 1, 2, 7, 13, 88, -71, 27, 3, 60, 5, -53, -2, 2, -6, -1, -30, 79, 47, -4, -14, 46, 68, 1, 1, 8, 10, -14, 86, 48, -11, -67, -44, 5], "withholdReward": false, "trial_id": "mdp_trial_25", "block": "test", "trialIndex": 26, "score": 111, "costs": 0, "simulationMode": [null, null, null, null, null], "rewards": [1, 2, 7, 13, 88], "path": ["0", "0", "1", "2", "3", "4", "5"], "rt": [1164, 212, 180, 1408, 343], "actions": ["up", "up", "up", "right", "up"], "actionTimes": [2477, 3201, 3899, 5869, 6720], "queries": {"click": {"state": {"target": [], "time": []}, "edge": {"target": [], "time": []}}, "mouseover": {"state": {"target": [], "time": []}, "edge": {"target": [], "time": []}}, "mouseout": {"state": {"target": ["0", "0", "0"], "time": [865, 13771, 17055]}, "edge": {"target": [], "time": []}}}, "displayed_time": "15.31", "trialTime": 17720, "trial_type": "mouselab-mdp", "trial_index": 33, "time_elapsed": 903131, "internal_node_id": "0.0-6.0-1.0-24.0"}}, {"uniqueid": "w92189155:a12759928", "current_trial": 34, "dateTime": 1693482306753, "trialdata": {"revealed_states": [], "clicked_states": [], "num_clicks_accrued": [0, 0, 0, 0, 0, 0, 0, 0, 0, 0, 0, 0, 0], "stateRewards": ["", -1, 4, -3, 3, 57, -61, 5, -11, 23, -1, 34, -2, -4, -1, -13, 27, 38, -36, 4, -45, 21, 88, 1, -2, -1, 1, -69, -5, -78, -12, -9, 38, -54], "withholdReward": false, "trial_id": "mdp_trial_26", "block": "test", "trialIndex": 27, "score": 60, "costs": 0, "simulationMode": [null, null, null, null, null], "rewards": [-1, 4, -3, 3, 57], "path": ["0", "0", "1", "2", "3", "4", "5"], "rt": [1030, 409, 1492, 258, 85], "actions": ["up", "up", "up", "right", "up"], "actionTimes": [2438, 3404, 5403, 6205, 6824], "queries": {"click": {"state": {"target": [], "time": []}, "edge": {"target": [], "time": []}}, "mouseover": {"state": {"target": [], "time": []}, "edge": {"target": [], "time": []}}, "mouseout": {"state": {"target": [], "time": []}, "edge": {"target": [], "time": []}}}, "displayed_time": "15.41", "trialTime": 16435, "trial_type": "mouselab-mdp", "trial_index": 34, "time_elapsed": 920363, "internal_node_id": "0.0-6.0-1.0-25.0"}}, {"uniqueid": "w92189155:a12759928", "current_trial": 35, "dateTime": 1693482325097, "trialdata": {"revealed_states": [], "clicked_states": [], "num_clicks_accrued": [0, 0, 0, 0, 0, 0, 0, 0, 0, 0, 0, 0, 0], "stateRewards": ["", 1, 1, -3, 7, 49, 78, 26, -5, 26, 48, -43, -1, -3, 2, -5, 4, -1, -60, 10, -35, 51, 81, -2, 1, -7, -5, -39, -86, -54, 4, -3, 74, 77], "withholdReward": false, "trial_id": "mdp_trial_27", "block": "test", "trialIndex": 28, "score": 20, "costs": 0, "simulationMode": [null, null, null, null, null], "rewards": [1, 1, -3, -5, 26], "path": ["0", "0", "1", "2", "3", "8", "9"], "rt": [1109, 241, 275, 631, 371], "actions": ["up", "up", "up", "left", "up"], "actionTimes": [3470, 4242, 5055, 6216, 7106], "queries": {"click": {"state": {"target": [], "time": []}, "edge": {"target": [], "time": []}}, "mouseover": {"state": {"target": [], "time": []}, "edge": {"target": [], "time": []}}, "mouseout": {"state": {"target": [], "time": []}, "edge": {"target": [], "time": []}}}, "displayed_time": "16.36", "trialTime": 17565, "trial_type": "mouselab-mdp", "trial_index": 35, "time_elapsed": 938707, "internal_node_id": "0.0-6.0-1.0-26.0"}}, {"uniqueid": "w92189155:a12759928", "current_trial": 36, "dateTime": 1693482343160, "trialdata": {"revealed_states": [], "clicked_states": [], "num_clicks_accrued": [0, 0, 0, 0, 0, 0, 0, 0, 0, 0, 0, 0, 0], "stateRewards": ["", -1, -2, -8, 8, -27, -82, 19, -14, -62, 4, 1, -2, 2, 6, 10, 73, -51, -2, 2, 73, -48, 54, -1, 2, -4, 11, -25, 47, 86, 15, 33, 43, -42], "withholdReward": false, "trial_id": "mdp_trial_28", "block": "test", "trialIndex": 29, "score": -87, "costs": 0, "simulationMode": [null, null, null, null, null], "rewards": [-1, -2, -8, -14, -62], "path": ["0", "0", "1", "2", "3", "8", "9"], "rt": [3159, 48, 51, 629, 361], "actions": ["up", "up", "up", "left", "up"], "actionTimes": [5350, 5929, 6499, 7659, 8550], "queries": {"click": {"state": {"target": [], "time": []}, "edge": {"target": [], "time": []}}, "mouseover": {"state": {"target": [], "time": []}, "edge": {"target": [], "time": []}}, "mouseout": {"state": {"target": [], "time": []}, "edge": {"target": [], "time": []}}}, "displayed_time": "16.19", "trialTime": 17311, "trial_type": "mouselab-mdp", "trial_index": 36, "time_elapsed": 956771, "internal_node_id": "0.0-6.0-1.0-27.0"}}, {"uniqueid": "w92189155:a12759928", "current_trial": 37, "dateTime": 1693482361312, "trialdata": {"revealed_states": [], "clicked_states": [], "num_clicks_accrued": [0, 0, 0, 0, 0, 0, 0, 0, 0, 0, 0, 0, 0], "stateRewards": ["", 1, -4, -6, 11, -20, 8, -30, 1, -38, 88, 42, 2, 3, 5, -12, -8, -74, 30, -8, 67, -19, 42, 2, -1, 4, 13, 50, -68, 2, -8, -15, 87, -46], "withholdReward": false, "trial_id": "mdp_trial_29", "block": "test", "trialIndex": 30, "score": 68, "costs": 0, "simulationMode": [null, null, null, null, null], "rewards": [2, -1, 4, 13, 50], "path": ["0", "0", "23", "24", "25", "26", "27"], "rt": [681, 343, 521, 558, 1455], "actions": ["left", "left", "left", "up", "up"], "actionTimes": [2972, 3823, 4867, 5950, 7960], "queries": {"click": {"state": {"target": [], "time": []}, "edge": {"target": [], "time": []}}, "mouseover": {"state": {"target": [], "time": []}, "edge": {"target": [], "time": []}}, "mouseout": {"state": {"target": [], "time": []}, "edge": {"target": [], "time": []}}}, "displayed_time": "16.29", "trialTime": 17376, "trial_type": "mouselab-mdp", "trial_index": 37, "time_elapsed": 974922, "internal_node_id": "0.0-6.0-1.0-28.0"}}, {"uniqueid": "w92189155:a12759928", "current_trial": 38, "dateTime": 1693482378648, "trialdata": {"revealed_states": [], "clicked_states": [], "num_clicks_accrued": [0, 0, 0, 0, 0, 0, 0, 0, 0, 0, 0, 0, 0], "stateRewards": ["", -1, 1, -5, -6, -78, 47, -13, 12, 48, -88, 20, 2, -3, -2, 13, -20, 37, -57, 14, -38, 30, 31, -2, -2, 8, 2, -23, 78, 28, 12, -74, -88, 8], "withholdReward": false, "trial_id": "mdp_trial_30", "block": "test", "trialIndex": 31, "score": -72, "costs": 0, "simulationMode": [null, null, null, null, null], "rewards": [-2, -2, 8, 12, -88], "path": ["0", "0", "23", "24", "25", "30", "32"], "rt": [4635, 90, 374, 2605, 461], "actions": ["left", "left", "left", "down", "down"], "actionTimes": [6706, 7324, 8214, 11348, 12315], "queries": {"click": {"state": {"target": [], "time": []}, "edge": {"target": [], "time": []}}, "mouseover": {"state": {"target": [], "time": []}, "edge": {"target": [], "time": []}}, "mouseout": {"state": {"target": [], "time": []}, "edge": {"target": [], "time": []}}}, "displayed_time": "16.07", "trialTime": 16560, "trial_type": "mouselab-mdp", "trial_index": 38, "time_elapsed": 992258, "internal_node_id": "0.0-6.0-1.0-29.0"}}, {"uniqueid": "w92189155:a12759928", "current_trial": 39, "dateTime": 1693482395063, "trialdata": {"revealed_states": [], "clicked_states": [], "num_clicks_accrued": [0, 0, 0, 0, 0, 0, 0, 0, 0, 0, 0, 0, 0], "stateRewards": ["", 1, -2, -2, 10, -31, -77, 35, 9, -47, 8, 48, -2, 1, -4, -3, -26, -50, 43, -11, 76, -38, 17, 1, -1, 6, 10, 15, -9, 12, -8, 85, 11, -55], "withholdReward": false, "trial_id": "mdp_trial_31", "block": "test", "trialIndex": 32, "score": -24, "costs": 0, "simulationMode": [null, null, null, null, null], "rewards": [1, -2, -2, 10, -31], "path": ["0", "0", "1", "2", "3", "4", "5"], "rt": [1350, 453, 204, 781, 707], "actions": ["up", "up", "up", "right", "up"], "actionTimes": [2477, 3444, 4179, 5494, 6731], "queries": {"click": {"state": {"target": [], "time": []}, "edge": {"target": [], "time": []}}, "mouseover": {"state": {"target": [], "time": []}, "edge": {"target": [], "time": []}}, "mouseout": {"state": {"target": [], "time": []}, "edge": {"target": [], "time": []}}}, "displayed_time": "15.13", "trialTime": 15646, "trial_type": "mouselab-mdp", "trial_index": 39, "time_elapsed": 1008673, "internal_node_id": "0.0-6.0-1.0-30.0"}}, {"uniqueid": "w92189155:a12759928", "current_trial": 40, "dateTime": 1693482412482, "trialdata": {"revealed_states": [], "clicked_states": [], "num_clicks_accrued": [0, 0, 0, 0, 0, 0, 0, 0, 0, 0, 0, 0, 0], "stateRewards": ["", -1, 2, 7, 8, 75, 67, -11, 6, 52, -17, 38, -1, 4, -8, 14, 74, -37, -17, -12, 52, 55, 71, -2, -1, -5, 2, 21, 6, -88, -14, 64, -61, -47], "withholdReward": false, "trial_id": "mdp_trial_32", "block": "test", "trialIndex": 33, "score": -28, "costs": 0, "simulationMode": [null, null, null, null, null], "rewards": [-1, 4, -8, 14, -37], "path": ["0", "0", "12", "13", "14", "15", "17"], "rt": [886, 377, 309, 553, 1636], "actions": ["right", "right", "right", "up", "right"], "actionTimes": [2533, 3423, 4236, 5319, 7482], "queries": {"click": {"state": {"target": [], "time": []}, "edge": {"target": [], "time": []}}, "mouseover": {"state": {"target": [], "time": []}, "edge": {"target": [], "time": []}}, "mouseout": {"state": {"target": [], "time": []}, "edge": {"target": [], "time": []}}}, "displayed_time": "15.65", "trialTime": 16629, "trial_type": "mouselab-mdp", "trial_index": 40, "time_elapsed": 1026092, "internal_node_id": "0.0-6.0-1.0-31.0"}}, {"uniqueid": "w92189155:a12759928", "current_trial": 41, "dateTime": 1693482428925, "trialdata": {"revealed_states": [], "clicked_states": [], "num_clicks_accrued": [0, 0, 0, 0, 0, 0, 0, 0, 0, 0, 0, 0, 0], "stateRewards": ["", 1, 2, -8, 9, 18, -83, -11, 6, -64, -48, 17, -2, -2, -5, -3, -24, -3, -86, -2, 48, -41, -22, -2, 4, 7, 8, 81, 13, -48, 10, 61, 19, 57], "withholdReward": false, "trial_id": "mdp_trial_33", "block": "test", "trialIndex": 34, "score": 76, "costs": 0, "simulationMode": [null, null, null, null, null], "rewards": [-2, 4, 7, 10, 57], "path": ["0", "0", "23", "24", "25", "30", "33"], "rt": [1700, 2073, 533, 750, 748], "actions": ["left", "left", "left", "down", "left"], "actionTimes": [2683, 5298, 6381, 7657, 8933], "queries": {"click": {"state": {"target": [], "time": []}, "edge": {"target": [], "time": []}}, "mouseover": {"state": {"target": [], "time": []}, "edge": {"target": [], "time": []}}, "mouseout": {"state": {"target": [], "time": []}, "edge": {"target": [], "time": []}}}, "displayed_time": "14.98", "trialTime": 15649, "trial_type": "mouselab-mdp", "trial_index": 41, "time_elapsed": 1042535, "internal_node_id": "0.0-6.0-1.0-32.0"}}, {"uniqueid": "w92189155:a12759928", "current_trial": 42, "dateTime": 1693482446373, "trialdata": {"revealed_states": [], "clicked_states": [], "num_clicks_accrued": [0, 0, 0, 0, 0, 0, 0, 0, 0, 0, 0, 0, 0], "stateRewards": ["", 2, -1, 1, 10, -52, 86, -22, -2, -14, -63, 38, 1, 3, 7, -8, 11, -32, -27, 9, -71, 40, -87, -2, -1, 5, -7, 12, 31, -57, 13, 86, -58, 29], "withholdReward": false, "trial_id": "mdp_trial_34", "block": "test", "trialIndex": 35, "score": -62, "costs": 0, "simulationMode": [null, null, null, null, null], "rewards": [-2, -1, 5, -7, -57], "path": ["0", "0", "23", "24", "25", "26", "29"], "rt": [7215, 422, 386, 349, 1738], "actions": ["left", "left", "left", "up", "left"], "actionTimes": [8433, 9361, 10290, 11168, 13448], "queries": {"click": {"state": {"target": [], "time": []}, "edge": {"target": [], "time": []}}, "mouseover": {"state": {"target": [], "time": []}, "edge": {"target": [], "time": []}}, "mouseout": {"state": {"target": ["0"], "time": [2966]}, "edge": {"target": [], "time": []}}}, "displayed_time": "15.22", "trialTime": 16651, "trial_type": "mouselab-mdp", "trial_index": 42, "time_elapsed": 1059983, "internal_node_id": "0.0-6.0-1.0-33.0"}}, {"uniqueid": "w92189155:a12759928", "current_trial": 43, "dateTime": 1693482463870, "trialdata": {"revealed_states": [], "clicked_states": [], "num_clicks_accrued": [0, 0, 0, 0, 0, 0, 0, 0, 0, 0, 0, 0, 0], "stateRewards": ["", 1, 2, 2, -15, -84, 28, -26, 13, 31, 86, 30, -2, 1, -1, -8, 66, -40, -1, -10, -32, 57, -17, 1, 2, -2, 9, -23, 77, 85, 12, -32, -62, -35], "withholdReward": false, "trial_id": "mdp_trial_35", "block": "test", "trialIndex": 36, "score": 18, "costs": 0, "simulationMode": [null, null, null, null, null], "rewards": [1, 2, 2, -15, 28], "path": ["0", "0", "1", "2", "3", "4", "6"], "rt": [1496, 180, 84, 129, 215], "actions": ["up", "up", "up", "right", "right"], "actionTimes": [3418, 4115, 4734, 5392, 6128], "queries": {"click": {"state": {"target": [], "time": []}, "edge": {"target": [], "time": []}}, "mouseover": {"state": {"target": [], "time": []}, "edge": {"target": [], "time": []}}, "mouseout": {"state": {"target": [], "time": []}, "edge": {"target": [], "time": []}}}, "displayed_time": "15.92", "trialTime": 16704, "trial_type": "mouselab-mdp", "trial_index": 43, "time_elapsed": 1077480, "internal_node_id": "0.0-6.0-1.0-34.0"}}, {"uniqueid": "w92189155:a12759928", "current_trial": 44, "dateTime": 1693482480886, "trialdata": {"revealed_states": [], "clicked_states": [], "num_clicks_accrued": [0, 0, 0, 0, 0, 0, 0, 0, 0, 0, 0, 0, 0], "stateRewards": ["", 2, -3, 5, -14, -63, -9, -24, -11, -54, -43, 68, 2, -2, -4, 7, -64, 30, 47, 12, -74, 11, 86, 1, -3, 3, 10, -71, -42, -52, -1, -29, -16, 69], "withholdReward": false, "trial_id": "mdp_trial_36", "block": "test", "trialIndex": 37, "score": -73, "costs": 0, "simulationMode": [null, null, null, null, null], "rewards": [2, -3, 5, -14, -63], "path": ["0", "0", "1", "2", "3", "4", "5"], "rt": [3614, 434, 762, 1318, 2008], "actions": ["up", "up", "up", "right", "up"], "actionTimes": [4840, 5807, 7083, 8939, 11471], "queries": {"click": {"state": {"target": [], "time": []}, "edge": {"target": [], "time": []}}, "mouseover": {"state": {"target": [], "time": []}, "edge": {"target": [], "time": []}}, "mouseout": {"state": {"target": [], "time": []}, "edge": {"target": [], "time": []}}}, "displayed_time": "15.23", "trialTime": 16218, "trial_type": "mouselab-mdp", "trial_index": 44, "time_elapsed": 1094497, "internal_node_id": "0.0-6.0-1.0-35.0"}}, {"uniqueid": "w92189155:a12759928", "current_trial": 45, "dateTime": 1693482497808, "trialdata": {"revealed_states": [], "clicked_states": [], "num_clicks_accrued": [0, 0, 0, 0, 0, 0, 0, 0, 0, 0, 0, 0, 0], "stateRewards": ["", 2, -2, 7, -11, -76, -65, -23, 16, -58, 30, 81, 1, 2, 7, 14, 9, 55, -2, 6, 11, -15, 31, -1, -1, -3, 2, 15, 2, 46, 15, 18, 45, -34], "withholdReward": false, "trial_id": "mdp_trial_37", "block": "test", "trialIndex": 38, "score": -80, "costs": 0, "simulationMode": [null, null, null, null, null], "rewards": [2, -2, 7, -11, -76], "path": ["0", "0", "1", "2", "3", "4", "5"], "rt": [3166, 28, 969, 2254, 2357], "actions": ["up", "up", "up", "right", "up"], "actionTimes": [4147, 4707, 6198, 8979, 11876], "queries": {"click": {"state": {"target": [], "time": []}, "edge": {"target": [], "time": []}}, "mouseover": {"state": {"target": [], "time": []}, "edge": {"target": [], "time": []}}, "mouseout": {"state": {"target": [], "time": []}, "edge": {"target": [], "time": []}}}, "displayed_time": "14.98", "trialTime": 16122, "trial_type": "mouselab-mdp", "trial_index": 45, "time_elapsed": 1111418, "internal_node_id": "0.0-6.0-1.0-36.0"}}, {"uniqueid": "w92189155:a12759928", "current_trial": 46, "dateTime": 1693482515111, "trialdata": {"revealed_states": [], "clicked_states": [], "num_clicks_accrued": [0, 0, 0, 0, 0, 0, 0, 0, 0, 0, 0, 0, 0], "stateRewards": ["", -1, -3, -3, 1, -38, 2, -53, -2, -1, -81, 70, -1, 1, -5, -9, 46, 15, 35, -1, -22, 38, 59, -2, 4, -8, 13, 1, -83, -43, 4, 76, 13, 48], "withholdReward": false, "trial_id": "mdp_trial_38", "block": "test", "trialIndex": 39, "score": 1, "costs": 0, "simulationMode": [null, null, null, null, null], "rewards": [-1, 1, -5, -9, 15], "path": ["0", "0", "12", "13", "14", "15", "17"], "rt": [1654, 605, 399, 1243, 490], "actions": ["right", "right", "right", "up", "right"], "actionTimes": [2869, 3991, 4919, 6697, 7703], "queries": {"click": {"state": {"target": [], "time": []}, "edge": {"target": [], "time": []}}, "mouseover": {"state": {"target": [], "time": []}, "edge": {"target": [], "time": []}}, "mouseout": {"state": {"target": [], "time": []}, "edge": {"target": [], "time": []}}}, "displayed_time": "15.22", "trialTime": 16464, "trial_type": "mouselab-mdp", "trial_index": 46, "time_elapsed": 1128721, "internal_node_id": "0.0-6.0-1.0-37.0"}}, {"uniqueid": "w92189155:a12759928", "current_trial": 47, "dateTime": 1693482532546, "trialdata": {"revealed_states": [], "clicked_states": [], "num_clicks_accrued": [0, 0, 0, 0, 0, 0, 0, 0, 0, 0, 0, 0, 0], "stateRewards": ["", 1, 1, -5, 10, -31, 73, 14, -8, -23, 63, -70, -1, 2, 8, 7, 25, -59, 27, -10, -40, -71, -15, -2, 3, -8, -5, -19, 77, -34, 7, 67, 63, 19], "withholdReward": false, "trial_id": "mdp_trial_39", "block": "test", "trialIndex": 40, "score": 19, "costs": 0, "simulationMode": [null, null, null, null, null], "rewards": [-2, 3, -8, 7, 19], "path": ["0", "0", "23", "24", "25", "30", "33"], "rt": [3997, 148, 1062, 1133, 2948], "actions": ["left", "left", "left", "down", "left"], "actionTimes": [5565, 6222, 7795, 9447, 12923], "queries": {"click": {"state": {"target": [], "time": []}, "edge": {"target": [], "time": []}}, "mouseover": {"state": {"target": [], "time": []}, "edge": {"target": [], "time": []}}, "mouseout": {"state": {"target": ["0"], "time": [361]}, "edge": {"target": [], "time": []}}}, "displayed_time": "15.57", "trialTime": 16588, "trial_type": "mouselab-mdp", "trial_index": 47, "time_elapsed": 1146156, "internal_node_id": "0.0-6.0-1.0-38.0"}}, {"uniqueid": "w92189155:a12759928", "current_trial": 48, "dateTime": 1693482550737, "trialdata": {"revealed_states": [], "clicked_states": [], "num_clicks_accrued": [0, 0, 0, 0, 0, 0, 0, 0, 0, 0, 0, 0, 0], "stateRewards": ["", -1, 1, 6, -6, 70, 66, 67, -16, -75, -35, 37, -1, 4, 4, -6, 47, -9, 63, 15, 21, -63, 13, 1, 3, -6, 10, 79, -29, 18, -15, 9, -67, -19], "withholdReward": false, "trial_id": "mdp_trial_40", "block": "test", "trialIndex": 41, "score": -84, "costs": 0, "simulationMode": [null, null, null, null, null], "rewards": [1, 3, -6, -15, -67], "path": ["0", "0", "23", "24", "25", "30", "32"], "rt": [2353, 213, 483, 995, 1068], "actions": ["left", "left", "left", "down", "down"], "actionTimes": [4720, 5455, 6462, 7968, 9554], "queries": {"click": {"state": {"target": [], "time": []}, "edge": {"target": [], "time": []}}, "mouseover": {"state": {"target": [], "time": []}, "edge": {"target": [], "time": []}}, "mouseout": {"state": {"target": ["0", "0", "0"], "time": [765, 981, 12852]}, "edge": {"target": [], "time": []}}}, "displayed_time": "16.37", "trialTime": 17350, "trial_type": "mouselab-mdp", "trial_index": 48, "time_elapsed": 1164347, "internal_node_id": "0.0-6.0-1.0-39.0"}}, {"uniqueid": "w92189155:a12759928", "current_trial": 49, "dateTime": 1693482595590, "trialdata": {"rt": 44845, "response": {"Q0": "$-2 to $2", "Q1": "$-16 to $16", "Q2": "$-88 to $88", "Q3": "The cost for clicking on nodes varied between nodes.", "Q4": "Slightly motivated"}, "question_order": [0, 1, 2, 3, 4], "trial_id": "final_quiz_control", "trial_type": "survey-multi-choice", "trial_index": 49, "time_elapsed": 1209201, "internal_node_id": "0.0-6.0-2.0"}}, {"uniqueid": "w92189155:a12759928", "current_trial": 50, "dateTime": 1693482635246, "trialdata": {"rt": 39647, "response": {"Q0": "varied moves", "Q1": "no", "Q2": "didn't seem to be a plan to nodes"}, "trial_id": "self_report_control", "trial_type": "survey-text", "trial_index": 50, "time_elapsed": 1248856, "internal_node_id": "0.0-6.0-3.0"}}, {"uniqueid": "w92189155:a12759928", "current_trial": 51, "dateTime": 1693482682278, "trialdata": {"rt": 47028, "response": {"Q0": "Agree", "Q1": "Neither disagree nor agree", "Q2": "Neither disagree nor agree", "Q3": "Agree", "Q4": "Neither disagree nor agree", "Q5": "Neither disagree nor agree", "Q6": "Disagree"}, "question_order": [0, 1, 2, 3, 4, 5, 6], "trial_id": "self_report_2", "trial_type": "survey-multi-choice", "trial_index": 51, "time_elapsed": 1295889, "internal_node_id": "0.0-6.0-4.0"}}, {"uniqueid": "w92189155:a12759928", "current_trial": 52, "dateTime": 1693482712157, "trialdata": {"rt": 29874, "response": {"gender": "female", "age": "60", "colorblind": "0", "effort": "0"}, "trial_type": "survey-html-form", "trial_index": 52, "time_elapsed": 1325768, "internal_node_id": "0.0-6.0-5.0"}}, {"uniqueid": "w92189155:a12759928", "current_trial": 53, "dateTime": 1693482746724, "trialdata": {"rt": 34561, "response": {"Q0": "didn't seem to enable strategy", "Q1": "no", "Q2": ""}, "trial_type": "survey-text", "trial_index": 53, "time_elapsed": 1360335, "internal_node_id": "0.0-6.0-6.0"}}, {"uniqueid": "w92189155:a12759928", "current_trial": 54, "dateTime": 1693482787973, "trialdata": {"rt": 41243, "stimulus": "<h1>Completion Code Instructions (1/2)</h1>\n<br><br><br><br>\nYou have reached the end of the experiment! The completion code consists of two parts: (1) a code with 2 characters (2) a code with 6 characters. On this page, you will receive the second part of the code. The first part of the completion code will be on the next page.\n<br><br>\nThe second part of your completion code is: <b>EWEK22</b>\n<br><br>\nPlease note this down. Then, press 'Finish HIT' in order to find the first part of your completion code. Once the data has been saved, you will receive this code either in this window or in the original browser window where you started the experiment.\n", "response": 0, "trial_type": "html-button-response", "trial_index": 54, "time_elapsed": 1401584, "internal_node_id": "0.0-6.0-7.0"}}, {"uniqueid": "w92189155:a12759928", "current_trial": 55, "dateTime": 1693482788978, "trialdata": {"success": true, "trial_type": "fullscreen", "trial_index": 55, "time_elapsed": 1402589, "internal_node_id": "0.0-7.0"}}], "questiondata": {"params": {"CODE": "C6DMOQA6", "MIN_TIME": 14, "inspectCost": 1, "startTime": "Thu Aug 31 2023 12:29:45 GMT+0100 (British Summer Time)", "bonusRate": 0.002, "variance": "1_2_4_8_44", "branching": "31123"}, "final_score": -119.2}, "eventdata": [{"eventtype": "initialized", "value": null, "timestamp": 1693481385226, "interval": 0}, {"eventtype": "window_resize", "value": [1024, 767], "timestamp": 1693481385226, "interval": 0}, {"eventtype": "window_resize", "value": [1024, 767], "timestamp": 1693481385558, "interval": 332}, {"eventtype": "window_resize", "value": [1920, 1080], "timestamp": 1693481390254, "interval": 4696}, {"eventtype": "window_resize", "value": [1024, 767], "timestamp": 1693482788785, "interval": 1398531}], "useragent": "Mozilla/5.0 (Windows NT 10.0; Win64; x64) AppleWebKit/537.36 (KHTML, like Gecko) Chrome/116.0.0.0 Safari/537.36", "mode": "live", "id": "w92189155:a12759928", "status": "user data saved", "Beginhit": "2023-08-31 11:29:41.921624", "Beginexp": "2023-08-31 11:29:49.21543", "Endhit": "2023-08-31 11:53:07.93635", "psiturkStatus": 3, "browser": "<redacted>", "platform": "windows", "language": "en-GB"}