{"condition": 1, "counterbalance": 0, "assignmentId": "a99114769", "workerId": "w37024259", "hitId": "h13235356", "currenttrial": 56, "bonus": 0, "data": [{"uniqueid": "w37024259:a99114769", "current_trial": 0, "dateTime": 1693568653721, "trialdata": {"success": true, "trial_type": "fullscreen", "trial_index": 0, "time_elapsed": 19261, "internal_node_id": "0.0-0.0"}}, {"uniqueid": "w37024259:a99114769", "current_trial": 1, "dateTime": 1693568665748, "trialdata": {"view_history": [{"page_index": 0, "viewing_time": 12023}], "rt": 12023, "trial_id": "exp_instructions_misaligned", "trial_type": "instructions", "trial_index": 1, "time_elapsed": 31288, "internal_node_id": "0.0-1.0"}}, {"uniqueid": "w37024259:a99114769", "current_trial": 2, "dateTime": 1693568806366, "trialdata": {"view_history": [{"page_index": 0, "viewing_time": 43084}, {"page_index": 1, "viewing_time": 63348}, {"page_index": 2, "viewing_time": 15164}, {"page_index": 3, "viewing_time": 19020}], "rt": 140616, "trial_id": "mouselab_instructions_1_misaligned", "trial_type": "instructions", "trial_index": 2, "time_elapsed": 171906, "internal_node_id": "0.0-2.0-1.0"}}, {"uniqueid": "w37024259:a99114769", "current_trial": 3, "dateTime": 1693568832819, "trialdata": {"revealed_states": [], "clicked_states": ["12", "13", "14", "19", "20", "1", "2"], "num_clicks_accrued": [0, 0, 0, 0, 0, 0, 0, 0, 0, 0, 0, 0, 0], "stateRewards": ["", -10, -10, -10, 10, 10, -10, 10, -10, -10, 10, 10, -10, -10, -10, 10, -10, -10, 10, -10, -10, -10, -10, -10, 10, 10, -10, 10, 10, -10, -10, -10, 10, 10], "withholdReward": false, "trial_id": "practice_1", "block": "test", "trialIndex": 0, "score": -50, "costs": -3.5, "simulationMode": [null, null, null, null, null], "rewards": [-10, -10, -10, -10, -10], "path": ["0", "0", "12", "13", "14", "19", "20"], "rt": [16017, 341, 322, 226, 316], "actions": ["right", "right", "right", "down", "right"], "actionTimes": [19450, 20300, 21130, 21866, 22690], "queries": {"click": {"state": {"target": ["12", "13", "14", "19", "20", "1", "2"], "time": [4780, 6072, 7767, 9044, 10615, 13014, 15814]}, "edge": {"target": [], "time": []}}, "mouseover": {"state": {"target": ["12", "13", "14", "14", "19", "20", "18", "1", "2", "7", "2", "2", "7", "13", "12"], "time": [4413, 5147, 6430, 6696, 8145, 9629, 11664, 11911, 13413, 15191, 15292, 15591, 16325, 17157, 17474]}, "edge": {"target": [], "time": []}}, "mouseout": {"state": {"target": ["0", "12", "13", "14", "14", "19", "20", "14", "18", "1", "2", "7", "2", "2", "7", "13"], "time": [4380, 5047, 6396, 6447, 8045, 9396, 10692, 11563, 11694, 13278, 14858, 15275, 15324, 16308, 17042, 17207]}, "edge": {"target": [], "time": []}}}, "displayed_time": "23.21", "trialTime": 25923, "trial_type": "mouselab-mdp", "trial_index": 3, "time_elapsed": 198358, "internal_node_id": "0.0-2.0-2.0-0.0"}}, {"uniqueid": "w37024259:a99114769", "current_trial": 4, "dateTime": 1693568870027, "trialdata": {"revealed_states": [], "clicked_states": ["1", "2", "3", "4", "5", "23", "24", "25", "26", "27", "12", "13", "14", "19", "21"], "num_clicks_accrued": [0, 0, 0, 0, 0, 0, 0, 0, 0, 0, 0, 0, 0], "stateRewards": ["", -10, 10, -10, 10, -10, -10, 10, -10, 10, -10, -10, 10, -10, -10, 10, 10, -10, -10, -10, -10, -10, 10, -10, 10, -10, -10, -10, -10, 10, 10, 10, -10, -10], "withholdReward": false, "trial_id": "practice_2", "block": "test", "trialIndex": 1, "score": 6, "costs": -7.5, "simulationMode": [null, null, null, null, null], "rewards": [-10, 10, -10, 10, 10], "path": ["0", "0", "1", "2", "3", "4", "7"], "rt": [24374, 518, 264, 127, 232], "actions": ["up", "up", "up", "right", "down"], "actionTimes": [31150, 32178, 32956, 33601, 34340], "queries": {"click": {"state": {"target": ["1", "2", "3", "4", "5", "23", "24", "25", "26", "27", "12", "13", "14", "19", "21"], "time": [7520, 8747, 10296, 11594, 12680, 14008, 15164, 16762, 17948, 19346, 22362, 23469, 24534, 26111, 27250]}, "edge": {"target": [], "time": []}}, "mouseover": {"state": {"target": ["1", "2", "3", "4", "5", "2", "1", "0", "23", "24", "25", "26", "27", "23", "0", "12", "13", "14", "23", "22", "19", "21", "22", "23", "1", "18"], "time": [7183, 7835, 9334, 10717, 12416, 13283, 13332, 13549, 13649, 14469, 15633, 17214, 18880, 20993, 21344, 21410, 22944, 24161, 24796, 25509, 25825, 26559, 28874, 29241, 29890, 30373]}, "edge": {"target": [], "time": []}}, "mouseout": {"state": {"target": ["12", "0", "0", "1", "2", "3", "4", "5", "5", "2", "1", "0", "23", "24", "25", "26", "27", "27", "26", "23", "0", "12", "12", "13", "14", "13", "23", "22", "19", "21", "21", "22", "23", "1"], "time": [5551, 5650, 5884, 7752, 9118, 10683, 12350, 12739, 13216, 13300, 13366, 13599, 14452, 15598, 17081, 18730, 19403, 20079, 20229, 21327, 21361, 22423, 22778, 23915, 24776, 24793, 24843, 25576, 26492, 27576, 28774, 28923, 29373, 29990]}, "edge": {"target": [], "time": []}}}, "displayed_time": "34.86", "trialTime": 36932, "trial_type": "mouselab-mdp", "trial_index": 4, "time_elapsed": 235566, "internal_node_id": "0.0-2.0-2.0-1.0"}}, {"uniqueid": "w37024259:a99114769", "current_trial": 5, "dateTime": 1693569044833, "trialdata": {"view_history": [{"page_index": 0, "viewing_time": 167253}, {"page_index": 1, "viewing_time": 7550}], "rt": 174803, "trial_id": "mouselab_instructions_2_misaligned", "trial_type": "instructions", "trial_index": 5, "time_elapsed": 410373, "internal_node_id": "0.0-2.0-3.0"}}, {"uniqueid": "w37024259:a99114769", "current_trial": 6, "dateTime": 1693569083609, "trialdata": {"rt": 38771, "response": {"Q0": "The cost for clicking on nodes may vary between nodes.", "Q1": "The better I perform the higher my bonus will be.", "Q2": "No, the amount of cash at each node of the web may be different each time.", "Q3": "To get the highest total score.", "Q4": "Only before moving the spider.", "Q5": "3 seconds"}, "question_order": [0, 1, 2, 3, 4, 5], "correct": {"Q0": "The cost for clicking on nodes may vary between nodes.", "Q1": "The better I perform the higher my bonus will be.", "Q2": "No, the amount of cash at each node of the web may be different each time.", "Q3": "To get the highest total score.", "Q4": "Only before moving the spider.", "Q5": "3 seconds"}, "trial_id": "mouselab_quiz_misaligned", "trial_type": "survey-multi-choice", "trial_index": 6, "time_elapsed": 449149, "internal_node_id": "0.0-2.0-4.0"}}, {"uniqueid": "w37024259:a99114769", "current_trial": 7, "dateTime": 1693569089121, "trialdata": {"rt": 5504, "response": {"Q0": "No"}, "question_order": [0], "trial_id": "repeat_check", "trial_type": "survey-multi-choice", "trial_index": 7, "time_elapsed": 454661, "internal_node_id": "0.0-4.0-0.0"}}, {"uniqueid": "w37024259:a99114769", "current_trial": 8, "dateTime": 1693569103595, "trialdata": {"rt": 14468, "stimulus": "\n<h1> Get ready to start the game! </h1>\n\nThank you for reading the instructions. Get ready start with the 40 rounds of this game.\n<br><br>\nIf you need to take a break, feel free to take one after the end of a round, before continuing to the next one.\n<br><br>\nRemember, the more money the spider gets, the bigger your bonus will be!\n<br><br>\n<div style='text-align: center;'>Press <code>space</code> to begin.</div>\n\n<br><br>\n(If, at any point, the <code>space</code> key does not take you to the next page, click once on the text and try again.)", "response": " ", "trial_id": "mdp_ready", "trial_type": "html-keyboard-response", "trial_index": 8, "time_elapsed": 469135, "internal_node_id": "0.0-6.0-0.0"}}, {"uniqueid": "w37024259:a99114769", "current_trial": 9, "dateTime": 1693569138664, "trialdata": {"revealed_states": [], "clicked_states": ["1", "2", "3", "4", "5", "12", "13", "14", "15", "16", "19", "21", "23", "24", "25", "26", "28"], "num_clicks_accrued": [0, 0, 0, 0, 0, 0, 0, 0, 0, 0, 0, 0, 0], "stateRewards": ["", -1, -3, 1, -4, -48, -63, -49, -2, -84, -19, 65, 2, -2, -2, -12, -4, 59, 9, 6, 75, 69, -13, -1, -3, -3, -2, -37, -68, -36, 13, 32, 18, -14], "withholdReward": false, "trial_id": "mdp_trial_1", "block": "test", "trialIndex": 2, "score": 55.05, "costs": -17.95, "simulationMode": [null, null, null, null, null, null], "rewards": [2, -2, -2, 6, 69], "path": ["0", "0", "12", "13", "14", "19", "21"], "rt": [23619, 527, 256, 285, 788, 333], "actions": ["right", "right", "right", "right", "down", "down"], "actionTimes": [26831, 27361, 28153, 28974, 30276, 31121], "queries": {"click": {"state": {"target": ["1", "2", "3", "4", "5", "12", "13", "14", "15", "16", "19", "21", "23", "24", "25", "26", "28"], "time": [4322, 5213, 6199, 7043, 7840, 11233, 12088, 12870, 13585, 14322, 17216, 18246, 21976, 23039, 23859, 24571, 25266]}, "edge": {"target": [], "time": []}}, "mouseover": {"state": {"target": ["1", "2", "3", "4", "5", "7", "12", "12", "13", "14", "15", "16", "19", "21", "23", "24", "24", "25", "26", "28"], "time": [4031, 4682, 5782, 6698, 7414, 8398, 8797, 9047, 11662, 12545, 13277, 14061, 15102, 17761, 19292, 22490, 22807, 23424, 24290, 25090]}, "edge": {"target": [], "time": []}}, "mouseout": {"state": {"target": ["16", "18", "12", "0", "1", "2", "3", "4", "5", "4", "7", "12", "12", "12", "13", "13", "14", "15", "16", "16", "15", "14", "19", "21", "23", "24", "24", "25", "26", "28", "22"], "time": [749, 865, 1065, 3798, 4599, 5732, 6648, 7364, 8247, 8347, 8447, 8947, 11317, 11628, 12153, 12461, 13178, 13658, 14383, 14729, 14813, 14915, 17662, 18842, 22457, 22540, 23406, 24207, 24923, 25706, 33271]}, "edge": {"target": [], "time": []}}}, "displayed_time": "31.64", "trialTime": 34788, "trial_type": "mouselab-mdp", "trial_index": 9, "time_elapsed": 504203, "internal_node_id": "0.0-6.0-1.0-0.0"}}, {"uniqueid": "w37024259:a99114769", "current_trial": 10, "dateTime": 1693569176960, "trialdata": {"revealed_states": [], "clicked_states": ["23", "24", "25", "26", "29"], "num_clicks_accrued": [0, 0, 0, 0, 0, 0, 0, 0, 0, 0, 0, 0, 0], "stateRewards": ["", -1, -2, -8, 8, -27, -82, 19, -14, -62, 4, 1, -2, 2, 6, 10, 73, -51, -2, 2, 73, -48, 54, -1, 2, -4, 11, -25, 47, 86, 15, 33, 43, -42], "withholdReward": false, "trial_id": "mdp_trial_2", "block": "test", "trialIndex": 3, "score": 89.25, "costs": -4.75, "simulationMode": [null, null, null, null, null, null], "rewards": [-1, 2, -4, 11, 86], "path": ["0", "0", "23", "24", "25", "26", "29"], "rt": [6524, 852, 242, 239, 541, 1017], "actions": ["left", "left", "left", "left", "up", "left"], "actionTimes": [9579, 10434, 11210, 11958, 13008, 14534], "queries": {"click": {"state": {"target": ["23", "24", "25", "26", "29"], "time": [4310, 5218, 6193, 6993, 7843]}, "edge": {"target": [], "time": []}}, "mouseover": {"state": {"target": ["23", "24", "25", "25", "26", "29", "24", "23", "0"], "time": [4051, 4635, 5652, 5902, 6718, 7601, 8551, 8601, 8650]}, "edge": {"target": [], "time": []}}, "mouseout": {"state": {"target": ["0", "23", "24", "25", "25", "26", "29", "24", "23", "0"], "time": [1885, 4602, 5635, 5669, 6635, 7535, 8384, 8567, 8634, 8667]}, "edge": {"target": [], "time": []}}}, "displayed_time": "17.06", "trialTime": 38004, "trial_type": "mouselab-mdp", "trial_index": 10, "time_elapsed": 542499, "internal_node_id": "0.0-6.0-1.0-1.0"}}, {"uniqueid": "w37024259:a99114769", "current_trial": 11, "dateTime": 1693569216685, "trialdata": {"revealed_states": [], "clicked_states": ["23", "24", "25", "30", "32", "33", "26", "29", "28", "12", "13", "14", "15", "17", "19", "20"], "num_clicks_accrued": [0, 0, 0, 0, 0, 0, 0, 0, 0, 0, 0, 0, 0], "stateRewards": ["", -2, -1, -6, -14, -55, 78, -13, 11, 14, -71, 59, 2, 2, 6, -6, 9, 38, 14, 7, 85, 11, 68, 1, -4, -1, -3, -63, -85, 9, -2, 63, -86, -10], "withholdReward": false, "trial_id": "mdp_trial_3", "block": "test", "trialIndex": 4, "score": 80.8, "costs": -21.2, "simulationMode": [null, null, null, null, null, null], "rewards": [2, 2, 6, 7, 85], "path": ["0", "0", "12", "13", "14", "19", "20"], "rt": [29087, 933, 338, 300, 379, 405], "actions": ["right", "right", "right", "right", "down", "right"], "actionTimes": [31295, 32232, 33082, 33895, 34787, 35713], "queries": {"click": {"state": {"target": ["23", "24", "25", "30", "32", "33", "26", "29", "28", "12", "13", "14", "15", "17", "19", "20"], "time": [3964, 4746, 5640, 6340, 7152, 9978, 13306, 14378, 18003, 21307, 22379, 23310, 24130, 25087, 28087, 29253]}, "edge": {"target": [], "time": []}}, "mouseover": {"state": {"target": ["1", "23", "24", "25", "30", "32", "33", "30", "31", "26", "29", "28", "12", "12", "13", "14", "15", "17", "17", "19", "20", "14", "13", "13"], "time": [2705, 3670, 4325, 5055, 5954, 6771, 7836, 10403, 10635, 12401, 14089, 14883, 18632, 19049, 21847, 23012, 23846, 24579, 24879, 25829, 28859, 30160, 30328, 30576]}, "edge": {"target": [], "time": []}}, "mouseout": {"state": {"target": ["0", "1", "23", "24", "25", "30", "32", "30", "33", "33", "30", "31", "26", "26", "29", "26", "28", "12", "12", "13", "14", "15", "17", "17", "19", "20", "14", "13", "13", "22"], "time": [1322, 3355, 4193, 5004, 5905, 6720, 7570, 7787, 10319, 10369, 10536, 12302, 13377, 13934, 14833, 14866, 18582, 18765, 21714, 22963, 23747, 24546, 24613, 25545, 28743, 29994, 30227, 30377, 37205, 37239]}, "edge": {"target": [], "time": []}}}, "displayed_time": "36.23", "trialTime": 39432, "trial_type": "mouselab-mdp", "trial_index": 11, "time_elapsed": 582224, "internal_node_id": "0.0-6.0-1.0-2.0"}}, {"uniqueid": "w37024259:a99114769", "current_trial": 12, "dateTime": 1693569243247, "trialdata": {"revealed_states": [], "clicked_states": ["12", "13", "14", "19", "20", "15", "16", "17", "18"], "num_clicks_accrued": [0, 0, 0, 0, 0, 0, 0, 0, 0, 0, 0, 0, 0], "stateRewards": ["", -2, 4, -5, -12, 85, -24, -18, -15, -78, -22, 26, -1, -1, 2, 14, -45, 52, -23, 7, -33, 24, -6, -2, -4, 5, -7, -16, 36, -39, 5, 71, -87, -23], "withholdReward": false, "trial_id": "mdp_trial_4", "block": "test", "trialIndex": 5, "score": 53.25, "costs": -12.75, "simulationMode": [null, null, null, null, null, null], "rewards": [-1, -1, 2, 14, 52], "path": ["0", "0", "12", "13", "14", "15", "17"], "rt": [17153, 994, 259, 259, 302, 252], "actions": ["right", "right", "right", "right", "up", "right"], "actionTimes": [19018, 20016, 20806, 21587, 22399, 23174], "queries": {"click": {"state": {"target": ["12", "13", "14", "19", "20", "15", "16", "17", "18"], "time": [3055, 3844, 4916, 5842, 6676, 10154, 11155, 14392, 17815]}, "edge": {"target": [], "time": []}}, "mouseover": {"state": {"target": ["0", "12", "12", "13", "14", "19", "20", "15", "16", "17", "15", "18"], "time": [1933, 2450, 2750, 3517, 4516, 5266, 6315, 7981, 10598, 11981, 14930, 15395]}, "edge": {"target": [], "time": []}}, "mouseout": {"state": {"target": ["0", "0", "12", "12", "13", "14", "19", "20", "14", "15", "16", "16", "17", "15", "18"], "time": [1875, 2250, 2500, 3419, 4183, 5234, 6282, 7449, 7698, 10531, 11214, 11664, 14896, 15096, 18294]}, "edge": {"target": [], "time": []}}}, "displayed_time": "23.70", "trialTime": 26242, "trial_type": "mouselab-mdp", "trial_index": 12, "time_elapsed": 608787, "internal_node_id": "0.0-6.0-1.0-3.0"}}, {"uniqueid": "w37024259:a99114769", "current_trial": 13, "dateTime": 1693569265150, "trialdata": {"revealed_states": [], "clicked_states": ["1", "2", "3", "4", "5", "7"], "num_clicks_accrued": [0, 0, 0, 0, 0, 0, 0, 0, 0, 0, 0, 0, 0], "stateRewards": ["", 1, 2, -3, -5, 66, -50, -47, -5, 1, 28, -27, 1, 1, -1, -6, 37, -25, 56, 1, -82, -66, -40, -1, -4, -7, 15, -61, -23, 26, 10, 14, -56, 29], "withholdReward": false, "trial_id": "mdp_trial_5", "block": "test", "trialIndex": 6, "score": 54.1, "costs": -6.9, "simulationMode": [null, null, null, null, null, null], "rewards": [1, 2, -3, -5, 66], "path": ["0", "0", "1", "2", "3", "4", "5"], "rt": [9470, 722, 299, 350, 331, 385], "actions": ["up", "up", "up", "up", "right", "up"], "actionTimes": [15132, 15859, 16689, 17555, 18402, 19306], "queries": {"click": {"state": {"target": ["1", "2", "3", "4", "5", "7"], "time": [6636, 7541, 8492, 9344, 10059, 13434]}, "edge": {"target": [], "time": []}}, "mouseover": {"state": {"target": ["1", "2", "3", "4", "5", "7"], "time": [6407, 6909, 8042, 9108, 9757, 11224]}, "edge": {"target": [], "time": []}}, "mouseout": {"state": {"target": ["14", "0", "1", "2", "3", "4", "5", "4", "7", "7"], "time": [4607, 5807, 6843, 7842, 8891, 9641, 10391, 10974, 14287, 20801]}, "edge": {"target": [], "time": []}}}, "displayed_time": "19.82", "trialTime": 21548, "trial_type": "mouselab-mdp", "trial_index": 13, "time_elapsed": 630690, "internal_node_id": "0.0-6.0-1.0-4.0"}}, {"uniqueid": "w37024259:a99114769", "current_trial": 14, "dateTime": 1693569293305, "trialdata": {"revealed_states": [], "clicked_states": ["23", "24", "25", "30", "33", "31", "32", "26", "29"], "num_clicks_accrued": [0, 0, 0, 0, 0, 0, 0, 0, 0, 0, 0, 0, 0], "stateRewards": ["", 1, -2, 4, 7, -43, -83, -60, -5, -86, -80, 83, -1, -2, 6, 11, -15, 21, 13, 9, 29, -49, 11, -1, 4, -6, -11, 87, 40, 63, -8, -39, -11, 62], "withholdReward": false, "trial_id": "mdp_trial_6", "block": "test", "trialIndex": 7, "score": 36.25, "costs": -12.750000000000002, "simulationMode": [null, null, null, null, null], "rewards": [-1, 4, -6, -11, 63], "path": ["0", "0", "23", "24", "25", "26", "29"], "rt": [19618, 257, 334, 263, 164], "actions": ["left", "left", "left", "up", "left"], "actionTimes": [22470, 23237, 24080, 24858, 25542], "queries": {"click": {"state": {"target": ["23", "24", "25", "30", "33", "31", "32", "26", "29"], "time": [3841, 4880, 5877, 6783, 7595, 10585, 13997, 16985, 18032]}, "edge": {"target": [], "time": []}}, "mouseover": {"state": {"target": ["23", "24", "25", "30", "33", "31", "32", "30", "25", "29", "26", "29", "28"], "time": [3402, 4453, 5253, 6269, 7218, 9350, 11915, 14449, 14498, 14882, 16681, 17680, 19945]}, "edge": {"target": [], "time": []}}, "mouseout": {"state": {"target": ["18", "12", "23", "24", "25", "30", "33", "30", "31", "32", "30", "25", "29", "26", "29", "26", "28"], "time": [585, 1502, 4320, 5235, 6235, 7151, 9118, 9284, 11132, 14398, 14465, 14648, 16614, 17564, 19745, 19812, 21593]}, "edge": {"target": [], "time": []}}}, "displayed_time": "26.06", "trialTime": 27806, "trial_type": "mouselab-mdp", "trial_index": 14, "time_elapsed": 658844, "internal_node_id": "0.0-6.0-1.0-5.0"}}, {"uniqueid": "w37024259:a99114769", "current_trial": 15, "dateTime": 1693569347187, "trialdata": {"revealed_states": [], "clicked_states": ["12", "13", "14", "19", "21", "15", "17", "16", "18", "1", "2", "3", "4", "7", "6", "5", "8", "9", "23", "24", "25", "30", "31"], "num_clicks_accrued": [0, 0, 0, 0, 0, 0, 0, 0, 0, 0, 0, 0, 0], "stateRewards": ["", -1, 2, -6, 6, -82, -19, -39, -16, -83, 11, -33, -2, -2, 4, -6, -82, -1, -19, -6, -10, -67, -41, -2, 1, -7, 16, -23, -78, -52, 14, 31, -71, 74], "withholdReward": false, "trial_id": "mdp_trial_7", "block": "test", "trialIndex": 8, "score": 6.75, "costs": -30.249999999999996, "simulationMode": [null, null, null, null, null], "rewards": [-2, 1, -7, 14, 31], "path": ["0", "0", "23", "24", "25", "30", "31"], "rt": [46256, 7, 94, 162, 235], "actions": ["left", "left", "left", "down", "right"], "actionTimes": [48548, 49069, 49688, 50358, 51113], "queries": {"click": {"state": {"target": ["12", "13", "14", "19", "21", "15", "17", "16", "18", "1", "2", "3", "4", "7", "6", "5", "8", "9", "23", "24", "25", "30", "31"], "time": [3261, 4042, 4829, 5509, 6457, 10868, 12445, 15919, 19017, 22733, 23633, 24514, 25463, 26424, 29897, 33049, 36821, 37476, 40933, 41848, 42934, 43846, 44815]}, "edge": {"target": [], "time": []}}, "mouseover": {"state": {"target": ["0", "12", "13", "14", "19", "21", "15", "17", "16", "18", "1", "2", "3", "4", "7", "16", "6", "5", "5", "8", "8", "9", "10", "28", "24", "23", "24", "25", "25", "30", "31"], "time": [2848, 2980, 3566, 4365, 5219, 6234, 7886, 11545, 13909, 16359, 19591, 23190, 24139, 25088, 26238, 26838, 27370, 30337, 30652, 33985, 34218, 37166, 38182, 38483, 38600, 38866, 41480, 42247, 42713, 43530, 44499]}, "edge": {"target": [], "time": []}}, "mouseout": {"state": {"target": ["0", "0", "12", "13", "14", "19", "19", "21", "21", "19", "14", "15", "17", "16", "18", "1", "2", "3", "4", "7", "16", "6", "5", "5", "8", "8", "9", "9", "8", "10", "28", "24", "23", "24", "25", "25", "25", "30", "30", "31", "31"], "time": [1514, 2864, 3465, 4315, 5118, 5582, 6049, 6813, 7423, 7537, 7717, 11529, 12743, 16310, 19558, 23090, 23973, 24906, 25955, 26501, 27108, 30286, 30455, 33568, 34035, 36923, 37540, 37832, 38015, 38215, 38549, 38782, 41181, 42230, 42430, 43001, 43363, 43888, 44197, 45396, 48227]}, "edge": {"target": [], "time": []}}}, "displayed_time": "51.63", "trialTime": 53546, "trial_type": "mouselab-mdp", "trial_index": 15, "time_elapsed": 712726, "internal_node_id": "0.0-6.0-1.0-6.0"}}, {"uniqueid": "w37024259:a99114769", "current_trial": 16, "dateTime": 1693569373589, "trialdata": {"revealed_states": [], "clicked_states": ["23", "24", "25", "26", "27", "29", "30", "32", "31"], "num_clicks_accrued": [0, 0, 0, 0, 0, 0, 0, 0, 0, 0, 0, 0, 0], "stateRewards": ["", -2, -3, 4, 1, 33, -53, 15, 9, -12, 61, -6, -2, 4, 6, -11, 47, -43, -7, -11, 46, 23, -28, -1, -1, 3, -10, 11, 76, -76, 10, 18, -38, 87], "withholdReward": false, "trial_id": "mdp_trial_8", "block": "test", "trialIndex": 9, "score": 16.25, "costs": -12.750000000000002, "simulationMode": [null, null, null, null, null], "rewards": [-1, -1, 3, 10, 18], "path": ["0", "0", "23", "24", "25", "30", "31"], "rt": [18973, 89, 152, 321, 440], "actions": ["left", "left", "left", "down", "right"], "actionTimes": [21062, 21660, 22321, 23157, 24109], "queries": {"click": {"state": {"target": ["23", "24", "25", "26", "27", "29", "30", "32", "31"], "time": [2753, 3579, 4301, 5116, 5951, 9350, 12660, 13657, 17412]}, "edge": {"target": [], "time": []}}, "mouseover": {"state": {"target": ["23", "24", "25", "26", "27", "28", "26", "29", "25", "30", "32", "31", "31", "30", "33"], "time": [2542, 3043, 3993, 4676, 5626, 7725, 8158, 8374, 9957, 10107, 13065, 16437, 17269, 18004, 18337]}, "edge": {"target": [], "time": []}}, "mouseout": {"state": {"target": ["22", "12", "0", "23", "24", "24", "25", "26", "27", "28", "26", "29", "25", "30", "32", "32", "31", "31", "30", "33"], "time": [1358, 1491, 2275, 2833, 3666, 3876, 4575, 5409, 7641, 8141, 8208, 9874, 10007, 13028, 14822, 16087, 17136, 17887, 18203, 25231]}, "edge": {"target": [], "time": []}}}, "displayed_time": "24.62", "trialTime": 26067, "trial_type": "mouselab-mdp", "trial_index": 16, "time_elapsed": 739128, "internal_node_id": "0.0-6.0-1.0-7.0"}}, {"uniqueid": "w37024259:a99114769", "current_trial": 17, "dateTime": 1693569415479, "trialdata": {"revealed_states": [], "clicked_states": ["1", "2", "3", "8", "9", "4", "5", "6", "7", "12", "13", "14", "15", "17", "16"], "num_clicks_accrued": [0, 0, 0, 0, 0, 0, 0, 0, 0, 0, 0, 0, 0], "stateRewards": ["", -1, 3, -7, 16, -32, -74, -48, 2, 10, 15, -30, 1, 1, -2, 10, 12, -83, 67, 13, -66, 47, 65, -2, 4, 2, -14, -8, -57, 24, 9, 65, 12, 46], "withholdReward": false, "trial_id": "mdp_trial_9", "block": "test", "trialIndex": 10, "score": 2.3500000000000014, "costs": -19.65, "simulationMode": [null, null, null, null, null], "rewards": [1, 1, -2, 10, 12], "path": ["0", "0", "12", "13", "14", "15", "16"], "rt": [32877, 437, 268, 643, 223], "actions": ["right", "right", "right", "up", "up"], "actionTimes": [35799, 36750, 37530, 38687, 39418], "queries": {"click": {"state": {"target": ["1", "2", "3", "8", "9", "4", "5", "6", "7", "12", "13", "14", "15", "17", "16"], "time": [4695, 5403, 6160, 7154, 8106, 11381, 12451, 15639, 19295, 23585, 25510, 26601, 27390, 28332, 32323]}, "edge": {"target": [], "time": []}}, "mouseover": {"state": {"target": ["12", "1", "2", "3", "8", "9", "5", "4", "5", "6", "7", "18", "13", "12", "13", "14", "14", "15", "17", "17", "20", "15", "16", "18"], "time": [3008, 4424, 4958, 5775, 6663, 7778, 10006, 10407, 11822, 14004, 16220, 22832, 23082, 23348, 24166, 26032, 26282, 27031, 27831, 28147, 31312, 31962, 32114, 32796]}, "edge": {"target": [], "time": []}}, "mouseout": {"state": {"target": ["21", "14", "13", "21", "22", "0", "12", "1", "2", "3", "8", "9", "5", "4", "5", "6", "7", "18", "13", "12", "13", "13", "14", "14", "15", "17", "17", "20", "15", "16", "18", "12"], "time": [1458, 1724, 1858, 2141, 2224, 2598, 3041, 4925, 5502, 6374, 7541, 9607, 10240, 11772, 13804, 16003, 22616, 22849, 23266, 23966, 25587, 25982, 26132, 26915, 27815, 27881, 30947, 31562, 31995, 32630, 40608, 40640]}, "edge": {"target": [], "time": []}}}, "displayed_time": "39.93", "trialTime": 41552, "trial_type": "mouselab-mdp", "trial_index": 17, "time_elapsed": 781018, "internal_node_id": "0.0-6.0-1.0-8.0"}}, {"uniqueid": "w37024259:a99114769", "current_trial": 18, "dateTime": 1693569433916, "trialdata": {"revealed_states": [], "clicked_states": ["12", "13", "14", "19", "20", "21"], "num_clicks_accrued": [0, 0, 0, 0, 0, 0, 0, 0, 0, 0, 0, 0, 0], "stateRewards": ["", 1, -1, 1, 13, 31, -56, 72, 2, 41, 5, 63, -2, -3, -2, 3, -71, -26, 52, 13, -31, 24, -67, 2, -2, 5, 4, 66, 43, 72, 9, 86, -26, 44], "withholdReward": false, "trial_id": "mdp_trial_10", "block": "test", "trialIndex": 11, "score": 23.1, "costs": -6.9, "simulationMode": [null, null, null, null, null], "rewards": [-2, -3, -2, 13, 24], "path": ["0", "0", "12", "13", "14", "19", "21"], "rt": [11607, 2, 118, 73, 99], "actions": ["right", "right", "right", "down", "down"], "actionTimes": [13576, 14101, 14754, 15337, 15947], "queries": {"click": {"state": {"target": ["12", "13", "14", "19", "20", "21"], "time": [2799, 3505, 4444, 5232, 5962, 9365]}, "edge": {"target": [], "time": []}}, "mouseover": {"state": {"target": ["12", "12", "13", "14", "19", "19", "20", "21", "22"], "time": [2234, 2569, 3369, 4160, 4739, 4908, 5671, 8050, 9932]}, "edge": {"target": [], "time": []}}, "mouseout": {"state": {"target": ["0", "12", "12", "13", "14", "19", "19", "20", "21", "22"], "time": [2085, 2267, 2995, 3955, 4687, 4770, 5500, 6352, 9799, 17178]}, "edge": {"target": [], "time": []}}}, "displayed_time": "16.46", "trialTime": 18102, "trial_type": "mouselab-mdp", "trial_index": 18, "time_elapsed": 799456, "internal_node_id": "0.0-6.0-1.0-9.0"}}, {"uniqueid": "w37024259:a99114769", "current_trial": 19, "dateTime": 1693569456971, "trialdata": {"revealed_states": [], "clicked_states": ["23", "24", "25", "26", "27", "28", "29"], "num_clicks_accrued": [0, 0, 0, 0, 0, 0, 0, 0, 0, 0, 0, 0, 0], "stateRewards": ["", 2, -1, -2, -5, -47, -57, -33, -11, 31, -18, -72, -2, 1, -4, -8, -46, -53, -50, 15, -85, -9, 39, -2, -2, 1, 14, -1, -8, 53, -12, -41, -74, 62], "withholdReward": false, "trial_id": "mdp_trial_11", "block": "test", "trialIndex": 12, "score": 54.95, "costs": -9.05, "simulationMode": [null, null, null, null, null], "rewards": [-2, -2, 1, 14, 53], "path": ["0", "0", "23", "24", "25", "26", "29"], "rt": [14200, 389, 320, 626, 582], "actions": ["left", "left", "left", "up", "left"], "actionTimes": [15764, 16671, 17502, 18640, 19730], "queries": {"click": {"state": {"target": ["23", "24", "25", "26", "27", "28", "29"], "time": [2294, 3045, 3680, 4371, 5222, 8599, 11774]}, "edge": {"target": [], "time": []}}, "mouseover": {"state": {"target": ["23", "24", "24", "25", "26", "27", "28", "28", "28", "26", "29", "25", "30", "30"], "time": [2052, 2504, 2820, 3436, 4069, 5019, 5569, 6735, 6918, 9268, 9784, 12400, 12466, 12733]}, "edge": {"target": [], "time": []}}, "mouseout": {"state": {"target": ["0", "23", "24", "24", "25", "26", "27", "28", "28", "28", "28", "26", "29", "25", "30", "30"], "time": [1652, 2487, 2554, 3387, 3937, 4769, 5553, 5619, 6753, 8884, 9202, 9303, 12333, 12433, 12516, 21327]}, "edge": {"target": [], "time": []}}}, "displayed_time": "20.25", "trialTime": 22716, "trial_type": "mouselab-mdp", "trial_index": 19, "time_elapsed": 822511, "internal_node_id": "0.0-6.0-1.0-10.0"}}, {"uniqueid": "w37024259:a99114769", "current_trial": 20, "dateTime": 1693569484137, "trialdata": {"revealed_states": [], "clicked_states": ["1", "2", "3", "8", "9", "10", "11", "4", "5"], "num_clicks_accrued": [0, 0, 0, 0, 0, 0, 0, 0, 0, 0, 0, 0, 0], "stateRewards": ["", -1, 3, 2, 9, 41, 4, -46, -12, -54, -87, -25, 2, 3, -1, 11, -77, 12, -33, -9, -32, 35, 72, 1, 3, -7, 4, 37, 65, -73, 6, 77, -43, 8], "withholdReward": false, "trial_id": "mdp_trial_12", "block": "test", "trialIndex": 13, "score": 41.25, "costs": -12.750000000000002, "simulationMode": [null, null, null, null, null], "rewards": [-1, 3, 2, 9, 41], "path": ["0", "0", "1", "2", "3", "4", "5"], "rt": [19623, 22, 155, 65, 73], "actions": ["up", "up", "up", "right", "up"], "actionTimes": [22448, 22987, 23662, 24237, 24827], "queries": {"click": {"state": {"target": ["1", "2", "3", "8", "9", "10", "11", "4", "5"], "time": [3902, 4688, 5391, 6415, 7254, 10527, 13665, 16870, 18245]}, "edge": {"target": [], "time": []}}, "mouseover": {"state": {"target": ["0", "23", "1", "2", "3", "8", "9", "10", "11", "8", "3", "4", "4", "5", "6"], "time": [3095, 3245, 3578, 4113, 5096, 6178, 6895, 9094, 10959, 14075, 14109, 14130, 14442, 17361, 18690]}, "edge": {"target": [], "time": []}}, "mouseout": {"state": {"target": ["12", "0", "0", "0", "23", "1", "2", "3", "8", "9", "8", "10", "11", "8", "3", "4", "4", "5", "5", "6", "12"], "time": [1796, 1978, 2865, 3145, 3295, 4063, 4751, 5917, 6729, 8611, 8710, 10859, 14058, 14092, 14125, 14241, 17307, 18354, 18649, 25685, 25785]}, "edge": {"target": [], "time": []}}}, "displayed_time": "25.34", "trialTime": 26819, "trial_type": "mouselab-mdp", "trial_index": 20, "time_elapsed": 849676, "internal_node_id": "0.0-6.0-1.0-11.0"}}, {"uniqueid": "w37024259:a99114769", "current_trial": 21, "dateTime": 1693569504022, "trialdata": {"revealed_states": [], "clicked_states": ["1", "2", "3", "4", "7", "6"], "num_clicks_accrued": [0, 0, 0, 0, 0, 0, 0, 0, 0, 0, 0, 0, 0], "stateRewards": ["", -2, 3, -5, -7, 66, 43, -60, -4, -70, -75, 4, -1, 2, 2, -13, 54, 11, -40, -1, 77, 32, 15, -2, 3, -8, -9, -35, 83, -27, 6, -74, -34, 44], "withholdReward": false, "trial_id": "mdp_trial_13", "block": "test", "trialIndex": 14, "score": 25.1, "costs": -6.9, "simulationMode": [null, null, null, null, null], "rewards": [-2, 3, -5, -7, 43], "path": ["0", "0", "1", "2", "3", "4", "6"], "rt": [12780, 228, 305, 75, 212], "actions": ["up", "up", "up", "right", "right"], "actionTimes": [14692, 15428, 16254, 16840, 17562], "queries": {"click": {"state": {"target": ["1", "2", "3", "4", "7", "6"], "time": [3307, 4029, 4847, 5602, 6370, 10443]}, "edge": {"target": [], "time": []}}, "mouseover": {"state": {"target": ["12", "1", "1", "2", "3", "4", "7", "6", "18", "12", "12", "23", "24", "23"], "time": [2252, 2902, 3135, 3637, 4503, 5370, 6088, 7886, 11117, 11383, 11652, 12166, 12216, 12633]}, "edge": {"target": [], "time": []}}, "mouseout": {"state": {"target": ["0", "12", "1", "1", "2", "3", "4", "7", "6", "18", "12", "12", "23", "24", "23"], "time": [1970, 2302, 2936, 3317, 4286, 5170, 6019, 6471, 11034, 11217, 11417, 12083, 12182, 12483, 18712]}, "edge": {"target": [], "time": []}}}, "displayed_time": "18.08", "trialTime": 19523, "trial_type": "mouselab-mdp", "trial_index": 21, "time_elapsed": 869561, "internal_node_id": "0.0-6.0-1.0-12.0"}}, {"uniqueid": "w37024259:a99114769", "current_trial": 22, "dateTime": 1693569520927, "trialdata": {"revealed_states": [], "clicked_states": ["23", "24", "25", "30", "31", "32"], "num_clicks_accrued": [0, 0, 0, 0, 0, 0, 0, 0, 0, 0, 0, 0, 0], "stateRewards": ["", -1, -3, -7, -7, -76, 30, -49, 11, -70, 56, 2, 1, 4, -3, -14, -59, -83, -25, -9, -21, -67, -73, -2, 4, 4, -9, -11, -32, 60, 9, -87, 22, -64], "withholdReward": false, "trial_id": "mdp_trial_14", "block": "test", "trialIndex": 15, "score": 30.1, "costs": -6.9, "simulationMode": [null, null, null, null, null], "rewards": [-2, 4, 4, 9, 22], "path": ["0", "0", "23", "24", "25", "30", "32"], "rt": [10619, 111, 239, 256, 190], "actions": ["left", "left", "left", "down", "down"], "actionTimes": [12208, 12831, 13591, 14358, 15059], "queries": {"click": {"state": {"target": ["23", "24", "25", "30", "31", "32"], "time": [2373, 3097, 4081, 4714, 5366, 8857]}, "edge": {"target": [], "time": []}}, "mouseover": {"state": {"target": ["1", "23", "24", "25", "25", "25", "30", "31", "32", "33"], "time": [1704, 2037, 2705, 3339, 3556, 3872, 4422, 5088, 8302, 9486]}, "edge": {"target": [], "time": []}}, "mouseout": {"state": {"target": ["1", "23", "24", "25", "25", "25", "25", "30", "31", "31", "31", "32"], "time": [1971, 2588, 3182, 3372, 3596, 4163, 4338, 5005, 5638, 7920, 8104, 8935]}, "edge": {"target": [], "time": []}}}, "displayed_time": "15.59", "trialTime": 16540, "trial_type": "mouselab-mdp", "trial_index": 22, "time_elapsed": 886467, "internal_node_id": "0.0-6.0-1.0-13.0"}}, {"uniqueid": "w37024259:a99114769", "current_trial": 23, "dateTime": 1693569552752, "trialdata": {"revealed_states": [], "clicked_states": ["12", "13", "14", "19", "22"], "num_clicks_accrued": [0, 0, 0, 0, 0, 0, 0, 0, 0, 0, 0, 0, 0], "stateRewards": ["", 1, 1, 1, -3, -7, -1, -41, -10, 20, -72, -63, 1, -4, -2, 2, -66, 30, -84, -2, 49, 23, 71, -1, -4, 4, -12, 67, 5, 18, -16, 88, 56, -5], "withholdReward": false, "trial_id": "mdp_trial_15", "block": "test", "trialIndex": 16, "score": 59.25, "costs": -4.75, "simulationMode": [null, null, null, null, null], "rewards": [1, -4, -2, -2, 71], "path": ["0", "0", "12", "13", "14", "19", "22"], "rt": [7538, 101, 151, 388, 413], "actions": ["right", "right", "right", "down", "left"], "actionTimes": [23501, 24122, 24788, 25692, 26618], "queries": {"click": {"state": {"target": ["12", "13", "14", "19", "22"], "time": [16941, 17659, 18562, 19278, 19925]}, "edge": {"target": [], "time": []}}, "mouseover": {"state": {"target": ["1", "12", "13", "12", "13", "14", "19", "22", "20", "15"], "time": [16055, 16355, 16508, 16672, 17408, 18131, 18983, 19624, 20243, 20838]}, "edge": {"target": [], "time": []}}, "mouseout": {"state": {"target": ["33", "30", "31", "0", "0", "1", "12", "13", "12", "13", "14", "14", "19", "22", "20", "15", "17"], "time": [595, 661, 679, 15188, 15989, 16255, 16438, 16592, 17284, 18110, 18709, 18960, 19576, 20192, 20373, 28583, 28866]}, "edge": {"target": [], "time": []}}}, "displayed_time": "29.97", "trialTime": 31479, "trial_type": "mouselab-mdp", "trial_index": 23, "time_elapsed": 918291, "internal_node_id": "0.0-6.0-1.0-14.0"}}, {"uniqueid": "w37024259:a99114769", "current_trial": 24, "dateTime": 1693569585764, "trialdata": {"revealed_states": [], "clicked_states": ["1", "2", "3", "8", "9"], "num_clicks_accrued": [0, 0, 0, 0, 0, 0, 0, 0, 0, 0, 0, 0, 0], "stateRewards": ["", -2, 3, 3, -14, 62, 36, 49, 16, 11, 17, -84, 2, -1, 6, 2, -82, -73, 49, -6, -87, 48, 50, -1, -2, -1, -16, -11, 37, -44, 4, 55, 73, -10], "withholdReward": false, "trial_id": "mdp_trial_16", "block": "test", "trialIndex": 17, "score": 26.25, "costs": -4.75, "simulationMode": [null, null, null, null, null], "rewards": [-2, 3, 3, 16, 11], "path": ["0", "0", "1", "2", "3", "8", "9"], "rt": [7868, 158, 65, 227, 141], "actions": ["up", "up", "up", "left", "up"], "actionTimes": [25051, 25720, 26294, 27037, 27692], "queries": {"click": {"state": {"target": ["1", "2", "3", "8", "9"], "time": [18069, 18626, 19272, 20232, 20874]}, "edge": {"target": [], "time": []}}, "mouseover": {"state": {"target": ["1", "2", "3", "8", "9", "4", "6"], "time": [17795, 18330, 18942, 20029, 20512, 21300, 21346]}, "edge": {"target": [], "time": []}}, "mouseout": {"state": {"target": ["14", "13", "12", "0", "1", "2", "3", "8", "9", "9", "4", "6"], "time": [15979, 16047, 16179, 17512, 18078, 18720, 19368, 20462, 20979, 21212, 21315, 21362]}, "edge": {"target": [], "time": []}}}, "displayed_time": "31.18", "trialTime": 32613, "trial_type": "mouselab-mdp", "trial_index": 24, "time_elapsed": 951303, "internal_node_id": "0.0-6.0-1.0-15.0"}}, {"uniqueid": "w37024259:a99114769", "current_trial": 25, "dateTime": 1693569607284, "trialdata": {"revealed_states": [], "clicked_states": ["1", "2", "3", "4", "5", "6", "7"], "num_clicks_accrued": [0, 0, 0, 0, 0, 0, 0, 0, 0, 0, 0, 0, 0], "stateRewards": ["", -1, 2, 5, -6, 13, -64, -47, 8, -79, -80, -33, 1, 2, -2, -16, 56, -71, -10, 3, 29, 44, 85, -1, 4, 5, 4, -36, -56, 19, 8, 52, -13, -2], "withholdReward": false, "trial_id": "mdp_trial_17", "block": "test", "trialIndex": 18, "score": 3.9499999999999993, "costs": -9.05, "simulationMode": [null, null, null, null, null], "rewards": [-1, 2, 5, -6, 13], "path": ["0", "0", "1", "2", "3", "4", "5"], "rt": [14116, 53, 156, 36, 83], "actions": ["up", "up", "up", "right", "up"], "actionTimes": [16102, 16667, 17352, 17898, 18493], "queries": {"click": {"state": {"target": ["1", "2", "3", "4", "5", "6", "7"], "time": [2428, 3016, 3692, 4242, 4857, 8803, 12009]}, "edge": {"target": [], "time": []}}, "mouseover": {"state": {"target": ["1", "2", "3", "4", "5", "6", "7"], "time": [2106, 2700, 3365, 3916, 4549, 7265, 9447]}, "edge": {"target": [], "time": []}}, "mouseout": {"state": {"target": ["18", "1", "2", "3", "4", "5", "5", "4", "4", "6", "7", "12"], "time": [1048, 2566, 3183, 3899, 4434, 4910, 5111, 5188, 6931, 9130, 14897, 20175]}, "edge": {"target": [], "time": []}}}, "displayed_time": "19.02", "trialTime": 21111, "trial_type": "mouselab-mdp", "trial_index": 25, "time_elapsed": 972823, "internal_node_id": "0.0-6.0-1.0-16.0"}}, {"uniqueid": "w37024259:a99114769", "current_trial": 26, "dateTime": 1693569626874, "trialdata": {"revealed_states": [], "clicked_states": ["23", "24", "25", "30", "31"], "num_clicks_accrued": [0, 0, 0, 0, 0, 0, 0, 0, 0, 0, 0, 0, 0], "stateRewards": ["", -1, -3, -5, -14, -13, -47, 79, 8, -60, -64, 41, -1, 2, 3, 13, -46, 61, -79, -11, -64, -65, 23, 1, -2, 6, -14, 46, 32, 21, 7, 75, -66, 15], "withholdReward": false, "trial_id": "mdp_trial_18", "block": "test", "trialIndex": 19, "score": 82.25, "costs": -4.75, "simulationMode": [null, null, null, null, null], "rewards": [1, -2, 6, 7, 75], "path": ["0", "0", "23", "24", "25", "30", "31"], "rt": [7774, 603, 210, 116, 230], "actions": ["left", "left", "left", "down", "right"], "actionTimes": [11006, 12128, 12851, 13489, 14236], "queries": {"click": {"state": {"target": ["23", "24", "25", "30", "31"], "time": [4187, 4962, 5709, 6268, 7029]}, "edge": {"target": [], "time": []}}, "mouseover": {"state": {"target": ["23", "23", "24", "25", "30", "31", "32"], "time": [3659, 3975, 4726, 5464, 6006, 6793, 9258]}, "edge": {"target": [], "time": []}}, "mouseout": {"state": {"target": ["0", "23", "23", "24", "25", "30", "31", "30", "32"], "time": [3592, 3676, 4377, 5260, 5955, 6481, 8991, 9141, 10306]}, "edge": {"target": [], "time": []}}}, "displayed_time": "17.23", "trialTime": 19189, "trial_type": "mouselab-mdp", "trial_index": 26, "time_elapsed": 992414, "internal_node_id": "0.0-6.0-1.0-17.0"}}, {"uniqueid": "w37024259:a99114769", "current_trial": 27, "dateTime": 1693569663506, "trialdata": {"revealed_states": [], "clicked_states": ["23", "24", "25", "30", "31", "32", "33", "12", "13", "14", "15", "16", "19", "21"], "num_clicks_accrued": [0, 0, 0, 0, 0, 0, 0, 0, 0, 0, 0, 0, 0], "stateRewards": ["", -2, -1, 3, -3, 71, -58, -21, 7, -10, -75, -37, 2, 4, -1, -12, -79, -29, -48, 3, -41, -10, -30, -1, -2, 1, -15, 13, 66, 22, -1, -42, -86, -55], "withholdReward": false, "trial_id": "mdp_trial_19", "block": "test", "trialIndex": 20, "score": -50.5, "costs": -17.5, "simulationMode": [null, null, null, null, null], "rewards": [2, 4, -1, 3, -41], "path": ["0", "0", "12", "13", "14", "19", "20"], "rt": [28173, 99, 85, 50, 195], "actions": ["right", "right", "right", "down", "right"], "actionTimes": [29987, 30599, 31205, 31768, 32498], "queries": {"click": {"state": {"target": ["23", "24", "25", "30", "31", "32", "33", "12", "13", "14", "15", "16", "19", "21"], "time": [2527, 3228, 4219, 4986, 5675, 10331, 13479, 16685, 17565, 18147, 18981, 19630, 22887, 25116]}, "edge": {"target": [], "time": []}}, "mouseover": {"state": {"target": ["23", "24", "25", "30", "31", "32", "33", "0", "12", "12", "13", "14", "15", "16", "14", "19", "21", "20"], "time": [2359, 2961, 3868, 4570, 5492, 9672, 11990, 13922, 13941, 14405, 17204, 17903, 18787, 19420, 22201, 22516, 23418, 26316]}, "edge": {"target": [], "time": []}}, "mouseout": {"state": {"target": ["0", "23", "24", "25", "30", "31", "32", "33", "0", "12", "12", "13", "13", "14", "14", "15", "16", "15", "14", "19", "21", "20"], "time": [2009, 2794, 3627, 4528, 5410, 9040, 11024, 13872, 13939, 14122, 17038, 17578, 17846, 18212, 18720, 19047, 21918, 22086, 22418, 23351, 25584, 26333]}, "edge": {"target": [], "time": []}}}, "displayed_time": "33.02", "trialTime": 36245, "trial_type": "mouselab-mdp", "trial_index": 27, "time_elapsed": 1029045, "internal_node_id": "0.0-6.0-1.0-18.0"}}, {"uniqueid": "w37024259:a99114769", "current_trial": 28, "dateTime": 1693569680754, "trialdata": {"revealed_states": [], "clicked_states": ["1", "2", "3", "4", "5", "6"], "num_clicks_accrued": [0, 0, 0, 0, 0, 0, 0, 0, 0, 0, 0, 0, 0], "stateRewards": ["", -1, 3, 8, 9, -53, 20, -84, 2, -28, -62, -31, -1, -2, -7, 2, 51, 58, 45, -4, -17, -41, 36, 2, -2, -7, -15, 29, -54, -37, -16, -43, 65, -17], "withholdReward": false, "trial_id": "mdp_trial_20", "block": "test", "trialIndex": 21, "score": 32.1, "costs": -6.9, "simulationMode": [null, null, null, null, null], "rewards": [-1, 3, 8, 9, 20], "path": ["0", "0", "1", "2", "3", "4", "6"], "rt": [10931, 34, 310, 26, 59], "actions": ["up", "up", "up", "right", "right"], "actionTimes": [12662, 13211, 14053, 14586, 15170], "queries": {"click": {"state": {"target": ["1", "2", "3", "4", "5", "6"], "time": [2546, 3112, 3964, 4576, 5222, 8413]}, "edge": {"target": [], "time": []}}, "mouseover": {"state": {"target": ["1", "2", "3", "4", "5", "6", "7"], "time": [2296, 2830, 3597, 4164, 4946, 6812, 9010]}, "edge": {"target": [], "time": []}}, "mouseout": {"state": {"target": ["13", "12", "1", "2", "3", "3", "4", "5", "6", "6", "7"], "time": [879, 929, 2764, 3322, 4032, 4147, 4638, 5817, 8503, 8744, 11941]}, "edge": {"target": [], "time": []}}}, "displayed_time": "15.73", "trialTime": 16863, "trial_type": "mouselab-mdp", "trial_index": 28, "time_elapsed": 1046293, "internal_node_id": "0.0-6.0-1.0-19.0"}}, {"uniqueid": "w37024259:a99114769", "current_trial": 29, "dateTime": 1693569703323, "trialdata": {"revealed_states": [], "clicked_states": ["23", "24", "25", "12", "13", "14", "15", "17", "16"], "num_clicks_accrued": [0, 0, 0, 0, 0, 0, 0, 0, 0, 0, 0, 0, 0], "stateRewards": ["", -1, 2, 7, 8, 75, 67, -11, 6, 52, -17, 38, -1, 4, -8, 14, 74, -37, -17, -12, 52, 55, 71, -2, -1, -5, 2, 21, 6, -88, -14, 64, -61, -47], "withholdReward": false, "trial_id": "mdp_trial_21", "block": "test", "trialIndex": 22, "score": 75.05, "costs": -7.949999999999999, "simulationMode": [null, null, null, null, null], "rewards": [-1, 4, -8, 14, 74], "path": ["0", "0", "12", "13", "14", "15", "16"], "rt": [13444, 19, 283, 465, 185], "actions": ["right", "right", "right", "up", "up"], "actionTimes": [17008, 17539, 18353, 19334, 20042], "queries": {"click": {"state": {"target": ["23", "24", "25", "12", "13", "14", "15", "17", "16"], "time": [4753, 5584, 6354, 7316, 7934, 8633, 9284, 9916, 13154]}, "edge": {"target": [], "time": []}}, "mouseover": {"state": {"target": ["0", "23", "24", "25", "0", "12", "13", "14", "15", "17", "16", "16"], "time": [3577, 4473, 5358, 6040, 6760, 7090, 7728, 8406, 9006, 9623, 12305, 12604]}, "edge": {"target": [], "time": []}}, "mouseout": {"state": {"target": ["0", "0", "23", "24", "25", "24", "23", "0", "12", "13", "14", "15", "17", "16", "16"], "time": [3240, 4173, 5075, 5848, 6691, 6723, 6757, 6790, 7640, 8306, 8646, 9572, 12088, 12321, 13553]}, "edge": {"target": [], "time": []}}}, "displayed_time": "20.55", "trialTime": 22185, "trial_type": "mouselab-mdp", "trial_index": 29, "time_elapsed": 1068862, "internal_node_id": "0.0-6.0-1.0-20.0"}}, {"uniqueid": "w37024259:a99114769", "current_trial": 30, "dateTime": 1693569735980, "trialdata": {"revealed_states": [], "clicked_states": ["23", "24", "25", "26", "28", "27", "29", "30", "1", "2", "3", "4", "5"], "num_clicks_accrued": [0, 0, 0, 0, 0, 0, 0, 0, 0, 0, 0, 0, 0], "stateRewards": ["", -1, 4, -3, 3, 57, -61, 5, -11, 23, -1, 34, -2, -4, -1, -13, 27, 38, -36, 4, -45, 21, 88, 1, -2, -1, 1, -69, -5, -78, -12, -9, 38, -54], "withholdReward": false, "trial_id": "mdp_trial_22", "block": "test", "trialIndex": 23, "score": 44.65, "costs": -15.350000000000001, "simulationMode": [null, null, null, null, null], "rewards": [-1, 4, -3, 3, 57], "path": ["0", "0", "1", "2", "3", "4", "5"], "rt": [24079, 144, 220, 15, 317], "actions": ["up", "up", "up", "right", "up"], "actionTimes": [27166, 27832, 28559, 29086, 29938], "queries": {"click": {"state": {"target": ["23", "24", "25", "26", "28", "27", "29", "30", "1", "2", "3", "4", "5"], "time": [4285, 4990, 6027, 6633, 7529, 10768, 14066, 17203, 20185, 20900, 21849, 22549, 23208]}, "edge": {"target": [], "time": []}}, "mouseover": {"state": {"target": ["0", "23", "23", "24", "25", "25", "26", "28", "27", "25", "29", "29", "25", "30", "31", "31", "12", "13", "12", "1", "1", "2", "3", "3", "4", "5"], "time": [3680, 3747, 4163, 4597, 5266, 5797, 6380, 7313, 9262, 11681, 12011, 12220, 14493, 14860, 17647, 18291, 19040, 19073, 19539, 19656, 19941, 20574, 21246, 21640, 22240, 22906]}, "edge": {"target": [], "time": []}}, "mouseout": {"state": {"target": ["14", "0", "0", "23", "23", "24", "25", "25", "26", "28", "26", "27", "25", "29", "29", "25", "30", "31", "31", "12", "13", "12", "1", "1", "2", "3", "3", "4", "5", "4", "15", "13"], "time": [1913, 3396, 3729, 3812, 4531, 5249, 5306, 6163, 6880, 8645, 9029, 11080, 11844, 12027, 14314, 14593, 17628, 17670, 18973, 19057, 19472, 19590, 19689, 20490, 21205, 21340, 22156, 22823, 23489, 23555, 31401, 31450]}, "edge": {"target": [], "time": []}}}, "displayed_time": "30.45", "trialTime": 32276, "trial_type": "mouselab-mdp", "trial_index": 30, "time_elapsed": 1101520, "internal_node_id": "0.0-6.0-1.0-21.0"}}, {"uniqueid": "w37024259:a99114769", "current_trial": 31, "dateTime": 1693569754307, "trialdata": {"revealed_states": [], "clicked_states": ["1", "2", "3", "8", "10"], "num_clicks_accrued": [0, 0, 0, 0, 0, 0, 0, 0, 0, 0, 0, 0, 0], "stateRewards": ["", -1, -4, 8, 8, -68, 47, 24, -7, -61, 49, -69, -1, -1, 8, -7, 42, 1, -45, -11, 10, -63, -6, 1, 4, 6, -16, 79, -37, -58, -12, 81, 18, -53], "withholdReward": false, "trial_id": "mdp_trial_23", "block": "test", "trialIndex": 24, "score": 40.25, "costs": -4.75, "simulationMode": [null, null, null, null, null], "rewards": [-1, -4, 8, -7, 49], "path": ["0", "0", "1", "2", "3", "8", "10"], "rt": [7435, 136, 289, 130, 562], "actions": ["up", "up", "up", "left", "down"], "actionTimes": [9234, 9891, 10694, 11335, 12416], "queries": {"click": {"state": {"target": ["1", "2", "3", "8", "10"], "time": [2750, 3333, 3904, 4599, 5101]}, "edge": {"target": [], "time": []}}, "mouseover": {"state": {"target": ["1", "1", "2", "3", "8", "10", "4"], "time": [2089, 2572, 3022, 3673, 4340, 4852, 6139]}, "edge": {"target": [], "time": []}}, "mouseout": {"state": {"target": ["22", "0", "1", "1", "2", "3", "8", "10", "10", "2", "4", "12"], "time": [824, 2056, 2122, 2837, 3590, 3978, 4773, 5475, 5739, 6056, 16467, 17066]}, "edge": {"target": [], "time": []}}}, "displayed_time": "15.80", "trialTime": 17910, "trial_type": "mouselab-mdp", "trial_index": 31, "time_elapsed": 1119847, "internal_node_id": "0.0-6.0-1.0-22.0"}}, {"uniqueid": "w37024259:a99114769", "current_trial": 32, "dateTime": 1693569771089, "trialdata": {"revealed_states": [], "clicked_states": ["12", "13", "14", "19", "20"], "num_clicks_accrued": [0, 0, 0, 0, 0, 0, 0, 0, 0, 0, 0, 0, 0], "stateRewards": ["", 2, 3, 6, -12, -29, 12, 87, 4, 35, -30, 67, 2, 3, -5, -9, 44, 69, -8, 1, 45, -8, 28, -2, -1, -8, 11, -12, -5, 81, 9, 87, 82, 88], "withholdReward": false, "trial_id": "mdp_trial_24", "block": "test", "trialIndex": 25, "score": 41.25, "costs": -4.75, "simulationMode": [null, null, null, null, null], "rewards": [2, 3, -5, 1, 45], "path": ["0", "0", "12", "13", "14", "19", "20"], "rt": [8974, 116, 177, 99, 212], "actions": ["right", "right", "right", "down", "right"], "actionTimes": [10087, 10725, 11419, 12025, 12753], "queries": {"click": {"state": {"target": ["12", "13", "14", "19", "20"], "time": [3099, 4162, 4816, 5445, 6055]}, "edge": {"target": [], "time": []}}, "mouseover": {"state": {"target": ["12", "12", "13", "13", "14", "19", "20", "21"], "time": [1228, 2893, 3445, 3945, 4401, 5144, 5730, 8525]}, "edge": {"target": [], "time": []}}, "mouseout": {"state": {"target": ["0", "12", "12", "13", "13", "14", "19", "19", "20", "21"], "time": [1210, 1277, 3315, 3577, 4365, 5043, 5505, 5660, 8376, 14338]}, "edge": {"target": [], "time": []}}}, "displayed_time": "15.12", "trialTime": 16337, "trial_type": "mouselab-mdp", "trial_index": 32, "time_elapsed": 1136628, "internal_node_id": "0.0-6.0-1.0-23.0"}}, {"uniqueid": "w37024259:a99114769", "current_trial": 33, "dateTime": 1693569796669, "trialdata": {"revealed_states": [], "clicked_states": ["23", "24", "25", "26", "27", "30", "31", "32", "33"], "num_clicks_accrued": [0, 0, 0, 0, 0, 0, 0, 0, 0, 0, 0, 0, 0], "stateRewards": ["", -2, -1, -3, -1, -78, -6, 2, -1, 22, -88, 32, 2, 2, -7, -8, -51, -17, 54, 2, -44, 54, 75, 2, -2, -8, -15, -29, 12, -67, 15, -1, -47, -47], "withholdReward": false, "trial_id": "mdp_trial_25", "block": "test", "trialIndex": 26, "score": -6.75, "costs": -12.75, "simulationMode": [null, null, null, null, null], "rewards": [2, -2, -8, 15, -1], "path": ["0", "0", "23", "24", "25", "30", "31"], "rt": [18641, 166, 152, 111, 158], "actions": ["left", "left", "left", "down", "right"], "actionTimes": [20134, 20810, 21477, 22103, 22782], "queries": {"click": {"state": {"target": ["23", "24", "25", "26", "27", "30", "31", "32", "33"], "time": [2456, 3026, 3648, 4191, 5226, 8587, 9826, 13509, 16841]}, "edge": {"target": [], "time": []}}, "mouseover": {"state": {"target": ["23", "24", "25", "26", "27", "27", "30", "32", "31", "32", "33", "30"], "time": [2315, 2783, 3316, 3965, 4569, 5032, 6431, 8978, 9549, 13242, 15376, 17195]}, "edge": {"target": [], "time": []}}, "mouseout": {"state": {"target": ["12", "0", "23", "23", "24", "25", "26", "27", "27", "26", "25", "30", "32", "31", "32", "31", "33", "30"], "time": [948, 1115, 2484, 2743, 3283, 3833, 4482, 4732, 5514, 5648, 6381, 8926, 9335, 11162, 13911, 14027, 17192, 17226]}, "edge": {"target": [], "time": []}}}, "displayed_time": "23.29", "trialTime": 25147, "trial_type": "mouselab-mdp", "trial_index": 33, "time_elapsed": 1162209, "internal_node_id": "0.0-6.0-1.0-24.0"}}, {"uniqueid": "w37024259:a99114769", "current_trial": 34, "dateTime": 1693569814079, "trialdata": {"revealed_states": [], "clicked_states": ["1", "2", "3", "8", "10"], "num_clicks_accrued": [0, 0, 0, 0, 0, 0, 0, 0, 0, 0, 0, 0, 0], "stateRewards": ["", 2, 3, -6, -5, -3, 55, 40, 11, 61, 11, 51, 2, -4, -6, 9, -25, 29, -15, -6, 7, -77, -2, -2, -4, 1, 14, -43, -1, 56, -12, -54, 41, -74], "withholdReward": false, "trial_id": "mdp_trial_26", "block": "test", "trialIndex": 27, "score": 16.25, "costs": -4.75, "simulationMode": [null, null, null, null, null], "rewards": [2, 3, -6, 11, 11], "path": ["0", "0", "1", "2", "3", "8", "10"], "rt": [7397, 180, 294, 202, 430], "actions": ["up", "up", "up", "left", "down"], "actionTimes": [8749, 9461, 10265, 10989, 11933], "queries": {"click": {"state": {"target": ["1", "2", "3", "8", "10"], "time": [2368, 2866, 3547, 4189, 4725]}, "edge": {"target": [], "time": []}}, "mouseover": {"state": {"target": ["1", "2", "3", "8", "10", "1"], "time": [2088, 2638, 3156, 3889, 4388, 6837]}, "edge": {"target": [], "time": []}}, "mouseout": {"state": {"target": ["0", "1", "2", "3", "8", "8", "10", "1"], "time": [2055, 2460, 3089, 3839, 4236, 4355, 5159, 7404]}, "edge": {"target": [], "time": []}}}, "displayed_time": "15.35", "trialTime": 16991, "trial_type": "mouselab-mdp", "trial_index": 34, "time_elapsed": 1179619, "internal_node_id": "0.0-6.0-1.0-25.0"}}, {"uniqueid": "w37024259:a99114769", "current_trial": 35, "dateTime": 1693569831719, "trialdata": {"revealed_states": [], "clicked_states": ["12", "13", "14", "19", "22"], "num_clicks_accrued": [0, 0, 0, 0, 0, 0, 0, 0, 0, 0, 0, 0, 0], "stateRewards": ["", 2, -3, 5, 11, -79, 54, 11, -9, -78, 33, 22, -2, -1, 2, 14, 43, 34, 1, 10, 49, -65, 39, -1, 1, -1, 3, -16, -2, 11, 2, 12, 48, -65], "withholdReward": false, "trial_id": "mdp_trial_27", "block": "test", "trialIndex": 28, "score": 43.25, "costs": -4.75, "simulationMode": [null, null, null, null, null], "rewards": [-2, -1, 2, 10, 39], "path": ["0", "0", "12", "13", "14", "19", "22"], "rt": [7410, 57, 95, 31, 112], "actions": ["right", "right", "right", "down", "left"], "actionTimes": [8879, 9453, 10072, 10625, 11272], "queries": {"click": {"state": {"target": ["12", "13", "14", "19", "22"], "time": [2190, 2964, 3660, 4305, 4907]}, "edge": {"target": [], "time": []}}, "mouseover": {"state": {"target": ["12", "13", "14", "19", "22", "20", "20"], "time": [2045, 2780, 3463, 4046, 4562, 5478, 5878]}, "edge": {"target": [], "time": []}}, "mouseout": {"state": {"target": ["0", "12", "13", "14", "19", "22", "20"], "time": [1978, 2596, 3413, 3913, 4512, 5445, 5495]}, "edge": {"target": [], "time": []}}}, "displayed_time": "15.47", "trialTime": 17197, "trial_type": "mouselab-mdp", "trial_index": 35, "time_elapsed": 1197259, "internal_node_id": "0.0-6.0-1.0-26.0"}}, {"uniqueid": "w37024259:a99114769", "current_trial": 36, "dateTime": 1693569850253, "trialdata": {"revealed_states": [], "clicked_states": ["12", "13", "14", "15", "16"], "num_clicks_accrued": [0, 0, 0, 0, 0, 0, 0, 0, 0, 0, 0, 0, 0], "stateRewards": ["", -2, -3, -5, 8, 27, 11, 43, -6, -24, -87, 69, -2, 1, 1, 9, 19, 48, -37, 9, -14, 45, 62, 1, 2, 1, 16, -81, -41, 22, 4, -6, -63, 47], "withholdReward": false, "trial_id": "mdp_trial_28", "block": "test", "trialIndex": 29, "score": 23.25, "costs": -4.75, "simulationMode": [null, null, null, null, null], "rewards": [-2, 1, 1, 9, 19], "path": ["0", "0", "12", "13", "14", "15", "16"], "rt": [8048, 94, 126, 46, 129], "actions": ["right", "right", "right", "up", "up"], "actionTimes": [10676, 11288, 11936, 12490, 13156], "queries": {"click": {"state": {"target": ["12", "13", "14", "15", "16"], "time": [3947, 4589, 5243, 5924, 6938]}, "edge": {"target": [], "time": []}}, "mouseover": {"state": {"target": ["23", "23", "0", "12", "13", "14", "15", "16", "16"], "time": [2848, 3227, 3578, 3677, 4428, 4928, 5694, 6278, 6729]}, "edge": {"target": [], "time": []}}, "mouseout": {"state": {"target": ["20", "12", "0", "23", "23", "0", "12", "13", "14", "15", "16", "16", "15"], "time": [1728, 2077, 2829, 2894, 3561, 3611, 4111, 4756, 5395, 6195, 6383, 7181, 7297]}, "edge": {"target": [], "time": []}}}, "displayed_time": "16.63", "trialTime": 18122, "trial_type": "mouselab-mdp", "trial_index": 36, "time_elapsed": 1215793, "internal_node_id": "0.0-6.0-1.0-27.0"}}, {"uniqueid": "w37024259:a99114769", "current_trial": 37, "dateTime": 1693569927475, "trialdata": {"revealed_states": [], "clicked_states": ["1", "2", "3", "4", "7", "8", "10"], "num_clicks_accrued": [0, 0, 0, 0, 0, 0, 0, 0, 0, 0, 0, 0, 0], "stateRewards": ["", 1, -1, 8, -3, 38, 85, -20, -4, 8, 23, 73, 2, -4, 6, -13, 44, 7, -28, -11, -77, 45, -69, 1, -1, -7, -11, 75, -51, -87, 7, 36, -53, -26], "withholdReward": false, "trial_id": "mdp_trial_29", "block": "test", "trialIndex": 30, "score": 18.55, "costs": -8.45, "simulationMode": [null, null, null, null, null], "rewards": [1, -1, 8, -4, 23], "path": ["0", "0", "1", "2", "3", "8", "10"], "rt": [11689, 102, 355, 35, 109], "actions": ["up", "up", "up", "left", "down"], "actionTimes": [13373, 13988, 14859, 15404, 16026], "queries": {"click": {"state": {"target": ["1", "2", "3", "4", "7", "8", "10"], "time": [2489, 3058, 3665, 4698, 5266, 8576, 9439]}, "edge": {"target": [], "time": []}}, "mouseover": {"state": {"target": ["1", "1", "2", "3", "4", "4", "7", "8", "8", "10", "2", "9", "4"], "time": [2005, 2305, 2722, 3376, 4255, 4505, 4972, 6604, 6954, 9070, 11069, 11469, 12783]}, "edge": {"target": [], "time": []}}, "mouseout": {"state": {"target": ["0", "1", "1", "2", "3", "3", "4", "4", "4", "7", "7", "7", "8", "8", "10", "2", "8", "9", "4", "4"], "time": [1975, 2188, 2566, 3296, 3939, 4206, 4305, 4761, 4905, 5315, 5554, 6521, 6638, 8903, 9853, 11102, 11185, 12733, 12867, 75871]}, "edge": {"target": [], "time": []}}}, "displayed_time": "16.54", "trialTime": 76778, "trial_type": "mouselab-mdp", "trial_index": 37, "time_elapsed": 1293015, "internal_node_id": "0.0-6.0-1.0-28.0"}}, {"uniqueid": "w37024259:a99114769", "current_trial": 38, "dateTime": 1693569944072, "trialdata": {"revealed_states": [], "clicked_states": ["1", "2", "3", "4", "6"], "num_clicks_accrued": [0, 0, 0, 0, 0, 0, 0, 0, 0, 0, 0, 0, 0], "stateRewards": ["", 1, -4, -6, -1, -21, 17, -72, 10, 77, 67, -46, -1, 4, -2, 14, -66, -49, -45, -15, -52, 23, -67, 2, -2, -2, 15, -3, 45, -64, 5, -44, 83, 61], "withholdReward": false, "trial_id": "mdp_trial_30", "block": "test", "trialIndex": 31, "score": 2.25, "costs": -4.75, "simulationMode": [null, null, null, null, null], "rewards": [1, -4, -6, -1, 17], "path": ["0", "0", "1", "2", "3", "4", "6"], "rt": [7426, 35, 173, 469, 53], "actions": ["up", "up", "up", "right", "right"], "actionTimes": [8327, 8882, 9587, 10567, 11132], "queries": {"click": {"state": {"target": ["1", "2", "3", "4", "6"], "time": [1576, 2235, 2825, 3559, 4177]}, "edge": {"target": [], "time": []}}, "mouseover": {"state": {"target": ["1", "2", "3", "4", "6", "7"], "time": [1348, 2006, 2568, 3205, 4015, 6730]}, "edge": {"target": [], "time": []}}, "mouseout": {"state": {"target": ["1", "0", "1", "2", "3", "4", "6"], "time": [231, 1066, 1639, 2432, 3082, 3915, 4589]}, "edge": {"target": [], "time": []}}}, "displayed_time": "14.90", "trialTime": 16104, "trial_type": "mouselab-mdp", "trial_index": 38, "time_elapsed": 1309612, "internal_node_id": "0.0-6.0-1.0-29.0"}}, {"uniqueid": "w37024259:a99114769", "current_trial": 39, "dateTime": 1693569977015, "trialdata": {"revealed_states": [], "clicked_states": ["23", "24", "25", "30", "31", "32"], "num_clicks_accrued": [0, 0, 0, 0, 0, 0, 0, 0, 0, 0, 0, 0, 0], "stateRewards": ["", 2, 1, -3, 7, 46, 11, -36, 16, 71, 5, 1, 2, -2, -8, -3, -4, 6, 55, 7, 68, -54, 2, 1, 1, 6, -6, 42, -4, -84, -11, -65, 63, 25], "withholdReward": false, "trial_id": "mdp_trial_31", "block": "test", "trialIndex": 32, "score": 53.1, "costs": -6.9, "simulationMode": [null, null, null, null, null], "rewards": [1, 1, 6, -11, 63], "path": ["0", "0", "23", "24", "25", "30", "32"], "rt": [10814, 48, 126, 110, 135], "actions": ["left", "left", "left", "down", "down"], "actionTimes": [15650, 16213, 16868, 17500, 18144], "queries": {"click": {"state": {"target": ["23", "24", "25", "30", "31", "32"], "time": [5452, 6091, 6764, 7320, 8053, 11661]}, "edge": {"target": [], "time": []}}, "mouseover": {"state": {"target": ["23", "23", "24", "25", "30", "31", "32", "33"], "time": [5010, 5345, 5877, 6396, 7078, 7877, 11257, 12990]}, "edge": {"target": [], "time": []}}, "mouseout": {"state": {"target": ["7", "12", "0", "23", "23", "24", "25", "30", "31", "31", "32", "33"], "time": [545, 1094, 4477, 5043, 5662, 6378, 7044, 7644, 8393, 10941, 12108, 31782]}, "edge": {"target": [], "time": []}}}, "displayed_time": "18.84", "trialTime": 32484, "trial_type": "mouselab-mdp", "trial_index": 39, "time_elapsed": 1342555, "internal_node_id": "0.0-6.0-1.0-30.0"}}, {"uniqueid": "w37024259:a99114769", "current_trial": 40, "dateTime": 1693570000648, "trialdata": {"revealed_states": [], "clicked_states": ["12", "13", "14", "19", "20", "15", "16", "17"], "num_clicks_accrued": [0, 0, 0, 0, 0, 0, 0, 0, 0, 0, 0, 0, 0], "stateRewards": ["", 2, 4, -6, -13, -75, -81, 30, 7, 5, 59, -65, -1, -1, 7, 14, -38, 36, -41, 1, -54, -5, 64, 2, -1, 5, 6, -19, 79, 11, 16, -33, -50, 58], "withholdReward": false, "trial_id": "mdp_trial_32", "block": "test", "trialIndex": 33, "score": 44.4, "costs": -10.6, "simulationMode": [null, null, null, null, null], "rewards": [-1, -1, 7, 14, 36], "path": ["0", "0", "12", "13", "14", "15", "17"], "rt": [15953, 18, 160, 154, 529], "actions": ["right", "right", "right", "up", "right"], "actionTimes": [18258, 18794, 19484, 20145, 21187], "queries": {"click": {"state": {"target": ["12", "13", "14", "19", "20", "15", "16", "17"], "time": [2985, 3579, 4332, 5061, 6001, 9976, 10680, 14244]}, "edge": {"target": [], "time": []}}, "mouseover": {"state": {"target": ["12", "13", "14", "19", "20", "20", "21", "19", "14", "15", "16", "17", "17", "15", "18"], "time": [2779, 3418, 4013, 4713, 5379, 5847, 7529, 9326, 9509, 9694, 10277, 11109, 14040, 14792, 14842]}, "edge": {"target": [], "time": []}}, "mouseout": {"state": {"target": ["30", "31", "0", "12", "13", "14", "19", "20", "20", "21", "19", "14", "15", "16", "16", "17", "17", "15"], "time": [1162, 1245, 2596, 3340, 3930, 4597, 5362, 5413, 7112, 9276, 9376, 9559, 10227, 10692, 11077, 11143, 14775, 14825]}, "edge": {"target": [], "time": []}}}, "displayed_time": "21.71", "trialTime": 23150, "trial_type": "mouselab-mdp", "trial_index": 40, "time_elapsed": 1366187, "internal_node_id": "0.0-6.0-1.0-31.0"}}, {"uniqueid": "w37024259:a99114769", "current_trial": 41, "dateTime": 1693570033067, "trialdata": {"revealed_states": [], "clicked_states": ["12", "13", "14", "19", "21", "15", "16", "17", "18", "20", "22"], "num_clicks_accrued": [0, 0, 0, 0, 0, 0, 0, 0, 0, 0, 0, 0, 0], "stateRewards": ["", 2, 3, -1, 16, -78, -11, 46, 2, -20, 79, -67, 2, 3, 2, 11, -83, -42, -58, -11, -67, -22, 55, 2, -1, -1, -16, -83, -82, 23, -11, -29, 13, 13], "withholdReward": false, "trial_id": "mdp_trial_33", "block": "test", "trialIndex": 34, "score": 33.95, "costs": -17.05, "simulationMode": [null, null, null, null, null], "rewards": [2, 3, 2, -11, 55], "path": ["0", "0", "12", "13", "14", "19", "22"], "rt": [26532, 32, 109, 4, 77], "actions": ["right", "right", "right", "down", "left"], "actionTimes": [28077, 28625, 29251, 29764, 30370], "queries": {"click": {"state": {"target": ["12", "13", "14", "19", "21", "15", "16", "17", "18", "20", "22"], "time": [2535, 3136, 3763, 4449, 5145, 8455, 9211, 12487, 15695, 20806, 24035]}, "edge": {"target": [], "time": []}}, "mouseover": {"state": {"target": ["12", "13", "12", "13", "14", "19", "21", "15", "16", "17", "15", "18", "15", "20", "19", "22", "19", "21"], "time": [1851, 1968, 2334, 2731, 3320, 4069, 4835, 6368, 8834, 11432, 12848, 13164, 16050, 20590, 21402, 21744, 24496, 25327]}, "edge": {"target": [], "time": []}}, "mouseout": {"state": {"target": ["18", "12", "0", "0", "12", "13", "12", "13", "13", "14", "19", "19", "21", "19", "14", "15", "16", "17", "15", "18", "15", "20", "19", "22", "19", "20", "21", "20"], "time": [752, 784, 818, 1818, 1901, 2268, 2706, 3214, 3303, 3986, 4527, 4752, 5182, 6068, 6218, 8783, 11149, 12832, 12997, 16047, 16065, 21383, 21461, 24480, 24510, 25228, 25693, 25776]}, "edge": {"target": [], "time": []}}}, "displayed_time": "30.89", "trialTime": 31952, "trial_type": "mouselab-mdp", "trial_index": 41, "time_elapsed": 1398606, "internal_node_id": "0.0-6.0-1.0-32.0"}}, {"uniqueid": "w37024259:a99114769", "current_trial": 42, "dateTime": 1693570050813, "trialdata": {"revealed_states": [], "clicked_states": ["1", "2", "3", "4", "5", "7"], "num_clicks_accrued": [0, 0, 0, 0, 0, 0, 0, 0, 0, 0, 0, 0, 0], "stateRewards": ["", 2, 3, 6, -5, -74, -53, 17, -12, 46, 44, 18, -2, 4, 1, -8, 22, -23, -49, 9, -45, 55, 81, 1, -1, -7, -16, -83, -71, -45, 2, 51, 82, 61], "withholdReward": false, "trial_id": "mdp_trial_34", "block": "test", "trialIndex": 35, "score": 16.1, "costs": -6.9, "simulationMode": [null, null, null, null, null], "rewards": [2, 3, 6, -5, 17], "path": ["0", "0", "1", "2", "3", "4", "7"], "rt": [11302, 133, 291, 52, 77], "actions": ["up", "up", "up", "right", "down"], "actionTimes": [13049, 13701, 14509, 15070, 15677], "queries": {"click": {"state": {"target": ["1", "2", "3", "4", "5", "7"], "time": [2870, 3381, 4345, 4921, 5490, 8778]}, "edge": {"target": [], "time": []}}, "mouseover": {"state": {"target": ["0", "1", "2", "3", "4", "5", "7", "6"], "time": [2320, 2669, 3072, 3971, 4637, 5257, 7436, 9102]}, "edge": {"target": [], "time": []}}, "mouseout": {"state": {"target": ["14", "13", "12", "0", "0", "1", "2", "3", "3", "4", "5", "7"], "time": [904, 970, 1170, 1773, 2353, 3023, 3571, 4396, 4537, 5120, 5720, 9052]}, "edge": {"target": [], "time": []}}}, "displayed_time": "16.18", "trialTime": 17249, "trial_type": "mouselab-mdp", "trial_index": 42, "time_elapsed": 1416353, "internal_node_id": "0.0-6.0-1.0-33.0"}}, {"uniqueid": "w37024259:a99114769", "current_trial": 43, "dateTime": 1693570068970, "trialdata": {"revealed_states": [], "clicked_states": ["23", "24", "25", "26", "27", "30", "32"], "num_clicks_accrued": [0, 0, 0, 0, 0, 0, 0, 0, 0, 0, 0, 0, 0], "stateRewards": ["", -2, 3, -1, 2, -72, 63, 20, -1, 62, -66, 39, -2, 3, -6, 14, 22, 47, 1, 8, -49, -1, -41, 2, 2, -6, -16, -64, -60, -34, 16, 54, 22, -7], "withholdReward": false, "trial_id": "mdp_trial_35", "block": "test", "trialIndex": 36, "score": 27.55, "costs": -8.45, "simulationMode": [null, null, null, null, null], "rewards": [2, 2, -6, 16, 22], "path": ["0", "0", "23", "24", "25", "30", "32"], "rt": [12042, 128, 194, 160, 108], "actions": ["left", "left", "left", "down", "down"], "actionTimes": [13586, 14233, 14950, 15632, 16247], "queries": {"click": {"state": {"target": ["23", "24", "25", "26", "27", "30", "32"], "time": [2673, 3347, 4127, 4817, 5685, 8995, 9795]}, "edge": {"target": [], "time": []}}, "mouseover": {"state": {"target": ["24", "25", "26", "28", "23", "24", "25", "26", "27", "28", "30", "32", "31"], "time": [1875, 1909, 2042, 2258, 2425, 3142, 3942, 4409, 5458, 6441, 7078, 9341, 11039]}, "edge": {"target": [], "time": []}}, "mouseout": {"state": {"target": ["6", "7", "23", "0", "24", "25", "26", "28", "23", "23", "24", "25", "26", "27", "28", "30", "32"], "time": [575, 625, 921, 1775, 1893, 1925, 2075, 2325, 2735, 2926, 3759, 4325, 5075, 6141, 6775, 9273, 10102]}, "edge": {"target": [], "time": []}}}, "displayed_time": "16.75", "trialTime": 17718, "trial_type": "mouselab-mdp", "trial_index": 43, "time_elapsed": 1434509, "internal_node_id": "0.0-6.0-1.0-34.0"}}, {"uniqueid": "w37024259:a99114769", "current_trial": 44, "dateTime": 1693570094065, "trialdata": {"revealed_states": [], "clicked_states": ["23", "24", "25", "30", "33", "31", "32", "26"], "num_clicks_accrued": [0, 0, 0, 0, 0, 0, 0, 0, 0, 0, 0, 0, 0], "stateRewards": ["", 1, 4, -8, -5, -15, -7, 21, 13, -30, 40, -65, 1, 1, 5, -14, 35, 27, -38, -11, 36, -58, -47, -2, 4, -3, 13, -16, -49, 22, 15, -56, -44, -10], "withholdReward": false, "trial_id": "mdp_trial_36", "block": "test", "trialIndex": 37, "score": -14.600000000000001, "costs": -10.600000000000001, "simulationMode": [null, null, null, null, null], "rewards": [-2, 4, -3, 13, -16], "path": ["0", "0", "23", "24", "25", "26", "27"], "rt": [18746, 146, 293, 45, 219], "actions": ["left", "left", "left", "up", "up"], "actionTimes": [20271, 20927, 21739, 22291, 23048], "queries": {"click": {"state": {"target": ["23", "24", "25", "30", "33", "31", "32", "26"], "time": [2541, 3272, 3947, 4616, 5197, 8958, 12120, 15335]}, "edge": {"target": [], "time": []}}, "mouseover": {"state": {"target": ["23", "24", "23", "24", "25", "30", "33", "31", "31", "31", "32", "24", "26", "26", "27", "28", "1"], "time": [1802, 2002, 2335, 3120, 3637, 4370, 4876, 5802, 7302, 8783, 9545, 13432, 13499, 13982, 15815, 19578, 19628]}, "edge": {"target": [], "time": []}}, "mouseout": {"state": {"target": ["31", "0", "23", "24", "23", "24", "25", "30", "33", "31", "31", "31", "32", "24", "26", "26", "27", "28", "1"], "time": [669, 1786, 1820, 2286, 2821, 3506, 4220, 4845, 5470, 7002, 7377, 9235, 12749, 13466, 13533, 15715, 19428, 19595, 19645]}, "edge": {"target": [], "time": []}}}, "displayed_time": "23.56", "trialTime": 24632, "trial_type": "mouselab-mdp", "trial_index": 44, "time_elapsed": 1459604, "internal_node_id": "0.0-6.0-1.0-35.0"}}, {"uniqueid": "w37024259:a99114769", "current_trial": 45, "dateTime": 1693570111035, "trialdata": {"revealed_states": [], "clicked_states": ["12", "13", "14", "19", "20"], "num_clicks_accrued": [0, 0, 0, 0, 0, 0, 0, 0, 0, 0, 0, 0, 0], "stateRewards": ["", 1, 4, 5, 8, -55, -11, 8, 16, -37, 77, -22, -2, 3, -8, -10, 45, 87, -67, 4, 17, -33, -22, -1, -3, 7, 6, -39, -85, 75, -1, 7, -48, 45], "withholdReward": false, "trial_id": "mdp_trial_37", "block": "test", "trialIndex": 38, "score": 9.25, "costs": -4.75, "simulationMode": [null, null, null, null, null], "rewards": [-2, 3, -8, 4, 17], "path": ["0", "0", "12", "13", "14", "19", "20"], "rt": [7828, 102, 113, 19, 117], "actions": ["right", "right", "right", "down", "right"], "actionTimes": [9393, 10012, 10640, 11179, 11849], "queries": {"click": {"state": {"target": ["12", "13", "14", "19", "20"], "time": [2787, 3460, 4382, 4905, 5376]}, "edge": {"target": [], "time": []}}, "mouseover": {"state": {"target": ["1", "1", "12", "13", "14", "14", "19", "20", "21"], "time": [1928, 2311, 2544, 3296, 3912, 4195, 4645, 5101, 6078]}, "edge": {"target": [], "time": []}}, "mouseout": {"state": {"target": ["0", "1", "1", "12", "13", "13", "14", "14", "19", "20"], "time": [1896, 1961, 2378, 3212, 3522, 3795, 3962, 4579, 5055, 5978]}, "edge": {"target": [], "time": []}}}, "displayed_time": "15.56", "trialTime": 16522, "trial_type": "mouselab-mdp", "trial_index": 45, "time_elapsed": 1476575, "internal_node_id": "0.0-6.0-1.0-36.0"}}, {"uniqueid": "w37024259:a99114769", "current_trial": 46, "dateTime": 1693570128703, "trialdata": {"revealed_states": [], "clicked_states": ["1", "2", "3", "8", "10"], "num_clicks_accrued": [0, 0, 0, 0, 0, 0, 0, 0, 0, 0, 0, 0, 0], "stateRewards": ["", 2, 3, 3, 10, 19, -21, 6, 9, 54, 68, 16, 2, 2, -6, -8, 40, -2, -75, -2, -42, 55, 59, -1, 2, 4, -14, 11, -34, -30, -6, 61, -53, 13], "withholdReward": false, "trial_id": "mdp_trial_38", "block": "test", "trialIndex": 39, "score": 28.25, "costs": -4.75, "simulationMode": [null, null, null, null, null], "rewards": [2, 3, 3, 9, 16], "path": ["0", "0", "1", "2", "3", "8", "11"], "rt": [8304, 398, 161, 129, 421], "actions": ["up", "up", "up", "left", "left"], "actionTimes": [9804, 10723, 11397, 12047, 12989], "queries": {"click": {"state": {"target": ["1", "2", "3", "8", "10"], "time": [2382, 2858, 4524, 5368, 5863]}, "edge": {"target": [], "time": []}}, "mouseover": {"state": {"target": ["1", "1", "2", "3", "3", "8", "8", "10"], "time": [1837, 2220, 2653, 3121, 4352, 4836, 5169, 5620]}, "edge": {"target": [], "time": []}}, "mouseout": {"state": {"target": ["21", "22", "0", "1", "1", "2", "3", "3", "8", "8", "10"], "time": [653, 736, 1821, 1903, 2460, 3054, 3270, 4803, 5003, 5570, 6386]}, "edge": {"target": [], "time": []}}}, "displayed_time": "15.50", "trialTime": 17157, "trial_type": "mouselab-mdp", "trial_index": 46, "time_elapsed": 1494243, "internal_node_id": "0.0-6.0-1.0-37.0"}}, {"uniqueid": "w37024259:a99114769", "current_trial": 47, "dateTime": 1693570151193, "trialdata": {"revealed_states": [], "clicked_states": ["1", "2", "3", "8", "10", "11", "9"], "num_clicks_accrued": [0, 0, 0, 0, 0, 0, 0, 0, 0, 0, 0, 0, 0], "stateRewards": ["", -2, 2, 3, -7, 76, 63, 21, 15, 35, -8, -44, 1, 1, -2, -12, 23, 24, 76, -9, 46, 66, -49, -2, -1, 7, 12, 40, -71, -45, -6, 38, -49, 46], "withholdReward": false, "trial_id": "mdp_trial_39", "block": "test", "trialIndex": 40, "score": 43.95, "costs": -9.05, "simulationMode": [null, null, null, null, null], "rewards": [-2, 2, 3, 15, 35], "path": ["0", "0", "1", "2", "3", "8", "9"], "rt": [14311, 20, 318, 643, 82], "actions": ["up", "up", "up", "left", "up"], "actionTimes": [16810, 17364, 18206, 19364, 19953], "queries": {"click": {"state": {"target": ["1", "2", "3", "8", "10", "11", "9"], "time": [3161, 3787, 4380, 5036, 5577, 9713, 13008]}, "edge": {"target": [], "time": []}}, "mouseover": {"state": {"target": ["1", "2", "3", "8", "10", "1", "7", "4", "11", "9", "4"], "time": [2516, 3593, 4110, 4843, 5261, 6443, 8973, 9007, 9523, 10084, 13973]}, "edge": {"target": [], "time": []}}, "mouseout": {"state": {"target": ["0", "1", "2", "3", "8", "10", "1", "7", "4", "11", "9"], "time": [2514, 3194, 4022, 4693, 5227, 5826, 6476, 8990, 9123, 9806, 13341]}, "edge": {"target": [], "time": []}}}, "displayed_time": "20.47", "trialTime": 22029, "trial_type": "mouselab-mdp", "trial_index": 47, "time_elapsed": 1516733, "internal_node_id": "0.0-6.0-1.0-38.0"}}, {"uniqueid": "w37024259:a99114769", "current_trial": 48, "dateTime": 1693570168071, "trialdata": {"revealed_states": [], "clicked_states": ["12", "13", "14", "19", "21"], "num_clicks_accrued": [0, 0, 0, 0, 0, 0, 0, 0, 0, 0, 0, 0, 0], "stateRewards": ["", -2, 1, 6, -2, -10, -78, -69, 14, -15, 7, -1, 1, -1, -2, 13, 77, 32, 87, 5, -74, 30, -26, 1, 3, 4, 12, 39, 54, -43, 2, 10, 23, 13], "withholdReward": false, "trial_id": "mdp_trial_40", "block": "test", "trialIndex": 41, "score": 28.25, "costs": -4.75, "simulationMode": [null, null, null, null, null], "rewards": [1, -1, -2, 5, 30], "path": ["0", "0", "12", "13", "14", "19", "21"], "rt": [6790, 144, 102, 516, 138], "actions": ["right", "right", "right", "down", "down"], "actionTimes": [8055, 8713, 9338, 10367, 11021], "queries": {"click": {"state": {"target": ["12", "13", "14", "19", "21"], "time": [1904, 2456, 3117, 3647, 4116]}, "edge": {"target": [], "time": []}}, "mouseover": {"state": {"target": ["12", "13", "14", "19", "21", "20"], "time": [1702, 2204, 2745, 3370, 3883, 5202]}, "edge": {"target": [], "time": []}}, "mouseout": {"state": {"target": ["4", "7", "0", "12", "13", "13", "14", "14", "19", "21", "20", "14"], "time": [469, 502, 1282, 1969, 2530, 2638, 3181, 3303, 3858, 4386, 12564, 12631]}, "edge": {"target": [], "time": []}}}, "displayed_time": "15.27", "trialTime": 16359, "trial_type": "mouselab-mdp", "trial_index": 48, "time_elapsed": 1533610, "internal_node_id": "0.0-6.0-1.0-39.0"}}, {"uniqueid": "w37024259:a99114769", "current_trial": 49, "dateTime": 1693570214896, "trialdata": {"rt": 46814, "response": {"Q0": "$-2 to $2", "Q1": "$-16 to $16", "Q2": "$-32 to $32", "Q3": "The cost for clicking on nodes varied between nodes.", "Q4": "Very motivated"}, "question_order": [0, 1, 2, 3, 4], "trial_id": "final_quiz_control", "trial_type": "survey-multi-choice", "trial_index": 49, "time_elapsed": 1580436, "internal_node_id": "0.0-6.0-2.0"}}, {"uniqueid": "w37024259:a99114769", "current_trial": 50, "dateTime": 1693570312948, "trialdata": {"rt": 98025, "response": {"Q0": "I picked a random direction each time and then checked the nodes in the hope I would end up at a positive number, if not I would check another direction. However I was aware of the cost mounting to check nodes, so I would only check a couple of directions. ", "Q1": "I kept the same strategy throughout.", "Q2": "I found it difficult to improve as it seemed totally random, there didn't appear to be a pattern. "}, "trial_id": "self_report_control", "trial_type": "survey-text", "trial_index": 50, "time_elapsed": 1678488, "internal_node_id": "0.0-6.0-3.0"}}, {"uniqueid": "w37024259:a99114769", "current_trial": 51, "dateTime": 1693570350560, "trialdata": {"rt": 37600, "response": {"Q0": "Strongly agree", "Q1": "Strongly disagree", "Q2": "Neither disagree nor agree", "Q3": "Strongly agree", "Q4": "Strongly disagree", "Q5": "Agree", "Q6": "Disagree"}, "question_order": [0, 1, 2, 3, 4, 5, 6], "trial_id": "self_report_2", "trial_type": "survey-multi-choice", "trial_index": 51, "time_elapsed": 1716100, "internal_node_id": "0.0-6.0-4.0"}}, {"uniqueid": "w37024259:a99114769", "current_trial": 52, "dateTime": 1693570365155, "trialdata": {"rt": 14585, "response": {"gender": "female", "age": "38", "colorblind": "0", "effort": "0"}, "trial_type": "survey-html-form", "trial_index": 52, "time_elapsed": 1730695, "internal_node_id": "0.0-6.0-5.0"}}, {"uniqueid": "w37024259:a99114769", "current_trial": 53, "dateTime": 1693570381262, "trialdata": {"rt": 16101, "response": {"Q0": "no nothing", "Q1": "no", "Q2": ""}, "trial_type": "survey-text", "trial_index": 53, "time_elapsed": 1746802, "internal_node_id": "0.0-6.0-6.0"}}, {"uniqueid": "w37024259:a99114769", "current_trial": 54, "dateTime": 1693570402975, "trialdata": {"rt": 21707, "stimulus": "<h1>Completion Code Instructions (1/2)</h1>\n<br><br><br><br>\nYou have reached the end of the experiment! The completion code consists of two parts: (1) a code with 2 characters (2) a code with 6 characters. On this page, you will receive the second part of the code. The first part of the completion code will be on the next page.\n<br><br>\nThe second part of your completion code is: <b>EWEK22</b>\n<br><br>\nPlease note this down. Then, press 'Finish HIT' in order to find the first part of your completion code. Once the data has been saved, you will receive this code either in this window or in the original browser window where you started the experiment.\n", "response": 0, "trial_type": "html-button-response", "trial_index": 54, "time_elapsed": 1768515, "internal_node_id": "0.0-6.0-7.0"}}, {"uniqueid": "w37024259:a99114769", "current_trial": 55, "dateTime": 1693570403985, "trialdata": {"success": true, "trial_type": "fullscreen", "trial_index": 55, "time_elapsed": 1769525, "internal_node_id": "0.0-7.0"}}], "questiondata": {"params": {"CODE": "C6DMOQA6", "MIN_TIME": 14, "inspectCost": 1, "startTime": "Fri Sep 01 2023 12:43:53 GMT+0100 (British Summer Time)", "bonusRate": 0.002, "variance": "1_2_4_8_44", "branching": "31123"}, "final_score": 1290.05}, "eventdata": [{"eventtype": "initialized", "value": null, "timestamp": 1693568633313, "interval": 0}, {"eventtype": "window_resize", "value": [1028, 752], "timestamp": 1693568633313, "interval": 0}, {"eventtype": "window_resize", "value": [1028, 752], "timestamp": 1693568633646, "interval": 333}, {"eventtype": "window_resize", "value": [1028, 726], "timestamp": 1693568636586, "interval": 2940}, {"eventtype": "focus", "value": "off", "timestamp": 1693568638461, "interval": 1875}, {"eventtype": "focus", "value": "on", "timestamp": 1693568650543, "interval": 12082}, {"eventtype": "window_resize", "value": [1536, 864], "timestamp": 1693568652957, "interval": 2414}, {"eventtype": "window_resize", "value": [1028, 726], "timestamp": 1693570403267, "interval": 1750310}], "useragent": "Mozilla/5.0 (Windows NT 10.0; Win64; x64) AppleWebKit/537.36 (KHTML, like Gecko) Chrome/116.0.0.0 Safari/537.36", "mode": "live", "id": "w37024259:a99114769", "status": "user data saved", "Beginhit": "2023-09-01 11:43:51.437791", "Beginexp": "2023-09-01 11:44:13.499466", "Endhit": "2023-09-01 12:13:24.143492", "psiturkStatus": 3, "browser": "<redacted>", "platform": "windows", "language": "en-GB"}