{"condition": 1, "counterbalance": 0, "assignmentId": "a25496768", "workerId": "w75066121", "hitId": "h23889595", "currenttrial": 17, "bonus": 0, "data": [{"uniqueid": "w75066121:a25496768", "current_trial": 0, "dateTime": 1693660329963, "trialdata": {"success": true, "trial_type": "fullscreen", "trial_index": 0, "time_elapsed": 3447, "internal_node_id": "0.0-0.0"}}, {"uniqueid": "w75066121:a25496768", "current_trial": 1, "dateTime": 1693660387671, "trialdata": {"view_history": [{"page_index": 0, "viewing_time": 57699}], "rt": 57700, "trial_id": "exp_instructions_misaligned", "trial_type": "instructions", "trial_index": 1, "time_elapsed": 61156, "internal_node_id": "0.0-1.0"}}, {"uniqueid": "w75066121:a25496768", "current_trial": 2, "dateTime": 1693660690626, "trialdata": {"view_history": [{"page_index": 0, "viewing_time": 167052}, {"page_index": 1, "viewing_time": 53376}, {"page_index": 2, "viewing_time": 36901}, {"page_index": 3, "viewing_time": 45624}], "rt": 302952, "trial_id": "mouselab_instructions_1_misaligned", "trial_type": "instructions", "trial_index": 2, "time_elapsed": 364111, "internal_node_id": "0.0-2.0-1.0"}}, {"uniqueid": "w75066121:a25496768", "current_trial": 3, "dateTime": 1693660758159, "trialdata": {"revealed_states": [], "clicked_states": ["1", "3", "4", "5", "23", "25", "26", "27", "12", "13", "14", "17", "16", "15", "19", "21", "20", "2", "8", "10", "9"], "num_clicks_accrued": [0, 0, 0, 0, 0, 0, 0, 0, 0, 0, 0, 0, 0], "stateRewards": ["", -10, 10, -10, -10, 10, 10, -10, 10, 10, -10, -10, 10, 10, -10, -10, 10, -10, -10, -10, 10, -10, -10, 10, -10, -10, -10, 10, 10, -10, -10, 10, 10, 10], "withholdReward": false, "trial_id": "practice_1", "block": "test", "trialIndex": 0, "score": 3, "costs": -10.5, "simulationMode": [null, null, null, null, null], "rewards": [-10, 10, -10, 10, 10], "path": ["0", "0", "1", "2", "3", "8", "9"], "rt": [52923, 381, 244, 401, 1852], "actions": ["up", "up", "up", "left", "up"], "actionTimes": [54064, 54980, 55750, 56667, 59034], "queries": {"click": {"state": {"target": ["1", "3", "4", "5", "23", "25", "26", "27", "12", "13", "14", "17", "16", "15", "19", "21", "20", "2", "8", "10", "9"], "time": [2889, 6117, 7531, 9633, 13517, 16162, 18680, 20191, 22566, 23581, 24952, 26425, 28049, 30173, 31600, 32742, 33979, 40487, 45973, 47193, 49996]}, "edge": {"target": [], "time": []}}, "mouseover": {"state": {"target": ["12", "1", "2", "3", "3", "4", "5", "0", "23", "24", "25", "26", "28", "26", "27", "28", "24", "23", "0", "12", "13", "14", "15", "17", "15", "16", "15", "15", "14", "19", "21", "20", "22", "13", "14", "19", "14", "14", "1", "2", "3", "8", "3", "8", "8", "10", "10", "9", "5", "4"], "time": [1651, 2567, 3586, 4850, 5799, 7365, 7969, 12331, 13180, 14081, 14947, 16867, 17185, 17928, 19894, 21161, 21428, 21593, 21810, 22244, 22878, 24545, 25732, 26174, 27028, 27475, 28513, 28747, 30924, 31024, 32460, 33723, 34723, 35507, 36672, 37121, 37972, 38679, 39669, 40008, 41637, 42603, 43369, 44917, 45583, 46667, 46936, 49748, 51597, 53013]}, "edge": {"target": [], "time": []}}, "mouseout": {"state": {"target": ["0", "12", "1", "2", "3", "3", "4", "5", "0", "23", "24", "25", "26", "28", "26", "27", "28", "24", "23", "0", "12", "13", "14", "15", "17", "15", "16", "15", "15", "14", "19", "19", "21", "20", "22", "13", "14", "19", "14", "14", "1", "2", "3", "8", "3", "8", "8", "10", "10", "8", "9", "5", "4"], "time": [1194, 2367, 3222, 4350, 5316, 7035, 7816, 10684, 12747, 13835, 14715, 16666, 17017, 17712, 19629, 20877, 21244, 21531, 21659, 22010, 22827, 24277, 25547, 25877, 26842, 27296, 28450, 28593, 30859, 30974, 31753, 32124, 32916, 34274, 35337, 36454, 36986, 37471, 38553, 38869, 39853, 41303, 42284, 43234, 44783, 45216, 46617, 46737, 48067, 48900, 50958, 52947, 53063]}, "edge": {"target": [], "time": []}}}, "displayed_time": "59.55", "trialTime": 65692, "trial_type": "mouselab-mdp", "trial_index": 3, "time_elapsed": 431643, "internal_node_id": "0.0-2.0-2.0-0.0"}}, {"uniqueid": "w75066121:a25496768", "current_trial": 4, "dateTime": 1693660782288, "trialdata": {"revealed_states": [], "clicked_states": [], "num_clicks_accrued": [0, 0, 0, 0, 0, 0, 0, 0, 0, 0, 0, 0, 0], "stateRewards": ["", -10, -10, -10, 10, -10, 10, 10, -10, -10, -10, -10, -10, -10, -10, -10, -10, -10, 10, -10, 10, -10, 10, -10, -10, -10, 10, -10, -10, -10, -10, -10, -10, 10], "withholdReward": false, "trial_id": "practice_2", "block": "test", "trialIndex": 1, "score": -26.5, "costs": 0, "simulationMode": [null, null, null, null, null], "rewards": [-10, -10, -10, 10, -10], "path": ["0", "0", "23", "24", "25", "26", "27"], "rt": [3086, 570, 69, 695, 445], "actions": ["left", "left", "left", "up", "up"], "actionTimes": [9932, 11017, 11597, 12807, 13773], "queries": {"click": {"state": {"target": [], "time": []}, "edge": {"target": [], "time": []}}, "mouseover": {"state": {"target": [], "time": []}, "edge": {"target": [], "time": []}}, "mouseout": {"state": {"target": ["7", "1"], "time": [5393, 5526]}, "edge": {"target": [], "time": []}}}, "displayed_time": "14.30", "trialTime": 23660, "trial_type": "mouselab-mdp", "trial_index": 4, "time_elapsed": 455773, "internal_node_id": "0.0-2.0-2.0-1.0"}}, {"uniqueid": "w75066121:a25496768", "current_trial": 5, "dateTime": 1693660796510, "trialdata": {"view_history": [{"page_index": 0, "viewing_time": 8328}, {"page_index": 1, "viewing_time": 5889}], "rt": 14218, "trial_id": "mouselab_instructions_2_misaligned", "trial_type": "instructions", "trial_index": 5, "time_elapsed": 469995, "internal_node_id": "0.0-2.0-3.0"}}, {"uniqueid": "w75066121:a25496768", "current_trial": 6, "dateTime": 1693660893678, "trialdata": {"rt": 97159, "response": {"Q0": "The cost for clicking on nodes may vary between nodes.", "Q1": "The better I perform the higher my bonus will be.", "Q2": "No, the structure of the web will be different each time.", "Q3": "To finish the game in the shortest amount of time.", "Q4": "Only before moving the spider.", "Q5": "3 seconds"}, "question_order": [0, 1, 2, 3, 4, 5], "correct": {"Q0": "The cost for clicking on nodes may vary between nodes.", "Q1": "The better I perform the higher my bonus will be.", "Q2": "No, the amount of cash at each node of the web may be different each time.", "Q3": "To get the highest total score.", "Q4": "Only before moving the spider.", "Q5": "3 seconds"}, "trial_id": "mouselab_quiz_misaligned", "trial_type": "survey-multi-choice", "trial_index": 6, "time_elapsed": 567163, "internal_node_id": "0.0-2.0-4.0"}}, {"uniqueid": "w75066121:a25496768", "current_trial": 7, "dateTime": 1693660932236, "trialdata": {"success": true, "trial_type": "fullscreen", "trial_index": 7, "time_elapsed": 605721, "internal_node_id": "0.0-2.1-0.1-0.1"}}, {"uniqueid": "w75066121:a25496768", "current_trial": 8, "dateTime": 1693661525140, "trialdata": {"view_history": [{"page_index": 0, "viewing_time": 105149}, {"page_index": 1, "viewing_time": 36332}, {"page_index": 2, "viewing_time": 118926}, {"page_index": 3, "viewing_time": 332494}], "rt": 592901, "trial_id": "mouselab_instructions_1_misaligned", "trial_type": "instructions", "trial_index": 8, "time_elapsed": 1198625, "internal_node_id": "0.0-2.1-1.1"}}, {"uniqueid": "w75066121:a25496768", "current_trial": 9, "dateTime": 1693661540574, "trialdata": {"revealed_states": [], "clicked_states": [], "num_clicks_accrued": [0, 0, 0, 0, 0, 0, 0, 0, 0, 0, 0, 0, 0], "stateRewards": ["", -10, 10, -10, -10, 10, 10, -10, 10, 10, -10, -10, 10, 10, -10, -10, 10, -10, -10, -10, 10, -10, -10, 10, -10, -10, -10, 10, 10, -10, -10, 10, 10, 10], "withholdReward": false, "trial_id": "practice_1", "block": "test", "trialIndex": 2, "score": 13.5, "costs": 0, "simulationMode": [null, null, null, null, null], "rewards": [-10, 10, -10, 10, 10], "path": ["0", "0", "1", "2", "3", "8", "9"], "rt": [1935, 157, 466, 148, 141], "actions": ["up", "up", "up", "left", "up"], "actionTimes": [5209, 5884, 6877, 7548, 8199], "queries": {"click": {"state": {"target": [], "time": []}, "edge": {"target": [], "time": []}}, "mouseover": {"state": {"target": [], "time": []}, "edge": {"target": [], "time": []}}, "mouseout": {"state": {"target": ["0", "23", "28", "28", "23"], "time": [12520, 12620, 12653, 12985, 13034]}, "edge": {"target": [], "time": []}}}, "displayed_time": "8.72", "trialTime": 14977, "trial_type": "mouselab-mdp", "trial_index": 9, "time_elapsed": 1214058, "internal_node_id": "0.0-2.1-2.1-0.1"}}, {"uniqueid": "w75066121:a25496768", "current_trial": 10, "dateTime": 1693661553767, "trialdata": {"revealed_states": [], "clicked_states": [], "num_clicks_accrued": [0, 0, 0, 0, 0, 0, 0, 0, 0, 0, 0, 0, 0], "stateRewards": ["", -10, -10, -10, 10, -10, 10, 10, -10, -10, -10, -10, -10, -10, -10, -10, -10, -10, 10, -10, 10, -10, 10, -10, -10, -10, 10, -10, -10, -10, -10, -10, -10, 10], "withholdReward": false, "trial_id": "practice_2", "block": "test", "trialIndex": 3, "score": -26.5, "costs": 0, "simulationMode": [null, null, null, null, null], "rewards": [-10, -10, -10, 10, -10], "path": ["0", "0", "1", "2", "3", "4", "5"], "rt": [459, 21, 569, 1, 89], "actions": ["up", "up", "up", "right", "up"], "actionTimes": [4981, 5526, 6604, 7135, 7760], "queries": {"click": {"state": {"target": [], "time": []}, "edge": {"target": [], "time": []}}, "mouseover": {"state": {"target": [], "time": []}, "edge": {"target": [], "time": []}}, "mouseout": {"state": {"target": [], "time": []}, "edge": {"target": [], "time": []}}}, "displayed_time": "8.29", "trialTime": 12688, "trial_type": "mouselab-mdp", "trial_index": 10, "time_elapsed": 1227251, "internal_node_id": "0.0-2.1-2.1-1.1"}}, {"uniqueid": "w75066121:a25496768", "current_trial": 11, "dateTime": 1693661577480, "trialdata": {"view_history": [{"page_index": 0, "viewing_time": 20151}, {"page_index": 1, "viewing_time": 3557}], "rt": 23709, "trial_id": "mouselab_instructions_2_misaligned", "trial_type": "instructions", "trial_index": 11, "time_elapsed": 1250965, "internal_node_id": "0.0-2.1-3.1"}}, {"uniqueid": "w75066121:a25496768", "current_trial": 12, "dateTime": 1693662045603, "trialdata": {"rt": 468117, "response": {"Q0": "The cost for clicking on nodes may vary between nodes.", "Q1": "The better I perform the higher my bonus will be.", "Q2": "No, the amount of cash at each node of the web may be different each time.", "Q3": "To get the highest total score.", "Q4": "Only before moving the spider.", "Q5": "3 seconds"}, "question_order": [0, 1, 2, 3, 4, 5], "correct": {"Q0": "The cost for clicking on nodes may vary between nodes.", "Q1": "The better I perform the higher my bonus will be.", "Q2": "No, the amount of cash at each node of the web may be different each time.", "Q3": "To get the highest total score.", "Q4": "Only before moving the spider.", "Q5": "3 seconds"}, "trial_id": "mouselab_quiz_misaligned", "trial_type": "survey-multi-choice", "trial_index": 12, "time_elapsed": 1719088, "internal_node_id": "0.0-2.1-4.1"}}, {"uniqueid": "w75066121:a25496768", "current_trial": 13, "dateTime": 1693662056186, "trialdata": {"rt": 10572, "response": {"Q0": "Yes"}, "question_order": [0], "trial_id": "repeat_check", "trial_type": "survey-multi-choice", "trial_index": 13, "time_elapsed": 1729671, "internal_node_id": "0.0-4.0-0.0"}}, {"uniqueid": "w75066121:a25496768", "current_trial": 14, "dateTime": 1693662167968, "trialdata": {"rt": 111768, "response": {"Q0": "The only time i participated was during your test class in this research . i did not get your information well", "Q1": "23", "Q2": "female", "Q3": "no", "Q4": "look forward to getting this done again"}, "trial_id": "finish_repeat", "trial_type": "survey-text", "trial_index": 14, "time_elapsed": 1841453, "internal_node_id": "0.0-5.0-0.0"}}, {"uniqueid": "w75066121:a25496768", "current_trial": 15, "dateTime": 1693662213998, "trialdata": {"rt": 46020, "stimulus": "<h1>Completion Code Instructions (1/2)</h1>\n<br><br><br><br>\nYou have reached the end of the experiment! The completion code consists of two parts: (1) a code with 2 characters (2) a code with 6 characters. On this page, you will receive the second part of the code. The first part of the completion code will be on the next page.\n<br><br>\nThe second part of your completion code is: <b>6GR61H</b>\n<br><br>\nPlease note this down. Then, press 'Next' in order to find the first part of your completion code. Once the data has been saved, you will receive this code either in this window or in the original browser window where you started the experiment.\n<br><br>\n<h2 style='color: red;'>Note: this is <strong>NOT</strong> the full completion code. Copy this down and click 'Next' to get the full completion code on the next page.</h2>\n\n", "response": 0, "trial_type": "html-button-response", "trial_index": 15, "time_elapsed": 1887483, "internal_node_id": "0.0-5.0-1.0"}}, {"uniqueid": "w75066121:a25496768", "current_trial": 16, "dateTime": 1693662215004, "trialdata": {"success": true, "trial_type": "fullscreen", "trial_index": 16, "time_elapsed": 1888488, "internal_node_id": "0.0-7.0"}}], "questiondata": {"params": {"CODE": "C6DMOQA6", "MIN_TIME": 14, "inspectCost": 1, "startTime": "Sat Sep 02 2023 14:12:02 GMT+0100 (West Africa Standard Time)", "bonusRate": 0.002, "variance": "1_2_4_8_44", "branching": "31123"}, "final_score": 0}, "eventdata": [{"eventtype": "initialized", "value": null, "timestamp": 1693660320340, "interval": 0}, {"eventtype": "window_resize", "value": [1024, 654], "timestamp": 1693660320340, "interval": 0}, {"eventtype": "window_resize", "value": [1024, 654], "timestamp": 1693660322053, "interval": 1713}, {"eventtype": "window_resize", "value": [1366, 768], "timestamp": 1693660329207, "interval": 7154}, {"eventtype": "focus", "value": "off", "timestamp": 1693660929204, "interval": 599997}, {"eventtype": "focus", "value": "on", "timestamp": 1693660929205, "interval": 1}, {"eventtype": "window_resize", "value": [1024, 654], "timestamp": 1693660929543, "interval": 338}, {"eventtype": "window_resize", "value": [1366, 768], "timestamp": 1693660931472, "interval": 1929}, {"eventtype": "focus", "value": "off", "timestamp": 1693661482924, "interval": 551452}, {"eventtype": "window_resize", "value": [1366, 767], "timestamp": 1693661483147, "interval": 223}, {"eventtype": "focus", "value": "on", "timestamp": 1693661483593, "interval": 446}, {"eventtype": "window_resize", "value": [1366, 768], "timestamp": 1693661483822, "interval": 229}, {"eventtype": "window_resize", "value": [1024, 654], "timestamp": 1693662214270, "interval": 730448}], "useragent": "Mozilla/5.0 (Windows NT 10.0; Win64; x64) AppleWebKit/537.36 (KHTML, like Gecko) Chrome/116.0.0.0 Safari/537.36", "mode": "live", "id": "w75066121:a25496768", "status": "user data saved", "Beginhit": "2023-09-02 13:11:55.533962", "Beginexp": "2023-09-02 13:12:11.577319", "Endhit": "2023-09-02 13:43:37.975807", "psiturkStatus": 3, "browser": "<redacted>", "platform": "windows", "language": "en-US", "excludeReason": "quizfail"}