{"condition": 0, "counterbalance": 0, "assignmentId": "a15410429", "workerId": "w97908548", "hitId": "h32801483", "currenttrial": 61, "bonus": 0, "data": [{"uniqueid": "w97908548:a15410429", "current_trial": 0, "dateTime": 1693481190948, "trialdata": {"success": true, "trial_type": "fullscreen", "trial_index": 0, "time_elapsed": 461705, "internal_node_id": "0.0-0.0"}}, {"uniqueid": "w97908548:a15410429", "current_trial": 1, "dateTime": 1693481220744, "trialdata": {"view_history": [{"page_index": 0, "viewing_time": 29778}], "rt": 29779, "trial_id": "exp_instructions_control", "trial_type": "instructions", "trial_index": 1, "time_elapsed": 491503, "internal_node_id": "0.0-1.0"}}, {"uniqueid": "w97908548:a15410429", "current_trial": 2, "dateTime": 1693481654497, "trialdata": {"view_history": [{"page_index": 0, "viewing_time": 156679}, {"page_index": 1, "viewing_time": 125959}, {"page_index": 2, "viewing_time": 45952}, {"page_index": 3, "viewing_time": 105160}], "rt": 433751, "trial_id": "mouselab_instructions_1_control", "trial_type": "instructions", "trial_index": 2, "time_elapsed": 925255, "internal_node_id": "0.0-2.0-1.0"}}, {"uniqueid": "w97908548:a15410429", "current_trial": 3, "dateTime": 1693481704228, "trialdata": {"revealed_states": [], "clicked_states": ["4", "7", "6", "5", "1"], "num_clicks_accrued": [0, 0, 0, 0, 0, 0, 0, 0, 0, 0, 0, 0, 0], "stateRewards": ["", 10, -10, 10, -10, -10, -10, -10, -10, 10, -10, 10, 10, -10, 10, 10, 10, 10, -10, 10, -10, -10, -10, -10, -10, 10, -10, 10, -10, -10, -10, 10, -10, 10], "withholdReward": false, "trial_id": "practice_1", "block": "test", "trialIndex": 0, "score": 11, "costs": -2.5, "simulationMode": [null, null, null, null, null], "rewards": [10, -10, 10, -10, 10], "path": ["0", "0", "1", "2", "3", "8", "9"], "rt": [23466, 73, 416, 1264, 1461], "actions": ["up", "up", "up", "left", "up"], "actionTimes": [35634, 36219, 37145, 38924, 40903], "queries": {"click": {"state": {"target": ["4", "7", "6", "5", "1"], "time": [15968, 17278, 20657, 23957, 29229]}, "edge": {"target": [], "time": []}}, "mouseover": {"state": {"target": ["1", "2", "3", "4", "6", "7", "6", "5", "5", "6", "2", "3", "5", "18", "0", "1", "1", "2", "3", "2", "1"], "time": [14502, 14702, 14912, 15477, 16264, 16511, 18059, 19432, 19932, 20246, 23126, 23588, 23747, 24904, 27341, 27474, 27720, 29466, 29549, 29835, 34413]}, "edge": {"target": [], "time": []}}, "mouseout": {"state": {"target": ["2", "3", "2", "1", "1", "2", "3", "4", "6", "7", "6", "5", "5", "6", "2", "3", "5", "5", "18", "0", "1", "1", "2", "3", "2"], "time": [11022, 11277, 11317, 11532, 14669, 14778, 15436, 16229, 16412, 17910, 19318, 19560, 20024, 20890, 23564, 23614, 24025, 24472, 24937, 27390, 27627, 29408, 29499, 29708, 34299]}, "edge": {"target": [], "time": []}}}, "displayed_time": "41.42", "trialTime": 48331, "trial_type": "mouselab-mdp", "trial_index": 3, "time_elapsed": 974986, "internal_node_id": "0.0-2.0-2.0-0.0"}}, {"uniqueid": "w97908548:a15410429", "current_trial": 4, "dateTime": 1693481732339, "trialdata": {"revealed_states": [], "clicked_states": ["12", "13", "14", "15", "17"], "num_clicks_accrued": [0, 0, 0, 0, 0, 0, 0, 0, 0, 0, 0, 0, 0], "stateRewards": ["", 10, -10, 10, -10, 10, 10, -10, 10, -10, -10, 10, 10, 10, 10, 10, -10, 10, -10, 10, -10, 10, -10, -10, -10, -10, -10, -10, 10, -10, 10, -10, 10, -10], "withholdReward": false, "trial_id": "practice_2", "block": "test", "trialIndex": 1, "score": 51, "costs": -2.5, "simulationMode": [null, null, null, null, null], "rewards": [10, 10, 10, 10, 10], "path": ["0", "0", "12", "13", "14", "15", "17"], "rt": [13386, 231, 431, 775, 154], "actions": ["right", "right", "right", "up", "right"], "actionTimes": [19789, 20544, 21493, 22787, 23448], "queries": {"click": {"state": {"target": ["12", "13", "14", "15", "17"], "time": [8336, 10160, 11981, 15032, 16750]}, "edge": {"target": [], "time": []}}, "mouseover": {"state": {"target": ["0", "12", "13", "14", "14", "20", "21", "19", "15", "17"], "time": [7629, 7838, 8573, 11227, 11693, 12668, 13092, 14470, 14774, 15499]}, "edge": {"target": [], "time": []}}, "mouseout": {"state": {"target": ["1", "12", "22", "21", "31", "14", "23", "0", "0", "12", "12", "13", "14", "14", "20", "21", "19", "14", "15", "17"], "time": [2877, 3531, 3614, 3666, 4758, 5496, 5663, 6410, 7641, 8393, 8531, 11089, 11292, 12485, 12758, 14400, 14499, 14660, 15283, 17048]}, "edge": {"target": [], "time": []}}}, "displayed_time": "23.96", "trialTime": 27923, "trial_type": "mouselab-mdp", "trial_index": 4, "time_elapsed": 1003098, "internal_node_id": "0.0-2.0-2.0-1.0"}}, {"uniqueid": "w97908548:a15410429", "current_trial": 5, "dateTime": 1693481802431, "trialdata": {"view_history": [{"page_index": 0, "viewing_time": 55090}, {"page_index": 1, "viewing_time": 15000}], "rt": 70090, "trial_id": "mouselab_instructions_2_control", "trial_type": "instructions", "trial_index": 5, "time_elapsed": 1073190, "internal_node_id": "0.0-2.0-3.0"}}, {"uniqueid": "w97908548:a15410429", "current_trial": 6, "dateTime": 1693481895793, "trialdata": {"rt": 93357, "response": {"Q0": "The cost for clicking on nodes may vary between nodes.", "Q1": "The better I perform the higher my bonus will be.", "Q2": "No, the amount of cash at each node of the web may be different each time.", "Q3": "To click on the least number of nodes.", "Q4": "Only before moving the spider.", "Q5": "3 seconds"}, "question_order": [0, 1, 2, 3, 4, 5], "correct": {"Q0": "The cost for clicking on nodes may vary between nodes.", "Q1": "The better I perform the higher my bonus will be.", "Q2": "No, the amount of cash at each node of the web may be different each time.", "Q3": "To get the highest total score.", "Q4": "Only before moving the spider.", "Q5": "3 seconds"}, "trial_id": "mouselab_quiz_control", "trial_type": "survey-multi-choice", "trial_index": 6, "time_elapsed": 1166552, "internal_node_id": "0.0-2.0-4.0"}}, {"uniqueid": "w97908548:a15410429", "current_trial": 7, "dateTime": 1693481908857, "trialdata": {"success": true, "trial_type": "fullscreen", "trial_index": 7, "time_elapsed": 1179616, "internal_node_id": "0.0-2.1-0.1-0.1"}}, {"uniqueid": "w97908548:a15410429", "current_trial": 8, "dateTime": 1693481923184, "trialdata": {"view_history": [{"page_index": 0, "viewing_time": 7428}, {"page_index": 1, "viewing_time": 2737}, {"page_index": 2, "viewing_time": 2239}, {"page_index": 3, "viewing_time": 1920}], "rt": 14325, "trial_id": "mouselab_instructions_1_control", "trial_type": "instructions", "trial_index": 8, "time_elapsed": 1193943, "internal_node_id": "0.0-2.1-1.1"}}, {"uniqueid": "w97908548:a15410429", "current_trial": 9, "dateTime": 1693481948091, "trialdata": {"revealed_states": [], "clicked_states": ["1", "2", "3", "8", "11"], "num_clicks_accrued": [0, 0, 0, 0, 0, 0, 0, 0, 0, 0, 0, 0, 0], "stateRewards": ["", 10, -10, 10, -10, -10, -10, -10, -10, 10, -10, 10, 10, -10, 10, 10, 10, 10, -10, 10, -10, -10, -10, -10, -10, 10, -10, 10, -10, -10, -10, 10, -10, 10], "withholdReward": false, "trial_id": "practice_1", "block": "test", "trialIndex": 2, "score": -9, "costs": -2.5, "simulationMode": [null, null, null, null, null], "rewards": [10, -10, 10, -10, -10], "path": ["0", "0", "1", "2", "3", "4", "6"], "rt": [12725, 329, 100, 490, 303], "actions": ["up", "up", "up", "right", "right"], "actionTimes": [15876, 16708, 17327, 18334, 19146], "queries": {"click": {"state": {"target": ["1", "2", "3", "8", "11"], "time": [4893, 6929, 9304, 11917, 13618]}, "edge": {"target": [], "time": []}}, "mouseover": {"state": {"target": ["1", "2", "3", "2", "1", "1", "2", "3", "3", "2", "3", "8", "1", "28", "11", "7"], "time": [3638, 3692, 3788, 3911, 3977, 4254, 5103, 5586, 5886, 6535, 7122, 11189, 12381, 12497, 12971, 14095]}, "edge": {"target": [], "time": []}}, "mouseout": {"state": {"target": ["0", "0", "0", "1", "2", "3", "2", "1", "1", "2", "3", "3", "2", "3", "3", "8", "1", "28", "11", "7"], "time": [1490, 2326, 2927, 3679, 3738, 3871, 3963, 4024, 5054, 5536, 5636, 6519, 6999, 9422, 10551, 12152, 12397, 12650, 13962, 15016]}, "edge": {"target": [], "time": []}}}, "displayed_time": "19.66", "trialTime": 24710, "trial_type": "mouselab-mdp", "trial_index": 9, "time_elapsed": 1218849, "internal_node_id": "0.0-2.1-2.1-0.1"}}, {"uniqueid": "w97908548:a15410429", "current_trial": 10, "dateTime": 1693481969245, "trialdata": {"revealed_states": [], "clicked_states": ["23", "25", "26", "29"], "num_clicks_accrued": [0, 0, 0, 0, 0, 0, 0, 0, 0, 0, 0, 0, 0], "stateRewards": ["", 10, -10, 10, -10, 10, 10, -10, 10, -10, -10, 10, 10, 10, 10, 10, -10, 10, -10, 10, -10, 10, -10, -10, -10, -10, -10, -10, 10, -10, 10, -10, 10, -10], "withholdReward": false, "trial_id": "practice_2", "block": "test", "trialIndex": 3, "score": 31.5, "costs": -2, "simulationMode": [null, null, null, null, null], "rewards": [10, 10, 10, 10, -10], "path": ["0", "0", "12", "13", "14", "15", "16"], "rt": [10477, 174, 354, 1871, 228], "actions": ["right", "right", "right", "up", "up"], "actionTimes": [13610, 14300, 15164, 17546, 18285], "queries": {"click": {"state": {"target": ["23", "25", "26", "29"], "time": [4199, 5719, 7914, 9806]}, "edge": {"target": [], "time": []}}, "mouseover": {"state": {"target": ["0", "23", "24", "24", "25", "26", "26", "29", "26", "29", "28", "1", "12"], "time": [3342, 3700, 4467, 4708, 5349, 5883, 6132, 6637, 7431, 9578, 10062, 11330, 11696]}, "edge": {"target": [], "time": []}}, "mouseout": {"state": {"target": ["0", "23", "24", "24", "25", "26", "26", "29", "26", "26", "29", "26", "28", "1", "12"], "time": [3434, 4384, 4517, 5183, 5833, 5932, 6598, 7406, 7970, 8430, 10013, 10046, 10098, 11368, 19679]}, "edge": {"target": [], "time": []}}}, "displayed_time": "18.79", "trialTime": 20946, "trial_type": "mouselab-mdp", "trial_index": 10, "time_elapsed": 1240002, "internal_node_id": "0.0-2.1-2.1-1.1"}}, {"uniqueid": "w97908548:a15410429", "current_trial": 11, "dateTime": 1693481980623, "trialdata": {"view_history": [{"page_index": 0, "viewing_time": 9683}, {"page_index": 1, "viewing_time": 1687}], "rt": 11371, "trial_id": "mouselab_instructions_2_control", "trial_type": "instructions", "trial_index": 11, "time_elapsed": 1251382, "internal_node_id": "0.0-2.1-3.1"}}, {"uniqueid": "w97908548:a15410429", "current_trial": 12, "dateTime": 1693482018560, "trialdata": {"rt": 37934, "response": {"Q0": "The cost for clicking on nodes may vary between nodes.", "Q1": "The better I perform the higher my bonus will be.", "Q2": "No, the amount of cash at each node of the web may be different each time.", "Q3": "To get the highest total score.", "Q4": "Only before moving the spider.", "Q5": "3 seconds"}, "question_order": [0, 1, 2, 3, 4, 5], "correct": {"Q0": "The cost for clicking on nodes may vary between nodes.", "Q1": "The better I perform the higher my bonus will be.", "Q2": "No, the amount of cash at each node of the web may be different each time.", "Q3": "To get the highest total score.", "Q4": "Only before moving the spider.", "Q5": "3 seconds"}, "trial_id": "mouselab_quiz_control", "trial_type": "survey-multi-choice", "trial_index": 12, "time_elapsed": 1289319, "internal_node_id": "0.0-2.1-4.1"}}, {"uniqueid": "w97908548:a15410429", "current_trial": 13, "dateTime": 1693482028312, "trialdata": {"rt": 9746, "response": {"Q0": "No"}, "question_order": [0], "trial_id": "repeat_check", "trial_type": "survey-multi-choice", "trial_index": 13, "time_elapsed": 1299071, "internal_node_id": "0.0-4.0-0.0"}}, {"uniqueid": "w97908548:a15410429", "current_trial": 14, "dateTime": 1693482073780, "trialdata": {"rt": 45462, "stimulus": "\n<h1> Get ready to start the game! </h1>\n\nThank you for reading the instructions. Get ready start with the 40 rounds of this game.\n<br><br>\nIf you need to take a break, feel free to take one after the end of a round, before continuing to the next one.\n<br><br>\nRemember, the more money the spider gets, the bigger your bonus will be!\n<br><br>\n<div style='text-align: center;'>Press <code>space</code> to begin.</div>\n\n<br><br>\n(If, at any point, the <code>space</code> key does not take you to the next page, click once on the text and try again.)", "response": " ", "trial_id": "mdp_ready", "trial_type": "html-keyboard-response", "trial_index": 14, "time_elapsed": 1344539, "internal_node_id": "0.0-6.0-0.0"}}, {"uniqueid": "w97908548:a15410429", "current_trial": 15, "dateTime": 1693482097969, "trialdata": {"revealed_states": [], "clicked_states": [], "num_clicks_accrued": [0, 0, 0, 0, 0, 0, 0, 0, 0, 0, 0, 0, 0], "stateRewards": ["", 2, -3, 5, 11, -79, 54, 11, -9, -78, 33, 22, -2, -1, 2, 14, 43, 34, 1, 10, 49, -65, 39, -1, 1, -1, 3, -16, -2, 11, 2, 12, 48, -65], "withholdReward": false, "trial_id": "mdp_trial_1", "block": "test", "trialIndex": 4, "score": -56, "costs": 0, "simulationMode": [null, null, null, null, null], "rewards": [-2, -1, 2, 10, -65], "path": ["0", "0", "12", "13", "14", "19", "21"], "rt": [6287, 768, 411, 1176, 310], "actions": ["right", "right", "right", "down", "down"], "actionTimes": [10971, 12246, 13170, 14851, 15667], "queries": {"click": {"state": {"target": [], "time": []}, "edge": {"target": [], "time": []}}, "mouseover": {"state": {"target": ["1"], "time": [6832]}, "edge": {"target": [], "time": []}}, "mouseout": {"state": {"target": ["29", "30", "32", "23", "0", "0", "1", "0", "12"], "time": [2489, 2532, 2549, 2965, 3518, 6580, 18252, 21752, 22351]}, "edge": {"target": [], "time": []}}}, "displayed_time": "18.68", "trialTime": 23976, "trial_type": "mouselab-mdp", "trial_index": 15, "time_elapsed": 1368726, "internal_node_id": "0.0-6.0-1.0-0.0"}}, {"uniqueid": "w97908548:a15410429", "current_trial": 16, "dateTime": 1693482124004, "trialdata": {"revealed_states": [], "clicked_states": ["1", "2", "3", "8", "10"], "num_clicks_accrued": [0, 0, 0, 0, 0, 0, 0, 0, 0, 0, 0, 0, 0], "stateRewards": ["", -1, 1, 6, -6, 70, 66, 67, -16, -75, -35, 37, -1, 4, 4, -6, 47, -9, 63, 15, 21, -63, 13, 1, 3, -6, 10, 79, -29, 18, -15, 9, -67, -19], "withholdReward": false, "trial_id": "mdp_trial_2", "block": "test", "trialIndex": 5, "score": -91, "costs": -7, "simulationMode": [null, null, null, null, null], "rewards": [1, 3, -6, -15, -67], "path": ["0", "0", "23", "24", "25", "30", "32"], "rt": [14008, 938, 406, 946, 198], "actions": ["left", "left", "left", "down", "down"], "actionTimes": [16787, 18234, 19151, 20607, 21323], "queries": {"click": {"state": {"target": ["1", "2", "3", "8", "10"], "time": [3712, 5776, 8020, 10160, 12433]}, "edge": {"target": [], "time": []}}, "mouseover": {"state": {"target": ["0", "1", "1", "2", "3", "8", "10", "10", "28", "2", "7", "7", "0", "23", "18"], "time": [2848, 3248, 3379, 4007, 6140, 9403, 10451, 12132, 14401, 14667, 14746, 14979, 15316, 15545, 16084]}, "edge": {"target": [], "time": []}}, "mouseout": {"state": {"target": ["0", "0", "0", "0", "1", "1", "2", "3", "8", "10", "10", "10", "28", "2", "7", "7", "0", "23", "18"], "time": [1098, 1596, 2408, 3177, 3274, 3874, 5841, 8511, 10407, 10484, 12452, 12756, 14466, 14713, 14796, 15069, 15370, 15982, 16099]}, "edge": {"target": [], "time": []}}}, "displayed_time": "21.84", "trialTime": 25792, "trial_type": "mouselab-mdp", "trial_index": 16, "time_elapsed": 1394762, "internal_node_id": "0.0-6.0-1.0-1.0"}}, {"uniqueid": "w97908548:a15410429", "current_trial": 17, "dateTime": 1693482154575, "trialdata": {"revealed_states": [], "clicked_states": ["12", "13", "14", "15", "16"], "num_clicks_accrued": [0, 0, 0, 0, 0, 0, 0, 0, 0, 0, 0, 0, 0], "stateRewards": ["", 2, 4, 7, -6, -76, -81, 2, 5, -66, -3, 36, -2, -4, 6, -2, -69, 4, -49, -6, 67, 38, -67, 2, 1, 1, 6, -68, -21, 52, -16, -16, 6, -70], "withholdReward": false, "trial_id": "mdp_trial_3", "block": "test", "trialIndex": 6, "score": 55, "costs": -7, "simulationMode": [null, null, null, null, null], "rewards": [2, 1, 1, 6, 52], "path": ["0", "0", "23", "24", "25", "26", "29"], "rt": [16912, 173, 452, 1684, 149], "actions": ["left", "left", "left", "up", "left"], "actionTimes": [19458, 20170, 21131, 23329, 23991], "queries": {"click": {"state": {"target": ["12", "13", "14", "15", "16"], "time": [4357, 6315, 8338, 10314, 12787]}, "edge": {"target": [], "time": []}}, "mouseover": {"state": {"target": ["12", "12", "13", "14", "15", "16", "14", "0"], "time": [3729, 4025, 4562, 7106, 8588, 12485, 15217, 16419]}, "edge": {"target": [], "time": []}}, "mouseout": {"state": {"target": ["18", "12", "0", "12", "12", "13", "14", "15", "15", "16", "14", "0"], "time": [1713, 1847, 2277, 3776, 4524, 6823, 8505, 10401, 12328, 15015, 15248, 29585]}, "edge": {"target": [], "time": []}}}, "displayed_time": "24.51", "trialTime": 30353, "trial_type": "mouselab-mdp", "trial_index": 17, "time_elapsed": 1425333, "internal_node_id": "0.0-6.0-1.0-2.0"}}, {"uniqueid": "w97908548:a15410429", "current_trial": 18, "dateTime": 1693482186274, "trialdata": {"revealed_states": [], "clicked_states": ["23", "24", "25", "30", "31"], "num_clicks_accrued": [0, 0, 0, 0, 0, 0, 0, 0, 0, 0, 0, 0, 0], "stateRewards": ["", -1, 2, 7, 8, 75, 67, -11, 6, 52, -17, 38, -1, 4, -8, 14, 74, -37, -17, -12, 52, 55, 71, -2, -1, -5, 2, 21, 6, -88, -14, 64, -61, -47], "withholdReward": false, "trial_id": "mdp_trial_4", "block": "test", "trialIndex": 7, "score": 35, "costs": -7, "simulationMode": [null, null, null, null, null], "rewards": [-2, -1, -5, -14, 64], "path": ["0", "0", "23", "24", "25", "30", "31"], "rt": [16741, 270, 389, 809, 325], "actions": ["left", "left", "left", "down", "right"], "actionTimes": [21569, 22353, 23255, 24573, 25405], "queries": {"click": {"state": {"target": ["23", "24", "25", "30", "31"], "time": [6819, 9252, 11699, 14161, 16530]}, "edge": {"target": [], "time": []}}, "mouseover": {"state": {"target": ["31", "24", "23", "12", "12", "0", "23", "23", "24", "25", "30", "31", "23"], "time": [5510, 5547, 5833, 5934, 6049, 6281, 6382, 6531, 8624, 11422, 13390, 16240, 19805]}, "edge": {"target": [], "time": []}}, "mouseout": {"state": {"target": ["23", "1", "31", "24", "23", "12", "12", "0", "23", "23", "24", "25", "30", "31", "23"], "time": [3968, 4168, 5544, 5577, 5863, 5960, 6145, 6342, 6410, 8576, 11273, 11922, 16192, 19457, 30388]}, "edge": {"target": [], "time": []}}}, "displayed_time": "25.91", "trialTime": 31449, "trial_type": "mouselab-mdp", "trial_index": 18, "time_elapsed": 1457032, "internal_node_id": "0.0-6.0-1.0-3.0"}}, {"uniqueid": "w97908548:a15410429", "current_trial": 19, "dateTime": 1693482223034, "trialdata": {"revealed_states": [], "clicked_states": ["1", "2", "7", "10", "8", "3", "11"], "num_clicks_accrued": [0, 0, 0, 0, 0, 0, 0, 0, 0, 0, 0, 0, 0], "stateRewards": ["", -2, -2, -7, -13, -10, 49, -68, -1, 84, 70, 88, 1, 4, 4, 12, -57, 25, 30, 8, -1, -77, 57, 2, 3, 2, 3, -18, -80, 23, -15, -41, 70, 11], "withholdReward": false, "trial_id": "mdp_trial_5", "block": "test", "trialIndex": 8, "score": 66.2, "costs": -9.8, "simulationMode": [null, null, null, null, null], "rewards": [-2, -2, -7, -1, 88], "path": ["0", "0", "1", "2", "3", "8", "11"], "rt": [23269, 92, 821, 709, 279], "actions": ["up", "up", "up", "left", "left"], "actionTimes": [26429, 27038, 28366, 29586, 30371], "queries": {"click": {"state": {"target": ["1", "2", "7", "10", "8", "3", "11"], "time": [4579, 6544, 8914, 12793, 16468, 18584, 21816]}, "edge": {"target": [], "time": []}}, "mouseover": {"state": {"target": ["1", "2", "7", "10", "3", "4", "4", "3", "8", "10", "1", "8", "8", "9", "8", "3", "2", "2", "11", "10", "2"], "time": [3897, 4832, 8678, 10910, 11074, 11129, 11307, 11423, 11758, 11897, 13122, 15177, 15520, 15576, 16192, 17718, 18807, 19084, 21484, 22047, 25099]}, "edge": {"target": [], "time": []}}, "mouseout": {"state": {"target": ["0", "1", "2", "2", "7", "10", "3", "4", "4", "3", "8", "10", "1", "10", "8", "8", "9", "8", "3", "2", "2", "11", "10", "2"], "time": [3631, 4767, 6637, 6895, 9625, 10940, 11091, 11176, 11362, 11525, 11822, 12989, 14806, 14938, 15237, 15534, 16135, 16671, 18750, 18934, 21254, 21998, 24599, 25170]}, "edge": {"target": [], "time": []}}}, "displayed_time": "30.89", "trialTime": 36505, "trial_type": "mouselab-mdp", "trial_index": 19, "time_elapsed": 1493791, "internal_node_id": "0.0-6.0-1.0-4.0"}}, {"uniqueid": "w97908548:a15410429", "current_trial": 20, "dateTime": 1693482244716, "trialdata": {"revealed_states": [], "clicked_states": [], "num_clicks_accrued": [0, 0, 0, 0, 0, 0, 0, 0, 0, 0, 0, 0, 0], "stateRewards": ["", 1, 3, -2, 15, 51, 15, -19, 11, 67, -45, -73, 2, 4, -2, -13, 36, 9, -28, 10, -30, 31, 16, 1, 2, -1, -16, 14, -22, 36, -1, 88, -5, 45], "withholdReward": false, "trial_id": "mdp_trial_6", "block": "test", "trialIndex": 9, "score": -2, "costs": 0, "simulationMode": [null, null, null, null, null], "rewards": [1, 3, -2, 15, -19], "path": ["0", "0", "1", "2", "3", "4", "7"], "rt": [10558, 335, 363, 1086, 269], "actions": ["up", "up", "up", "right", "down"], "actionTimes": [12201, 13042, 13919, 15525, 16308], "queries": {"click": {"state": {"target": [], "time": []}, "edge": {"target": [], "time": []}}, "mouseover": {"state": {"target": ["0", "12", "1", "1", "1", "2", "10", "1", "1", "12", "0", "0", "1", "18"], "time": [1966, 3063, 3521, 4350, 4780, 6014, 6429, 8563, 8974, 9973, 10027, 10247, 10756, 11444]}, "edge": {"target": [], "time": []}}, "mouseout": {"state": {"target": ["0", "0", "12", "1", "1", "1", "2", "10", "1", "1", "12", "0", "0", "1", "18", "13", "12", "12"], "time": [1721, 3015, 3279, 3895, 4583, 5960, 6160, 6984, 8857, 9895, 10013, 10057, 10314, 11332, 18683, 19149, 19333, 19499]}, "edge": {"target": [], "time": []}}}, "displayed_time": "16.82", "trialTime": 21435, "trial_type": "mouselab-mdp", "trial_index": 20, "time_elapsed": 1515473, "internal_node_id": "0.0-6.0-1.0-5.0"}}, {"uniqueid": "w97908548:a15410429", "current_trial": 21, "dateTime": 1693482285925, "trialdata": {"revealed_states": [], "clicked_states": ["1", "2", "7", "6", "5", "9", "11", "10", "27", "29", "28"], "num_clicks_accrued": [0, 0, 0, 0, 0, 0, 0, 0, 0, 0, 0, 0, 0], "stateRewards": ["", 1, 2, 2, -15, -84, 28, -26, 13, 31, 86, 30, -2, 1, -1, -8, 66, -40, -1, -10, -32, 57, -17, 1, 2, -2, 9, -23, 77, 85, 12, -32, -62, -35], "withholdReward": false, "trial_id": "mdp_trial_7", "block": "test", "trialIndex": 10, "score": 88.6, "costs": -15.400000000000002, "simulationMode": [null, null, null, null, null], "rewards": [1, 2, 2, 13, 86], "path": ["0", "0", "1", "2", "3", "8", "10"], "rt": [31176, 299, 134, 468, 717], "actions": ["up", "up", "up", "left", "down"], "actionTimes": [32741, 33553, 34202, 35187, 36417], "queries": {"click": {"state": {"target": ["1", "2", "7", "6", "5", "9", "11", "10", "27", "29", "28"], "time": [3259, 5972, 8131, 10268, 13235, 15684, 18096, 20477, 23415, 26156, 28770]}, "edge": {"target": [], "time": []}}, "mouseover": {"state": {"target": ["0", "0", "1", "2", "2", "7", "6", "5", "5", "9", "11", "10", "27", "28", "26", "29", "26", "28", "10", "2"], "time": [1578, 2250, 2631, 4097, 4908, 7474, 10028, 12235, 12702, 15472, 17864, 19978, 23061, 24360, 25714, 25933, 28189, 28310, 31604, 31885]}, "edge": {"target": [], "time": []}}, "mouseout": {"state": {"target": ["18", "7", "0", "0", "0", "0", "1", "1", "2", "2", "7", "6", "5", "5", "9", "11", "10", "10", "27", "27", "28", "26", "29", "26", "28", "10", "2", "1", "0"], "time": [413, 635, 716, 1251, 1637, 2278, 3494, 3793, 4112, 6392, 9890, 12138, 12402, 13823, 17584, 19546, 21262, 22845, 23482, 23643, 25657, 25748, 28057, 28229, 31174, 31835, 31952, 39745, 39794]}, "edge": {"target": [], "time": []}}}, "displayed_time": "36.93", "trialTime": 40943, "trial_type": "mouselab-mdp", "trial_index": 21, "time_elapsed": 1556683, "internal_node_id": "0.0-6.0-1.0-6.0"}}, {"uniqueid": "w97908548:a15410429", "current_trial": 22, "dateTime": 1693482305112, "trialdata": {"revealed_states": [], "clicked_states": [], "num_clicks_accrued": [0, 0, 0, 0, 0, 0, 0, 0, 0, 0, 0, 0, 0], "stateRewards": ["", 1, 1, -2, 7, -31, -6, 76, 1, -36, -16, -53, 2, 1, 7, 13, -47, -10, 47, -7, 72, 46, -56, -2, -2, -2, 11, -80, 44, 38, 16, 67, 85, -78], "withholdReward": false, "trial_id": "mdp_trial_8", "block": "test", "trialIndex": 11, "score": 75, "costs": 0, "simulationMode": [null, null, null, null, null], "rewards": [2, 1, 7, -7, 72], "path": ["0", "0", "12", "13", "14", "19", "20"], "rt": [7192, 256, 484, 1020, 341], "actions": ["right", "right", "right", "down", "right"], "actionTimes": [9129, 9905, 10900, 12435, 13297], "queries": {"click": {"state": {"target": [], "time": []}, "edge": {"target": [], "time": []}}, "mouseover": {"state": {"target": ["12", "13", "12", "0"], "time": [4721, 5236, 5523, 5924]}, "edge": {"target": [], "time": []}}, "mouseout": {"state": {"target": ["0", "12", "13", "12", "0"], "time": [4470, 5209, 5469, 5538, 5967]}, "edge": {"target": [], "time": []}}}, "displayed_time": "15.94", "trialTime": 18944, "trial_type": "mouselab-mdp", "trial_index": 22, "time_elapsed": 1575871, "internal_node_id": "0.0-6.0-1.0-7.0"}}, {"uniqueid": "w97908548:a15410429", "current_trial": 23, "dateTime": 1693482352173, "trialdata": {"revealed_states": [], "clicked_states": ["22", "21", "20", "17", "16", "18", "27", "29", "28", "26", "25", "24", "23"], "num_clicks_accrued": [0, 0, 0, 0, 0, 0, 0, 0, 0, 0, 0, 0, 0], "stateRewards": ["", -1, 1, -6, -1, 80, 23, 2, -11, 73, -81, 59, 1, 3, 5, -1, -26, 28, -3, 16, -59, -13, -50, -2, -2, 2, 15, -50, 86, 17, -4, 37, 35, 44], "withholdReward": false, "trial_id": "mdp_trial_9", "block": "test", "trialIndex": 12, "score": 80.8, "costs": -18.2, "simulationMode": [null, null, null, null, null], "rewards": [-2, -2, 2, 15, 86], "path": ["0", "0", "23", "24", "25", "26", "28"], "rt": [32652, 329, 417, 561, 469], "actions": ["left", "left", "left", "up", "right"], "actionTimes": [38996, 39843, 40778, 41854, 42830], "queries": {"click": {"state": {"target": ["22", "21", "20", "17", "16", "18", "27", "29", "28", "26", "25", "24", "23"], "time": [8144, 10545, 12641, 14824, 17139, 19361, 22138, 24394, 26607, 30167, 32172, 34366, 36314]}, "edge": {"target": [], "time": []}}, "mouseover": {"state": {"target": ["0", "22", "22", "22", "21", "20", "19", "14", "17", "16", "18", "1", "28", "26", "27", "29", "26", "28", "24", "23", "24", "26", "25", "24", "23", "0", "12"], "time": [6497, 6722, 7395, 7773, 9805, 11335, 13717, 13875, 14287, 16987, 19111, 21363, 21459, 21578, 21927, 24181, 25956, 26123, 29253, 29419, 29603, 29842, 30604, 34100, 35990, 37630, 37796]}, "edge": {"target": [], "time": []}}, "mouseout": {"state": {"target": ["0", "1", "10", "28", "25", "0", "0", "22", "22", "22", "22", "21", "20", "19", "14", "17", "16", "16", "18", "1", "28", "26", "27", "29", "29", "26", "28", "24", "23", "24", "26", "25", "24", "23", "0", "12", "12"], "time": [437, 477, 612, 648, 684, 5957, 6643, 6739, 7604, 8305, 8637, 11086, 13566, 13773, 14017, 16664, 17151, 19010, 21262, 21402, 21499, 21715, 24047, 24442, 25925, 26005, 29221, 29307, 29587, 29643, 30488, 34021, 35681, 37372, 37746, 37901, 45234]}, "edge": {"target": [], "time": []}}}, "displayed_time": "43.34", "trialTime": 46811, "trial_type": "mouselab-mdp", "trial_index": 23, "time_elapsed": 1622932, "internal_node_id": "0.0-6.0-1.0-8.0"}}, {"uniqueid": "w97908548:a15410429", "current_trial": 24, "dateTime": 1693482411491, "trialdata": {"revealed_states": [], "clicked_states": ["32", "31", "33", "30", "25", "24", "23", "29", "27", "26", "28"], "num_clicks_accrued": [0, 0, 0, 0, 0, 0, 0, 0, 0, 0, 0, 0, 0], "stateRewards": ["", -1, -1, 4, -16, -75, 81, -51, -7, -84, 73, -30, -2, 1, -3, -16, -77, 33, 14, 1, 45, 87, -66, 2, 2, -5, -7, -19, -17, 79, -3, 8, 49, 47], "withholdReward": false, "trial_id": "mdp_trial_10", "block": "test", "trialIndex": 13, "score": 55.599999999999994, "costs": -15.400000000000002, "simulationMode": [null, null, null, null, null], "rewards": [2, 2, -5, -7, 79], "path": ["0", "0", "23", "24", "25", "26", "29"], "rt": [30938, 342, 344, 652, 811], "actions": ["left", "left", "left", "up", "left"], "actionTimes": [49566, 50419, 51271, 52429, 53754], "queries": {"click": {"state": {"target": ["32", "31", "33", "30", "25", "24", "23", "29", "27", "26", "28"], "time": [20394, 22726, 24922, 27676, 29757, 32165, 34790, 37785, 40921, 43221, 45740]}, "edge": {"target": [], "time": []}}, "mouseover": {"state": {"target": ["0", "23", "30", "32", "33", "31", "30", "33", "30", "30", "25", "24", "23", "23", "30", "33", "29", "29", "27", "26", "28", "0", "23"], "time": [18762, 19535, 19808, 20176, 20936, 21966, 24569, 24669, 26855, 27131, 28512, 31544, 34162, 34426, 36023, 37138, 37311, 37539, 39918, 42802, 45213, 48280, 48546]}, "edge": {"target": [], "time": []}}, "mouseout": {"state": {"target": ["19", "22", "26", "24", "23", "0", "0", "23", "30", "32", "33", "31", "31", "30", "33", "30", "30", "25", "24", "23", "23", "24", "30", "33", "29", "29", "27", "26", "28", "0", "23", "1"], "time": [15290, 15306, 17658, 17960, 18008, 18367, 19486, 19577, 19904, 20818, 21535, 23317, 24533, 24623, 26814, 26880, 28362, 31342, 34109, 34243, 35456, 35624, 36057, 37181, 37353, 39834, 42785, 45147, 48180, 48346, 48561, 57920]}, "edge": {"target": [], "time": []}}}, "displayed_time": "54.27", "trialTime": 59059, "trial_type": "mouselab-mdp", "trial_index": 24, "time_elapsed": 1682248, "internal_node_id": "0.0-6.0-1.0-9.0"}}, {"uniqueid": "w97908548:a15410429", "current_trial": 25, "dateTime": 1693482450879, "trialdata": {"revealed_states": [], "clicked_states": ["32", "31", "33", "29", "27", "28", "26", "25", "24", "23", "21", "22", "20"], "num_clicks_accrued": [0, 0, 0, 0, 0, 0, 0, 0, 0, 0, 0, 0, 0], "stateRewards": ["", -1, 2, -2, 13, -56, -28, 10, 14, 53, -80, -29, 1, -3, -3, -14, 14, 9, -40, -9, 18, 18, 48, 1, 1, 1, -9, 64, -39, -9, 7, -52, -78, 7], "withholdReward": false, "trial_id": "mdp_trial_11", "block": "test", "trialIndex": 14, "score": 39.8, "costs": -18.2, "simulationMode": [null, null, null, null, null], "rewards": [1, 1, 1, -9, 64], "path": ["0", "0", "23", "24", "25", "26", "27"], "rt": [31342, 223, 268, 595, 234], "actions": ["left", "left", "left", "up", "up"], "actionTimes": [33161, 33892, 34670, 35780, 36533], "queries": {"click": {"state": {"target": ["32", "31", "33", "29", "27", "28", "26", "25", "24", "23", "21", "22", "20"], "time": [3846, 6299, 8768, 10740, 12774, 14504, 16791, 18723, 20736, 22681, 25008, 27461, 29709]}, "edge": {"target": [], "time": []}}, "mouseover": {"state": {"target": ["10", "8", "9", "8", "10", "23", "31", "32", "31", "30", "33", "29", "29", "27", "28", "26", "25", "24", "23", "0", "19", "21", "21", "22", "19", "20", "19", "23"], "time": [2748, 2792, 2847, 3092, 3166, 3259, 3324, 3632, 4491, 8254, 8387, 9373, 9776, 12317, 13966, 16404, 17663, 20312, 21827, 23975, 24310, 24390, 24646, 27095, 29302, 29494, 30954, 32070]}, "edge": {"target": [], "time": []}}, "mouseout": {"state": {"target": ["0", "10", "8", "9", "8", "10", "23", "31", "32", "31", "30", "33", "29", "29", "27", "28", "26", "25", "25", "24", "23", "0", "19", "21", "21", "22", "19", "20", "19", "22"], "time": [1470, 2776, 2833, 3067, 3125, 3182, 3276, 3342, 3892, 8239, 8356, 9220, 9456, 11326, 13583, 16047, 17514, 19262, 19830, 21511, 23159, 24142, 24357, 24447, 26957, 29254, 29356, 30569, 31674, 31717]}, "edge": {"target": [], "time": []}}}, "displayed_time": "37.05", "trialTime": 39125, "trial_type": "mouselab-mdp", "trial_index": 25, "time_elapsed": 1721637, "internal_node_id": "0.0-6.0-1.0-10.0"}}, {"uniqueid": "w97908548:a15410429", "current_trial": 26, "dateTime": 1693482488965, "trialdata": {"revealed_states": [], "clicked_states": ["10", "11", "9", "5", "6", "7", "16", "17", "14", "18"], "num_clicks_accrued": [0, 0, 0, 0, 0, 0, 0, 0, 0, 0, 0, 0, 0], "stateRewards": ["", -1, 4, -5, 9, 29, -75, -42, -16, 24, -28, -41, 2, -3, 1, 10, 60, 47, 55, -1, -53, 22, -40, 2, -3, -6, 4, -26, 44, 54, 15, -76, 42, 14], "withholdReward": false, "trial_id": "mdp_trial_12", "block": "test", "trialIndex": 15, "score": 56, "costs": -14.000000000000002, "simulationMode": [null, null, null, null, null], "rewards": [2, -3, 1, 10, 60], "path": ["0", "0", "12", "13", "14", "15", "16"], "rt": [28970, 195, 314, 1116, 44], "actions": ["right", "right", "right", "up", "up"], "actionTimes": [30935, 31638, 32471, 34105, 34666], "queries": {"click": {"state": {"target": ["10", "11", "9", "5", "6", "7", "16", "17", "14", "18"], "time": [3539, 6061, 8436, 10701, 12899, 15191, 17654, 20650, 23432, 26270]}, "edge": {"target": [], "time": []}}, "mouseover": {"state": {"target": ["1", "2", "10", "11", "9", "5", "6", "7", "16", "17", "14", "14", "18", "18", "14", "20", "19", "0", "15"], "time": [2470, 2586, 2914, 5481, 8246, 10425, 12642, 14907, 17443, 20101, 22822, 23066, 25411, 25729, 28425, 29032, 29644, 30026, 30091]}, "edge": {"target": [], "time": []}}, "mouseout": {"state": {"target": ["23", "0", "1", "2", "10", "11", "9", "5", "6", "6", "7", "16", "17", "14", "14", "14", "18", "18", "14", "20", "19", "0", "18", "15"], "time": [715, 2400, 2519, 2697, 5418, 7943, 10291, 12358, 12910, 14781, 17137, 19940, 22748, 22900, 24516, 25365, 25467, 27210, 28442, 29490, 29660, 30041, 30090, 36474]}, "edge": {"target": [], "time": []}}}, "displayed_time": "35.19", "trialTime": 37817, "trial_type": "mouselab-mdp", "trial_index": 26, "time_elapsed": 1759724, "internal_node_id": "0.0-6.0-1.0-11.0"}}, {"uniqueid": "w97908548:a15410429", "current_trial": 27, "dateTime": 1693482521224, "trialdata": {"revealed_states": [], "clicked_states": ["21", "22", "20", "19", "14", "13", "12"], "num_clicks_accrued": [0, 0, 0, 0, 0, 0, 0, 0, 0, 0, 0, 0, 0], "stateRewards": ["", 1, 3, 1, -13, 52, -28, 67, -14, 3, 63, -70, -1, -4, 7, -11, -10, 47, -18, 6, 69, -9, -61, 2, 3, -6, 10, 63, -34, 40, -6, -79, -35, -32], "withholdReward": false, "trial_id": "mdp_trial_13", "block": "test", "trialIndex": 16, "score": 67.2, "costs": -9.8, "simulationMode": [null, null, null, null, null], "rewards": [-1, -4, 7, 6, 69], "path": ["0", "0", "12", "13", "14", "19", "20"], "rt": [21298, 147, 230, 980, 666], "actions": ["right", "right", "right", "down", "right"], "actionTimes": [22663, 23327, 24077, 25576, 26762], "queries": {"click": {"state": {"target": ["21", "22", "20", "19", "14", "13", "12"], "time": [3278, 5794, 8188, 11731, 14182, 17136, 19139]}, "edge": {"target": [], "time": []}}, "mouseover": {"state": {"target": ["0", "19", "21", "22", "19", "20", "19", "14", "13", "12", "0"], "time": [1964, 2834, 3015, 5544, 7758, 7825, 11058, 13855, 16151, 17813, 21384]}, "edge": {"target": [], "time": []}}, "mouseout": {"state": {"target": ["12", "0", "0", "19", "21", "22", "19", "20", "19", "14", "13", "12", "12", "0"], "time": [847, 1419, 2397, 2914, 5278, 7725, 7792, 11046, 13320, 16137, 17668, 20182, 21102, 28041]}, "edge": {"target": [], "time": []}}}, "displayed_time": "27.28", "trialTime": 31991, "trial_type": "mouselab-mdp", "trial_index": 27, "time_elapsed": 1791982, "internal_node_id": "0.0-6.0-1.0-12.0"}}, {"uniqueid": "w97908548:a15410429", "current_trial": 28, "dateTime": 1693482552671, "trialdata": {"revealed_states": [], "clicked_states": ["7", "6", "5", "3", "4", "2", "1"], "num_clicks_accrued": [0, 0, 0, 0, 0, 0, 0, 0, 0, 0, 0, 0, 0], "stateRewards": ["", -2, 2, 5, -14, -56, 64, 84, -5, 52, 39, 85, -2, 1, 7, 8, 21, 29, -78, -9, -10, -69, 10, -2, -1, -7, 15, 72, 20, 41, -2, 52, 80, 22], "withholdReward": false, "trial_id": "mdp_trial_14", "block": "test", "trialIndex": 17, "score": 65.2, "costs": -9.8, "simulationMode": [null, null, null, null, null], "rewards": [-2, 2, 5, -14, 84], "path": ["0", "0", "1", "2", "3", "4", "7"], "rt": [21571, 158, 194, 983, 367], "actions": ["up", "up", "up", "right", "down"], "actionTimes": [24005, 24681, 25384, 26872, 27754], "queries": {"click": {"state": {"target": ["7", "6", "5", "3", "4", "2", "1"], "time": [3924, 7717, 10627, 14101, 16181, 18851, 21321]}, "edge": {"target": [], "time": []}}, "mouseover": {"state": {"target": ["1", "7", "7", "6", "4", "5", "3", "2", "2", "3", "4", "2", "10", "2", "1"], "time": [3114, 3181, 3473, 7392, 10002, 10386, 12782, 13048, 13371, 13880, 15897, 18185, 18264, 18643, 20861]}, "edge": {"target": [], "time": []}}, "mouseout": {"state": {"target": ["28", "24", "0", "0", "1", "7", "7", "6", "6", "4", "5", "5", "3", "2", "2", "3", "4", "2", "10", "2", "1"], "time": [928, 1213, 1859, 2577, 3141, 3207, 4000, 7785, 9842, 10287, 10685, 12697, 12931, 13118, 13835, 15421, 18128, 18210, 18301, 20827, 21775]}, "edge": {"target": [], "time": []}}}, "displayed_time": "28.27", "trialTime": 31195, "trial_type": "mouselab-mdp", "trial_index": 28, "time_elapsed": 1823429, "internal_node_id": "0.0-6.0-1.0-13.0"}}, {"uniqueid": "w97908548:a15410429", "current_trial": 29, "dateTime": 1693482590609, "trialdata": {"revealed_states": [], "clicked_states": ["10", "11", "9", "5", "6", "7", "4", "3", "2", "1"], "num_clicks_accrued": [0, 0, 0, 0, 0, 0, 0, 0, 0, 0, 0, 0, 0], "stateRewards": ["", -1, -3, 3, 5, 56, 39, 50, -1, -80, 33, -46, 1, -2, -6, -8, 87, 48, 54, -11, -20, -64, -54, -2, 3, -7, -3, 12, 88, 35, -16, -46, -70, -3], "withholdReward": false, "trial_id": "mdp_trial_15", "block": "test", "trialIndex": 18, "score": 46, "costs": -14.000000000000002, "simulationMode": [null, null, null, null, null], "rewards": [-1, -3, 3, 5, 56], "path": ["0", "0", "1", "2", "3", "4", "5"], "rt": [27116, 176, 182, 733, 1244], "actions": ["up", "up", "up", "right", "up"], "actionTimes": [29059, 29758, 30447, 31697, 33457], "queries": {"click": {"state": {"target": ["10", "11", "9", "5", "6", "7", "4", "3", "2", "1"], "time": [4944, 7427, 9822, 12150, 14664, 17186, 20031, 22381, 24418, 26508]}, "edge": {"target": [], "time": []}}, "mouseover": {"state": {"target": ["2", "10", "11", "9", "5", "6", "7", "4", "3", "2", "1"], "time": [4392, 4590, 7040, 9568, 11757, 14135, 16997, 19642, 22190, 23370, 25255]}, "edge": {"target": [], "time": []}}, "mouseout": {"state": {"target": ["0", "0", "2", "10", "11", "9", "5", "6", "7", "4", "3", "2", "1", "18", "31", "32", "25"], "time": [1428, 4222, 4435, 6950, 9330, 11662, 14062, 16725, 19360, 22123, 22996, 24902, 26800, 36158, 36216, 36231, 36559]}, "edge": {"target": [], "time": []}}}, "displayed_time": "33.96", "trialTime": 37692, "trial_type": "mouselab-mdp", "trial_index": 29, "time_elapsed": 1861368, "internal_node_id": "0.0-6.0-1.0-14.0"}}, {"uniqueid": "w97908548:a15410429", "current_trial": 30, "dateTime": 1693482626500, "trialdata": {"revealed_states": [], "clicked_states": ["21", "20", "22", "19", "14", "13", "12", "18", "17"], "num_clicks_accrued": [0, 0, 0, 0, 0, 0, 0, 0, 0, 0, 0, 0, 0], "stateRewards": ["", -1, 1, 8, -8, -49, 62, -78, 16, 28, -81, 78, -2, -3, -1, -4, 67, 49, -2, -13, -16, -39, 83, 1, -4, 4, -5, -20, 7, 84, 7, -32, -59, 19], "withholdReward": false, "trial_id": "mdp_trial_16", "block": "test", "trialIndex": 19, "score": 51.4, "costs": -12.600000000000001, "simulationMode": [null, null, null, null, null], "rewards": [-2, -3, -1, -13, 83], "path": ["0", "0", "12", "13", "14", "19", "22"], "rt": [26460, 142, 141, 817, 511], "actions": ["right", "right", "right", "down", "left"], "actionTimes": [28357, 29010, 29660, 30984, 32010], "queries": {"click": {"state": {"target": ["21", "20", "22", "19", "14", "13", "12", "18", "17"], "time": [3420, 5945, 8565, 12487, 14861, 17205, 19393, 21989, 24564]}, "edge": {"target": [], "time": []}}, "mouseover": {"state": {"target": ["23", "13", "14", "20", "21", "20", "20", "19", "22", "13", "13", "14", "19", "14", "13", "12", "15", "18", "15", "17", "15", "12", "0"], "time": [2708, 2793, 2809, 2923, 3139, 5469, 5726, 7884, 8155, 10302, 11749, 11831, 12230, 12948, 16931, 19160, 21477, 21707, 23990, 24120, 26455, 27050, 27187]}, "edge": {"target": [], "time": []}}, "mouseout": {"state": {"target": ["32", "31", "0", "23", "13", "14", "20", "21", "20", "20", "19", "22", "13", "13", "14", "19", "14", "13", "12", "15", "18", "15", "17", "15", "12", "0", "0"], "time": [957, 1142, 1627, 2723, 2807, 2822, 2955, 5295, 5539, 7867, 7917, 10024, 10532, 11797, 11964, 12494, 16582, 19077, 21329, 21690, 23972, 24075, 25946, 26789, 27121, 27620, 34477]}, "edge": {"target": [], "time": []}}}, "displayed_time": "32.52", "trialTime": 35634, "trial_type": "mouselab-mdp", "trial_index": 30, "time_elapsed": 1897259, "internal_node_id": "0.0-6.0-1.0-15.0"}}, {"uniqueid": "w97908548:a15410429", "current_trial": 31, "dateTime": 1693482673668, "trialdata": {"revealed_states": [], "clicked_states": ["11", "9", "10", "7"], "num_clicks_accrued": [0, 0, 0, 0, 0, 0, 0, 0, 0, 0, 0, 0, 0], "stateRewards": ["", -2, -4, 2, 10, -17, 18, 73, 11, -32, 23, -13, -2, -4, 7, 12, -25, 66, -23, 15, 40, -76, -9, 1, 2, -7, -5, -20, 24, 3, -5, 16, -73, 70], "withholdReward": false, "trial_id": "mdp_trial_17", "block": "test", "trialIndex": 20, "score": 73.4, "costs": -5.6, "simulationMode": [null, null, null, null, null], "rewards": [-2, -4, 2, 10, 73], "path": ["0", "0", "1", "2", "3", "4", "7"], "rt": [21694, 205, 131, 876, 681], "actions": ["up", "up", "up", "right", "down"], "actionTimes": [37514, 38230, 38871, 40266, 41454], "queries": {"click": {"state": {"target": ["11", "9", "10", "7"], "time": [17719, 20328, 22741, 26117]}, "edge": {"target": [], "time": []}}, "mouseover": {"state": {"target": ["23", "23", "10", "8", "11", "9", "8", "10", "3", "6", "7", "7", "6", "4", "6", "4"], "time": [16647, 16826, 16998, 17083, 17240, 19961, 22235, 22423, 25185, 25373, 25483, 25609, 29415, 30465, 35676, 35843]}, "edge": {"target": [], "time": []}}, "mouseout": {"state": {"target": ["31", "30", "25", "28", "27", "24", "31", "19", "22", "31", "30", "23", "0", "12", "13", "12", "0", "23", "23", "10", "8", "11", "9", "9", "8", "10", "3", "6", "7", "7", "6", "4", "6", "4", "3", "8", "29", "25", "31"], "time": [894, 937, 987, 1105, 14042, 14075, 14092, 14561, 14576, 14641, 14726, 14792, 14809, 14831, 14931, 15074, 15397, 16662, 16893, 17041, 17224, 17769, 20418, 21338, 22294, 25135, 25224, 25425, 25500, 29331, 30412, 35650, 35826, 35878, 44633, 45106, 45290, 45317, 45350]}, "edge": {"target": [], "time": []}}}, "displayed_time": "41.97", "trialTime": 46914, "trial_type": "mouselab-mdp", "trial_index": 31, "time_elapsed": 1944426, "internal_node_id": "0.0-6.0-1.0-16.0"}}, {"uniqueid": "w97908548:a15410429", "current_trial": 32, "dateTime": 1693482695959, "trialdata": {"revealed_states": [], "clicked_states": ["5", "6", "4"], "num_clicks_accrued": [0, 0, 0, 0, 0, 0, 0, 0, 0, 0, 0, 0, 0], "stateRewards": ["", -2, -1, -2, -15, 87, 57, 29, -10, 77, -80, -7, 1, -3, 6, 14, -11, 87, -59, 4, -71, 16, -11, 2, 2, -7, 2, -47, 61, 50, 14, -20, 17, 81], "withholdReward": false, "trial_id": "mdp_trial_18", "block": "test", "trialIndex": 21, "score": 62.8, "costs": -4.199999999999999, "simulationMode": [null, null, null, null, null], "rewards": [-2, -1, -2, -15, 87], "path": ["0", "0", "1", "2", "3", "4", "5"], "rt": [15039, 38, 116, 677, 382], "actions": ["up", "up", "up", "right", "up"], "actionTimes": [16702, 17250, 17874, 19070, 19973], "queries": {"click": {"state": {"target": ["5", "6", "4"], "time": [3067, 5966, 8629]}, "edge": {"target": [], "time": []}}, "mouseover": {"state": {"target": ["0", "13", "14", "6", "5", "6", "4", "3", "7", "7", "3", "8", "11", "8", "4", "7"], "time": [1745, 1875, 1904, 2309, 2835, 3538, 8064, 10720, 12083, 12297, 12782, 12966, 13260, 14576, 15011, 15541]}, "edge": {"target": [], "time": []}}, "mouseout": {"state": {"target": ["23", "12", "0", "0", "13", "14", "6", "5", "6", "4", "3", "7", "7", "3", "8", "11", "8", "4", "7"], "time": [443, 806, 1336, 1803, 1891, 1937, 2769, 3403, 7899, 10603, 12018, 12095, 12548, 12918, 13226, 13933, 14695, 15525, 15592]}, "edge": {"target": [], "time": []}}}, "displayed_time": "20.49", "trialTime": 21997, "trial_type": "mouselab-mdp", "trial_index": 32, "time_elapsed": 1966717, "internal_node_id": "0.0-6.0-1.0-17.0"}}, {"uniqueid": "w97908548:a15410429", "current_trial": 33, "dateTime": 1693482731870, "trialdata": {"revealed_states": [], "clicked_states": ["11", "9", "10", "27", "29", "25", "28", "2", "3", "8", "1"], "num_clicks_accrued": [0, 0, 0, 0, 0, 0, 0, 0, 0, 0, 0, 0, 0], "stateRewards": ["", 2, 3, 6, -5, -74, -53, 17, -12, 46, 44, 18, -2, 4, 1, -8, 22, -23, -49, 9, -45, 55, 81, 1, -1, -7, -16, -83, -71, -45, 2, 51, 82, 61], "withholdReward": false, "trial_id": "mdp_trial_19", "block": "test", "trialIndex": 22, "score": 29.599999999999998, "costs": -15.400000000000002, "simulationMode": [null, null, null, null, null], "rewards": [2, 3, 6, -12, 46], "path": ["0", "0", "1", "2", "3", "8", "9"], "rt": [27719, 54, 103, 845, 600], "actions": ["up", "up", "up", "left", "up"], "actionTimes": [29763, 30325, 30957, 32315, 33434], "queries": {"click": {"state": {"target": ["11", "9", "10", "27", "29", "25", "28", "2", "3", "8", "1"], "time": [3979, 6212, 9266, 11602, 14086, 16266, 18241, 20761, 22898, 25059, 27244]}, "edge": {"target": [], "time": []}}, "mouseover": {"state": {"target": ["1", "11", "10", "9", "8", "10", "27", "29", "25", "28", "2", "3", "8", "1"], "time": [3278, 3793, 5159, 6010, 8737, 9075, 11409, 13702, 16031, 17606, 20461, 22725, 24790, 26924]}, "edge": {"target": [], "time": []}}, "mouseout": {"state": {"target": ["21", "13", "12", "0", "1", "11", "11", "10", "11", "9", "8", "10", "27", "29", "25", "25", "28", "2", "3", "8", "1"], "time": [630, 1426, 1498, 2834, 3293, 3989, 5075, 5514, 5856, 8662, 8821, 11135, 13585, 15966, 16358, 16523, 18350, 22651, 24742, 26389, 28271]}, "edge": {"target": [], "time": []}}}, "displayed_time": "33.95", "trialTime": 35630, "trial_type": "mouselab-mdp", "trial_index": 33, "time_elapsed": 2002627, "internal_node_id": "0.0-6.0-1.0-18.0"}}, {"uniqueid": "w97908548:a15410429", "current_trial": 34, "dateTime": 1693482759229, "trialdata": {"revealed_states": [], "clicked_states": ["21", "22", "20", "19", "14", "13", "12"], "num_clicks_accrued": [0, 0, 0, 0, 0, 0, 0, 0, 0, 0, 0, 0, 0], "stateRewards": ["", -2, -4, -6, 12, -58, -70, -80, 2, 16, -88, -62, 1, 2, -5, 11, 77, -35, -44, -5, 18, -83, 87, 1, -3, -5, 13, -44, -21, -86, 10, -52, 8, 29], "withholdReward": false, "trial_id": "mdp_trial_20", "block": "test", "trialIndex": 23, "score": 70.2, "costs": -9.8, "simulationMode": [null, null, null, null, null], "rewards": [1, 2, -5, -5, 87], "path": ["0", "0", "12", "13", "14", "19", "22"], "rt": [17401, 139, 336, 592, 353], "actions": ["right", "right", "right", "down", "left"], "actionTimes": [21059, 21715, 22561, 23666, 24528], "queries": {"click": {"state": {"target": ["21", "22", "20", "19", "14", "13", "12"], "time": [4762, 7078, 9593, 11970, 13867, 16226, 18434]}, "edge": {"target": [], "time": []}}, "mouseover": {"state": {"target": ["13", "14", "20", "21", "21", "22", "19", "20", "19", "19", "20", "19", "14", "13", "12", "0"], "time": [4091, 4109, 4223, 4341, 4567, 6839, 8852, 8902, 9170, 9234, 9282, 11634, 12865, 15769, 18062, 19446]}, "edge": {"target": [], "time": []}}, "mouseout": {"state": {"target": ["1", "0", "13", "14", "20", "21", "21", "22", "19", "20", "19", "19", "20", "19", "14", "14", "13", "12", "0"], "time": [2540, 4079, 4107, 4123, 4260, 4396, 6653, 8822, 8868, 9155, 9185, 9279, 9673, 12382, 13942, 15721, 17880, 19049, 25970]}, "edge": {"target": [], "time": []}}}, "displayed_time": "25.04", "trialTime": 27084, "trial_type": "mouselab-mdp", "trial_index": 34, "time_elapsed": 2029986, "internal_node_id": "0.0-6.0-1.0-19.0"}}, {"uniqueid": "w97908548:a15410429", "current_trial": 35, "dateTime": 1693482788557, "trialdata": {"revealed_states": [], "clicked_states": ["31", "32", "33", "21", "19", "14", "12"], "num_clicks_accrued": [0, 0, 0, 0, 0, 0, 0, 0, 0, 0, 0, 0, 0], "stateRewards": ["", 2, 3, 8, 11, 25, -80, 6, -4, -56, 84, -23, -2, -4, -3, 4, -51, -9, -61, -15, -64, 67, -35, 1, -1, -7, -6, 83, 59, -15, 12, -79, 56, 41], "withholdReward": false, "trial_id": "mdp_trial_21", "block": "test", "trialIndex": 24, "score": 33.2, "costs": -9.8, "simulationMode": [null, null, null, null, null], "rewards": [-2, -4, -3, -15, 67], "path": ["0", "0", "12", "13", "14", "19", "21"], "rt": [20585, 191, 362, 832, 124], "actions": ["right", "right", "right", "down", "down"], "actionTimes": [22216, 22928, 23799, 25152, 25791], "queries": {"click": {"state": {"target": ["31", "32", "33", "21", "19", "14", "12"], "time": [2915, 5216, 7732, 10892, 14829, 17252, 19653]}, "edge": {"target": [], "time": []}}, "mouseover": {"state": {"target": ["0", "31", "32", "33", "33", "30", "21", "19", "14", "13", "12", "13"], "time": [2209, 2737, 5001, 7202, 7505, 9746, 10697, 14576, 16739, 17858, 19437, 21585]}, "edge": {"target": [], "time": []}}, "mouseout": {"state": {"target": ["0", "0", "0", "31", "32", "33", "33", "30", "21", "19", "14", "13", "12", "13", "13"], "time": [856, 1272, 2242, 4770, 6989, 7272, 7836, 9930, 14476, 16473, 17757, 19322, 21552, 21688, 27404]}, "edge": {"target": [], "time": []}}}, "displayed_time": "26.30", "trialTime": 29034, "trial_type": "mouselab-mdp", "trial_index": 35, "time_elapsed": 2059316, "internal_node_id": "0.0-6.0-1.0-20.0"}}, {"uniqueid": "w97908548:a15410429", "current_trial": 36, "dateTime": 1693482817488, "trialdata": {"revealed_states": [], "clicked_states": ["5", "6", "7", "9", "4", "3", "1"], "num_clicks_accrued": [0, 0, 0, 0, 0, 0, 0, 0, 0, 0, 0, 0, 0], "stateRewards": ["", 2, -2, -8, 9, -20, 55, -58, 14, 42, 2, 36, 1, -3, -5, 5, -58, 57, 60, 16, 57, 30, -70, -2, 1, 3, 10, 59, 23, 77, -13, -26, 88, -72], "withholdReward": false, "trial_id": "mdp_trial_22", "block": "test", "trialIndex": 25, "score": 46.2, "costs": -9.8, "simulationMode": [null, null, null, null, null], "rewards": [2, -2, -8, 9, 55], "path": ["0", "0", "1", "2", "3", "4", "6"], "rt": [21136, 122, 143, 833, 52], "actions": ["up", "up", "up", "right", "right"], "actionTimes": [22697, 23329, 23980, 25320, 25886], "queries": {"click": {"state": {"target": ["5", "6", "7", "9", "4", "3", "1"], "time": [2907, 5378, 7836, 10641, 15117, 17710, 20747]}, "edge": {"target": [], "time": []}}, "mouseover": {"state": {"target": ["1", "2", "4", "5", "6", "7", "2", "11", "9", "11", "2", "2", "3", "4", "3", "2", "1", "7"], "time": [2089, 2138, 2210, 2572, 5119, 6953, 9909, 10004, 10379, 13010, 13581, 14311, 14584, 14934, 15677, 18040, 20247, 20971]}, "edge": {"target": [], "time": []}}, "mouseout": {"state": {"target": ["12", "0", "1", "2", "4", "5", "6", "7", "2", "11", "9", "11", "2", "2", "3", "4", "3", "2", "1"], "time": [874, 1254, 2120, 2179, 2224, 4902, 6717, 9902, 9930, 10047, 12902, 13445, 14211, 14512, 14895, 15663, 17974, 20204, 20912]}, "edge": {"target": [], "time": []}}}, "displayed_time": "26.42", "trialTime": 28656, "trial_type": "mouselab-mdp", "trial_index": 36, "time_elapsed": 2088246, "internal_node_id": "0.0-6.0-1.0-21.0"}}, {"uniqueid": "w97908548:a15410429", "current_trial": 37, "dateTime": 1693482849099, "trialdata": {"revealed_states": [], "clicked_states": ["11", "9", "5", "7", "10", "27", "29", "1"], "num_clicks_accrued": [0, 0, 0, 0, 0, 0, 0, 0, 0, 0, 0, 0, 0], "stateRewards": ["", -1, -4, -1, -5, -28, -23, -15, -15, -38, 59, -87, 2, 2, -5, 9, -55, -39, -71, -6, 85, -85, -11, -1, -2, 5, -10, 1, 25, 41, -4, 69, -35, 86], "withholdReward": false, "trial_id": "mdp_trial_23", "block": "test", "trialIndex": 26, "score": 26.799999999999997, "costs": -11.200000000000001, "simulationMode": [null, null, null, null, null], "rewards": [-1, -4, -1, -15, 59], "path": ["0", "0", "1", "2", "3", "8", "10"], "rt": [23780, 66, 84, 512, 219], "actions": ["up", "up", "up", "left", "down"], "actionTimes": [26108, 26692, 27292, 28320, 29060], "queries": {"click": {"state": {"target": ["11", "9", "5", "7", "10", "27", "29", "1"], "time": [3532, 5923, 8899, 11236, 13734, 17126, 20036, 23627]}, "edge": {"target": [], "time": []}}, "mouseover": {"state": {"target": ["23", "24", "28", "8", "8", "11", "9", "8", "10", "3", "5", "4", "7", "2", "10", "27", "27", "26", "28", "26", "29", "26", "1"], "time": [2519, 2601, 2645, 2865, 2986, 3195, 5627, 7807, 8024, 8406, 8755, 10821, 10954, 13136, 13487, 16707, 16910, 19137, 19388, 19530, 19723, 22267, 23176]}, "edge": {"target": [], "time": []}}, "mouseout": {"state": {"target": ["7", "12", "19", "24", "23", "0", "23", "24", "28", "8", "8", "11", "9", "8", "10", "3", "5", "4", "7", "2", "10", "27", "27", "26", "28", "26", "29", "26", "1"], "time": [512, 529, 1213, 1417, 1617, 2469, 2561, 2621, 2678, 2901, 3180, 5414, 7763, 7897, 8356, 8440, 10804, 10871, 13119, 13250, 15618, 16750, 19097, 19187, 19513, 19563, 22212, 22295, 23795]}, "edge": {"target": [], "time": []}}}, "displayed_time": "29.57", "trialTime": 31317, "trial_type": "mouselab-mdp", "trial_index": 37, "time_elapsed": 2119856, "internal_node_id": "0.0-6.0-1.0-22.0"}}, {"uniqueid": "w97908548:a15410429", "current_trial": 38, "dateTime": 1693482868288, "trialdata": {"revealed_states": [], "clicked_states": ["21", "22"], "num_clicks_accrued": [0, 0, 0, 0, 0, 0, 0, 0, 0, 0, 0, 0, 0], "stateRewards": ["", -1, 3, 2, 9, 41, 4, -46, -12, -54, -87, -25, 2, 3, -1, 11, -77, 12, -33, -9, -32, 35, 72, 1, 3, -7, 4, 37, 65, -73, 6, 77, -43, 8], "withholdReward": false, "trial_id": "mdp_trial_24", "block": "test", "trialIndex": 27, "score": 64.2, "costs": -2.8, "simulationMode": [null, null, null, null, null], "rewards": [2, 3, -1, -9, 72], "path": ["0", "0", "12", "13", "14", "19", "22"], "rt": [10820, 44, 142, 719, 96], "actions": ["right", "right", "right", "down", "left"], "actionTimes": [12699, 13252, 13903, 15142, 15752], "queries": {"click": {"state": {"target": ["21", "22"], "time": [3355, 5797]}, "edge": {"target": [], "time": []}}, "mouseover": {"state": {"target": ["0", "12", "13", "14", "21", "22", "19", "13", "14", "19", "22"], "time": [1887, 2580, 2598, 2681, 3100, 5496, 7765, 9331, 9529, 10657, 11140]}, "edge": {"target": [], "time": []}}, "mouseout": {"state": {"target": ["17", "15", "1", "0", "0", "0", "12", "13", "14", "21", "22", "19", "22", "13", "14", "19", "22", "22"], "time": [953, 972, 1014, 1254, 1551, 1932, 2597, 2665, 2702, 5166, 5885, 7982, 9108, 9359, 10590, 11111, 17699, 17820]}, "edge": {"target": [], "time": []}}}, "displayed_time": "16.27", "trialTime": 18889, "trial_type": "mouselab-mdp", "trial_index": 38, "time_elapsed": 2139046, "internal_node_id": "0.0-6.0-1.0-23.0"}}, {"uniqueid": "w97908548:a15410429", "current_trial": 39, "dateTime": 1693482897887, "trialdata": {"revealed_states": [], "clicked_states": ["32", "31", "22", "21", "16", "15", "14"], "num_clicks_accrued": [0, 0, 0, 0, 0, 0, 0, 0, 0, 0, 0, 0, 0], "stateRewards": ["", 1, -3, -2, 14, 49, -40, -39, 2, 26, -61, 73, 1, -4, -8, 12, 79, 29, -65, -13, 55, -26, 27, -1, 3, 3, 9, -17, -60, -18, -8, 35, -88, 69], "withholdReward": false, "trial_id": "mdp_trial_25", "block": "test", "trialIndex": 28, "score": 70.2, "costs": -9.8, "simulationMode": [null, null, null, null, null], "rewards": [1, -4, -8, 12, 79], "path": ["0", "0", "12", "13", "14", "15", "16"], "rt": [21195, 137, 342, 549, 142], "actions": ["right", "right", "right", "up", "up"], "actionTimes": [23269, 23924, 24818, 25883, 26543], "queries": {"click": {"state": {"target": ["32", "31", "22", "21", "16", "15", "14"], "time": [3307, 5786, 8889, 11217, 13600, 17286, 19453]}, "edge": {"target": [], "time": []}}, "mouseover": {"state": {"target": ["0", "31", "32", "31", "21", "22", "21", "19", "14", "15", "16", "18", "18", "15", "14", "13", "12", "0", "0"], "time": [2486, 2688, 3093, 5184, 8254, 8597, 10945, 13152, 13177, 13211, 13244, 15726, 15995, 16989, 18189, 21442, 21502, 21835, 22192]}, "edge": {"target": [], "time": []}}, "mouseout": {"state": {"target": ["0", "31", "32", "31", "21", "22", "21", "19", "14", "15", "16", "18", "18", "15", "14", "13", "12", "0", "0"], "time": [2556, 2743, 3373, 7931, 8282, 10895, 11333, 13164, 13194, 13227, 15667, 15794, 16807, 18090, 21386, 21486, 21752, 21875, 27996]}, "edge": {"target": [], "time": []}}}, "displayed_time": "27.05", "trialTime": 29306, "trial_type": "mouselab-mdp", "trial_index": 39, "time_elapsed": 2168644, "internal_node_id": "0.0-6.0-1.0-24.0"}}, {"uniqueid": "w97908548:a15410429", "current_trial": 40, "dateTime": 1693482926694, "trialdata": {"revealed_states": [], "clicked_states": ["5", "7", "11", "6", "16", "21", "20"], "num_clicks_accrued": [0, 0, 0, 0, 0, 0, 0, 0, 0, 0, 0, 0, 0], "stateRewards": ["", 1, -1, 4, 5, -32, 18, 20, 6, -88, -74, 9, -2, 1, -2, -14, 34, -77, -38, -1, 80, -36, 73, 2, 3, -8, 10, -48, -73, -71, -11, -22, 20, 54], "withholdReward": false, "trial_id": "mdp_trial_26", "block": "test", "trialIndex": 29, "score": 66.2, "costs": -9.8, "simulationMode": [null, null, null, null, null], "rewards": [-2, 1, -2, -1, 80], "path": ["0", "0", "12", "13", "14", "19", "20"], "rt": [20584, 152, 310, 675, 607], "actions": ["right", "right", "right", "down", "right"], "actionTimes": [22167, 22832, 23657, 24837, 25953], "queries": {"click": {"state": {"target": ["5", "7", "11", "6", "16", "21", "20"], "time": [2613, 5101, 7651, 9977, 12252, 14820, 16936]}, "edge": {"target": [], "time": []}}, "mouseover": {"state": {"target": ["1", "3", "5", "4", "7", "2", "11", "8", "4", "6", "16", "15", "14", "19", "21", "20", "19", "22", "12"], "time": [1970, 2028, 2346, 4780, 4849, 7124, 7491, 9506, 9571, 9823, 11921, 14317, 14369, 14418, 14451, 16699, 19763, 20514, 20579]}, "edge": {"target": [], "time": []}}, "mouseout": {"state": {"target": ["7", "4", "5", "2", "23", "0", "1", "3", "5", "4", "7", "2", "11", "8", "4", "6", "6", "16", "15", "14", "19", "21", "20", "20", "19", "22", "12"], "time": [614, 653, 713, 762, 800, 1146, 1996, 2045, 4747, 4835, 7107, 7140, 9490, 9539, 9622, 10110, 11788, 14267, 14353, 14402, 14435, 14930, 19148, 19532, 20472, 20532, 20629]}, "edge": {"target": [], "time": []}}}, "displayed_time": "26.46", "trialTime": 28485, "trial_type": "mouselab-mdp", "trial_index": 40, "time_elapsed": 2197452, "internal_node_id": "0.0-6.0-1.0-25.0"}}, {"uniqueid": "w97908548:a15410429", "current_trial": 41, "dateTime": 1693482959712, "trialdata": {"revealed_states": [], "clicked_states": ["6", "7", "5", "16", "17", "21", "20", "11"], "num_clicks_accrued": [0, 0, 0, 0, 0, 0, 0, 0, 0, 0, 0, 0, 0], "stateRewards": ["", -1, -4, 8, 8, -68, 47, 24, -7, -61, 49, -69, -1, -1, 8, -7, 42, 1, -45, -11, 10, -63, -6, 1, 4, 6, -16, 79, -37, -58, -12, 81, 18, -53], "withholdReward": false, "trial_id": "mdp_trial_27", "block": "test", "trialIndex": 30, "score": 46.8, "costs": -11.200000000000001, "simulationMode": [null, null, null, null, null], "rewards": [-1, -4, 8, 8, 47], "path": ["0", "0", "1", "2", "3", "4", "6"], "rt": [23559, 829, 87, 789, 264], "actions": ["up", "up", "up", "right", "right"], "actionTimes": [25782, 27131, 27737, 29039, 29813], "queries": {"click": {"state": {"target": ["6", "7", "5", "16", "17", "21", "20", "11"], "time": [3155, 5687, 7984, 10840, 13294, 16093, 18429, 21496]}, "edge": {"target": [], "time": []}}, "mouseover": {"state": {"target": ["6", "7", "4", "5", "4", "6", "16", "17", "21", "20", "19", "22", "12", "1", "10", "11", "11", "8", "4", "7", "0", "0"], "time": [2838, 5366, 7668, 7714, 10015, 10195, 10687, 12899, 15825, 18206, 20538, 20670, 20738, 20770, 20803, 20876, 21321, 23742, 23801, 24159, 24308, 24506]}, "edge": {"target": [], "time": []}}, "mouseout": {"state": {"target": ["0", "14", "19", "22", "0", "6", "7", "4", "5", "4", "6", "16", "17", "21", "20", "20", "19", "22", "12", "1", "10", "11", "11", "11", "8", "4", "7", "0", "0"], "time": [358, 1206, 1237, 1275, 2511, 5252, 7628, 7698, 9981, 10050, 10312, 12812, 15408, 18105, 18539, 20420, 20653, 20711, 20753, 20787, 20837, 20890, 21512, 23700, 23759, 24104, 24179, 24400, 24658]}, "edge": {"target": [], "time": []}}}, "displayed_time": "30.33", "trialTime": 32699, "trial_type": "mouselab-mdp", "trial_index": 41, "time_elapsed": 2230470, "internal_node_id": "0.0-6.0-1.0-26.0"}}, {"uniqueid": "w97908548:a15410429", "current_trial": 42, "dateTime": 1693482996093, "trialdata": {"revealed_states": [], "clicked_states": ["5", "21", "22", "16", "17", "32", "33", "27"], "num_clicks_accrued": [0, 0, 0, 0, 0, 0, 0, 0, 0, 0, 0, 0, 0], "stateRewards": ["", 2, -1, 1, 10, -52, 86, -22, -2, -14, -63, 38, 1, 3, 7, -8, 11, -32, -27, 9, -71, 40, -87, -2, -1, 5, -7, 12, 31, -57, 13, 86, -58, 29], "withholdReward": false, "trial_id": "mdp_trial_28", "block": "test", "trialIndex": 31, "score": 48.8, "costs": -11.200000000000001, "simulationMode": [null, null, null, null, null], "rewards": [1, 3, 7, 9, 40], "path": ["0", "0", "12", "13", "14", "19", "21"], "rt": [25325, 435, 398, 1027, 907], "actions": ["right", "right", "right", "down", "down"], "actionTimes": [28945, 29900, 30812, 32357, 33769], "queries": {"click": {"state": {"target": ["5", "21", "22", "16", "17", "32", "33", "27"], "time": [5209, 8405, 11077, 13601, 15908, 19251, 22029, 25564]}, "edge": {"target": [], "time": []}}, "mouseover": {"state": {"target": ["0", "1", "4", "5", "5", "14", "19", "21", "21", "19", "22", "16", "17", "14", "31", "32", "31", "30", "33", "30", "31", "12", "18", "1", "10", "27", "26", "29"], "time": [4368, 4567, 4651, 4684, 4873, 7433, 7617, 7705, 8220, 10769, 10845, 13417, 15542, 18155, 18772, 18992, 21388, 21525, 21677, 24284, 24654, 24775, 24940, 25088, 25134, 25358, 25967, 26106]}, "edge": {"target": [], "time": []}}, "mouseout": {"state": {"target": ["0", "0", "0", "1", "4", "5", "5", "14", "19", "21", "21", "19", "22", "16", "17", "14", "31", "32", "31", "30", "33", "30", "31", "12", "18", "1", "10", "27", "26", "29"], "time": [647, 2904, 4542, 4600, 4667, 4701, 7165, 7498, 7648, 7806, 10582, 10787, 12944, 15512, 18074, 18173, 18825, 21309, 21521, 21571, 24218, 24619, 24683, 24790, 25016, 25103, 25174, 25833, 26066, 26134]}, "edge": {"target": [], "time": []}}}, "displayed_time": "34.28", "trialTime": 36095, "trial_type": "mouselab-mdp", "trial_index": 42, "time_elapsed": 2266851, "internal_node_id": "0.0-6.0-1.0-27.0"}}, {"uniqueid": "w97908548:a15410429", "current_trial": 43, "dateTime": 1693483017303, "trialdata": {"revealed_states": [], "clicked_states": ["5", "6", "7"], "num_clicks_accrued": [0, 0, 0, 0, 0, 0, 0, 0, 0, 0, 0, 0, 0], "stateRewards": ["", -2, -3, -6, -7, 9, 16, 65, 5, -41, 20, -25, -1, -4, 1, -11, -49, -4, 71, 1, 39, -62, 52, -2, -3, 7, -9, -28, -70, 84, 8, 24, -58, 82], "withholdReward": false, "trial_id": "mdp_trial_29", "block": "test", "trialIndex": 32, "score": 42.8, "costs": -4.199999999999999, "simulationMode": [null, null, null, null, null], "rewards": [-2, -3, -6, -7, 65], "path": ["0", "0", "1", "2", "3", "4", "7"], "rt": [12605, 22, 366, 540, 103], "actions": ["up", "up", "up", "right", "down"], "actionTimes": [15095, 15630, 16523, 17579, 18193], "queries": {"click": {"state": {"target": ["5", "6", "7"], "time": [3542, 5992, 8386]}, "edge": {"target": [], "time": []}}, "mouseover": {"state": {"target": ["1", "4", "5", "6", "7", "3", "4", "3", "4", "16"], "time": [2884, 3017, 3352, 5634, 8150, 11851, 12243, 12547, 12782, 13782]}, "edge": {"target": [], "time": []}}, "mouseout": {"state": {"target": ["2", "0", "0", "1", "4", "5", "6", "7", "3", "4", "3", "4", "16"], "time": [1135, 1707, 2622, 2916, 3205, 5567, 7980, 11577, 11961, 12411, 12734, 13675, 13824]}, "edge": {"target": [], "time": []}}}, "displayed_time": "18.71", "trialTime": 20918, "trial_type": "mouselab-mdp", "trial_index": 43, "time_elapsed": 2288062, "internal_node_id": "0.0-6.0-1.0-28.0"}}, {"uniqueid": "w97908548:a15410429", "current_trial": 44, "dateTime": 1693483052562, "trialdata": {"revealed_states": [], "clicked_states": ["11", "9", "27", "5", "6", "16", "17", "21"], "num_clicks_accrued": [0, 0, 0, 0, 0, 0, 0, 0, 0, 0, 0, 0, 0], "stateRewards": ["", 2, -2, -3, 10, -4, -1, -11, -8, -9, -36, -78, 2, 1, 7, -7, 44, -1, -31, -1, 26, 47, 83, 2, -4, -4, -6, -52, -76, -81, -1, -59, 45, 67], "withholdReward": false, "trial_id": "mdp_trial_30", "block": "test", "trialIndex": 33, "score": 44.8, "costs": -11.200000000000001, "simulationMode": [null, null, null, null, null], "rewards": [2, 1, 7, -1, 47], "path": ["0", "0", "12", "13", "14", "19", "21"], "rt": [26566, 181, 222, 787, 770], "actions": ["right", "right", "right", "down", "down"], "actionTimes": [28647, 29343, 30082, 31380, 32662], "queries": {"click": {"state": {"target": ["11", "9", "27", "5", "6", "16", "17", "21"], "time": [3460, 6847, 9557, 11919, 14245, 16444, 19782, 22327]}, "edge": {"target": [], "time": []}}, "mouseover": {"state": {"target": ["23", "23", "10", "11", "8", "8", "9", "9", "8", "10", "26", "27", "8", "5", "6", "16", "15", "17", "17", "20", "21"], "time": [2565, 2658, 2785, 3152, 5580, 6049, 6395, 6694, 8443, 8726, 9115, 9292, 11532, 11630, 14008, 16186, 17969, 18285, 19683, 21800, 22051]}, "edge": {"target": [], "time": []}}, "mouseout": {"state": {"target": ["30", "28", "10", "8", "2", "23", "0", "23", "23", "10", "11", "8", "8", "9", "9", "8", "10", "26", "27", "8", "5", "6", "6", "16", "16", "15", "17", "17", "20", "21"], "time": [989, 1033, 1082, 1251, 1317, 1382, 2538, 2581, 2679, 2832, 5480, 5620, 6378, 6436, 8294, 8629, 8959, 9176, 11474, 11558, 13774, 14338, 16103, 16559, 17902, 17986, 19074, 21716, 21840, 33904]}, "edge": {"target": [], "time": []}}}, "displayed_time": "33.17", "trialTime": 34941, "trial_type": "mouselab-mdp", "trial_index": 44, "time_elapsed": 2323320, "internal_node_id": "0.0-6.0-1.0-29.0"}}, {"uniqueid": "w97908548:a15410429", "current_trial": 45, "dateTime": 1693483089362, "trialdata": {"revealed_states": [], "clicked_states": ["20", "21", "17", "16", "22", "18", "6", "5", "3"], "num_clicks_accrued": [0, 0, 0, 0, 0, 0, 0, 0, 0, 0, 0, 0, 0], "stateRewards": ["", 1, 1, -6, -2, 7, 77, 3, 16, -16, 66, 31, -1, 3, -8, -6, 33, -50, -48, 7, -60, -66, 36, 2, -3, 3, -7, -12, -61, -79, -4, 8, 74, -70], "withholdReward": false, "trial_id": "mdp_trial_31", "block": "test", "trialIndex": 34, "score": 58.4, "costs": -12.600000000000001, "simulationMode": [null, null, null, null, null], "rewards": [1, 1, -6, -2, 77], "path": ["0", "0", "1", "2", "3", "4", "6"], "rt": [25385, 119, 118, 568, 154], "actions": ["up", "up", "up", "right", "right"], "actionTimes": [28075, 28717, 29336, 30413, 31094], "queries": {"click": {"state": {"target": ["20", "21", "17", "16", "22", "18", "6", "5", "3"], "time": [5449, 7655, 10144, 12663, 14913, 17177, 19496, 22136, 25069]}, "edge": {"target": [], "time": []}}, "mouseover": {"state": {"target": ["12", "13", "14", "14", "14", "20", "21", "19", "17", "16", "15", "22", "13", "18", "6", "5", "4", "3", "7"], "time": [3963, 4013, 4046, 4247, 4931, 5212, 7494, 9341, 9642, 12310, 14254, 14620, 16885, 16942, 19325, 21448, 23981, 24614, 25303]}, "edge": {"target": [], "time": []}}, "mouseout": {"state": {"target": ["31", "3", "7", "0", "12", "13", "14", "14", "14", "20", "21", "19", "17", "16", "15", "22", "13", "18", "6", "5", "4", "3", "7", "0"], "time": [853, 1016, 1131, 1514, 3996, 4029, 4085, 4285, 4996, 7363, 8910, 9475, 10253, 14104, 14309, 16854, 16901, 17257, 21332, 23895, 24095, 25246, 25318, 32277]}, "edge": {"target": [], "time": []}}}, "displayed_time": "31.61", "trialTime": 36507, "trial_type": "mouselab-mdp", "trial_index": 45, "time_elapsed": 2360121, "internal_node_id": "0.0-6.0-1.0-30.0"}}, {"uniqueid": "w97908548:a15410429", "current_trial": 46, "dateTime": 1693483110765, "trialdata": {"revealed_states": [], "clicked_states": ["11"], "num_clicks_accrued": [0, 0, 0, 0, 0, 0, 0, 0, 0, 0, 0, 0, 0], "stateRewards": ["", -2, 1, -7, -8, -37, -76, -87, 11, 30, -63, 80, -1, 4, 2, -1, 42, 17, 52, -3, -75, -80, -68, 2, -3, -5, -15, -48, 82, 24, -7, 5, -22, -71], "withholdReward": false, "trial_id": "mdp_trial_32", "block": "test", "trialIndex": 35, "score": 81.6, "costs": -1.4, "simulationMode": [null, null, null, null, null], "rewards": [-2, 1, -7, 11, 80], "path": ["0", "0", "1", "2", "3", "8", "11"], "rt": [8110, 59, 106, 1116, 272], "actions": ["up", "up", "up", "left", "left"], "actionTimes": [10895, 11462, 12092, 13717, 14511], "queries": {"click": {"state": {"target": ["11"], "time": [4064]}, "edge": {"target": [], "time": []}}, "mouseover": {"state": {"target": ["1", "2", "11", "9", "3", "2", "1", "1", "2", "2", "1", "18"], "time": [3409, 3474, 3807, 5922, 7885, 7936, 7986, 8301, 8901, 9135, 9203, 9718]}, "edge": {"target": [], "time": []}}, "mouseout": {"state": {"target": ["18", "1", "0", "0", "1", "2", "11", "9", "3", "2", "1", "1", "2", "2", "1", "18"], "time": [475, 841, 892, 2008, 3457, 3540, 5805, 7818, 7902, 7970, 8003, 8852, 9053, 9185, 9686, 9734]}, "edge": {"target": [], "time": []}}}, "displayed_time": "16.79", "trialTime": 20851, "trial_type": "mouselab-mdp", "trial_index": 46, "time_elapsed": 2381523, "internal_node_id": "0.0-6.0-1.0-31.0"}}, {"uniqueid": "w97908548:a15410429", "current_trial": 47, "dateTime": 1693483149931, "trialdata": {"revealed_states": [], "clicked_states": ["11", "10", "9", "5", "16", "7", "6", "17", "32", "33"], "num_clicks_accrued": [0, 0, 0, 0, 0, 0, 0, 0, 0, 0, 0, 0, 0], "stateRewards": ["", 1, 4, 7, -16, -84, -6, -46, -12, -7, -49, -26, -1, 2, -4, 2, 22, 37, -64, 1, 88, -13, -10, 1, -4, -2, 5, 2, -10, -34, 9, 66, 55, 38], "withholdReward": false, "trial_id": "mdp_trial_33", "block": "test", "trialIndex": 36, "score": 45, "costs": -14.000000000000002, "simulationMode": [null, null, null, null, null], "rewards": [1, -4, -2, 9, 55], "path": ["0", "0", "23", "24", "25", "30", "32"], "rt": [29946, 265, 78, 1437, 61], "actions": ["left", "left", "left", "down", "down"], "actionTimes": [31820, 32599, 33192, 35152, 35723], "queries": {"click": {"state": {"target": ["11", "10", "9", "5", "16", "7", "6", "17", "32", "33"], "time": [3753, 6123, 8548, 10756, 13682, 15966, 18342, 21201, 24738, 27817]}, "edge": {"target": [], "time": []}}, "mouseover": {"state": {"target": ["0", "0", "1", "11", "10", "8", "9", "5", "5", "6", "16", "7", "6", "17", "14", "32", "33", "30", "24", "23", "0"], "time": [1974, 2574, 2920, 3488, 5886, 8075, 8223, 10115, 10620, 12563, 13462, 15743, 18107, 20804, 23369, 24552, 27401, 30246, 30297, 30318, 30764]}, "edge": {"target": [], "time": []}}, "mouseout": {"state": {"target": ["0", "0", "0", "0", "1", "11", "10", "8", "9", "5", "5", "6", "16", "7", "6", "17", "14", "32", "33", "30", "24", "23"], "time": [805, 1321, 2206, 2620, 2937, 5684, 6222, 8121, 9565, 10170, 12385, 12914, 15493, 17892, 20555, 23337, 23386, 27332, 30198, 30281, 30316, 30333]}, "edge": {"target": [], "time": []}}}, "displayed_time": "36.24", "trialTime": 38680, "trial_type": "mouselab-mdp", "trial_index": 47, "time_elapsed": 2420688, "internal_node_id": "0.0-6.0-1.0-32.0"}}, {"uniqueid": "w97908548:a15410429", "current_trial": 48, "dateTime": 1693483175824, "trialdata": {"revealed_states": [], "clicked_states": ["32", "31", "21", "22", "20", "33"], "num_clicks_accrued": [0, 0, 0, 0, 0, 0, 0, 0, 0, 0, 0, 0, 0], "stateRewards": ["", -1, 2, -6, 6, -82, -19, -39, -16, -83, 11, -33, -2, -2, 4, -6, -82, -1, -19, -6, -10, -67, -41, -2, 1, -7, 16, -23, -78, -52, 14, 31, -71, 74], "withholdReward": false, "trial_id": "mdp_trial_34", "block": "test", "trialIndex": 37, "score": 71.6, "costs": -8.4, "simulationMode": [null, null, null, null, null], "rewards": [-2, 1, -7, 14, 74], "path": ["0", "0", "23", "24", "25", "30", "33"], "rt": [17602, 127, 204, 539, 284], "actions": ["left", "left", "left", "down", "left"], "actionTimes": [19408, 20054, 20764, 21818, 22611], "queries": {"click": {"state": {"target": ["32", "31", "21", "22", "20", "33"], "time": [3266, 5514, 7929, 10242, 12556, 15123]}, "edge": {"target": [], "time": []}}, "mouseover": {"state": {"target": ["1", "1", "32", "31", "21", "22", "19", "20", "32", "33", "30"], "time": [2389, 2522, 3006, 5172, 7626, 9969, 12249, 12384, 14512, 14929, 18492]}, "edge": {"target": [], "time": []}}, "mouseout": {"state": {"target": ["0", "1", "2", "0", "1", "1", "32", "32", "31", "31", "21", "22", "19", "20", "20", "32", "33", "30"], "time": [495, 590, 707, 2289, 2422, 2562, 3278, 5054, 5567, 7502, 8008, 10312, 12281, 12575, 14429, 14529, 18465, 24587]}, "edge": {"target": [], "time": []}}}, "displayed_time": "23.13", "trialTime": 25596, "trial_type": "mouselab-mdp", "trial_index": 48, "time_elapsed": 2446583, "internal_node_id": "0.0-6.0-1.0-33.0"}}, {"uniqueid": "w97908548:a15410429", "current_trial": 49, "dateTime": 1693483193791, "trialdata": {"revealed_states": [], "clicked_states": ["9", "11"], "num_clicks_accrued": [0, 0, 0, 0, 0, 0, 0, 0, 0, 0, 0, 0, 0], "stateRewards": ["", 2, 1, -3, 7, 46, 11, -36, 16, 71, 5, 1, 2, -2, -8, -3, -4, 6, 55, 7, 68, -54, 2, 1, 1, 6, -6, 42, -4, -84, -11, -65, 63, 25], "withholdReward": false, "trial_id": "mdp_trial_35", "block": "test", "trialIndex": 38, "score": 84.2, "costs": -2.8, "simulationMode": [null, null, null, null, null], "rewards": [2, 1, -3, 16, 71], "path": ["0", "0", "1", "2", "3", "8", "9"], "rt": [8643, 333, 387, 493, 591], "actions": ["up", "up", "up", "left", "up"], "actionTimes": [10240, 11105, 12009, 13014, 14112], "queries": {"click": {"state": {"target": ["9", "11"], "time": [3123, 6697]}, "edge": {"target": [], "time": []}}, "mouseover": {"state": {"target": ["1", "2", "3", "9", "11", "8", "3", "4", "7", "2"], "time": [2296, 2346, 2395, 2878, 5810, 7731, 7817, 7891, 9039, 9074]}, "edge": {"target": [], "time": []}}, "mouseout": {"state": {"target": ["0", "0", "1", "2", "3", "9", "9", "11", "8", "3", "4", "7", "2", "12"], "time": [862, 2245, 2328, 2379, 2414, 3208, 5461, 7659, 7798, 7861, 7975, 9055, 9108, 15333]}, "edge": {"target": [], "time": []}}}, "displayed_time": "15.60", "trialTime": 17470, "trial_type": "mouselab-mdp", "trial_index": 49, "time_elapsed": 2464548, "internal_node_id": "0.0-6.0-1.0-34.0"}}, {"uniqueid": "w97908548:a15410429", "current_trial": 50, "dateTime": 1693483225492, "trialdata": {"revealed_states": [], "clicked_states": ["5", "6", "7", "9", "11", "27", "29", "32"], "num_clicks_accrued": [0, 0, 0, 0, 0, 0, 0, 0, 0, 0, 0, 0, 0], "stateRewards": ["", 1, -2, -3, 14, -42, -87, -37, -11, -50, 33, -44, -2, 4, -7, 13, 48, -75, -66, 12, 23, -2, 82, 1, -4, 3, 12, 51, -15, -26, -11, -52, -29, 82], "withholdReward": false, "trial_id": "mdp_trial_36", "block": "test", "trialIndex": 39, "score": 51.8, "costs": -11.200000000000001, "simulationMode": [null, null, null, null, null], "rewards": [1, -4, 3, 12, 51], "path": ["0", "0", "23", "24", "25", "26", "27"], "rt": [22971, 158, 102, 597, 160], "actions": ["left", "left", "left", "up", "up"], "actionTimes": [25559, 26224, 26834, 27945, 28623], "queries": {"click": {"state": {"target": ["5", "6", "7", "9", "11", "27", "29", "32"], "time": [3700, 6199, 8552, 11200, 13524, 16246, 18756, 21920]}, "edge": {"target": [], "time": []}}, "mouseover": {"state": {"target": ["1", "4", "5", "5", "6", "7", "7", "9", "11", "26", "27", "29", "33", "32"], "time": [3068, 3149, 3183, 3483, 5931, 8079, 8313, 10979, 13327, 15709, 16095, 17631, 21117, 21667]}, "edge": {"target": [], "time": []}}, "mouseout": {"state": {"target": ["2", "9", "32", "31", "0", "1", "4", "5", "5", "5", "6", "7", "7", "9", "11", "26", "27", "29", "33", "32"], "time": [885, 904, 1540, 1591, 2217, 3100, 3166, 3217, 3763, 5671, 8045, 8129, 8640, 13062, 15589, 15889, 17022, 20942, 21252, 22100]}, "edge": {"target": [], "time": []}}}, "displayed_time": "29.13", "trialTime": 31376, "trial_type": "mouselab-mdp", "trial_index": 50, "time_elapsed": 2496250, "internal_node_id": "0.0-6.0-1.0-35.0"}}, {"uniqueid": "w97908548:a15410429", "current_trial": 51, "dateTime": 1693483260163, "trialdata": {"revealed_states": [], "clicked_states": ["11", "9", "6", "7", "16", "21", "20"], "num_clicks_accrued": [0, 0, 0, 0, 0, 0, 0, 0, 0, 0, 0, 0, 0], "stateRewards": ["", 1, -3, -1, 9, -34, -40, 22, -7, 45, 53, -11, 2, 4, 5, 15, 21, 37, -49, -3, 80, -28, -34, 1, -3, 1, 1, -40, -6, -5, -16, -85, -86, 59], "withholdReward": false, "trial_id": "mdp_trial_37", "block": "test", "trialIndex": 40, "score": 53.2, "costs": -9.8, "simulationMode": [null, null, null, null, null], "rewards": [2, 4, 5, 15, 37], "path": ["0", "0", "12", "13", "14", "15", "17"], "rt": [22695, 124, 196, 406, 2896], "actions": ["right", "right", "right", "up", "right"], "actionTimes": [24420, 25074, 25782, 26708, 30122], "queries": {"click": {"state": {"target": ["11", "9", "6", "7", "16", "21", "20"], "time": [3344, 5788, 8904, 11520, 13921, 17058, 19466]}, "edge": {"target": [], "time": []}}, "mouseover": {"state": {"target": ["1", "2", "11", "9", "6", "7", "16", "17", "21", "20", "19", "22"], "time": [2362, 2471, 2987, 5468, 8631, 11029, 13610, 15908, 16842, 19059, 23003, 23359]}, "edge": {"target": [], "time": []}}, "mouseout": {"state": {"target": ["21", "19", "12", "0", "1", "2", "11", "11", "9", "6", "7", "16", "17", "21", "20", "20", "19", "22", "0"], "time": [954, 1006, 1071, 1483, 2420, 2636, 3425, 5268, 7667, 10931, 13547, 15824, 15995, 18926, 19532, 22576, 23301, 23377, 32060]}, "edge": {"target": [], "time": []}}}, "displayed_time": "30.63", "trialTime": 34344, "trial_type": "mouselab-mdp", "trial_index": 51, "time_elapsed": 2530921, "internal_node_id": "0.0-6.0-1.0-36.0"}}, {"uniqueid": "w97908548:a15410429", "current_trial": 52, "dateTime": 1693483285191, "trialdata": {"revealed_states": [], "clicked_states": ["20", "21", "17", "16"], "num_clicks_accrued": [0, 0, 0, 0, 0, 0, 0, 0, 0, 0, 0, 0, 0], "stateRewards": ["", 1, -4, 6, -3, 40, 76, -51, 5, -24, -63, 44, -2, -2, 8, 1, 76, -85, -58, 10, 59, 20, 11, -2, 3, -3, 3, -82, -10, 54, -7, -57, -6, -32], "withholdReward": false, "trial_id": "mdp_trial_38", "block": "test", "trialIndex": 41, "score": 75.4, "costs": -5.6, "simulationMode": [null, null, null, null, null], "rewards": [-2, -2, 8, 1, 76], "path": ["0", "0", "12", "13", "14", "15", "16"], "rt": [14238, 368, 1544, 807, 305], "actions": ["right", "right", "right", "up", "up"], "actionTimes": [16408, 17295, 19350, 20677, 21492], "queries": {"click": {"state": {"target": ["20", "21", "17", "16"], "time": [3757, 6215, 9071, 11528]}, "edge": {"target": [], "time": []}}, "mouseover": {"state": {"target": ["0", "22", "19", "20", "21", "19", "17", "17", "16", "16"], "time": [2820, 2901, 2918, 3499, 5980, 8212, 8268, 8595, 11035, 11325]}, "edge": {"target": [], "time": []}}, "mouseout": {"state": {"target": ["0", "1", "0", "0", "22", "19", "20", "21", "19", "17", "17", "16", "16", "18"], "time": [1340, 1501, 1900, 2850, 2916, 2933, 5682, 8061, 8228, 8295, 10959, 11210, 13494, 23202]}, "edge": {"target": [], "time": []}}}, "displayed_time": "22.00", "trialTime": 24702, "trial_type": "mouselab-mdp", "trial_index": 52, "time_elapsed": 2555949, "internal_node_id": "0.0-6.0-1.0-37.0"}}, {"uniqueid": "w97908548:a15410429", "current_trial": 53, "dateTime": 1693483322819, "trialdata": {"revealed_states": [], "clicked_states": ["5", "9", "11", "10", "27", "29", "33", "32", "31", "28"], "num_clicks_accrued": [0, 0, 0, 0, 0, 0, 0, 0, 0, 0, 0, 0, 0], "stateRewards": ["", -2, 1, 6, -2, -10, -78, -69, 14, -15, 7, -1, 1, -1, -2, 13, 77, 32, 87, 5, -74, 30, -26, 1, 3, 4, 12, 39, 54, -43, 2, 10, 23, 13], "withholdReward": false, "trial_id": "mdp_trial_39", "block": "test", "trialIndex": 42, "score": 60, "costs": -14.000000000000002, "simulationMode": [null, null, null, null, null], "rewards": [1, 3, 4, 12, 54], "path": ["0", "0", "23", "24", "25", "26", "28"], "rt": [27143, 225, 232, 603, 459], "actions": ["left", "left", "left", "up", "right"], "actionTimes": [28989, 29733, 30473, 31600, 32565], "queries": {"click": {"state": {"target": ["5", "9", "11", "10", "27", "29", "33", "32", "31", "28"], "time": [2648, 4974, 7296, 9815, 12072, 14472, 16984, 19462, 21642, 23903]}, "edge": {"target": [], "time": []}}, "mouseover": {"state": {"target": ["1", "2", "3", "5", "5", "9", "11", "10", "27", "29", "33", "32", "31", "24", "28", "23", "12", "17", "15", "18", "15", "15"], "time": [1952, 2022, 2057, 2113, 2457, 4695, 7042, 9623, 11957, 14235, 16785, 19031, 21400, 23560, 23644, 26377, 26475, 26791, 27175, 27233, 27374, 27633]}, "edge": {"target": [], "time": []}}, "mouseout": {"state": {"target": ["32", "30", "11", "28", "24", "0", "23", "0", "1", "2", "3", "5", "5", "9", "11", "10", "27", "27", "29", "33", "32", "31", "24", "28", "23", "12", "17", "15", "18", "15", "15", "13", "22", "0", "9", "8", "10"], "time": [219, 248, 480, 552, 581, 813, 1151, 1412, 1980, 2045, 2091, 2280, 4594, 6892, 9257, 11706, 12189, 13970, 16418, 18849, 21284, 23477, 23595, 25925, 26392, 26492, 27143, 27215, 27245, 27415, 27707, 34426, 34440, 35001, 35350, 35423, 35501]}, "edge": {"target": [], "time": []}}}, "displayed_time": "33.08", "trialTime": 37299, "trial_type": "mouselab-mdp", "trial_index": 53, "time_elapsed": 2593578, "internal_node_id": "0.0-6.0-1.0-38.0"}}, {"uniqueid": "w97908548:a15410429", "current_trial": 54, "dateTime": 1693483344474, "trialdata": {"revealed_states": [], "clicked_states": ["22", "21", "20", "14"], "num_clicks_accrued": [0, 0, 0, 0, 0, 0, 0, 0, 0, 0, 0, 0, 0], "stateRewards": ["", -2, 2, 8, -6, -25, 3, 87, 2, -62, -2, 74, -2, -1, 2, -1, 79, 49, -37, -14, 5, 67, -9, -1, 2, -2, 5, 15, 38, 32, -14, -38, -38, 30], "withholdReward": false, "trial_id": "mdp_trial_40", "block": "test", "trialIndex": 43, "score": 46.4, "costs": -5.6, "simulationMode": [null, null, null, null, null], "rewards": [-2, -1, 2, -14, 67], "path": ["0", "0", "12", "13", "14", "19", "21"], "rt": [12247, 152, 129, 615, 234], "actions": ["right", "right", "right", "down", "down"], "actionTimes": [14831, 15498, 16141, 17275, 18032], "queries": {"click": {"state": {"target": ["22", "21", "20", "14"], "time": [3846, 6148, 8798, 11920]}, "edge": {"target": [], "time": []}}, "mouseover": {"state": {"target": ["0", "22", "22", "21", "20", "19", "13", "12", "14"], "time": [3038, 3170, 3542, 5892, 8322, 10797, 10947, 10997, 11559]}, "edge": {"target": [], "time": []}}, "mouseout": {"state": {"target": ["22", "1", "0", "0", "0", "0", "22", "22", "22", "21", "20", "19", "13", "12", "14", "17", "14"], "time": [823, 1122, 1289, 1556, 2155, 3076, 3203, 3872, 5769, 7866, 10763, 10866, 10980, 11039, 13828, 19460, 19490]}, "edge": {"target": [], "time": []}}}, "displayed_time": "18.54", "trialTime": 21128, "trial_type": "mouselab-mdp", "trial_index": 54, "time_elapsed": 2615232, "internal_node_id": "0.0-6.0-1.0-39.0"}}, {"uniqueid": "w97908548:a15410429", "current_trial": 55, "dateTime": 1693483433402, "trialdata": {"rt": 88924, "response": {"Q0": "$-2 to $2", "Q1": "$-16 to $16", "Q2": "$-88 to $88", "Q3": "The cost was always $1.4.", "Q4": "Very motivated"}, "question_order": [0, 1, 2, 3, 4], "trial_id": "final_quiz_control", "trial_type": "survey-multi-choice", "trial_index": 55, "time_elapsed": 2704161, "internal_node_id": "0.0-6.0-2.0"}}, {"uniqueid": "w97908548:a15410429", "current_trial": 56, "dateTime": 1693483540922, "trialdata": {"rt": 107512, "response": {"Q0": "Clicking the last step to see the target amount.", "Q1": "Yes, initially I was clicking step by step until I noticed the highest value would be on the last step.", "Q2": "The negative amounts were a challenge "}, "trial_id": "self_report_control", "trial_type": "survey-text", "trial_index": 56, "time_elapsed": 2811681, "internal_node_id": "0.0-6.0-3.0"}}, {"uniqueid": "w97908548:a15410429", "current_trial": 57, "dateTime": 1693483597098, "trialdata": {"rt": 56172, "response": {"gender": "female", "age": "38", "colorblind": "0", "effort": "0"}, "trial_type": "survey-html-form", "trial_index": 57, "time_elapsed": 2867857, "internal_node_id": "0.0-6.0-4.0"}}, {"uniqueid": "w97908548:a15410429", "current_trial": 58, "dateTime": 1693483636802, "trialdata": {"rt": 39699, "response": {"Q0": "No", "Q1": "No", "Q2": "Thanks"}, "trial_type": "survey-text", "trial_index": 58, "time_elapsed": 2907561, "internal_node_id": "0.0-6.0-5.0"}}, {"uniqueid": "w97908548:a15410429", "current_trial": 59, "dateTime": 1693483686658, "trialdata": {"rt": 49852, "stimulus": "<h1>Completion Code Instructions (1/2)</h1>\n<br><br><br><br>\nYou have reached the end of the experiment! The completion code consists of two parts: (1) a code with 2 characters (2) a code with 6 characters. On this page, you will receive the second part of the code. The first part of the completion code will be on the next page.\n<br><br>\nThe second part of your completion code is: <b>EWEK22</b>\n<br><br>\nPlease note this down. Then, press 'Finish HIT' in order to find the first part of your completion code. Once the data has been saved, you will receive this code either in this window or in the original browser window where you started the experiment.\n", "response": 0, "trial_type": "html-button-response", "trial_index": 59, "time_elapsed": 2957417, "internal_node_id": "0.0-6.0-6.0"}}, {"uniqueid": "w97908548:a15410429", "current_trial": 60, "dateTime": 1693483687663, "trialdata": {"success": true, "trial_type": "fullscreen", "trial_index": 60, "time_elapsed": 2958421, "internal_node_id": "0.0-7.0"}}], "questiondata": {"params": {"CODE": "C6DMOQA6", "MIN_TIME": 14, "inspectCost": 1, "startTime": "Thu Aug 31 2023 13:18:47 GMT+0200 (South Africa Standard Time)", "bonusRate": 0.002, "variance": "1_2_4_8_44", "branching": "31123"}, "final_score": 1986.4}, "eventdata": [{"eventtype": "initialized", "value": null, "timestamp": 1693480726578, "interval": 0}, {"eventtype": "window_resize", "value": [1536, 766], "timestamp": 1693480726578, "interval": 0}, {"eventtype": "window_resize", "value": [1536, 766], "timestamp": 1693480727160, "interval": 582}, {"eventtype": "window_resize", "value": [1536, 864], "timestamp": 1693481190157, "interval": 462997}, {"eventtype": "focus", "value": "off", "timestamp": 1693481905044, "interval": 714887}, {"eventtype": "focus", "value": "on", "timestamp": 1693481905044, "interval": 0}, {"eventtype": "window_resize", "value": [1536, 766], "timestamp": 1693481905251, "interval": 207}, {"eventtype": "window_resize", "value": [1536, 864], "timestamp": 1693481908089, "interval": 2838}, {"eventtype": "window_resize", "value": [1536, 766], "timestamp": 1693483686910, "interval": 1778821}], "useragent": "Mozilla/5.0 (Windows NT 10.0; Win64; x64) AppleWebKit/537.36 (KHTML, like Gecko) Chrome/115.0.0.0 Safari/537.36", "mode": "live", "id": "w97908548:a15410429", "status": "user data saved", "Beginhit": "2023-08-31 11:18:42.701857", "Beginexp": "2023-08-31 11:26:31.99011", "Endhit": "2023-08-31 12:08:09.079433", "psiturkStatus": 3, "browser": "<redacted>", "platform": "windows", "language": "en-US"}