{"condition": 1, "counterbalance": 0, "assignmentId": "a49052878", "workerId": "w22059943", "hitId": "h46157122", "currenttrial": 15, "bonus": 0, "data": [{"uniqueid": "w22059943:a49052878", "current_trial": 0, "dateTime": 1691159296683, "trialdata": {"success": true, "trial_type": "fullscreen", "trial_index": 0, "time_elapsed": 3658, "internal_node_id": "0.0-0.0"}}, {"uniqueid": "w22059943:a49052878", "current_trial": 1, "dateTime": 1691159304224, "trialdata": {"view_history": [{"page_index": 0, "viewing_time": 7530}], "rt": 7530, "trial_id": "exp_instructions_misaligned", "trial_type": "instructions", "trial_index": 1, "time_elapsed": 11199, "internal_node_id": "0.0-1.0"}}, {"uniqueid": "w22059943:a49052878", "current_trial": 2, "dateTime": 1691159308721, "trialdata": {"success": true, "trial_type": "fullscreen", "trial_index": 2, "time_elapsed": 15697, "internal_node_id": "0.0-2.0-0.0"}}, {"uniqueid": "w22059943:a49052878", "current_trial": 3, "dateTime": 1691159377111, "trialdata": {"view_history": [{"page_index": 0, "viewing_time": 24720}, {"page_index": 1, "viewing_time": 32168}, {"page_index": 2, "viewing_time": 6272}, {"page_index": 3, "viewing_time": 5224}], "rt": 68385, "trial_id": "mouselab_instructions_1_misaligned", "trial_type": "instructions", "trial_index": 3, "time_elapsed": 84087, "internal_node_id": "0.0-2.0-1.0"}}, {"uniqueid": "w22059943:a49052878", "current_trial": 4, "dateTime": 1691159494396, "trialdata": {"revealed_states": [], "clicked_states": ["3", "1", "13", "24", "25", "23", "14", "16", "19", "12", "11", "30", "31", "32", "2", "8", "10", "9", "4", "6", "7", "5", "26", "27", "28", "29", "33", "22", "20", "21", "15", "18", "17"], "num_clicks_accrued": [0, 0, 0, 0, 0, 0, 0, 0, 0, 0, 0, 0, 0], "stateRewards": ["", 10, -10, 10, -10, 10, -10, -10, -10, 10, -10, -10, 10, -10, -10, -10, 10, 10, -10, -10, -10, -10, -10, -10, -10, -10, 10, -10, 10, 10, 10, 10, -10, -10], "withholdReward": false, "trial_id": "practice_1", "block": "test", "trialIndex": 0, "score": -23, "costs": -16.5, "simulationMode": [null, null, null, null, null], "rewards": [10, -10, -10, -10, 10], "path": ["0", "0", "12", "13", "14", "15", "17"], "rt": [106201, 931, 612, 1167, 381], "actions": ["right", "right", "right", "up", "right"], "actionTimes": [108520, 109964, 111093, 112764, 113661], "queries": {"click": {"state": {"target": ["3", "1", "13", "24", "25", "23", "14", "16", "19", "12", "11", "30", "31", "32", "2", "8", "10", "9", "4", "6", "7", "5", "26", "27", "28", "29", "33", "22", "20", "21", "15", "18", "17"], "time": [7057, 14686, 17621, 20389, 23085, 26060, 28984, 31287, 34126, 38389, 41798, 49279, 52182, 55525, 58624, 61092, 63535, 65164, 67122, 68684, 70268, 71892, 75329, 76540, 78112, 79389, 80678, 82551, 84673, 86176, 87463, 88948, 91079]}, "edge": {"target": [], "time": []}}, "mouseover": {"state": {"target": ["1", "2", "3", "8", "11", "10", "1", "13", "12", "23", "24", "25", "24", "23", "12", "13", "14", "15", "16", "15", "14", "19", "13", "12", "0", "12", "1", "10", "8", "11", "23", "30", "23", "23", "24", "25", "30", "31", "32", "31", "23", "2", "8", "10", "9", "5", "4", "6", "7", "4", "5", "4", "1", "23", "24", "25", "26", "26", "27", "28", "29", "33", "30", "31", "22", "21", "20", "21", "19", "14", "15", "15", "18", "17", "14", "13", "12", "12", "13"], "time": [6019, 6218, 6736, 10400, 10800, 12866, 13149, 17049, 19648, 19848, 19977, 22678, 25624, 25709, 26824, 27041, 27157, 29707, 30761, 33325, 33509, 33726, 36490, 36691, 36823, 38142, 40722, 40855, 41086, 41457, 43804, 44287, 46688, 47404, 47553, 47770, 49053, 51950, 54818, 57965, 58065, 58301, 60798, 62029, 64696, 66511, 66878, 67744, 69978, 71160, 71412, 73194, 73478, 73695, 74011, 74211, 74662, 75128, 75876, 77093, 78590, 80157, 81372, 81405, 82207, 82988, 84291, 85204, 86438, 86537, 86737, 87154, 87843, 89387, 96388, 104565, 104864, 106034, 106167]}, "edge": {"target": [], "time": []}}, "mouseout": {"state": {"target": ["0", "1", "2", "3", "8", "11", "10", "1", "13", "12", "23", "24", "25", "24", "23", "12", "13", "14", "15", "16", "15", "14", "19", "13", "12", "0", "12", "1", "10", "8", "11", "11", "23", "30", "23", "23", "24", "25", "30", "31", "32", "31", "23", "2", "8", "10", "8", "9", "5", "4", "6", "7", "4", "5", "4", "7", "1", "23", "24", "25", "26", "26", "27", "28", "26", "29", "33", "30", "31", "22", "22", "21", "20", "21", "19", "14", "15", "15", "18", "15", "17", "14", "13", "12", "12"], "time": [5686, 6119, 6418, 10201, 10567, 12733, 12966, 16516, 19581, 19711, 19946, 22596, 25596, 25657, 26658, 26941, 27108, 29490, 29974, 33293, 33390, 33574, 36358, 36509, 36791, 37940, 40591, 40774, 40905, 41408, 41903, 43054, 43953, 46522, 46921, 47488, 47671, 48887, 51902, 54685, 57867, 57982, 58083, 60716, 61729, 64245, 64345, 66128, 66678, 67511, 69493, 70926, 71293, 73128, 73245, 73309, 73494, 73812, 74061, 74361, 74810, 75725, 76991, 78407, 78557, 79790, 81005, 81389, 81472, 82668, 82855, 83791, 85037, 86371, 86487, 86571, 86788, 87790, 89270, 89320, 95987, 104514, 104667, 105257, 106117]}, "edge": {"target": [], "time": []}}}, "displayed_time": "114.18", "trialTime": 116821, "trial_type": "mouselab-mdp", "trial_index": 4, "time_elapsed": 201371, "internal_node_id": "0.0-2.0-2.0-0.0"}}, {"uniqueid": "w22059943:a49052878", "current_trial": 5, "dateTime": 1691159515451, "trialdata": {"revealed_states": [], "clicked_states": ["12"], "num_clicks_accrued": [0, 0, 0, 0, 0, 0, 0, 0, 0, 0, 0, 0, 0], "stateRewards": ["", -10, -10, 10, 10, 10, 10, -10, -10, -10, -10, -10, 10, -10, -10, 10, -10, 10, 10, -10, -10, -10, 10, 10, -10, 10, 10, -10, 10, -10, -10, 10, 10, 10], "withholdReward": false, "trial_id": "practice_2", "block": "test", "trialIndex": 1, "score": 13, "costs": -0.5, "simulationMode": [null, null, null, null, null], "rewards": [10, -10, -10, 10, 10], "path": ["0", "0", "12", "13", "14", "15", "17"], "rt": [5059, 4842, 741, 1388, 609], "actions": ["right", "right", "right", "up", "right"], "actionTimes": [7788, 13138, 14386, 16282, 17402], "queries": {"click": {"state": {"target": ["12"], "time": [4520]}, "edge": {"target": [], "time": []}}, "mouseover": {"state": {"target": ["12"], "time": [3915]}, "edge": {"target": [], "time": []}}, "mouseout": {"state": {"target": ["13", "0", "12", "13", "14"], "time": [1414, 3631, 8543, 13558, 14012]}, "edge": {"target": [], "time": []}}}, "displayed_time": "17.91", "trialTime": 20761, "trial_type": "mouselab-mdp", "trial_index": 5, "time_elapsed": 222426, "internal_node_id": "0.0-2.0-2.0-1.0"}}, {"uniqueid": "w22059943:a49052878", "current_trial": 6, "dateTime": 1691159528343, "trialdata": {"view_history": [{"page_index": 0, "viewing_time": 9146}, {"page_index": 1, "viewing_time": 3744}], "rt": 12890, "trial_id": "mouselab_instructions_2_misaligned", "trial_type": "instructions", "trial_index": 6, "time_elapsed": 235319, "internal_node_id": "0.0-2.0-3.0"}}, {"uniqueid": "w22059943:a49052878", "current_trial": 7, "dateTime": 1691159561984, "trialdata": {"rt": 33637, "response": {"Q0": "The cost for clicking on nodes may vary between nodes.", "Q1": "The better I perform the higher my bonus will be.", "Q2": "No, the amount of cash at each node of the web may be different each time.", "Q3": "To get the highest total score.", "Q4": "Only before moving the spider.", "Q5": "10 seconds"}, "question_order": [0, 1, 2, 3, 4, 5], "correct": {"Q0": "The cost for clicking on nodes may vary between nodes.", "Q1": "The better I perform the higher my bonus will be.", "Q2": "No, the amount of cash at each node of the web may be different each time.", "Q3": "To get the highest total score.", "Q4": "Only before moving the spider.", "Q5": "3 seconds"}, "trial_id": "mouselab_quiz_misaligned", "trial_type": "survey-multi-choice", "trial_index": 7, "time_elapsed": 268960, "internal_node_id": "0.0-2.0-4.0"}}, {"uniqueid": "w22059943:a49052878", "current_trial": 8, "dateTime": 1691159567241, "trialdata": {"success": true, "trial_type": "fullscreen", "trial_index": 8, "time_elapsed": 274217, "internal_node_id": "0.0-2.1-0.1"}}, {"uniqueid": "w22059943:a49052878", "current_trial": 9, "dateTime": 1691159645166, "trialdata": {"view_history": [{"page_index": 0, "viewing_time": 27417}, {"page_index": 1, "viewing_time": 33456}, {"page_index": 2, "viewing_time": 13431}, {"page_index": 3, "viewing_time": 3617}], "rt": 77921, "trial_id": "mouselab_instructions_1_misaligned", "trial_type": "instructions", "trial_index": 9, "time_elapsed": 352142, "internal_node_id": "0.0-2.1-1.1"}}, {"uniqueid": "w22059943:a49052878", "current_trial": 10, "dateTime": 1691159667265, "trialdata": {"revealed_states": [], "clicked_states": ["17", "20", "9", "5"], "num_clicks_accrued": [0, 0, 0, 0, 0, 0, 0, 0, 0, 0, 0, 0, 0], "stateRewards": ["", 10, -10, 10, -10, 10, -10, -10, -10, 10, -10, -10, 10, -10, -10, -10, 10, 10, -10, -10, -10, -10, -10, -10, -10, -10, 10, -10, 10, 10, 10, 10, -10, -10], "withholdReward": false, "trial_id": "practice_1", "block": "test", "trialIndex": 2, "score": 11.5, "costs": -2, "simulationMode": [null, null, null, null, null], "rewards": [10, -10, 10, -10, 10], "path": ["0", "0", "1", "2", "3", "4", "5"], "rt": [12278, 427, 372, 642, 324], "actions": ["up", "up", "up", "right", "up"], "actionTimes": [15037, 15995, 16874, 18027, 18859], "queries": {"click": {"state": {"target": ["17", "20", "9", "5"], "time": [3764, 5835, 8629, 11303]}, "edge": {"target": [], "time": []}}, "mouseover": {"state": {"target": ["12", "13", "17", "20", "19", "22", "12", "2", "3", "9", "5", "4", "2"], "time": [3270, 3321, 3441, 5088, 7172, 7454, 7869, 7990, 8222, 8373, 10122, 12069, 12403]}, "edge": {"target": [], "time": []}}, "mouseout": {"state": {"target": ["0", "0", "12", "13", "17", "20", "19", "22", "12", "2", "3", "9", "5", "4", "2"], "time": [1590, 3258, 3304, 3338, 4855, 7038, 7388, 7836, 7886, 8122, 8272, 9702, 11952, 12119, 13934]}, "edge": {"target": [], "time": []}}}, "displayed_time": "19.37", "trialTime": 21786, "trial_type": "mouselab-mdp", "trial_index": 10, "time_elapsed": 374240, "internal_node_id": "0.0-2.1-2.1-0.1"}}, {"uniqueid": "w22059943:a49052878", "current_trial": 11, "dateTime": 1691159689601, "trialdata": {"revealed_states": [], "clicked_states": ["29", "33", "11", "9", "17"], "num_clicks_accrued": [0, 0, 0, 0, 0, 0, 0, 0, 0, 0, 0, 0, 0], "stateRewards": ["", -10, -10, 10, 10, 10, 10, -10, -10, -10, -10, -10, 10, -10, -10, 10, -10, 10, 10, -10, -10, -10, 10, 10, -10, 10, 10, -10, 10, -10, -10, 10, 10, 10], "withholdReward": false, "trial_id": "practice_2", "block": "test", "trialIndex": 3, "score": 11, "costs": -2.5, "simulationMode": [null, null, null, null, null], "rewards": [10, -10, 10, -10, 10], "path": ["0", "0", "23", "24", "25", "30", "33"], "rt": [13560, 398, 682, 505, 328], "actions": ["left", "left", "left", "down", "left"], "actionTimes": [15251, 16161, 17361, 18384, 19225], "queries": {"click": {"state": {"target": ["29", "33", "11", "9", "17"], "time": [2922, 4117, 6441, 7841, 10946]}, "edge": {"target": [], "time": []}}, "mouseover": {"state": {"target": ["23", "26", "29", "33", "30", "24", "10", "3", "8", "11", "9", "5", "5", "6", "16", "17", "13", "12", "31", "24", "23"], "time": [2269, 2570, 2633, 3582, 4549, 4683, 4766, 5484, 6018, 6100, 7068, 8648, 9115, 9647, 9765, 10085, 12634, 12699, 12833, 13366, 14282]}, "edge": {"target": [], "time": []}}, "mouseout": {"state": {"target": ["1", "0", "23", "26", "29", "33", "30", "24", "10", "3", "8", "11", "9", "5", "5", "6", "16", "17", "13", "12", "31", "24"], "time": [1176, 2253, 2299, 2588, 3299, 4450, 4616, 4716, 4833, 5969, 6067, 6732, 8465, 8698, 9599, 9698, 9851, 11681, 12682, 12713, 12933, 13383]}, "edge": {"target": [], "time": []}}}, "displayed_time": "19.75", "trialTime": 22024, "trial_type": "mouselab-mdp", "trial_index": 11, "time_elapsed": 396576, "internal_node_id": "0.0-2.1-2.1-1.1"}}, {"uniqueid": "w22059943:a49052878", "current_trial": 12, "dateTime": 1691159708790, "trialdata": {"view_history": [{"page_index": 0, "viewing_time": 16098}, {"page_index": 1, "viewing_time": 3088}], "rt": 19186, "trial_id": "mouselab_instructions_2_misaligned", "trial_type": "instructions", "trial_index": 12, "time_elapsed": 415766, "internal_node_id": "0.0-2.1-3.1"}}, {"uniqueid": "w22059943:a49052878", "current_trial": 13, "dateTime": 1691159732775, "trialdata": {"rt": 23981, "response": {"Q0": "There is no cost for clicking on nodes.", "Q1": "No.", "Q2": "No, the amount of cash at each node of the web may be different each time.", "Q3": "To get the highest total score.", "Q4": "Only before moving the spider.", "Q5": "3 seconds"}, "question_order": [0, 1, 2, 3, 4, 5], "correct": {"Q0": "The cost for clicking on nodes may vary between nodes.", "Q1": "The better I perform the higher my bonus will be.", "Q2": "No, the amount of cash at each node of the web may be different each time.", "Q3": "To get the highest total score.", "Q4": "Only before moving the spider.", "Q5": "3 seconds"}, "trial_id": "mouselab_quiz_misaligned", "trial_type": "survey-multi-choice", "trial_index": 13, "time_elapsed": 439751, "internal_node_id": "0.0-2.1-4.1"}}, {"uniqueid": "w22059943:a49052878", "current_trial": 14, "dateTime": 1691159739185, "trialdata": {"success": true, "trial_type": "fullscreen", "trial_index": 14, "time_elapsed": 446161, "internal_node_id": "0.0-2.2-0.2"}}], "questiondata": {"params": {"CODE": "C6DMOQA6", "MIN_TIME": 14, "inspectCost": 1, "startTime": "Fri Aug 04 2023 15:28:12 GMT+0100 (British Summer Time)", "bonusRate": 0.002, "variance": "1_2_4_8_44", "branching": "31123"}}, "eventdata": [{"eventtype": "initialized", "value": null, "timestamp": 1691159291552, "interval": 0}, {"eventtype": "window_resize", "value": [1024, 767], "timestamp": 1691159291552, "interval": 0}, {"eventtype": "window_resize", "value": [1024, 767], "timestamp": 1691159291882, "interval": 330}, {"eventtype": "window_resize", "value": [1280, 1024], "timestamp": 1691159295932, "interval": 4050}, {"eventtype": "focus", "value": "off", "timestamp": 1691159564562, "interval": 268630}, {"eventtype": "focus", "value": "on", "timestamp": 1691159564562, "interval": 0}, {"eventtype": "window_resize", "value": [1024, 767], "timestamp": 1691159564772, "interval": 210}, {"eventtype": "window_resize", "value": [1280, 1024], "timestamp": 1691159566483, "interval": 1711}, {"eventtype": "focus", "value": "off", "timestamp": 1691159736579, "interval": 170096}, {"eventtype": "focus", "value": "on", "timestamp": 1691159736579, "interval": 0}, {"eventtype": "window_resize", "value": [1024, 767], "timestamp": 1691159736790, "interval": 211}, {"eventtype": "window_resize", "value": [1280, 1024], "timestamp": 1691159738424, "interval": 1634}, {"eventtype": "window_resize", "value": [1024, 767], "timestamp": 1691159743090, "interval": 4666}], "useragent": "Mozilla/5.0 (Windows NT 10.0; Win64; x64) AppleWebKit/537.36 (KHTML, like Gecko) Chrome/115.0.0.0 Safari/537.36", "mode": "live", "id": "w22059943:a49052878", "status": "user data saved", "Beginhit": "2023-08-04 14:28:10.114908", "Beginexp": "2023-08-04 14:28:17.298423", "Endhit": null, "psiturkStatus": 6, "browser": "<redacted>", "platform": "windows", "language": "en-GB", "excludeReason": "quizfail"}