{"condition": 0, "counterbalance": 0, "assignmentId": "a18666725", "workerId": "w53154873", "hitId": "h17715408", "currenttrial": 55, "bonus": 0, "data": [{"uniqueid": "w53154873:a18666725", "current_trial": 0, "dateTime": 1693580267342, "trialdata": {"success": true, "trial_type": "fullscreen", "trial_index": 0, "time_elapsed": 16790, "internal_node_id": "0.0-0.0"}}, {"uniqueid": "w53154873:a18666725", "current_trial": 1, "dateTime": 1693580293861, "trialdata": {"view_history": [{"page_index": 0, "viewing_time": 26514}], "rt": 26515, "trial_id": "exp_instructions_control", "trial_type": "instructions", "trial_index": 1, "time_elapsed": 43309, "internal_node_id": "0.0-1.0"}}, {"uniqueid": "w53154873:a18666725", "current_trial": 2, "dateTime": 1693580583652, "trialdata": {"view_history": [{"page_index": 0, "viewing_time": 95653}, {"page_index": 1, "viewing_time": 96024}, {"page_index": 2, "viewing_time": 57097}, {"page_index": 3, "viewing_time": 41015}], "rt": 289789, "trial_id": "mouselab_instructions_1_control", "trial_type": "instructions", "trial_index": 2, "time_elapsed": 333100, "internal_node_id": "0.0-2.0-1.0"}}, {"uniqueid": "w53154873:a18666725", "current_trial": 3, "dateTime": 1693580604135, "trialdata": {"revealed_states": [], "clicked_states": ["12", "14", "18", "13", "15", "17"], "num_clicks_accrued": [0, 0, 0, 0, 0, 0, 0, 0, 0, 0, 0, 0, 0], "stateRewards": ["", -10, -10, -10, -10, 10, -10, 10, 10, 10, 10, -10, 10, -10, 10, 10, 10, 10, 10, -10, -10, -10, -10, 10, -10, -10, -10, 10, -10, -10, -10, 10, 10, 10], "withholdReward": false, "trial_id": "practice_1", "block": "test", "trialIndex": 0, "score": 30.5, "costs": -3, "simulationMode": [null, null, null, null, null], "rewards": [10, -10, 10, 10, 10], "path": ["0", "0", "12", "13", "14", "15", "17"], "rt": [11633, 343, 309, 276, 322], "actions": ["right", "right", "right", "up", "right"], "actionTimes": [13113, 13968, 14775, 15551, 16383], "queries": {"click": {"state": {"target": ["12", "14", "18", "13", "15", "17"], "time": [2381, 3659, 5107, 6483, 8155, 9739]}, "edge": {"target": [], "time": []}}, "mouseover": {"state": {"target": ["12", "13", "14", "15", "18", "15", "13", "15", "17", "16", "14", "19", "22"], "time": [2232, 2699, 3282, 4140, 4773, 5408, 5657, 6931, 8515, 10407, 11016, 12023, 12503]}, "edge": {"target": [], "time": []}}, "mouseout": {"state": {"target": ["12", "0", "0", "12", "13", "14", "15", "18", "15", "13", "15", "17", "16", "15", "14", "19", "22"], "time": [592, 673, 2024, 2623, 3182, 3910, 4666, 5307, 5523, 6741, 8449, 10123, 10848, 10957, 11992, 12415, 12549]}, "edge": {"target": [], "time": []}}}, "displayed_time": "16.88", "trialTime": 20023, "trial_type": "mouselab-mdp", "trial_index": 3, "time_elapsed": 353582, "internal_node_id": "0.0-2.0-2.0-0.0"}}, {"uniqueid": "w53154873:a18666725", "current_trial": 4, "dateTime": 1693580627031, "trialdata": {"revealed_states": [], "clicked_states": ["23", "24", "1", "2", "3", "4", "7"], "num_clicks_accrued": [0, 0, 0, 0, 0, 0, 0, 0, 0, 0, 0, 0, 0], "stateRewards": ["", 10, -10, 10, 10, -10, 10, 10, -10, 10, -10, -10, -10, 10, -10, -10, -10, -10, 10, -10, -10, 10, 10, -10, -10, -10, 10, -10, 10, 10, -10, 10, -10, 10], "withholdReward": false, "trial_id": "practice_2", "block": "test", "trialIndex": 1, "score": 30, "costs": -3.5, "simulationMode": [null, null, null, null, null], "rewards": [10, -10, 10, 10, 10], "path": ["0", "0", "1", "2", "3", "4", "7"], "rt": [11432, 79, 64, 72, 66], "actions": ["up", "up", "up", "right", "down"], "actionTimes": [13222, 13804, 14380, 14964, 15540], "queries": {"click": {"state": {"target": ["23", "24", "1", "2", "3", "4", "7"], "time": [2264, 3793, 5529, 6994, 8465, 9928, 11489]}, "edge": {"target": [], "time": []}}, "mouseover": {"state": {"target": ["23", "24", "25", "24", "25", "1", "2", "3", "4", "7", "6"], "time": [1949, 2506, 3231, 3615, 4340, 5281, 5898, 8117, 9574, 10515, 12114]}, "edge": {"target": [], "time": []}}, "mouseout": {"state": {"target": ["0", "23", "24", "25", "24", "25", "24", "1", "2", "3", "4", "4", "7", "6", "7", "12", "0", "1", "1"], "time": [1909, 2465, 3090, 3485, 4164, 5173, 5198, 5823, 7307, 8748, 10004, 10367, 11832, 13015, 16807, 16890, 21757, 21781, 22149]}, "edge": {"target": [], "time": []}}}, "displayed_time": "16.05", "trialTime": 22661, "trial_type": "mouselab-mdp", "trial_index": 4, "time_elapsed": 376479, "internal_node_id": "0.0-2.0-2.0-1.0"}}, {"uniqueid": "w53154873:a18666725", "current_trial": 5, "dateTime": 1693580680884, "trialdata": {"view_history": [{"page_index": 0, "viewing_time": 45338}, {"page_index": 1, "viewing_time": 8512}], "rt": 53850, "trial_id": "mouselab_instructions_2_control", "trial_type": "instructions", "trial_index": 5, "time_elapsed": 430332, "internal_node_id": "0.0-2.0-3.0"}}, {"uniqueid": "w53154873:a18666725", "current_trial": 6, "dateTime": 1693580715269, "trialdata": {"rt": 34381, "response": {"Q0": "The cost for clicking on nodes may vary between nodes.", "Q1": "The better I perform the higher my bonus will be.", "Q2": "No, the amount of cash at each node of the web may be different each time.", "Q3": "To get the highest total score.", "Q4": "Only before moving the spider.", "Q5": "3 seconds"}, "question_order": [0, 1, 2, 3, 4, 5], "correct": {"Q0": "The cost for clicking on nodes may vary between nodes.", "Q1": "The better I perform the higher my bonus will be.", "Q2": "No, the amount of cash at each node of the web may be different each time.", "Q3": "To get the highest total score.", "Q4": "Only before moving the spider.", "Q5": "3 seconds"}, "trial_id": "mouselab_quiz_control", "trial_type": "survey-multi-choice", "trial_index": 6, "time_elapsed": 464717, "internal_node_id": "0.0-2.0-4.0"}}, {"uniqueid": "w53154873:a18666725", "current_trial": 7, "dateTime": 1693580724260, "trialdata": {"rt": 8984, "response": {"Q0": "No"}, "question_order": [0], "trial_id": "repeat_check", "trial_type": "survey-multi-choice", "trial_index": 7, "time_elapsed": 473708, "internal_node_id": "0.0-4.0-0.0"}}, {"uniqueid": "w53154873:a18666725", "current_trial": 8, "dateTime": 1693580738847, "trialdata": {"rt": 14582, "stimulus": "\n<h1> Get ready to start the game! </h1>\n\nThank you for reading the instructions. Get ready start with the 40 rounds of this game.\n<br><br>\nIf you need to take a break, feel free to take one after the end of a round, before continuing to the next one.\n<br><br>\nRemember, the more money the spider gets, the bigger your bonus will be!\n<br><br>\n<div style='text-align: center;'>Press <code>space</code> to begin.</div>\n\n<br><br>\n(If, at any point, the <code>space</code> key does not take you to the next page, click once on the text and try again.)", "response": " ", "trial_id": "mdp_ready", "trial_type": "html-keyboard-response", "trial_index": 8, "time_elapsed": 488294, "internal_node_id": "0.0-6.0-0.0"}}, {"uniqueid": "w53154873:a18666725", "current_trial": 9, "dateTime": 1693580764799, "trialdata": {"revealed_states": [], "clicked_states": ["1", "2", "3", "23", "24", "25", "30", "31"], "num_clicks_accrued": [0, 0, 0, 0, 0, 0, 0, 0, 0, 0, 0, 0, 0], "stateRewards": ["", -2, -3, -6, -7, 9, 16, 65, 5, -41, 20, -25, -1, -4, 1, -11, -49, -4, 71, 1, 39, -62, 52, -2, -3, 7, -9, -28, -70, 84, 8, 24, -58, 82], "withholdReward": false, "trial_id": "mdp_trial_1", "block": "test", "trialIndex": 2, "score": 22.799999999999997, "costs": -11.200000000000001, "simulationMode": [null, null, null, null, null], "rewards": [-2, -3, 7, 8, 24], "path": ["0", "0", "23", "24", "25", "30", "31"], "rt": [17872, 261, 272, 265, 242], "actions": ["left", "left", "left", "down", "right"], "actionTimes": [19108, 19875, 20652, 21419, 22163], "queries": {"click": {"state": {"target": ["1", "2", "3", "23", "24", "25", "30", "31"], "time": [1976, 3946, 5952, 8265, 10128, 12009, 14072, 16184]}, "edge": {"target": [], "time": []}}, "mouseover": {"state": {"target": ["1", "2", "7", "3", "23", "4", "23", "23", "24", "25", "30", "31", "32"], "time": [1628, 2413, 4336, 4636, 6694, 7269, 7895, 8144, 8577, 10535, 12519, 15112, 16477]}, "edge": {"target": [], "time": []}}, "mouseout": {"state": {"target": ["2", "1", "1", "2", "7", "3", "3", "2", "1", "23", "2", "4", "2", "23", "23", "24", "25", "30", "31", "32", "30"], "time": [435, 652, 2286, 4286, 4344, 6045, 6186, 6235, 6295, 6927, 7019, 7812, 7853, 7953, 8494, 10419, 12261, 14336, 16386, 18412, 23719]}, "edge": {"target": [], "time": []}}}, "displayed_time": "22.67", "trialTime": 25675, "trial_type": "mouselab-mdp", "trial_index": 9, "time_elapsed": 514246, "internal_node_id": "0.0-6.0-1.0-0.0"}}, {"uniqueid": "w53154873:a18666725", "current_trial": 10, "dateTime": 1693580794063, "trialdata": {"revealed_states": [], "clicked_states": ["12", "13", "14", "19", "22", "21", "20", "15", "18", "16", "17"], "num_clicks_accrued": [0, 0, 0, 0, 0, 0, 0, 0, 0, 0, 0, 0, 0], "stateRewards": ["", 2, 3, -6, -5, -3, 55, 40, 11, 61, 11, 51, 2, -4, -6, 9, -25, 29, -15, -6, 7, -77, -2, -2, -4, 1, 14, -43, -1, 56, -12, -54, 41, -74], "withholdReward": false, "trial_id": "mdp_trial_2", "block": "test", "trialIndex": 3, "score": 14.599999999999998, "costs": -15.400000000000002, "simulationMode": [null, null, null, null, null], "rewards": [2, -4, -6, 9, 29], "path": ["0", "0", "12", "13", "14", "15", "17"], "rt": [22006, 335, 238, 296, 256], "actions": ["right", "right", "right", "up", "right"], "actionTimes": [23381, 24220, 24956, 25764, 26532], "queries": {"click": {"state": {"target": ["12", "13", "14", "19", "22", "21", "20", "15", "18", "16", "17"], "time": [2105, 4048, 5961, 7809, 9633, 11441, 13265, 15257, 17058, 18897, 20729]}, "edge": {"target": [], "time": []}}, "mouseover": {"state": {"target": ["12", "13", "14", "19", "22", "21", "20", "15", "16", "15", "18", "16", "17", "15", "7", "3", "2", "1", "1"], "time": [1661, 2417, 4309, 6433, 8383, 9875, 11767, 13583, 13650, 14508, 15575, 17333, 19516, 20977, 21025, 21211, 21492, 21942, 23350]}, "edge": {"target": [], "time": []}}, "mouseout": {"state": {"target": ["0", "12", "13", "14", "19", "22", "21", "20", "15", "16", "15", "18", "16", "17", "15", "7", "3", "2", "1", "1", "0"], "time": [1542, 2367, 4250, 6267, 8075, 9800, 11579, 13517, 13617, 13908, 15332, 17200, 19192, 20960, 20983, 21034, 21226, 21659, 22709, 27749, 27792]}, "edge": {"target": [], "time": []}}}, "displayed_time": "27.04", "trialTime": 29013, "trial_type": "mouselab-mdp", "trial_index": 10, "time_elapsed": 543510, "internal_node_id": "0.0-6.0-1.0-1.0"}}, {"uniqueid": "w53154873:a18666725", "current_trial": 11, "dateTime": 1693580811615, "trialdata": {"revealed_states": [], "clicked_states": ["12", "13", "14", "15", "17"], "num_clicks_accrued": [0, 0, 0, 0, 0, 0, 0, 0, 0, 0, 0, 0, 0], "stateRewards": ["", 1, -4, -4, 8, 1, -79, 68, -10, -79, 8, -74, -1, -3, -6, 14, 43, 23, 9, 5, -51, 63, 61, -2, 4, 6, -10, 69, -32, 57, 15, -80, -80, -77], "withholdReward": false, "trial_id": "mdp_trial_3", "block": "test", "trialIndex": 4, "score": 20, "costs": -7, "simulationMode": [null, null, null, null, null], "rewards": [-1, -3, -6, 14, 23], "path": ["0", "0", "12", "13", "14", "15", "17"], "rt": [10779, 145, 199, 210, 221], "actions": ["right", "right", "right", "up", "right"], "actionTimes": [12286, 12933, 13637, 14349, 15085], "queries": {"click": {"state": {"target": ["12", "13", "14", "15", "17"], "time": [2249, 4122, 6018, 7898, 9922]}, "edge": {"target": [], "time": []}}, "mouseover": {"state": {"target": ["12", "13", "14", "15", "17", "16"], "time": [1846, 2511, 4404, 6270, 8170, 10178]}, "edge": {"target": [], "time": []}}, "mouseout": {"state": {"target": ["0", "12", "13", "14", "15", "17", "16", "0"], "time": [1574, 2437, 4345, 6104, 8000, 10095, 15461, 16353]}, "edge": {"target": [], "time": []}}}, "displayed_time": "15.59", "trialTime": 17310, "trial_type": "mouselab-mdp", "trial_index": 11, "time_elapsed": 561062, "internal_node_id": "0.0-6.0-1.0-2.0"}}, {"uniqueid": "w53154873:a18666725", "current_trial": 12, "dateTime": 1693580831383, "trialdata": {"revealed_states": [], "clicked_states": ["1", "2", "3", "8", "10"], "num_clicks_accrued": [0, 0, 0, 0, 0, 0, 0, 0, 0, 0, 0, 0, 0], "stateRewards": ["", -1, 1, -2, 5, 73, 15, 61, 8, 7, 38, 76, 2, 2, -4, -6, -6, -26, 43, -5, -45, -85, -35, -2, 1, -4, 15, -10, 69, 72, -11, 84, -49, -38], "withholdReward": false, "trial_id": "mdp_trial_4", "block": "test", "trialIndex": 5, "score": 37, "costs": -7, "simulationMode": [null, null, null, null, null], "rewards": [-1, 1, -2, 8, 38], "path": ["0", "0", "1", "2", "3", "8", "10"], "rt": [11361, 271, 276, 302, 334], "actions": ["up", "up", "up", "left", "down"], "actionTimes": [13453, 14226, 15002, 15802, 16642], "queries": {"click": {"state": {"target": ["1", "2", "3", "8", "10"], "time": [3247, 5119, 7071, 9055, 10959]}, "edge": {"target": [], "time": []}}, "mouseover": {"state": {"target": ["1", "2", "3", "8", "10", "11"], "time": [2732, 3832, 5365, 7707, 9382, 11225]}, "edge": {"target": [], "time": []}}, "mouseout": {"state": {"target": ["0", "1", "2", "3", "8", "8", "10", "11", "23"], "time": [782, 3458, 5194, 7155, 9122, 9307, 11124, 18124, 18299]}, "edge": {"target": [], "time": []}}}, "displayed_time": "17.14", "trialTime": 19507, "trial_type": "mouselab-mdp", "trial_index": 12, "time_elapsed": 580831, "internal_node_id": "0.0-6.0-1.0-3.0"}}, {"uniqueid": "w53154873:a18666725", "current_trial": 13, "dateTime": 1693580864095, "trialdata": {"revealed_states": [], "clicked_states": ["1", "2", "3", "8", "10", "4", "7", "12", "13", "14", "19", "22"], "num_clicks_accrued": [0, 0, 0, 0, 0, 0, 0, 0, 0, 0, 0, 0, 0], "stateRewards": ["", 1, -3, -4, -11, -56, 61, -47, -16, -28, -9, 69, -2, -3, -4, -8, 40, -86, 59, -4, 80, 27, 54, -1, 3, -1, 8, 67, 23, 50, 6, 83, -43, -29], "withholdReward": false, "trial_id": "mdp_trial_5", "block": "test", "trialIndex": 6, "score": 24.2, "costs": -16.8, "simulationMode": [null, null, null, null, null], "rewards": [-2, -3, -4, -4, 54], "path": ["0", "0", "12", "13", "14", "19", "22"], "rt": [24457, 244, 176, 236, 239], "actions": ["right", "right", "right", "down", "left"], "actionTimes": [26846, 27589, 28261, 29005, 29741], "queries": {"click": {"state": {"target": ["1", "2", "3", "8", "10", "4", "7", "12", "13", "14", "19", "22"], "time": [3353, 5298, 7258, 9233, 11098, 13586, 15489, 17225, 19065, 20850, 22689, 24618]}, "edge": {"target": [], "time": []}}, "mouseover": {"state": {"target": ["1", "2", "3", "8", "10", "11", "3", "4", "7", "7", "6", "13", "12", "13", "14", "19", "22", "20", "21"], "time": [3068, 3760, 5609, 8576, 9767, 11743, 13150, 13451, 14592, 14951, 15725, 16292, 16492, 17441, 19317, 21017, 22958, 24884, 25125]}, "edge": {"target": [], "time": []}}, "mouseout": {"state": {"target": ["12", "0", "1", "2", "3", "8", "10", "11", "8", "3", "4", "7", "7", "6", "13", "12", "13", "14", "19", "22", "19", "20", "21", "0"], "time": [775, 2982, 3446, 5534, 8393, 9467, 11367, 13118, 13142, 13383, 13818, 14601, 15667, 15942, 16325, 17401, 19284, 20993, 22926, 24759, 24825, 25042, 30918, 31734]}, "edge": {"target": [], "time": []}}}, "displayed_time": "30.25", "trialTime": 32446, "trial_type": "mouselab-mdp", "trial_index": 13, "time_elapsed": 613543, "internal_node_id": "0.0-6.0-1.0-4.0"}}, {"uniqueid": "w53154873:a18666725", "current_trial": 14, "dateTime": 1693580892598, "trialdata": {"revealed_states": [], "clicked_states": ["1", "2", "3", "4", "7", "6", "5", "8", "9", "10", "11"], "num_clicks_accrued": [0, 0, 0, 0, 0, 0, 0, 0, 0, 0, 0, 0, 0], "stateRewards": ["", -2, -4, -6, 12, -58, -70, -80, 2, 16, -88, -62, 1, 2, -5, 11, 77, -35, -44, -5, 18, -83, 87, 1, -3, -5, 13, -44, -21, -86, 10, -52, 8, 29], "withholdReward": false, "trial_id": "mdp_trial_6", "block": "test", "trialIndex": 7, "score": -9.400000000000002, "costs": -15.400000000000002, "simulationMode": [null, null, null, null, null], "rewards": [-2, -4, -6, 2, 16], "path": ["0", "0", "1", "2", "3", "8", "9"], "rt": [21988, 157, 215, 236, 205], "actions": ["up", "up", "up", "left", "up"], "actionTimes": [23217, 23888, 24600, 25337, 26048], "queries": {"click": {"state": {"target": ["1", "2", "3", "4", "7", "6", "5", "8", "9", "10", "11"], "time": [1948, 3828, 5693, 7516, 9518, 11677, 13581, 15485, 17549, 19325, 21317]}, "edge": {"target": [], "time": []}}, "mouseover": {"state": {"target": ["1", "2", "3", "4", "7", "6", "6", "5", "8", "9", "10", "11", "2", "3"], "time": [1742, 2366, 4133, 6125, 7858, 9824, 10249, 11900, 14792, 15794, 18249, 19617, 21566, 22503]}, "edge": {"target": [], "time": []}}, "mouseout": {"state": {"target": ["1", "2", "3", "4", "7", "6", "6", "5", "8", "9", "8", "10", "11", "2", "3", "2", "1", "0"], "time": [2308, 3904, 6086, 7825, 9769, 9833, 11825, 14508, 15683, 17786, 17833, 19574, 21502, 22383, 27169, 27208, 27225, 27249]}, "edge": {"target": [], "time": []}}}, "displayed_time": "26.56", "trialTime": 28240, "trial_type": "mouselab-mdp", "trial_index": 14, "time_elapsed": 642046, "internal_node_id": "0.0-6.0-1.0-5.0"}}, {"uniqueid": "w53154873:a18666725", "current_trial": 15, "dateTime": 1693580909790, "trialdata": {"revealed_states": [], "clicked_states": ["12", "13", "14", "19", "22"], "num_clicks_accrued": [0, 0, 0, 0, 0, 0, 0, 0, 0, 0, 0, 0, 0], "stateRewards": ["", -2, -1, -3, -1, -78, -6, 2, -1, 22, -88, 32, 2, 2, -7, -8, -51, -17, 54, 2, -44, 54, 75, 2, -2, -8, -15, -29, 12, -67, 15, -1, -47, -47], "withholdReward": false, "trial_id": "mdp_trial_7", "block": "test", "trialIndex": 8, "score": 67, "costs": -7, "simulationMode": [null, null, null, null, null], "rewards": [2, 2, -7, 2, 75], "path": ["0", "0", "12", "13", "14", "19", "22"], "rt": [10313, 174, 171, 176, 165], "actions": ["right", "right", "right", "down", "left"], "actionTimes": [11794, 12473, 13145, 13825, 14497], "queries": {"click": {"state": {"target": ["12", "13", "14", "19", "22"], "time": [2245, 4077, 5896, 7710, 9566]}, "edge": {"target": [], "time": []}}, "mouseover": {"state": {"target": ["0", "12", "13", "14", "19", "22", "21"], "time": [1770, 1889, 2539, 4380, 6397, 8351, 9939]}, "edge": {"target": [], "time": []}}, "mouseout": {"state": {"target": ["0", "0", "12", "13", "14", "19", "22", "19", "21"], "time": [585, 1825, 2460, 4274, 6162, 8052, 9781, 9824, 15556]}, "edge": {"target": [], "time": []}}}, "displayed_time": "15.48", "trialTime": 16913, "trial_type": "mouselab-mdp", "trial_index": 15, "time_elapsed": 659237, "internal_node_id": "0.0-6.0-1.0-6.0"}}, {"uniqueid": "w53154873:a18666725", "current_trial": 16, "dateTime": 1693580929206, "trialdata": {"revealed_states": [], "clicked_states": ["23", "24", "25", "30", "31", "32"], "num_clicks_accrued": [0, 0, 0, 0, 0, 0, 0, 0, 0, 0, 0, 0, 0], "stateRewards": ["", -2, -1, -5, 10, -36, -70, 68, -9, 86, 71, -10, 2, -4, 7, -7, 66, 44, -66, -13, -69, 43, 15, -2, 2, 6, -13, 62, 57, 50, -10, -69, 42, -72], "withholdReward": false, "trial_id": "mdp_trial_8", "block": "test", "trialIndex": 9, "score": 29.6, "costs": -8.4, "simulationMode": [null, null, null, null, null], "rewards": [-2, 2, 6, -10, 42], "path": ["0", "0", "23", "24", "25", "30", "32"], "rt": [12820, 108, 178, 73, 144], "actions": ["left", "left", "left", "down", "down"], "actionTimes": [13880, 14488, 15167, 15744, 16391], "queries": {"click": {"state": {"target": ["23", "24", "25", "30", "31", "32"], "time": [2155, 3957, 5804, 7619, 9411, 11243]}, "edge": {"target": [], "time": []}}, "mouseover": {"state": {"target": ["23", "24", "25", "30", "31", "32", "33"], "time": [1579, 2445, 4411, 6328, 8136, 9662, 11586]}, "edge": {"target": [], "time": []}}, "mouseout": {"state": {"target": ["12", "0", "23", "24", "25", "30", "31", "32", "33", "30", "31"], "time": [130, 1528, 2409, 4337, 6278, 7962, 9595, 11437, 17795, 17853, 18111]}, "edge": {"target": [], "time": []}}}, "displayed_time": "16.90", "trialTime": 19127, "trial_type": "mouselab-mdp", "trial_index": 16, "time_elapsed": 678654, "internal_node_id": "0.0-6.0-1.0-7.0"}}, {"uniqueid": "w53154873:a18666725", "current_trial": 17, "dateTime": 1693580988454, "trialdata": {"revealed_states": [], "clicked_states": ["1", "2", "3", "8", "9", "11", "10", "4", "7", "6", "5", "12", "13", "14", "15", "18", "16", "17", "19", "22", "21", "20", "23", "24", "25", "30", "31"], "num_clicks_accrued": [0, 0, 0, 0, 0, 0, 0, 0, 0, 0, 0, 0, 0], "stateRewards": ["", -1, 2, -6, 6, -82, -19, -39, -16, -83, 11, -33, -2, -2, 4, -6, -82, -1, -19, -6, -10, -67, -41, -2, 1, -7, 16, -23, -78, -52, 14, 31, -71, 74], "withholdReward": false, "trial_id": "mdp_trial_9", "block": "test", "trialIndex": 10, "score": -0.799999999999983, "costs": -37.79999999999998, "simulationMode": [null, null, null, null, null], "rewards": [-2, 1, -7, 14, 31], "path": ["0", "0", "23", "24", "25", "30", "31"], "rt": [52735, 231, 205, 175, 235], "actions": ["left", "left", "left", "down", "right"], "actionTimes": [53748, 54483, 55195, 55867, 56611], "queries": {"click": {"state": {"target": ["1", "2", "3", "8", "9", "11", "10", "4", "7", "6", "5", "12", "13", "14", "15", "18", "16", "17", "19", "22", "21", "20", "23", "24", "25", "30", "31"], "time": [1831, 3671, 5455, 7312, 9199, 10999, 12919, 14727, 16712, 18696, 20608, 22863, 24547, 26415, 28207, 30120, 32023, 33928, 35816, 37608, 39512, 41400, 43920, 45759, 47576, 49432, 51295]}, "edge": {"target": [], "time": []}}, "mouseover": {"state": {"target": ["1", "2", "3", "8", "9", "11", "10", "28", "24", "23", "1", "4", "7", "6", "6", "5", "18", "12", "13", "14", "15", "18", "16", "17", "14", "19", "22", "21", "20", "19", "13", "0", "23", "24", "23", "24", "25", "30", "30", "26", "31", "32"], "time": [1526, 2066, 4060, 6400, 7897, 10691, 11566, 13241, 13299, 13725, 13841, 14202, 15366, 17008, 17649, 19058, 20914, 22607, 23324, 24816, 26699, 28516, 31374, 32449, 34231, 34491, 36625, 38149, 40124, 41766, 41908, 42286, 43236, 43424, 43682, 44216, 46008, 47874, 48316, 49750, 51068, 51816]}, "edge": {"target": [], "time": []}}, "mouseout": {"state": {"target": ["0", "1", "2", "3", "8", "9", "11", "11", "10", "28", "24", "23", "1", "4", "7", "6", "6", "5", "6", "18", "12", "13", "14", "15", "18", "16", "17", "14", "19", "19", "22", "19", "21", "20", "19", "13", "0", "23", "24", "23", "24", "25", "30", "30", "25", "26", "25", "31", "32"], "time": [1427, 1900, 3908, 6099, 7716, 10349, 11092, 11299, 13178, 13274, 13391, 13808, 13874, 15041, 16949, 17033, 18771, 20783, 20842, 21066, 23132, 24766, 26616, 28474, 30938, 32183, 34174, 34299, 36058, 36467, 37924, 37966, 39735, 41711, 41833, 42108, 42857, 43349, 43608, 44161, 45974, 47824, 47933, 49641, 49716, 50909, 50954, 51516, 57724]}, "edge": {"target": [], "time": []}}}, "displayed_time": "57.11", "trialTime": 58963, "trial_type": "mouselab-mdp", "trial_index": 17, "time_elapsed": 737902, "internal_node_id": "0.0-6.0-1.0-8.0"}}, {"uniqueid": "w53154873:a18666725", "current_trial": 18, "dateTime": 1693581005807, "trialdata": {"revealed_states": [], "clicked_states": ["23", "24", "25", "30", "31"], "num_clicks_accrued": [0, 0, 0, 0, 0, 0, 0, 0, 0, 0, 0, 0, 0], "stateRewards": ["", -2, 2, 2, -6, 9, 37, 50, -13, -7, -18, -75, -2, -4, 4, 7, 23, -57, -66, -7, -81, -48, -76, 1, 1, -8, 1, 51, -2, 70, 14, 59, 71, -37], "withholdReward": false, "trial_id": "mdp_trial_10", "block": "test", "trialIndex": 11, "score": 60, "costs": -7, "simulationMode": [null, null, null, null, null], "rewards": [1, 1, -8, 14, 59], "path": ["0", "0", "23", "24", "25", "30", "31"], "rt": [10606, 224, 266, 212, 359], "actions": ["left", "left", "left", "down", "right"], "actionTimes": [11711, 12447, 13222, 13934, 14798], "queries": {"click": {"state": {"target": ["23", "24", "25", "30", "31"], "time": [1979, 3842, 5629, 7411, 9194]}, "edge": {"target": [], "time": []}}, "mouseover": {"state": {"target": ["23", "24", "25", "30", "31", "32"], "time": [1629, 2703, 4303, 7079, 7829, 9645]}, "edge": {"target": [], "time": []}}, "mouseout": {"state": {"target": ["0", "23", "24", "25", "30", "30", "31", "32"], "time": [1512, 2503, 4104, 6104, 7506, 7715, 9462, 15929]}, "edge": {"target": [], "time": []}}}, "displayed_time": "15.30", "trialTime": 17087, "trial_type": "mouselab-mdp", "trial_index": 18, "time_elapsed": 755255, "internal_node_id": "0.0-6.0-1.0-9.0"}}, {"uniqueid": "w53154873:a18666725", "current_trial": 19, "dateTime": 1693581022159, "trialdata": {"revealed_states": [], "clicked_states": ["23", "24", "25", "30", "32"], "num_clicks_accrued": [0, 0, 0, 0, 0, 0, 0, 0, 0, 0, 0, 0, 0], "stateRewards": ["", -1, -3, -7, -4, -85, -70, 79, 8, 84, -66, 42, 2, -2, -3, -16, -54, -66, 68, -3, 21, -14, 7, -2, -1, -3, -8, 75, 80, 86, -7, -84, 73, -16], "withholdReward": false, "trial_id": "mdp_trial_11", "block": "test", "trialIndex": 12, "score": 53, "costs": -7, "simulationMode": [null, null, null, null, null], "rewards": [-2, -1, -3, -7, 73], "path": ["0", "0", "23", "24", "25", "30", "32"], "rt": [10729, 213, 169, 150, 172], "actions": ["left", "left", "left", "down", "down"], "actionTimes": [11623, 12334, 13006, 13654, 14326], "queries": {"click": {"state": {"target": ["23", "24", "25", "30", "32"], "time": [1810, 3698, 5563, 7395, 9210]}, "edge": {"target": [], "time": []}}, "mouseover": {"state": {"target": ["23", "24", "25", "30", "30", "32", "31"], "time": [1703, 2386, 3944, 5853, 6151, 7703, 9452]}, "edge": {"target": [], "time": []}}, "mouseout": {"state": {"target": ["0", "23", "24", "25", "30", "30", "32", "31"], "time": [594, 2303, 3911, 5819, 5920, 7652, 9344, 15846]}, "edge": {"target": [], "time": []}}}, "displayed_time": "14.89", "trialTime": 16063, "trial_type": "mouselab-mdp", "trial_index": 19, "time_elapsed": 771607, "internal_node_id": "0.0-6.0-1.0-10.0"}}, {"uniqueid": "w53154873:a18666725", "current_trial": 20, "dateTime": 1693581038838, "trialdata": {"revealed_states": [], "clicked_states": ["23", "24", "25", "30", "31"], "num_clicks_accrued": [0, 0, 0, 0, 0, 0, 0, 0, 0, 0, 0, 0, 0], "stateRewards": ["", 1, 2, -5, 14, 54, -14, -25, 16, -5, -87, 78, -1, 1, 3, -3, 52, 53, 53, -10, 73, -69, -48, 2, 3, 1, 8, -62, -7, 85, 7, 82, 52, -28], "withholdReward": false, "trial_id": "mdp_trial_12", "block": "test", "trialIndex": 13, "score": 88, "costs": -7, "simulationMode": [null, null, null, null, null], "rewards": [2, 3, 1, 7, 82], "path": ["0", "0", "23", "24", "25", "30", "31"], "rt": [10803, 104, 128, 110, 111], "actions": ["left", "left", "left", "down", "right"], "actionTimes": [11590, 12197, 12845, 13453, 14062], "queries": {"click": {"state": {"target": ["23", "24", "25", "30", "31"], "time": [1649, 3529, 5474, 7465, 9329]}, "edge": {"target": [], "time": []}}, "mouseover": {"state": {"target": ["23", "24", "25", "26", "30", "31", "32"], "time": [1493, 2116, 4232, 5849, 7309, 8733, 9633]}, "edge": {"target": [], "time": []}}, "mouseout": {"state": {"target": ["0", "23", "24", "25", "26", "25", "30", "30", "31", "32"], "time": [1225, 1974, 4058, 5782, 7116, 7224, 7549, 7925, 9543, 15141]}, "edge": {"target": [], "time": []}}}, "displayed_time": "14.79", "trialTime": 16381, "trial_type": "mouselab-mdp", "trial_index": 20, "time_elapsed": 788286, "internal_node_id": "0.0-6.0-1.0-11.0"}}, {"uniqueid": "w53154873:a18666725", "current_trial": 21, "dateTime": 1693581058934, "trialdata": {"revealed_states": [], "clicked_states": ["23", "24", "25", "30", "31", "32", "33"], "num_clicks_accrued": [0, 0, 0, 0, 0, 0, 0, 0, 0, 0, 0, 0, 0], "stateRewards": ["", 1, 1, -7, -9, -44, 24, -83, -15, 44, -24, 72, -2, -3, 4, -5, 57, 55, 29, -11, 22, 12, -25, -1, 2, 7, 12, 33, -8, 47, -4, 8, 50, -4], "withholdReward": false, "trial_id": "mdp_trial_13", "block": "test", "trialIndex": 14, "score": 44.2, "costs": -9.8, "simulationMode": [null, null, null, null, null], "rewards": [-1, 2, 7, -4, 50], "path": ["0", "0", "23", "24", "25", "30", "32"], "rt": [13719, 393, 199, 82, 164], "actions": ["left", "left", "left", "down", "down"], "actionTimes": [14822, 15725, 16429, 17013, 17685], "queries": {"click": {"state": {"target": ["23", "24", "25", "30", "31", "32", "33"], "time": [2105, 3921, 5657, 7441, 9265, 11209, 12977]}, "edge": {"target": [], "time": []}}, "mouseover": {"state": {"target": ["23", "24", "25", "30", "31", "32", "33"], "time": [1911, 2703, 4453, 6120, 7811, 9787, 11846]}, "edge": {"target": [], "time": []}}, "mouseout": {"state": {"target": ["0", "0", "23", "24", "25", "30", "31", "32", "33"], "time": [486, 1629, 2378, 4220, 5964, 7711, 9474, 11285, 13962]}, "edge": {"target": [], "time": []}}}, "displayed_time": "18.19", "trialTime": 19781, "trial_type": "mouselab-mdp", "trial_index": 21, "time_elapsed": 808382, "internal_node_id": "0.0-6.0-1.0-12.0"}}, {"uniqueid": "w53154873:a18666725", "current_trial": 22, "dateTime": 1693581075935, "trialdata": {"revealed_states": [], "clicked_states": ["23", "24", "25", "30", "31"], "num_clicks_accrued": [0, 0, 0, 0, 0, 0, 0, 0, 0, 0, 0, 0, 0], "stateRewards": ["", 2, 3, 6, -12, -29, 12, 87, 4, 35, -30, 67, 2, 3, -5, -9, 44, 69, -8, 1, 45, -8, 28, -2, -1, -8, 11, -12, -5, 81, 9, 87, 82, 88], "withholdReward": false, "trial_id": "mdp_trial_14", "block": "test", "trialIndex": 15, "score": 78, "costs": -7, "simulationMode": [null, null, null, null, null], "rewards": [-2, -1, -8, 9, 87], "path": ["0", "0", "23", "24", "25", "30", "31"], "rt": [10151, 117, 100, 172, 161], "actions": ["left", "left", "left", "down", "right"], "actionTimes": [10895, 11509, 12117, 12797, 13469], "queries": {"click": {"state": {"target": ["23", "24", "25", "30", "31"], "time": [1674, 3293, 5154, 7041, 8769]}, "edge": {"target": [], "time": []}}, "mouseover": {"state": {"target": ["23", "24", "25", "30", "31", "32"], "time": [1509, 3289, 3967, 5690, 7548, 9865]}, "edge": {"target": [], "time": []}}, "mouseout": {"state": {"target": ["0", "23", "24", "25", "30", "31"], "time": [1373, 1957, 3782, 5569, 7415, 9081]}, "edge": {"target": [], "time": []}}}, "displayed_time": "14.74", "trialTime": 16694, "trial_type": "mouselab-mdp", "trial_index": 22, "time_elapsed": 825382, "internal_node_id": "0.0-6.0-1.0-13.0"}}, {"uniqueid": "w53154873:a18666725", "current_trial": 23, "dateTime": 1693581096766, "trialdata": {"revealed_states": [], "clicked_states": ["23", "24", "25", "30", "31", "32", "33"], "num_clicks_accrued": [0, 0, 0, 0, 0, 0, 0, 0, 0, 0, 0, 0, 0], "stateRewards": ["", -2, 4, 3, 5, -61, 4, 30, 1, -47, 83, 10, 1, 4, 7, -14, 19, -74, -83, 6, -2, -2, -65, -1, -2, 4, -11, 12, -1, -68, 11, -38, -28, 66], "withholdReward": false, "trial_id": "mdp_trial_15", "block": "test", "trialIndex": 16, "score": 68.2, "costs": -9.8, "simulationMode": [null, null, null, null, null], "rewards": [-1, -2, 4, 11, 66], "path": ["0", "0", "23", "24", "25", "30", "33"], "rt": [14312, 138, 264, 201, 139], "actions": ["left", "left", "left", "down", "left"], "actionTimes": [15734, 16381, 17149, 17861, 18501], "queries": {"click": {"state": {"target": ["23", "24", "25", "30", "31", "32", "33"], "time": [2520, 4408, 6233, 8041, 9849, 11672, 13457]}, "edge": {"target": [], "time": []}}, "mouseover": {"state": {"target": ["23", "24", "25", "30", "31", "32", "33", "25", "26"], "time": [2261, 3074, 4833, 6749, 8391, 10133, 12108, 14074, 14300]}, "edge": {"target": [], "time": []}}, "mouseout": {"state": {"target": ["32", "0", "23", "23", "24", "25", "30", "31", "32", "33", "25", "26", "25", "31"], "time": [574, 2069, 2589, 2901, 4675, 6616, 8316, 10067, 11933, 13543, 14091, 19229, 19325, 19549]}, "edge": {"target": [], "time": []}}}, "displayed_time": "19.00", "trialTime": 20501, "trial_type": "mouselab-mdp", "trial_index": 23, "time_elapsed": 846214, "internal_node_id": "0.0-6.0-1.0-14.0"}}, {"uniqueid": "w53154873:a18666725", "current_trial": 24, "dateTime": 1693581122134, "trialdata": {"revealed_states": [], "clicked_states": ["23", "24", "25", "30", "31", "32", "33", "26", "27", "28"], "num_clicks_accrued": [0, 0, 0, 0, 0, 0, 0, 0, 0, 0, 0, 0, 0], "stateRewards": ["", -2, 2, 8, -6, -25, 3, 87, 2, -62, -2, 74, -2, -1, 2, -1, 79, 49, -37, -14, 5, 67, -9, -1, 2, -2, 5, 15, 38, 32, -14, -38, -38, 30], "withholdReward": false, "trial_id": "mdp_trial_16", "block": "test", "trialIndex": 17, "score": 28, "costs": -14.000000000000002, "simulationMode": [null, null, null, null, null], "rewards": [-1, 2, -2, 5, 38], "path": ["0", "0", "23", "24", "25", "26", "28"], "rt": [19222, 137, 175, 164, 113], "actions": ["left", "left", "left", "up", "right"], "actionTimes": [20342, 20981, 21661, 22333, 22949], "queries": {"click": {"state": {"target": ["23", "24", "25", "30", "31", "32", "33", "26", "27", "28"], "time": [2089, 3913, 5721, 7762, 9529, 11145, 12866, 14705, 16442, 18049]}, "edge": {"target": [], "time": []}}, "mouseover": {"state": {"target": ["23", "24", "25", "30", "31", "32", "33", "26", "27", "28", "29"], "time": [1934, 2417, 4459, 6001, 8093, 9992, 11584, 13917, 15576, 16759, 19176]}, "edge": {"target": [], "time": []}}, "mouseout": {"state": {"target": ["0", "23", "24", "25", "30", "31", "32", "33", "26", "27", "28", "29", "25"], "time": [700, 2387, 4359, 5959, 8025, 9743, 11459, 13484, 15469, 16659, 18467, 23958, 24068]}, "edge": {"target": [], "time": []}}}, "displayed_time": "23.46", "trialTime": 25037, "trial_type": "mouselab-mdp", "trial_index": 24, "time_elapsed": 871582, "internal_node_id": "0.0-6.0-1.0-15.0"}}, {"uniqueid": "w53154873:a18666725", "current_trial": 25, "dateTime": 1693581146543, "trialdata": {"revealed_states": [], "clicked_states": ["23", "24", "25", "30", "31", "26", "28", "27", "29"], "num_clicks_accrued": [0, 0, 0, 0, 0, 0, 0, 0, 0, 0, 0, 0, 0], "stateRewards": ["", -2, 2, 3, -7, -31, -33, 29, -8, -57, 50, -83, -1, -1, 5, 13, -23, -62, 25, 5, -66, -85, 14, 1, -2, -1, 16, 71, 33, -19, -14, 5, -43, 79], "withholdReward": false, "trial_id": "mdp_trial_17", "block": "test", "trialIndex": 18, "score": 72.4, "costs": -12.600000000000001, "simulationMode": [null, null, null, null, null, null], "rewards": [1, -2, -1, 16, 71], "path": ["0", "0", "23", "24", "25", "26", "27"], "rt": [16825, 964, 111, 117, 69, 111], "actions": ["left", "left", "left", "left", "up", "up"], "actionTimes": [17653, 18620, 19228, 19844, 20420, 21036], "queries": {"click": {"state": {"target": ["23", "24", "25", "30", "31", "26", "28", "27", "29"], "time": [1680, 3496, 5272, 7088, 8887, 10656, 12504, 14721, 16849]}, "edge": {"target": [], "time": []}}, "mouseover": {"state": {"target": ["23", "23", "24", "25", "30", "31", "31", "24", "26", "26", "25", "25", "28", "27", "29"], "time": [1307, 1516, 2166, 3824, 5565, 7524, 7899, 9249, 9299, 9557, 11140, 11603, 12082, 12899, 15165]}, "edge": {"target": [], "time": []}}, "mouseout": {"state": {"target": ["0", "23", "23", "23", "24", "24", "25", "30", "31", "31", "24", "26", "26", "25", "25", "26", "28", "27", "29", "27", "28", "23"], "time": [1261, 1324, 1769, 1982, 3583, 3740, 5540, 7499, 7557, 9199, 9257, 9324, 11049, 11191, 11624, 11699, 12833, 15048, 17082, 22333, 22749, 22982]}, "edge": {"target": [], "time": []}}}, "displayed_time": "21.53", "trialTime": 24060, "trial_type": "mouselab-mdp", "trial_index": 25, "time_elapsed": 895990, "internal_node_id": "0.0-6.0-1.0-16.0"}}, {"uniqueid": "w53154873:a18666725", "current_trial": 26, "dateTime": 1693581173558, "trialdata": {"revealed_states": [], "clicked_states": ["23", "24", "25", "26", "27", "28", "29", "30", "32", "31", "33"], "num_clicks_accrued": [0, 0, 0, 0, 0, 0, 0, 0, 0, 0, 0, 0, 0], "stateRewards": ["", -1, -4, -1, -5, -28, -23, -15, -15, -38, 59, -87, 2, 2, -5, 9, -55, -39, -71, -6, 85, -85, -11, -1, -2, 5, -10, 1, 25, 41, -4, 69, -35, 86], "withholdReward": false, "trial_id": "mdp_trial_18", "block": "test", "trialIndex": 19, "score": 68.6, "costs": -15.400000000000002, "simulationMode": [null, null, null, null, null], "rewards": [-1, -2, 5, -4, 86], "path": ["0", "0", "23", "24", "25", "30", "33"], "rt": [20434, 106, 42, 116, 108], "actions": ["left", "left", "left", "down", "left"], "actionTimes": [22296, 22910, 23454, 24070, 24678], "queries": {"click": {"state": {"target": ["23", "24", "25", "26", "27", "28", "29", "30", "32", "31", "33"], "time": [2618, 4370, 5945, 7738, 9473, 11282, 13050, 15121, 16882, 18698, 20490]}, "edge": {"target": [], "time": []}}, "mouseover": {"state": {"target": ["23", "24", "25", "26", "27", "28", "29", "25", "30", "32", "31", "33", "30"], "time": [2502, 3177, 4635, 6435, 8152, 9943, 11743, 13778, 13960, 15686, 17260, 18927, 21027]}, "edge": {"target": [], "time": []}}, "mouseout": {"state": {"target": ["23", "0", "23", "24", "25", "26", "27", "27", "28", "26", "29", "29", "25", "30", "32", "31", "30", "33", "33", "30"], "time": [617, 2262, 2935, 4602, 6152, 8044, 9542, 9702, 11444, 11635, 13118, 13677, 13902, 15543, 17118, 18844, 18893, 20574, 20994, 25552]}, "edge": {"target": [], "time": []}}}, "displayed_time": "25.19", "trialTime": 26646, "trial_type": "mouselab-mdp", "trial_index": 26, "time_elapsed": 923005, "internal_node_id": "0.0-6.0-1.0-17.0"}}, {"uniqueid": "w53154873:a18666725", "current_trial": 27, "dateTime": 1693581200438, "trialdata": {"revealed_states": [], "clicked_states": ["23", "24", "25", "26", "29", "27", "28", "30", "31", "32", "33"], "num_clicks_accrued": [0, 0, 0, 0, 0, 0, 0, 0, 0, 0, 0, 0, 0], "stateRewards": ["", -1, -2, -1, -10, -57, 73, -72, -16, 75, -14, -46, -2, -3, -7, -1, -61, -60, 76, -4, 50, 4, 14, 2, 2, -7, 12, -65, -32, 15, -8, -76, -25, -61], "withholdReward": false, "trial_id": "mdp_trial_19", "block": "test", "trialIndex": 20, "score": 8.599999999999998, "costs": -15.400000000000002, "simulationMode": [null, null, null, null, null], "rewards": [2, 2, -7, 12, 15], "path": ["0", "0", "23", "24", "25", "26", "29"], "rt": [21745, 84, 45, 79, 39], "actions": ["left", "left", "left", "up", "left"], "actionTimes": [22487, 23070, 23614, 24198, 24742], "queries": {"click": {"state": {"target": ["23", "24", "25", "26", "29", "27", "28", "30", "31", "32", "33"], "time": [1459, 3250, 5122, 6906, 8714, 10617, 12410, 14322, 16641, 18498, 20338]}, "edge": {"target": [], "time": []}}, "mouseover": {"state": {"target": ["23", "24", "25", "30", "30", "26", "29", "29", "27", "28", "26", "30", "31", "31", "32", "33", "33", "25"], "time": [1334, 1726, 3534, 5427, 5818, 6285, 7676, 7934, 9026, 10934, 12759, 14001, 14784, 16438, 16934, 18885, 19201, 21401]}, "edge": {"target": [], "time": []}}, "mouseout": {"state": {"target": ["0", "23", "24", "25", "30", "30", "25", "26", "29", "29", "27", "28", "26", "29", "30", "30", "31", "31", "32", "33", "33", "25", "23"], "time": [1168, 1693, 3517, 5386, 5543, 6160, 6209, 7642, 7718, 8901, 10876, 12676, 12918, 13768, 14408, 14593, 16102, 16843, 18734, 19060, 20934, 21459, 25842]}, "edge": {"target": [], "time": []}}}, "displayed_time": "25.25", "trialTime": 26542, "trial_type": "mouselab-mdp", "trial_index": 27, "time_elapsed": 949886, "internal_node_id": "0.0-6.0-1.0-18.0"}}, {"uniqueid": "w53154873:a18666725", "current_trial": 28, "dateTime": 1693581216734, "trialdata": {"revealed_states": [], "clicked_states": ["23", "24", "25", "26", "28", "27"], "num_clicks_accrued": [0, 0, 0, 0, 0, 0, 0, 0, 0, 0, 0, 0, 0], "stateRewards": ["", 1, 4, -8, -13, -13, -87, -77, -10, -44, 54, 42, 2, -3, -4, 12, -9, -80, 52, 9, 84, -2, -65, 1, -4, -5, -6, 8, 80, 32, 13, -59, -5, -13], "withholdReward": false, "trial_id": "mdp_trial_20", "block": "test", "trialIndex": 21, "score": 57.6, "costs": -8.4, "simulationMode": [null, null, null, null, null], "rewards": [1, -4, -5, -6, 80], "path": ["0", "0", "23", "24", "25", "26", "28"], "rt": [11298, 63, 113, 104, 72], "actions": ["left", "left", "left", "up", "right"], "actionTimes": [11882, 12457, 13073, 13681, 14258], "queries": {"click": {"state": {"target": ["23", "24", "25", "26", "28", "27"], "time": [1165, 2949, 4526, 6325, 8005, 10045]}, "edge": {"target": [], "time": []}}, "mouseover": {"state": {"target": ["23", "24", "25", "26", "28", "27", "26"], "time": [933, 1774, 3300, 4967, 6650, 8501, 10992]}, "edge": {"target": [], "time": []}}, "mouseout": {"state": {"target": ["0", "23", "24", "25", "26", "28", "27", "26", "28", "0"], "time": [191, 1358, 3258, 4867, 6634, 8317, 10425, 14770, 14858, 15216]}, "edge": {"target": [], "time": []}}}, "displayed_time": "14.76", "trialTime": 15937, "trial_type": "mouselab-mdp", "trial_index": 28, "time_elapsed": 966182, "internal_node_id": "0.0-6.0-1.0-19.0"}}, {"uniqueid": "w53154873:a18666725", "current_trial": 29, "dateTime": 1693581243358, "trialdata": {"revealed_states": [], "clicked_states": ["23", "24", "25", "30", "31", "32", "33", "26", "29", "28", "27"], "num_clicks_accrued": [0, 0, 0, 0, 0, 0, 0, 0, 0, 0, 0, 0, 0], "stateRewards": ["", -1, 4, -6, -5, -22, -38, -38, -2, -56, 88, 14, -1, -1, -7, -6, 61, -60, 21, 11, 57, 31, -30, -2, -2, 6, -9, -44, -70, -44, -15, 34, 16, -78], "withholdReward": false, "trial_id": "mdp_trial_21", "block": "test", "trialIndex": 22, "score": 5.599999999999998, "costs": -15.400000000000002, "simulationMode": [null, null, null, null, null], "rewards": [-2, -2, 6, -15, 34], "path": ["0", "0", "23", "24", "25", "30", "31"], "rt": [21068, 50, 100, 84, 77], "actions": ["left", "left", "left", "down", "right"], "actionTimes": [21744, 22294, 22902, 23486, 24062], "queries": {"click": {"state": {"target": ["23", "24", "25", "30", "31", "32", "33", "26", "29", "28", "27"], "time": [1466, 3282, 5154, 6866, 8666, 10706, 12651, 14458, 16258, 18034, 19818]}, "edge": {"target": [], "time": []}}, "mouseover": {"state": {"target": ["23", "24", "25", "25", "25", "30", "30", "31", "32", "33", "26", "29", "28", "27", "24", "23", "23"], "time": [1238, 2025, 3916, 4059, 4302, 5708, 6100, 7308, 9125, 11283, 13225, 15116, 16827, 18333, 20400, 20983, 21441]}, "edge": {"target": [], "time": []}}, "mouseout": {"state": {"target": ["0", "23", "24", "25", "25", "25", "25", "30", "30", "31", "32", "30", "33", "26", "29", "28", "27", "24", "23", "23"], "time": [975, 1908, 3753, 3950, 4116, 5223, 5525, 5891, 7175, 8892, 11009, 11091, 12833, 14795, 16466, 18200, 20100, 20450, 21067, 21483]}, "edge": {"target": [], "time": []}}}, "displayed_time": "24.56", "trialTime": 26286, "trial_type": "mouselab-mdp", "trial_index": 29, "time_elapsed": 992806, "internal_node_id": "0.0-6.0-1.0-20.0"}}, {"uniqueid": "w53154873:a18666725", "current_trial": 30, "dateTime": 1693581263030, "trialdata": {"revealed_states": [], "clicked_states": ["23", "24", "25", "30", "31", "32", "33"], "num_clicks_accrued": [0, 0, 0, 0, 0, 0, 0, 0, 0, 0, 0, 0, 0], "stateRewards": ["", -1, -3, 1, -4, -48, -63, -49, -2, -84, -19, 65, 2, -2, -2, -12, -4, 59, 9, 6, 75, 69, -13, -1, -3, -3, -2, -37, -68, -36, 13, 32, 18, -14], "withholdReward": false, "trial_id": "mdp_trial_22", "block": "test", "trialIndex": 23, "score": 28.2, "costs": -9.8, "simulationMode": [null, null, null, null, null], "rewards": [-1, -3, -3, 13, 32], "path": ["0", "0", "23", "24", "25", "30", "31"], "rt": [13345, 141, 116, 66, 108], "actions": ["left", "left", "left", "down", "right"], "actionTimes": [14874, 15513, 16129, 16705, 17321], "queries": {"click": {"state": {"target": ["23", "24", "25", "30", "31", "32", "33"], "time": [1989, 3821, 5623, 7373, 9125, 10972, 12902]}, "edge": {"target": [], "time": []}}, "mouseover": {"state": {"target": ["0", "23", "24", "25", "30", "31", "32", "33", "30"], "time": [1689, 1795, 2253, 4370, 5887, 7962, 9500, 11362, 13328]}, "edge": {"target": [], "time": []}}, "mouseout": {"state": {"target": ["0", "0", "23", "24", "25", "30", "31", "32", "33", "30", "30", "0"], "time": [844, 1711, 2211, 4137, 5837, 7637, 9426, 11178, 12979, 17380, 18620, 19162]}, "edge": {"target": [], "time": []}}}, "displayed_time": "17.83", "trialTime": 19345, "trial_type": "mouselab-mdp", "trial_index": 30, "time_elapsed": 1012478, "internal_node_id": "0.0-6.0-1.0-21.0"}}, {"uniqueid": "w53154873:a18666725", "current_trial": 31, "dateTime": 1693581281423, "trialdata": {"revealed_states": [], "clicked_states": ["12", "13", "14", "19", "22", "21", "20"], "num_clicks_accrued": [0, 0, 0, 0, 0, 0, 0, 0, 0, 0, 0, 0, 0], "stateRewards": ["", -1, -1, 7, -15, -43, -21, -84, -9, -45, -66, 2, 1, -2, 2, 8, -27, 44, -52, -5, -84, 11, 53, 1, 4, -4, 16, 83, -82, -15, -16, 68, -43, 81], "withholdReward": false, "trial_id": "mdp_trial_23", "block": "test", "trialIndex": 24, "score": 39.2, "costs": -9.8, "simulationMode": [null, null, null, null, null], "rewards": [1, -2, 2, -5, 53], "path": ["0", "0", "12", "13", "14", "19", "22"], "rt": [13130, 84, 75, 117, 172], "actions": ["right", "right", "right", "down", "left"], "actionTimes": [13793, 14376, 14952, 15568, 16240], "queries": {"click": {"state": {"target": ["12", "13", "14", "19", "22", "21", "20"], "time": [1333, 2964, 4797, 6623, 8396, 10172, 11908]}, "edge": {"target": [], "time": []}}, "mouseover": {"state": {"target": ["12", "13", "14", "19", "22", "21", "20"], "time": [1141, 1550, 3807, 5374, 7541, 8749, 10741]}, "edge": {"target": [], "time": []}}, "mouseout": {"state": {"target": ["0", "12", "13", "14", "19", "22", "22", "21", "20"], "time": [1099, 1525, 3332, 5166, 6698, 8474, 8575, 10416, 12233]}, "edge": {"target": [], "time": []}}}, "displayed_time": "16.75", "trialTime": 18016, "trial_type": "mouselab-mdp", "trial_index": 31, "time_elapsed": 1030870, "internal_node_id": "0.0-6.0-1.0-22.0"}}, {"uniqueid": "w53154873:a18666725", "current_trial": 32, "dateTime": 1693581297806, "trialdata": {"revealed_states": [], "clicked_states": ["12", "13", "14", "15", "18", "16"], "num_clicks_accrued": [0, 0, 0, 0, 0, 0, 0, 0, 0, 0, 0, 0, 0], "stateRewards": ["", 1, -1, 4, -2, -75, -75, 84, -9, -60, -79, 59, 2, -4, 8, 9, -17, -82, 80, 14, -4, 49, 49, -1, 3, 6, -11, -33, 34, 55, 9, -57, 5, 59], "withholdReward": false, "trial_id": "mdp_trial_24", "block": "test", "trialIndex": 25, "score": 86.6, "costs": -8.4, "simulationMode": [null, null, null, null, null], "rewards": [2, -4, 8, 9, 80], "path": ["0", "0", "12", "13", "14", "15", "18"], "rt": [11283, 47, 98, 106, 138], "actions": ["right", "right", "right", "up", "left"], "actionTimes": [12031, 12582, 13190, 13799, 14447], "queries": {"click": {"state": {"target": ["12", "13", "14", "15", "18", "16"], "time": [1442, 2985, 4514, 6211, 8379, 10169]}, "edge": {"target": [], "time": []}}, "mouseover": {"state": {"target": ["12", "13", "14", "15", "18", "16"], "time": [1224, 1665, 3411, 5192, 6689, 8774]}, "edge": {"target": [], "time": []}}, "mouseout": {"state": {"target": ["0", "12", "13", "14", "15", "18", "16", "19"], "time": [1166, 1640, 3366, 4949, 6482, 8674, 10616, 15432]}, "edge": {"target": [], "time": []}}}, "displayed_time": "14.95", "trialTime": 15958, "trial_type": "mouselab-mdp", "trial_index": 32, "time_elapsed": 1047254, "internal_node_id": "0.0-6.0-1.0-23.0"}}, {"uniqueid": "w53154873:a18666725", "current_trial": 33, "dateTime": 1693581333095, "trialdata": {"revealed_states": [], "clicked_states": ["12", "13", "14", "15", "18", "16", "17", "19", "22", "21", "20", "23", "24", "25", "30", "31"], "num_clicks_accrued": [0, 0, 0, 0, 0, 0, 0, 0, 0, 0, 0, 0, 0], "stateRewards": ["", 1, 2, -8, 9, 18, -83, -11, 6, -64, -48, 17, -2, -2, -5, -3, -24, -3, -86, -2, 48, -41, -22, -2, 4, 7, 8, 81, 13, -48, 10, 61, 19, 57], "withholdReward": false, "trial_id": "mdp_trial_25", "block": "test", "trialIndex": 26, "score": 57.60000000000001, "costs": -22.399999999999995, "simulationMode": [null, null, null, null, null], "rewards": [-2, 4, 7, 10, 61], "path": ["0", "0", "23", "24", "25", "30", "31"], "rt": [29617, 106, 114, 96, 147], "actions": ["left", "left", "left", "down", "right"], "actionTimes": [30445, 31051, 31667, 32275, 32925], "queries": {"click": {"state": {"target": ["12", "13", "14", "15", "18", "16", "17", "19", "22", "21", "20", "23", "24", "25", "30", "31"], "time": [1519, 3319, 5151, 6840, 8632, 10423, 12122, 14111, 15895, 17696, 19431, 21192, 22952, 24792, 26390, 28191]}, "edge": {"target": [], "time": []}}, "mouseover": {"state": {"target": ["12", "13", "14", "15", "18", "16", "17", "19", "22", "21", "20", "23", "24", "25", "30", "30", "31", "32"], "time": [1469, 1903, 3585, 5468, 7198, 9411, 10811, 12831, 14535, 16252, 18369, 20352, 21685, 23477, 25203, 25619, 26788, 28477]}, "edge": {"target": [], "time": []}}, "mouseout": {"state": {"target": ["0", "12", "13", "14", "15", "18", "16", "17", "19", "22", "21", "20", "23", "24", "25", "25", "30", "30", "31", "32"], "time": [878, 1876, 3544, 5220, 7139, 9019, 10636, 12502, 14435, 16160, 17935, 19724, 21643, 23436, 24898, 25152, 25436, 26702, 28412, 33135]}, "edge": {"target": [], "time": []}}}, "displayed_time": "33.44", "trialTime": 34884, "trial_type": "mouselab-mdp", "trial_index": 33, "time_elapsed": 1082543, "internal_node_id": "0.0-6.0-1.0-24.0"}}, {"uniqueid": "w53154873:a18666725", "current_trial": 34, "dateTime": 1693581351447, "trialdata": {"revealed_states": [], "clicked_states": ["23", "24", "25", "30", "31", "32", "33"], "num_clicks_accrued": [0, 0, 0, 0, 0, 0, 0, 0, 0, 0, 0, 0, 0], "stateRewards": ["", 1, -1, 8, -3, 38, 85, -20, -4, 8, 23, 73, 2, -4, 6, -13, 44, 7, -28, -11, -77, 45, -69, 1, -1, -7, -11, 75, -51, -87, 7, 36, -53, -26], "withholdReward": false, "trial_id": "mdp_trial_26", "block": "test", "trialIndex": 27, "score": 26.2, "costs": -9.8, "simulationMode": [null, null, null, null, null], "rewards": [1, -1, -7, 7, 36], "path": ["0", "0", "23", "24", "25", "30", "31"], "rt": [13281, 73, 72, 43, 11], "actions": ["left", "left", "left", "down", "right"], "actionTimes": [14256, 14840, 15415, 15960, 16479], "queries": {"click": {"state": {"target": ["23", "24", "25", "30", "31", "32", "33"], "time": [1491, 3132, 4931, 6659, 8635, 10476, 12331]}, "edge": {"target": [], "time": []}}, "mouseover": {"state": {"target": ["23", "24", "25", "30", "31", "32", "33"], "time": [1183, 2083, 4166, 5626, 8357, 9091, 11155]}, "edge": {"target": [], "time": []}}, "mouseout": {"state": {"target": ["0", "23", "24", "25", "30", "31", "32", "33"], "time": [1074, 1570, 3691, 5350, 8295, 8851, 10934, 13600]}, "edge": {"target": [], "time": []}}}, "displayed_time": "16.99", "trialTime": 17992, "trial_type": "mouselab-mdp", "trial_index": 34, "time_elapsed": 1100894, "internal_node_id": "0.0-6.0-1.0-25.0"}}, {"uniqueid": "w53154873:a18666725", "current_trial": 35, "dateTime": 1693581369246, "trialdata": {"revealed_states": [], "clicked_states": ["23", "24", "25", "30", "31", "32", "33"], "num_clicks_accrued": [0, 0, 0, 0, 0, 0, 0, 0, 0, 0, 0, 0, 0], "stateRewards": ["", -1, 4, -8, 12, 14, 69, -8, 5, -72, -14, 56, -1, -1, -1, 9, 67, 19, 11, -9, -88, -58, 3, 2, -4, -8, 4, 62, 77, -74, 5, -31, 65, 88], "withholdReward": false, "trial_id": "mdp_trial_27", "block": "test", "trialIndex": 28, "score": 73.2, "costs": -9.8, "simulationMode": [null, null, null, null, null], "rewards": [2, -4, -8, 5, 88], "path": ["0", "0", "23", "24", "25", "30", "33"], "rt": [13004, 141, 133, 107, 142], "actions": ["left", "left", "left", "down", "left"], "actionTimes": [13715, 14354, 14995, 15610, 16254], "queries": {"click": {"state": {"target": ["23", "24", "25", "30", "31", "32", "33"], "time": [1311, 2966, 4790, 6406, 8197, 9975, 11742]}, "edge": {"target": [], "time": []}}, "mouseover": {"state": {"target": ["23", "24", "24", "25", "30", "31", "32", "33"], "time": [1102, 1537, 2435, 4278, 5061, 6751, 8646, 10510]}, "edge": {"target": [], "time": []}}, "mouseout": {"state": {"target": ["0", "23", "23", "24", "24", "25", "30", "31", "31", "32", "33"], "time": [146, 1378, 1510, 1577, 3602, 5027, 6685, 8294, 8477, 10062, 13052]}, "edge": {"target": [], "time": []}}}, "displayed_time": "16.75", "trialTime": 17410, "trial_type": "mouselab-mdp", "trial_index": 35, "time_elapsed": 1118694, "internal_node_id": "0.0-6.0-1.0-26.0"}}, {"uniqueid": "w53154873:a18666725", "current_trial": 36, "dateTime": 1693581388054, "trialdata": {"revealed_states": [], "clicked_states": ["23", "24", "25", "30", "33", "32", "31"], "num_clicks_accrued": [0, 0, 0, 0, 0, 0, 0, 0, 0, 0, 0, 0, 0], "stateRewards": ["", -1, -4, 8, 8, -68, 47, 24, -7, -61, 49, -69, -1, -1, 8, -7, 42, 1, -45, -11, 10, -63, -6, 1, 4, 6, -16, 79, -37, -58, -12, 81, 18, -53], "withholdReward": false, "trial_id": "mdp_trial_28", "block": "test", "trialIndex": 29, "score": 70.2, "costs": -9.8, "simulationMode": [null, null, null, null, null], "rewards": [1, 4, 6, -12, 81], "path": ["0", "0", "23", "24", "25", "30", "31"], "rt": [13650, 136, 39, 81, 98], "actions": ["left", "left", "left", "down", "right"], "actionTimes": [14462, 15101, 15646, 16229, 16837], "queries": {"click": {"state": {"target": ["23", "24", "25", "30", "33", "32", "31"], "time": [1577, 3249, 5065, 6833, 8596, 10410, 12249]}, "edge": {"target": [], "time": []}}, "mouseover": {"state": {"target": ["23", "24", "25", "30", "30", "33", "33", "32", "31", "30", "25", "26"], "time": [1380, 1896, 3638, 5438, 5830, 7513, 7769, 9030, 10788, 12806, 13392, 13680]}, "edge": {"target": [], "time": []}}, "mouseout": {"state": {"target": ["0", "23", "24", "25", "30", "30", "33", "33", "32", "31", "30", "25", "26", "24"], "time": [1141, 1863, 3588, 5419, 5505, 7337, 7532, 8788, 10588, 12688, 13364, 13420, 17709, 17787]}, "edge": {"target": [], "time": []}}}, "displayed_time": "17.34", "trialTime": 18421, "trial_type": "mouselab-mdp", "trial_index": 36, "time_elapsed": 1137501, "internal_node_id": "0.0-6.0-1.0-27.0"}}, {"uniqueid": "w53154873:a18666725", "current_trial": 37, "dateTime": 1693581407270, "trialdata": {"revealed_states": [], "clicked_states": ["23", "24", "25", "30", "31", "32", "33"], "num_clicks_accrued": [0, 0, 0, 0, 0, 0, 0, 0, 0, 0, 0, 0, 0], "stateRewards": ["", -2, -2, -7, -13, -10, 49, -68, -1, 84, 70, 88, 1, 4, 4, 12, -57, 25, 30, 8, -1, -77, 57, 2, 3, 2, 3, -18, -80, 23, -15, -41, 70, 11], "withholdReward": false, "trial_id": "mdp_trial_29", "block": "test", "trialIndex": 30, "score": 52.2, "costs": -9.8, "simulationMode": [null, null, null, null, null], "rewards": [2, 3, 2, -15, 70], "path": ["0", "0", "23", "24", "25", "30", "32"], "rt": [12984, 533, 324, 146, 225], "actions": ["left", "left", "left", "down", "down"], "actionTimes": [13736, 14768, 15601, 16248, 16985], "queries": {"click": {"state": {"target": ["23", "24", "25", "30", "31", "32", "33"], "time": [1539, 3331, 5084, 6885, 8539, 10316, 11859]}, "edge": {"target": [], "time": []}}, "mouseover": {"state": {"target": ["23", "24", "25", "30", "31", "32", "33", "33"], "time": [1377, 1999, 4546, 6475, 7234, 9224, 10581, 10876]}, "edge": {"target": [], "time": []}}, "mouseout": {"state": {"target": ["23", "24", "25", "30", "31", "32", "33", "33", "31"], "time": [1888, 3659, 5466, 7111, 8941, 10500, 10625, 11989, 18033]}, "edge": {"target": [], "time": []}}}, "displayed_time": "17.48", "trialTime": 18824, "trial_type": "mouselab-mdp", "trial_index": 37, "time_elapsed": 1156718, "internal_node_id": "0.0-6.0-1.0-28.0"}}, {"uniqueid": "w53154873:a18666725", "current_trial": 38, "dateTime": 1693581426526, "trialdata": {"revealed_states": [], "clicked_states": ["23", "24", "25", "30", "31", "32", "33"], "num_clicks_accrued": [0, 0, 0, 0, 0, 0, 0, 0, 0, 0, 0, 0, 0], "stateRewards": ["", -1, -3, 1, 13, -64, -29, 12, -4, -33, 50, 56, 2, -3, 4, 11, -64, -58, -55, 12, 47, 38, -25, -2, 2, 5, -15, 85, 7, 84, 10, 8, 57, 26], "withholdReward": false, "trial_id": "mdp_trial_30", "block": "test", "trialIndex": 31, "score": 62.2, "costs": -9.8, "simulationMode": [null, null, null, null, null], "rewards": [-2, 2, 5, 10, 57], "path": ["0", "0", "23", "24", "25", "30", "32"], "rt": [14024, 78, 66, 49, 78], "actions": ["left", "left", "left", "down", "down"], "actionTimes": [14804, 15387, 15963, 16515, 17091], "queries": {"click": {"state": {"target": ["23", "24", "25", "30", "31", "32", "33"], "time": [1598, 3423, 5094, 6895, 8743, 10727, 12855]}, "edge": {"target": [], "time": []}}, "mouseover": {"state": {"target": ["23", "24", "25", "30", "31", "32", "32", "33"], "time": [1475, 2720, 3895, 5703, 7970, 9011, 9203, 11262]}, "edge": {"target": [], "time": []}}, "mouseout": {"state": {"target": ["0", "23", "24", "25", "25", "30", "31", "32", "32", "30", "33"], "time": [474, 2420, 3711, 5219, 5543, 7699, 8962, 9037, 10929, 11070, 13353]}, "edge": {"target": [], "time": []}}}, "displayed_time": "17.60", "trialTime": 18867, "trial_type": "mouselab-mdp", "trial_index": 38, "time_elapsed": 1175973, "internal_node_id": "0.0-6.0-1.0-29.0"}}, {"uniqueid": "w53154873:a18666725", "current_trial": 39, "dateTime": 1693581444359, "trialdata": {"revealed_states": [], "clicked_states": ["23", "24", "25", "30", "32", "31", "33"], "num_clicks_accrued": [0, 0, 0, 0, 0, 0, 0, 0, 0, 0, 0, 0, 0], "stateRewards": ["", -1, 2, 5, -6, 13, -64, -47, 8, -79, -80, -33, 1, 2, -2, -16, 56, -71, -10, 3, 29, 44, 85, -1, 4, 5, 4, -36, -56, 19, 8, 52, -13, -2], "withholdReward": false, "trial_id": "mdp_trial_31", "block": "test", "trialIndex": 32, "score": 58.2, "costs": -9.8, "simulationMode": [null, null, null, null, null], "rewards": [-1, 4, 5, 8, 52], "path": ["0", "0", "23", "24", "25", "30", "31"], "rt": [13054, 22, 24, 91, 51], "actions": ["left", "left", "left", "down", "right"], "actionTimes": [13662, 14181, 14725, 15334, 15885], "queries": {"click": {"state": {"target": ["23", "24", "25", "30", "32", "31", "33"], "time": [1220, 2945, 4641, 6457, 8256, 10081, 11840]}, "edge": {"target": [], "time": []}}, "mouseover": {"state": {"target": ["23", "24", "25", "30", "32", "31", "31", "33"], "time": [1117, 1715, 3432, 5407, 7015, 8626, 9032, 10540]}, "edge": {"target": [], "time": []}}, "mouseout": {"state": {"target": ["0", "23", "24", "25", "30", "32", "31", "31", "30", "33", "30"], "time": [906, 1490, 3379, 5375, 6867, 8490, 8673, 10272, 10474, 13381, 16806]}, "edge": {"target": [], "time": []}}}, "displayed_time": "16.39", "trialTime": 17461, "trial_type": "mouselab-mdp", "trial_index": 39, "time_elapsed": 1193806, "internal_node_id": "0.0-6.0-1.0-30.0"}}, {"uniqueid": "w53154873:a18666725", "current_trial": 40, "dateTime": 1693581463456, "trialdata": {"revealed_states": [], "clicked_states": ["23", "24", "25", "30", "31", "32", "33"], "num_clicks_accrued": [0, 0, 0, 0, 0, 0, 0, 0, 0, 0, 0, 0, 0], "stateRewards": ["", -2, 2, -5, 1, 42, -63, -58, -6, 2, 16, 81, -2, 4, 7, -10, 33, 3, -33, -2, -52, -84, -27, 2, -3, -3, 15, -74, -14, -5, -5, -84, 79, -31], "withholdReward": false, "trial_id": "mdp_trial_32", "block": "test", "trialIndex": 33, "score": 60.2, "costs": -9.8, "simulationMode": [null, null, null, null, null], "rewards": [2, -3, -3, -5, 79], "path": ["0", "0", "23", "24", "25", "30", "32"], "rt": [13172, 497, 305, 97, 145], "actions": ["left", "left", "left", "down", "down"], "actionTimes": [14132, 15131, 15939, 16547, 17195], "queries": {"click": {"state": {"target": ["23", "24", "25", "30", "31", "32", "33"], "time": [1559, 3359, 5111, 6690, 8776, 10495, 12295]}, "edge": {"target": [], "time": []}}, "mouseover": {"state": {"target": ["23", "24", "25", "30", "31", "32", "33"], "time": [1363, 2092, 3695, 5559, 7176, 9540, 11008]}, "edge": {"target": [], "time": []}}, "mouseout": {"state": {"target": ["0", "23", "24", "25", "30", "31", "32", "33", "33"], "time": [1157, 1856, 3667, 5449, 7090, 9132, 10775, 12413, 13205]}, "edge": {"target": [], "time": []}}}, "displayed_time": "17.70", "trialTime": 18709, "trial_type": "mouselab-mdp", "trial_index": 40, "time_elapsed": 1212904, "internal_node_id": "0.0-6.0-1.0-31.0"}}, {"uniqueid": "w53154873:a18666725", "current_trial": 41, "dateTime": 1693581487374, "trialdata": {"revealed_states": [], "clicked_states": ["23", "24", "25", "30", "32", "31", "33", "26"], "num_clicks_accrued": [0, 0, 0, 0, 0, 0, 0, 0, 0, 0, 0, 0, 0], "stateRewards": ["", 1, 2, 3, 16, 63, -25, 16, -4, -14, 82, -66, -1, -3, -3, -11, -14, 19, 46, 3, -34, -82, 66, -2, -3, 4, -5, -63, 77, -37, -1, -45, -41, 84], "withholdReward": false, "trial_id": "mdp_trial_33", "block": "test", "trialIndex": 34, "score": 70.8, "costs": -11.200000000000001, "simulationMode": [null, null, null, null, null], "rewards": [-2, -3, 4, -1, 84], "path": ["0", "0", "23", "24", "25", "30", "33"], "rt": [15536, 69, 14, 73, 163], "actions": ["left", "left", "left", "down", "left"], "actionTimes": [16720, 17295, 17815, 18391, 19064], "queries": {"click": {"state": {"target": ["23", "24", "25", "30", "32", "31", "33", "26"], "time": [1955, 3795, 5580, 7403, 9331, 11195, 13019, 14835]}, "edge": {"target": [], "time": []}}, "mouseover": {"state": {"target": ["23", "24", "25", "30", "32", "32", "31", "33", "26", "26"], "time": [1824, 2674, 4193, 6440, 8322, 8669, 9608, 11661, 13284, 13741]}, "edge": {"target": [], "time": []}}, "mouseout": {"state": {"target": ["31", "23", "0", "23", "24", "25", "30", "32", "32", "31", "30", "33", "26", "26", "31"], "time": [48, 518, 1616, 2500, 4174, 6230, 8089, 8400, 9499, 11499, 11625, 13224, 13305, 15359, 23007]}, "edge": {"target": [], "time": []}}}, "displayed_time": "19.57", "trialTime": 23511, "trial_type": "mouselab-mdp", "trial_index": 41, "time_elapsed": 1236822, "internal_node_id": "0.0-6.0-1.0-32.0"}}, {"uniqueid": "w53154873:a18666725", "current_trial": 42, "dateTime": 1693581506014, "trialdata": {"revealed_states": [], "clicked_states": ["31", "32", "33", "30", "25", "24"], "num_clicks_accrued": [0, 0, 0, 0, 0, 0, 0, 0, 0, 0, 0, 0, 0], "stateRewards": ["", 2, 4, 7, 7, -79, -2, -21, -5, -53, 47, -21, 1, -3, -1, 7, 83, 7, 84, -7, 80, -37, 69, 2, -4, 5, 2, 4, -20, -30, 7, 71, 44, -81], "withholdReward": false, "trial_id": "mdp_trial_34", "block": "test", "trialIndex": 35, "score": 72.6, "costs": -8.4, "simulationMode": [null, null, null, null, null], "rewards": [2, -4, 5, 7, 71], "path": ["0", "0", "23", "24", "25", "30", "31"], "rt": [12108, 168, 77, 69, 150], "actions": ["left", "left", "left", "down", "right"], "actionTimes": [13969, 14640, 15224, 15800, 16448], "queries": {"click": {"state": {"target": ["31", "32", "33", "30", "25", "24"], "time": [2668, 4444, 6340, 8372, 10236, 12123]}, "edge": {"target": [], "time": []}}, "mouseover": {"state": {"target": ["31", "32", "33", "25", "25", "30", "25", "24", "23", "31"], "time": [2496, 3064, 5179, 7137, 7389, 7834, 8635, 10696, 12380, 13132]}, "edge": {"target": [], "time": []}}, "mouseout": {"state": {"target": ["0", "0", "31", "32", "33", "25", "25", "30", "25", "24", "23", "31"], "time": [11, 2188, 2898, 4571, 7065, 7193, 7719, 8390, 10432, 12302, 13059, 17987]}, "edge": {"target": [], "time": []}}}, "displayed_time": "16.95", "trialTime": 18248, "trial_type": "mouselab-mdp", "trial_index": 42, "time_elapsed": 1255462, "internal_node_id": "0.0-6.0-1.0-33.0"}}, {"uniqueid": "w53154873:a18666725", "current_trial": 43, "dateTime": 1693581523718, "trialdata": {"revealed_states": [], "clicked_states": ["31", "32", "30", "25", "24", "23"], "num_clicks_accrued": [0, 0, 0, 0, 0, 0, 0, 0, 0, 0, 0, 0, 0], "stateRewards": ["", 1, 1, 1, -3, -7, -1, -41, -10, 20, -72, -63, 1, -4, -2, 2, -66, 30, -84, -2, 49, 23, 71, -1, -4, 4, -12, 67, 5, 18, -16, 88, 56, -5], "withholdReward": false, "trial_id": "mdp_trial_35", "block": "test", "trialIndex": 36, "score": 62.6, "costs": -8.4, "simulationMode": [null, null, null, null, null], "rewards": [-1, -4, 4, -16, 88], "path": ["0", "0", "23", "24", "25", "30", "31"], "rt": [11630, 106, 4, 20, 87], "actions": ["left", "left", "left", "down", "right"], "actionTimes": [13047, 13662, 14177, 14717, 15302], "queries": {"click": {"state": {"target": ["31", "32", "30", "25", "24", "23"], "time": [2010, 4034, 5833, 7674, 9451, 11426]}, "edge": {"target": [], "time": []}}, "mouseover": {"state": {"target": ["31", "32", "30", "25", "24", "23"], "time": [1804, 2313, 4622, 6241, 8047, 9730]}, "edge": {"target": [], "time": []}}, "mouseout": {"state": {"target": ["0", "31", "32", "30", "25", "24", "23"], "time": [1481, 2230, 4123, 5935, 7997, 9691, 12003]}, "edge": {"target": [], "time": []}}}, "displayed_time": "15.81", "trialTime": 17294, "trial_type": "mouselab-mdp", "trial_index": 43, "time_elapsed": 1273166, "internal_node_id": "0.0-6.0-1.0-34.0"}}, {"uniqueid": "w53154873:a18666725", "current_trial": 44, "dateTime": 1693581542678, "trialdata": {"revealed_states": [], "clicked_states": ["31", "32", "33", "27", "28", "26", "25"], "num_clicks_accrued": [0, 0, 0, 0, 0, 0, 0, 0, 0, 0, 0, 0, 0], "stateRewards": ["", 1, -2, 4, 7, -43, -83, -60, -5, -86, -80, 83, -1, -2, 6, 11, -15, 21, 13, 9, 29, -49, 11, -1, 4, -6, -11, 87, 40, 63, -8, -39, -11, 62], "withholdReward": false, "trial_id": "mdp_trial_36", "block": "test", "trialIndex": 37, "score": 63.2, "costs": -9.8, "simulationMode": [null, null, null, null, null], "rewards": [-1, 4, -6, -11, 87], "path": ["0", "0", "23", "24", "25", "26", "27"], "rt": [13213, 42, 100, 77, 77], "actions": ["left", "left", "left", "up", "up"], "actionTimes": [14342, 14894, 15502, 16079, 16662], "queries": {"click": {"state": {"target": ["31", "32", "33", "27", "28", "26", "25"], "time": [1634, 3457, 5339, 7162, 8929, 10722, 12506]}, "edge": {"target": [], "time": []}}, "mouseover": {"state": {"target": ["31", "32", "33", "27", "28", "26", "25", "24"], "time": [1335, 2467, 3755, 5959, 7610, 9353, 11029, 12901]}, "edge": {"target": [], "time": []}}, "mouseout": {"state": {"target": ["23", "0", "31", "32", "33", "27", "28", "26", "25", "24", "23"], "time": [690, 1143, 1860, 3633, 5524, 7413, 9312, 10942, 12735, 18094, 18118]}, "edge": {"target": [], "time": []}}}, "displayed_time": "17.16", "trialTime": 18558, "trial_type": "mouselab-mdp", "trial_index": 44, "time_elapsed": 1292126, "internal_node_id": "0.0-6.0-1.0-35.0"}}, {"uniqueid": "w53154873:a18666725", "current_trial": 45, "dateTime": 1693581573871, "trialdata": {"revealed_states": [], "clicked_states": ["27", "32", "31", "33", "28", "29", "22", "21", "20", "18", "17", "15", "14"], "num_clicks_accrued": [0, 0, 0, 0, 0, 0, 0, 0, 0, 0, 0, 0, 0], "stateRewards": ["", -1, -2, 4, 9, 10, -75, 39, 16, -43, 88, -19, -1, 1, 2, 4, -31, 10, 73, 12, 41, -64, -81, -2, 2, -6, 1, -81, -1, -26, 3, -59, -3, -20], "withholdReward": false, "trial_id": "mdp_trial_37", "block": "test", "trialIndex": 38, "score": 60.8, "costs": -18.2, "simulationMode": [null, null, null, null, null], "rewards": [-1, 1, 2, 4, 73], "path": ["0", "0", "12", "13", "14", "15", "18"], "rt": [24720, 107, 76, 148, 41], "actions": ["right", "right", "right", "up", "left"], "actionTimes": [25737, 26344, 26921, 27569, 28112], "queries": {"click": {"state": {"target": ["27", "32", "31", "33", "28", "29", "22", "21", "20", "18", "17", "15", "14"], "time": [1884, 3692, 5508, 7347, 9131, 10949, 12868, 14692, 16380, 18220, 20300, 22092, 23876]}, "edge": {"target": [], "time": []}}, "mouseover": {"state": {"target": ["23", "28", "27", "26", "32", "31", "30", "33", "25", "28", "26", "29", "26", "12", "13", "22", "21", "20", "15", "18", "15", "17", "15", "16", "15", "14", "13"], "time": [1377, 1476, 1768, 2117, 2513, 4263, 5769, 5911, 7583, 7656, 9360, 9531, 11202, 11605, 11631, 11761, 13246, 15260, 16987, 17318, 18593, 18845, 20801, 21307, 21668, 22378, 24295]}, "edge": {"target": [], "time": []}}, "mouseout": {"state": {"target": ["0", "23", "28", "27", "26", "32", "31", "30", "33", "25", "28", "26", "29", "26", "28", "12", "13", "22", "21", "20", "15", "18", "15", "17", "15", "16", "15", "14", "14", "13", "22"], "time": [1344, 1435, 1576, 2096, 2136, 3951, 5738, 5837, 7530, 7604, 9321, 9446, 11167, 11214, 11253, 11617, 11721, 13125, 14836, 16689, 17228, 18561, 18760, 20518, 21265, 21609, 22323, 23966, 24161, 29226, 29277]}, "edge": {"target": [], "time": []}}}, "displayed_time": "28.62", "trialTime": 30752, "trial_type": "mouselab-mdp", "trial_index": 45, "time_elapsed": 1323318, "internal_node_id": "0.0-6.0-1.0-36.0"}}, {"uniqueid": "w53154873:a18666725", "current_trial": 46, "dateTime": 1693581617103, "trialdata": {"revealed_states": [], "clicked_states": ["31", "32", "33", "29", "27", "28", "22", "21", "20", "17", "16", "18", "7", "10", "14", "11", "9", "5", "6"], "num_clicks_accrued": [0, 0, 0, 0, 0, 0, 0, 0, 0, 0, 0, 0, 0], "stateRewards": ["", 2, 4, 7, -6, -76, -81, 2, 5, -66, -3, 36, -2, -4, 6, -2, -69, 4, -49, -6, 67, 38, -67, 2, 1, 1, 6, -68, -21, 52, -16, -16, 6, -70], "withholdReward": false, "trial_id": "mdp_trial_38", "block": "test", "trialIndex": 39, "score": -24.599999999999994, "costs": -26.59999999999999, "simulationMode": [null, null, null, null, null], "rewards": [-2, -4, 6, -2, 4], "path": ["0", "0", "12", "13", "14", "15", "17"], "rt": [37710, 107, 131, 107, 49], "actions": ["right", "right", "right", "up", "right"], "actionTimes": [38918, 39533, 40173, 40782, 41333], "queries": {"click": {"state": {"target": ["31", "32", "33", "29", "27", "28", "22", "21", "20", "17", "16", "18", "7", "10", "14", "11", "9", "5", "6"], "time": [1825, 3673, 5545, 7297, 9122, 10993, 12914, 14762, 16705, 18770, 20657, 22458, 24393, 26289, 28890, 31425, 33233, 35161, 37041]}, "edge": {"target": [], "time": []}}, "mouseover": {"state": {"target": ["0", "31", "32", "33", "29", "27", "27", "28", "24", "22", "21", "20", "17", "16", "16", "16", "18", "14", "13", "7", "7", "2", "10", "11", "2", "18", "14", "19", "17", "15", "7", "8", "11", "9", "8", "5", "4", "6", "12"], "time": [1234, 1699, 2212, 4064, 6264, 8060, 8299, 9670, 12023, 12558, 13383, 15082, 17100, 19071, 19325, 19533, 21104, 22867, 23446, 23529, 23674, 24741, 24822, 26640, 28240, 28273, 28348, 29192, 30673, 30857, 30907, 31132, 31290, 31707, 34017, 34815, 35407, 35600, 37798]}, "edge": {"target": [], "time": []}}, "mouseout": {"state": {"target": ["12", "0", "23", "0", "31", "32", "33", "29", "29", "27", "27", "27", "28", "24", "22", "21", "20", "17", "16", "16", "16", "18", "14", "13", "7", "7", "2", "10", "11", "2", "18", "14", "19", "14", "17", "15", "7", "8", "11", "9", "8", "5", "4", "6", "12"], "time": [306, 373, 565, 1322, 2052, 3958, 5750, 7550, 7959, 8157, 9211, 9440, 11991, 12072, 13084, 14929, 16902, 18975, 19187, 19366, 20891, 22785, 23435, 23458, 23540, 24712, 24752, 26510, 28215, 28250, 28298, 29111, 30327, 30407, 30829, 30873, 30918, 31166, 31537, 33714, 34033, 35374, 35551, 37397, 38025]}, "edge": {"target": [], "time": []}}}, "displayed_time": "41.84", "trialTime": 42782, "trial_type": "mouselab-mdp", "trial_index": 46, "time_elapsed": 1366550, "internal_node_id": "0.0-6.0-1.0-37.0"}}, {"uniqueid": "w53154873:a18666725", "current_trial": 47, "dateTime": 1693581637287, "trialdata": {"revealed_states": [], "clicked_states": ["17", "16", "18"], "num_clicks_accrued": [0, 0, 0, 0, 0, 0, 0, 0, 0, 0, 0, 0, 0], "stateRewards": ["", -2, -4, 4, -11, -63, -60, -7, 2, -14, 81, -43, -1, -1, -5, 7, 10, 69, 40, 8, -83, 52, 60, 1, 2, 5, -5, 16, 64, 14, -3, 29, 7, -51], "withholdReward": false, "trial_id": "mdp_trial_39", "block": "test", "trialIndex": 40, "score": 64.8, "costs": -4.199999999999999, "simulationMode": [null, null, null, null, null], "rewards": [-1, -1, -5, 7, 69], "path": ["0", "0", "12", "13", "14", "15", "17"], "rt": [7217, 9, 60, 148, 34], "actions": ["right", "right", "right", "up", "right"], "actionTimes": [8249, 8768, 9344, 9992, 10536], "queries": {"click": {"state": {"target": ["17", "16", "18"], "time": [2428, 4221, 6188]}, "edge": {"target": [], "time": []}}, "mouseover": {"state": {"target": ["12", "13", "17", "16", "18", "13", "20"], "time": [1516, 2032, 2283, 2827, 4628, 6501, 6655]}, "edge": {"target": [], "time": []}}, "mouseout": {"state": {"target": ["0", "12", "13", "17", "16", "18", "13", "20", "19", "22"], "time": [1457, 2016, 2067, 2739, 4529, 6471, 6513, 11450, 11533, 11800]}, "edge": {"target": [], "time": []}}}, "displayed_time": "15.03", "trialTime": 19808, "trial_type": "mouselab-mdp", "trial_index": 47, "time_elapsed": 1386734, "internal_node_id": "0.0-6.0-1.0-38.0"}}, {"uniqueid": "w53154873:a18666725", "current_trial": 48, "dateTime": 1693581655119, "trialdata": {"revealed_states": [], "clicked_states": ["17", "20", "21", "22", "31", "32"], "num_clicks_accrued": [0, 0, 0, 0, 0, 0, 0, 0, 0, 0, 0, 0, 0], "stateRewards": ["", 2, -1, 1, 10, -52, 86, -22, -2, -14, -63, 38, 1, 3, 7, -8, 11, -32, -27, 9, -71, 40, -87, -2, -1, 5, -7, 12, 31, -57, 13, 86, -58, 29], "withholdReward": false, "trial_id": "mdp_trial_40", "block": "test", "trialIndex": 41, "score": 92.6, "costs": -8.4, "simulationMode": [null, null, null, null, null], "rewards": [-2, -1, 5, 13, 86], "path": ["0", "0", "23", "24", "25", "30", "31"], "rt": [11735, 38, 98, 49, 130], "actions": ["left", "left", "left", "down", "right"], "actionTimes": [13074, 13618, 14227, 14778, 15418], "queries": {"click": {"state": {"target": ["17", "20", "21", "22", "31", "32"], "time": [2222, 4045, 5933, 7758, 9581, 11422]}, "edge": {"target": [], "time": []}}, "mouseover": {"state": {"target": ["12", "13", "14", "17", "20", "21", "22", "31", "31", "32"], "time": [1530, 1627, 1677, 2090, 2988, 4381, 6205, 8251, 8729, 9941]}, "edge": {"target": [], "time": []}}, "mouseout": {"state": {"target": ["0", "0", "12", "13", "14", "17", "20", "20", "21", "22", "31", "31", "32"], "time": [410, 1482, 1602, 1660, 1718, 2640, 4138, 4304, 6138, 8100, 8309, 9827, 11503]}, "edge": {"target": [], "time": []}}}, "displayed_time": "15.93", "trialTime": 17418, "trial_type": "mouselab-mdp", "trial_index": 48, "time_elapsed": 1404566, "internal_node_id": "0.0-6.0-1.0-39.0"}}, {"uniqueid": "w53154873:a18666725", "current_trial": 49, "dateTime": 1693581713332, "trialdata": {"rt": 58209, "response": {"Q0": "$-2 to $2", "Q1": "$-16 to $16", "Q2": "$-88 to $88", "Q3": "The cost was always $1.4.", "Q4": "Very motivated"}, "question_order": [0, 1, 2, 3, 4], "trial_id": "final_quiz_control", "trial_type": "survey-multi-choice", "trial_index": 49, "time_elapsed": 1462780, "internal_node_id": "0.0-6.0-2.0"}}, {"uniqueid": "w53154873:a18666725", "current_trial": 50, "dateTime": 1693581899492, "trialdata": {"rt": 186153, "response": {"Q0": "At first I always clicked nodes from the center to the edges. Then I started to only check the furthest nodes.", "Q1": "I realised that the only numbers that really mattered were the edge ones, so I switched to only checking those.", "Q2": "The more I played, the easier I found the game. The only difficulty was remembering values of nodes I already clicked a while ago"}, "trial_id": "self_report_control", "trial_type": "survey-text", "trial_index": 50, "time_elapsed": 1648940, "internal_node_id": "0.0-6.0-3.0"}}, {"uniqueid": "w53154873:a18666725", "current_trial": 51, "dateTime": 1693581929420, "trialdata": {"rt": 29924, "response": {"gender": "female", "age": "19", "colorblind": "0", "effort": "0"}, "trial_type": "survey-html-form", "trial_index": 51, "time_elapsed": 1678868, "internal_node_id": "0.0-6.0-4.0"}}, {"uniqueid": "w53154873:a18666725", "current_trial": 52, "dateTime": 1693581959684, "trialdata": {"rt": 30258, "response": {"Q0": "Not at all", "Q1": "No, I haven't", "Q2": ""}, "trial_type": "survey-text", "trial_index": 52, "time_elapsed": 1709132, "internal_node_id": "0.0-6.0-5.0"}}, {"uniqueid": "w53154873:a18666725", "current_trial": 53, "dateTime": 1693581999012, "trialdata": {"rt": 39323, "stimulus": "<h1>Completion Code Instructions (1/2)</h1>\n<br><br><br><br>\nYou have reached the end of the experiment! The completion code consists of two parts: (1) a code with 2 characters (2) a code with 6 characters. On this page, you will receive the second part of the code. The first part of the completion code will be on the next page.\n<br><br>\nThe second part of your completion code is: <b>EWEK22</b>\n<br><br>\nPlease note this down. Then, press 'Next' in order to find the first part of your completion code. Once the data has been saved, you will receive this code either in this window or in the original browser window where you started the experiment.\n <br><br>\n<h2 style='color: red;'>Note: this is <strong>NOT</strong> the full completion code. Copy this down and click 'Next' to get the full completion code on the next page.</h2>", "response": 0, "trial_type": "html-button-response", "trial_index": 53, "time_elapsed": 1748460, "internal_node_id": "0.0-6.0-6.0"}}, {"uniqueid": "w53154873:a18666725", "current_trial": 54, "dateTime": 1693582000016, "trialdata": {"success": true, "trial_type": "fullscreen", "trial_index": 54, "time_elapsed": 1749464, "internal_node_id": "0.0-7.0"}}], "questiondata": {"params": {"CODE": "C6DMOQA6", "MIN_TIME": 14, "inspectCost": 1, "startTime": "Fri Sep 01 2023 16:57:29 GMT+0200 (\u0426\u0435\u043d\u0442\u0440\u0430\u043b\u044c\u043d\u0430\u044f \u0415\u0432\u0440\u043e\u043f\u0430, \u043b\u0435\u0442\u043d\u0435\u0435 \u0432\u0440\u0435\u043c\u044f)", "bonusRate": 0.002, "variance": "1_2_4_8_44", "branching": "31123"}, "final_score": 1914}, "eventdata": [{"eventtype": "initialized", "value": null, "timestamp": 1693580248986, "interval": 0}, {"eventtype": "window_resize", "value": [1026, 775], "timestamp": 1693580248986, "interval": 0}, {"eventtype": "window_resize", "value": [1026, 775], "timestamp": 1693580249301, "interval": 315}, {"eventtype": "focus", "value": "off", "timestamp": 1693580255589, "interval": 6288}, {"eventtype": "focus", "value": "on", "timestamp": 1693580259965, "interval": 4376}, {"eventtype": "window_resize", "value": [1920, 1080], "timestamp": 1693580266558, "interval": 6593}, {"eventtype": "window_resize", "value": [1026, 775], "timestamp": 1693581999252, "interval": 1732694}], "useragent": "Mozilla/5.0 (Windows NT 10.0; Win64; x64) AppleWebKit/537.36 (KHTML, like Gecko) Chrome/116.0.0.0 Safari/537.36", "mode": "live", "id": "w53154873:a18666725", "status": "user data saved", "Beginhit": "2023-09-01 14:57:26.189822", "Beginexp": "2023-09-01 14:57:47.837434", "Endhit": "2023-09-01 15:26:41.23879", "psiturkStatus": 3, "browser": "<redacted>", "platform": "windows", "language": "ru-RU"}