{"condition": 0, "counterbalance": 0, "assignmentId": "a63428357", "workerId": "w13462376", "hitId": "h50566364", "currenttrial": 34, "bonus": 0, "data": [{"current_trial": 0, "dateTime": 1693480740171, "trialdata": {"internal_node_id": "0.0-0.0", "success": true, "time_elapsed": 20312, "trial_index": 0, "trial_type": "fullscreen"}, "uniqueid": "w13462376:a63428357"}, {"current_trial": 1, "dateTime": 1693480763181, "trialdata": {"internal_node_id": "0.0-1.0", "rt": 23005, "time_elapsed": 43322, "trial_id": "exp_instructions_control", "trial_index": 1, "trial_type": "instructions", "view_history": [{"page_index": 0, "viewing_time": 23005}]}, "uniqueid": "w13462376:a63428357"}, {"current_trial": 2, "dateTime": 1693481134974, "trialdata": {"internal_node_id": "0.0-2.0-1.0", "rt": 371791, "time_elapsed": 415115, "trial_id": "mouselab_instructions_1_control", "trial_index": 2, "trial_type": "instructions", "view_history": [{"page_index": 0, "viewing_time": 94085}, {"page_index": 1, "viewing_time": 173774}, {"page_index": 2, "viewing_time": 52686}, {"page_index": 3, "viewing_time": 51245}]}, "uniqueid": "w13462376:a63428357"}, {"current_trial": 3, "dateTime": 1693481170545, "trialdata": {"actionTimes": [14458, 19979, 20836, 22612, 23868], "actions": ["left", "left", "left", "up", "up"], "block": "test", "clicked_states": ["26"], "costs": -0.5, "displayed_time": "24.37", "internal_node_id": "0.0-2.0-2.0-0.0", "num_clicks_accrued": [0, 0, 0, 0, 0, 0, 0, 0, 0, 0, 0, 0, 0], "path": ["0", "0", "23", "24", "25", "26", "27"], "queries": {"click": {"edge": {"target": [], "time": []}, "state": {"target": ["26"], "time": [6700]}}, "mouseout": {"edge": {"target": [], "time": []}, "state": {"target": ["0", "23", "24", "25", "26", "25", "26", "25", "23", "0", "12", "13", "13", "15", "18", "12", "0"], "time": [4516, 4666, 4833, 4951, 5734, 6184, 8050, 9333, 9583, 9650, 9718, 9766, 10217, 14999, 15066, 15266, 15349]}}, "mouseover": {"edge": {"target": [], "time": []}, "state": {"target": ["23", "24", "25", "26", "25", "26", "25", "23", "0", "12", "13", "13", "15"], "time": [4567, 4734, 4933, 5050, 6000, 6316, 8450, 9549, 9600, 9666, 9749, 10116, 10916]}}}, "revealed_states": [], "rewards": [-10, -10, -10, 10, -10], "rt": [11836, 5025, 348, 1259, 745], "score": -27, "simulationMode": [null, null, null, null, null], "stateRewards": ["", -10, 10, 10, -10, 10, 10, 10, 10, -10, 10, 10, 10, 10, 10, 10, 10, -10, -10, -10, -10, -10, -10, -10, -10, -10, 10, -10, 10, 10, 10, 10, 10, 10], "time_elapsed": 450685, "trialIndex": 0, "trialTime": 34398, "trial_id": "practice_1", "trial_index": 3, "trial_type": "mouselab-mdp", "withholdReward": false}, "uniqueid": "w13462376:a63428357"}, {"current_trial": 4, "dateTime": 1693481197172, "trialdata": {"actionTimes": [16314, 17512, 18342, 19168, 19858], "actions": ["up", "up", "up", "left", "up"], "block": "test", "clicked_states": ["2", "8"], "costs": -1, "displayed_time": "20.38", "internal_node_id": "0.0-2.0-2.0-1.0", "num_clicks_accrued": [0, 0, 0, 0, 0, 0, 0, 0, 0, 0, 0, 0, 0], "path": ["0", "0", "1", "2", "3", "8", "9"], "queries": {"click": {"edge": {"target": [], "time": []}, "state": {"target": ["2", "8"], "time": [7269, 10592]}}, "mouseout": {"edge": {"target": [], "time": []}, "state": {"target": ["0", "7", "4", "4", "3", "8", "2", "3", "8", "9", "0"], "time": [2936, 3257, 3375, 3775, 5491, 6691, 8058, 9659, 10733, 11592, 25624]}}, "mouseover": {"edge": {"target": [], "time": []}, "state": {"target": ["7", "4", "4", "3", "8", "2", "3", "8", "9"], "time": [3208, 3291, 3707, 3908, 5591, 6841, 8175, 9708, 11558]}}}, "revealed_states": [], "rewards": [-10, -10, -10, 10, 10], "rt": [14186, 696, 327, 304, 180], "score": -7.5, "simulationMode": [null, null, null, null, null], "stateRewards": ["", -10, -10, -10, 10, 10, -10, 10, 10, 10, -10, 10, 10, -10, -10, 10, -10, -10, 10, -10, -10, 10, -10, -10, -10, -10, -10, -10, -10, -10, 10, -10, -10, 10], "time_elapsed": 477311, "trialIndex": 1, "trialTime": 26134, "trial_id": "practice_2", "trial_index": 4, "trial_type": "mouselab-mdp", "withholdReward": false}, "uniqueid": "w13462376:a63428357"}, {"current_trial": 5, "dateTime": 1693481262666, "trialdata": {"internal_node_id": "0.0-2.0-3.0", "rt": 65482, "time_elapsed": 542807, "trial_id": "mouselab_instructions_2_control", "trial_index": 5, "trial_type": "instructions", "view_history": [{"page_index": 0, "viewing_time": 55930}, {"page_index": 1, "viewing_time": 9551}]}, "uniqueid": "w13462376:a63428357"}, {"current_trial": 6, "dateTime": 1693481477226, "trialdata": {"correct": {"Q0": "The cost for clicking on nodes may vary between nodes.", "Q1": "The better I perform the higher my bonus will be.", "Q2": "No, the amount of cash at each node of the web may be different each time.", "Q3": "To get the highest total score.", "Q4": "Only before moving the spider.", "Q5": "3 seconds"}, "internal_node_id": "0.0-2.0-4.0", "question_order": [0, 1, 2, 3, 4, 5], "response": {"Q0": "The cost for clicking on nodes may vary between nodes.", "Q1": "The better I perform the higher my bonus will be.", "Q2": "No, the structure of the web will be different each time.", "Q3": "To get the highest total score.", "Q4": "Only before moving the spider.", "Q5": "3 seconds"}, "rt": 214554, "time_elapsed": 757367, "trial_id": "mouselab_quiz_control", "trial_index": 6, "trial_type": "survey-multi-choice"}, "uniqueid": "w13462376:a63428357"}, {"current_trial": 7, "dateTime": 1693481514914, "trialdata": {"internal_node_id": "0.0-2.1-0.1-0.1", "success": true, "time_elapsed": 795055, "trial_index": 7, "trial_type": "fullscreen"}, "uniqueid": "w13462376:a63428357"}, {"current_trial": 8, "dateTime": 1693481699484, "trialdata": {"internal_node_id": "0.0-2.1-1.1", "rt": 184568, "time_elapsed": 979625, "trial_id": "mouselab_instructions_1_control", "trial_index": 8, "trial_type": "instructions", "view_history": [{"page_index": 0, "viewing_time": 45384}, {"page_index": 1, "viewing_time": 104390}, {"page_index": 2, "viewing_time": 18567}, {"page_index": 3, "viewing_time": 16226}]}, "uniqueid": "w13462376:a63428357"}, {"current_trial": 9, "dateTime": 1693481726854, "trialdata": {"actionTimes": [17992, 19605, 20846, 22098, 23208], "actions": ["left", "left", "left", "down", "down"], "block": "test", "clicked_states": ["19", "21", "30"], "costs": -1.5, "displayed_time": "23.71", "internal_node_id": "0.0-2.1-2.1-0.1", "num_clicks_accrued": [0, 0, 0, 0, 0, 0, 0, 0, 0, 0, 0, 0, 0], "path": ["0", "0", "23", "24", "25", "30", "32"], "queries": {"click": {"edge": {"target": [], "time": []}, "state": {"target": ["19", "21", "30"], "time": [7790, 12280, 15126]}}, "mouseout": {"edge": {"target": [], "time": []}, "state": {"target": ["0", "0", "22", "19", "21", "22", "12", "31", "30", "25"], "time": [1603, 6937, 7386, 7912, 13971, 14054, 14504, 14720, 16926, 17104]}}, "mouseover": {"edge": {"target": [], "time": []}, "state": {"target": ["0", "22", "19", "21", "22", "12", "31", "30", "25"], "time": [6921, 7070, 7438, 10237, 14003, 14487, 14704, 14870, 17004]}}}, "revealed_states": [], "rewards": [-10, -10, -10, 10, 10], "rt": [13979, 1114, 722, 757, 598], "score": -8, "simulationMode": [null, null, null, null, null], "stateRewards": ["", -10, 10, 10, -10, 10, 10, 10, 10, -10, 10, 10, 10, 10, 10, 10, 10, -10, -10, -10, -10, -10, -10, -10, -10, -10, 10, -10, 10, 10, 10, 10, 10, 10], "time_elapsed": 1006993, "trialIndex": 2, "trialTime": 26889, "trial_id": "practice_1", "trial_index": 9, "trial_type": "mouselab-mdp", "withholdReward": false}, "uniqueid": "w13462376:a63428357"}, {"current_trial": 10, "dateTime": 1693481745103, "trialdata": {"actionTimes": [10727, 11574, 12484, 13360, 14270], "actions": ["up", "up", "up", "left", "left"], "block": "test", "clicked_states": ["6", "9"], "costs": -1, "displayed_time": "14.78", "internal_node_id": "0.0-2.1-2.1-1.1", "num_clicks_accrued": [0, 0, 0, 0, 0, 0, 0, 0, 0, 0, 0, 0, 0], "path": ["0", "0", "1", "2", "3", "8", "11"], "queries": {"click": {"edge": {"target": [], "time": []}, "state": {"target": ["6", "9"], "time": [4273, 7392]}}, "mouseout": {"edge": {"target": [], "time": []}, "state": {"target": ["24", "23", "1", "7", "4", "6", "6", "7", "3", "9", "4", "7"], "time": [643, 927, 3194, 3378, 3528, 3811, 5361, 6427, 6544, 7895, 16493, 17044]}}, "mouseover": {"edge": {"target": [], "time": []}, "state": {"target": ["1", "7", "4", "6", "6", "7", "3", "9", "4"], "time": [3111, 3331, 3478, 3645, 4012, 6412, 6511, 6862, 8211]}}}, "revealed_states": [], "rewards": [-10, -10, -10, 10, 10], "rt": [8423, 325, 383, 378, 389], "score": -7.5, "simulationMode": [null, null, null, null, null], "stateRewards": ["", -10, -10, -10, 10, 10, -10, 10, 10, 10, -10, 10, 10, -10, -10, 10, -10, -10, 10, -10, -10, 10, -10, -10, -10, -10, -10, -10, -10, -10, 10, -10, -10, 10], "time_elapsed": 1025242, "trialIndex": 3, "trialTime": 17714, "trial_id": "practice_2", "trial_index": 10, "trial_type": "mouselab-mdp", "withholdReward": false}, "uniqueid": "w13462376:a63428357"}, {"current_trial": 11, "dateTime": 1693481774636, "trialdata": {"internal_node_id": "0.0-2.1-3.1", "rt": 29524, "time_elapsed": 1054777, "trial_id": "mouselab_instructions_2_control", "trial_index": 11, "trial_type": "instructions", "view_history": [{"page_index": 0, "viewing_time": 25049}, {"page_index": 1, "viewing_time": 4475}]}, "uniqueid": "w13462376:a63428357"}, {"current_trial": 12, "dateTime": 1693481838995, "trialdata": {"correct": {"Q0": "The cost for clicking on nodes may vary between nodes.", "Q1": "The better I perform the higher my bonus will be.", "Q2": "No, the amount of cash at each node of the web may be different each time.", "Q3": "To get the highest total score.", "Q4": "Only before moving the spider.", "Q5": "3 seconds"}, "internal_node_id": "0.0-2.1-4.1", "question_order": [0, 1, 2, 3, 4, 5], "response": {"Q0": "The cost for clicking on nodes may vary between nodes.", "Q1": "The better I perform the higher my bonus will be.", "Q2": "No, the amount of cash at each node of the web may be different each time.", "Q3": "To get the highest total score.", "Q4": "Only before moving the spider.", "Q5": "3 seconds"}, "rt": 64355, "time_elapsed": 1119136, "trial_id": "mouselab_quiz_control", "trial_index": 12, "trial_type": "survey-multi-choice"}, "uniqueid": "w13462376:a63428357"}, {"current_trial": 13, "dateTime": 1693481844915, "trialdata": {"internal_node_id": "0.0-4.0-0.0", "question_order": [0], "response": {"Q0": "No"}, "rt": 5912, "time_elapsed": 1125056, "trial_id": "repeat_check", "trial_index": 13, "trial_type": "survey-multi-choice"}, "uniqueid": "w13462376:a63428357"}, {"current_trial": 14, "dateTime": 1693481906618, "trialdata": {"internal_node_id": "0.0-6.0-0.0", "response": " ", "rt": 61692, "stimulus": "\n<h1> Get ready to start the game! </h1>\n\nThank you for reading the instructions. Get ready start with the 40 rounds of this game.\n<br><br>\nIf you need to take a break, feel free to take one after the end of a round, before continuing to the next one.\n<br><br>\nRemember, the more money the spider gets, the bigger your bonus will be!\n<br><br>\n<div style='text-align: center;'>Press <code>space</code> to begin.</div>\n\n<br><br>\n(If, at any point, the <code>space</code> key does not take you to the next page, click once on the text and try again.)", "time_elapsed": 1186759, "trial_id": "mdp_ready", "trial_index": 14, "trial_type": "html-keyboard-response"}, "uniqueid": "w13462376:a63428357"}, {"current_trial": 15, "dateTime": 1693481929435, "trialdata": {"actionTimes": [7806, 8727, 9789, 10593, 11412], "actions": ["left", "left", "left", "up", "up"], "block": "test", "clicked_states": ["27"], "costs": -1.4, "displayed_time": "17.41", "internal_node_id": "0.0-6.0-1.0-0.0", "num_clicks_accrued": [0, 0, 0, 0, 0, 0, 0, 0, 0, 0, 0, 0, 0], "path": ["0", "0", "23", "24", "25", "26", "27"], "queries": {"click": {"edge": {"target": [], "time": []}, "state": {"target": ["27"], "time": [5313]}}, "mouseout": {"edge": {"target": [], "time": []}, "state": {"target": ["0", "23", "26", "27", "27", "28", "28"], "time": [3993, 4110, 4379, 4627, 6944, 7126, 14776]}}, "mouseover": {"edge": {"target": [], "time": []}, "state": {"target": ["23", "26", "27", "27", "28"], "time": [4043, 4344, 4428, 4810, 7027]}}}, "revealed_states": [], "rewards": [-1, -2, 1, -15, 13], "rt": [4397, 403, 538, 278, 299], "score": -5.399999999999999, "simulationMode": [null, null, null, null, null], "stateRewards": ["", -2, -1, 3, -3, 71, -58, -21, 7, -10, -75, -37, 2, 4, -1, -12, -79, -29, -48, 3, -41, -10, -30, -1, -2, 1, -15, 13, 66, 22, -1, -42, -86, -55], "time_elapsed": 1209574, "trialIndex": 4, "trialTime": 22254, "trial_id": "mdp_trial_1", "trial_index": 15, "trial_type": "mouselab-mdp", "withholdReward": false}, "uniqueid": "w13462376:a63428357"}, {"current_trial": 16, "dateTime": 1693481953465, "trialdata": {"actionTimes": [10477, 11224, 12189, 13144, 14174], "actions": ["left", "left", "left", "up", "up"], "block": "test", "clicked_states": ["3", "9", "30"], "costs": -4.199999999999999, "displayed_time": "15.57", "internal_node_id": "0.0-6.0-1.0-1.0", "num_clicks_accrued": [0, 0, 0, 0, 0, 0, 0, 0, 0, 0, 0, 0, 0], "path": ["0", "0", "23", "24", "25", "26", "27"], "queries": {"click": {"edge": {"target": [], "time": []}, "state": {"target": ["3", "9", "30"], "time": [2791, 5011, 8777]}}, "mouseout": {"edge": {"target": [], "time": []}, "state": {"target": ["0", "1", "2", "3", "9", "8", "10", "31", "30", "24", "23"], "time": [2070, 2284, 2500, 4068, 7417, 7650, 7733, 8301, 9635, 9769, 17283]}}, "mouseover": {"edge": {"target": [], "time": []}, "state": {"target": ["1", "2", "3", "9", "8", "10", "31", "30", "24"], "time": [2184, 2350, 2585, 4241, 7517, 7700, 8101, 8534, 9704]}}}, "revealed_states": [], "rewards": [1, 2, -7, -5, -20], "rt": [8914, 218, 443, 439, 502], "score": -33.2, "simulationMode": [null, null, null, null, null], "stateRewards": ["", -2, -4, 2, 10, -17, 18, 73, 11, -32, 23, -13, -2, -4, 7, 12, -25, 66, -23, 15, 40, -76, -9, 1, 2, -7, -5, -20, 24, 3, -5, 16, -73, 70], "time_elapsed": 1233605, "trialIndex": 5, "trialTime": 23363, "trial_id": "mdp_trial_2", "trial_index": 16, "trial_type": "mouselab-mdp", "withholdReward": false}, "uniqueid": "w13462376:a63428357"}, {"current_trial": 17, "dateTime": 1693482001090, "trialdata": {"actionTimes": [8577, 9205, 10043, 10741, 11617], "actions": ["up", "up", "up", "right", "right"], "block": "test", "clicked_states": ["4"], "costs": -1.4, "displayed_time": "18.12", "internal_node_id": "0.0-6.0-1.0-2.0", "num_clicks_accrued": [0, 0, 0, 0, 0, 0, 0, 0, 0, 0, 0, 0, 0], "path": ["0", "0", "1", "2", "3", "4", "6"], "queries": {"click": {"edge": {"target": [], "time": []}, "state": {"target": ["4"], "time": [6185]}}, "mouseout": {"edge": {"target": [], "time": []}, "state": {"target": ["0", "0", "1", "7", "4", "7", "0"], "time": [1628, 4763, 5130, 5429, 14179, 19529, 19762]}}, "mouseover": {"edge": {"target": [], "time": []}, "state": {"target": ["1", "7", "4"], "time": [4929, 5346, 5929]}}}, "revealed_states": [], "rewards": [-1, -2, 4, 9, -75], "rt": [4469, 121, 326, 175, 350], "score": -66.4, "simulationMode": [null, null, null, null, null], "stateRewards": ["", -1, -2, 4, 9, 10, -75, 39, 16, -43, 88, -19, -1, 1, 2, 4, -31, 10, 73, 12, 41, -64, -81, -2, 2, -6, 1, -81, -1, -26, 3, -59, -3, -20], "time_elapsed": 1281229, "trialIndex": 6, "trialTime": 46981, "trial_id": "mdp_trial_3", "trial_index": 17, "trial_type": "mouselab-mdp", "withholdReward": false}, "uniqueid": "w13462376:a63428357"}, {"current_trial": 18, "dateTime": 1693482023355, "trialdata": {"actionTimes": [7983, 8569, 9289, 9869, 10520], "actions": ["up", "up", "up", "right", "down"], "block": "test", "clicked_states": ["21"], "costs": -1.4, "displayed_time": "16.91", "internal_node_id": "0.0-6.0-1.0-3.0", "num_clicks_accrued": [0, 0, 0, 0, 0, 0, 0, 0, 0, 0, 0, 0, 0], "path": ["0", "0", "1", "2", "3", "4", "7"], "queries": {"click": {"edge": {"target": [], "time": []}, "state": {"target": ["21"], "time": [4750]}}, "mouseout": {"edge": {"target": [], "time": []}, "state": {"target": ["12", "0", "12", "22", "19", "19", "21", "19", "17", "17"], "time": [2147, 3882, 3931, 4033, 4148, 4481, 5164, 5232, 5382, 18332]}}, "mouseover": {"edge": {"target": [], "time": []}, "state": {"target": ["12", "22", "19", "19", "21", "19", "17"], "time": [3916, 4015, 4081, 4214, 4549, 5215, 5333]}}}, "revealed_states": [], "rewards": [-1, 2, -6, 6, 78], "rt": [5079, 76, 197, 58, 135], "score": 77.6, "simulationMode": [null, null, null, null, null], "stateRewards": ["", -1, 2, -6, 6, 43, 78, 78, -2, 55, -29, -17, -2, -4, 1, -15, 13, 7, -79, 8, -28, -68, 36, -1, -3, 3, -16, 84, -18, 87, 10, 32, 13, -81], "time_elapsed": 1303495, "trialIndex": 7, "trialTime": 21552, "trial_id": "mdp_trial_4", "trial_index": 18, "trial_type": "mouselab-mdp", "withholdReward": false}, "uniqueid": "w13462376:a63428357"}, {"current_trial": 19, "dateTime": 1693482043873, "trialdata": {"actionTimes": [7560, 8136, 8741, 9337, 9946], "actions": ["right", "right", "right", "up", "right"], "block": "test", "clicked_states": ["27"], "costs": -1.4, "displayed_time": "16.56", "internal_node_id": "0.0-6.0-1.0-4.0", "num_clicks_accrued": [0, 0, 0, 0, 0, 0, 0, 0, 0, 0, 0, 0, 0], "path": ["0", "0", "12", "13", "14", "15", "17"], "queries": {"click": {"edge": {"target": [], "time": []}, "state": {"target": ["27"], "time": [3664]}}, "mouseout": {"edge": {"target": [], "time": []}, "state": {"target": ["18", "28", "27", "26", "31", "31"], "time": [1341, 3142, 6076, 6226, 6925, 17575]}}, "mouseover": {"edge": {"target": [], "time": []}, "state": {"target": ["28", "27", "26", "31"], "time": [3127, 3476, 6142, 6842]}}}, "revealed_states": [], "rewards": [1, -2, 2, 8, -3], "rt": [5006, 47, 74, 73, 84], "score": 4.6, "simulationMode": [null, null, null, null, null], "stateRewards": ["", -1, 3, 1, -7, 56, 76, 57, 3, 11, -9, 14, 1, -2, 2, 8, -77, -3, 79, -5, 88, 24, -66, -2, -1, 7, -7, -30, 14, -76, 11, -36, 28, -6], "time_elapsed": 1324014, "trialIndex": 8, "trialTime": 19735, "trial_id": "mdp_trial_5", "trial_index": 19, "trial_type": "mouselab-mdp", "withholdReward": false}, "uniqueid": "w13462376:a63428357"}, {"current_trial": 20, "dateTime": 1693482061985, "trialdata": {"actionTimes": [7766, 8399, 9040, 9636, 10385], "actions": ["left", "left", "left", "down", "left"], "block": "test", "clicked_states": ["30", "28"], "costs": -2.8, "displayed_time": "15.48", "internal_node_id": "0.0-6.0-1.0-5.0", "num_clicks_accrued": [0, 0, 0, 0, 0, 0, 0, 0, 0, 0, 0, 0, 0], "path": ["0", "0", "23", "24", "25", "30", "33"], "queries": {"click": {"edge": {"target": [], "time": []}, "state": {"target": ["30", "28"], "time": [2435, 4565]}}, "mouseout": {"edge": {"target": [], "time": []}, "state": {"target": ["0", "23", "30", "25", "26", "28"], "time": [2019, 2052, 3027, 3220, 3603, 5720]}}, "mouseover": {"edge": {"target": [], "time": []}, "state": {"target": ["23", "30", "25", "26", "28"], "time": [2035, 2186, 3120, 3386, 3703]}}}, "revealed_states": [], "rewards": [-2, 4, 4, 9, -64], "rt": [6289, 127, 117, 75, 229], "score": -51.8, "simulationMode": [null, null, null, null, null], "stateRewards": ["", -1, -3, -7, -7, -76, 30, -49, 11, -70, 56, 2, 1, 4, -3, -14, -59, -83, -25, -9, -21, -67, -73, -2, 4, 4, -9, -11, -32, 60, 9, -87, 22, -64], "time_elapsed": 1342125, "trialIndex": 9, "trialTime": 17340, "trial_id": "mdp_trial_6", "trial_index": 20, "trial_type": "mouselab-mdp", "withholdReward": false}, "uniqueid": "w13462376:a63428357"}, {"current_trial": 21, "dateTime": 1693482082617, "trialdata": {"actionTimes": [11416, 12191, 13401, 14106, 15642], "actions": ["left", "left", "left", "down", "down"], "block": "test", "clicked_states": ["8", "20", "30"], "costs": -4.199999999999999, "displayed_time": "16.15", "internal_node_id": "0.0-6.0-1.0-6.0", "num_clicks_accrued": [0, 0, 0, 0, 0, 0, 0, 0, 0, 0, 0, 0, 0], "path": ["0", "0", "23", "24", "25", "30", "32"], "queries": {"click": {"edge": {"target": [], "time": []}, "state": {"target": ["8", "20", "30"], "time": [3619, 6825, 9834]}}, "mouseout": {"edge": {"target": [], "time": []}, "state": {"target": ["0", "1", "2", "8", "3", "4", "14", "19", "20", "19", "22", "31", "31", "30", "31"], "time": [1882, 2050, 2916, 4049, 4150, 5600, 6034, 6300, 7952, 7986, 8034, 8900, 9083, 9922, 10251]}}, "mouseover": {"edge": {"target": [], "time": []}, "state": {"target": ["1", "2", "8", "3", "4", "14", "19", "20", "19", "22", "31", "31", "30", "31"], "time": [1967, 2100, 3383, 4100, 4167, 5900, 6117, 6633, 7968, 8002, 8616, 9066, 9150, 10167]}}}, "revealed_states": [], "rewards": [2, -3, -6, 15, 42], "rt": [9927, 238, 698, 185, 1020], "score": 45.8, "simulationMode": [null, null, null, null, null], "stateRewards": ["", -1, 4, -5, 9, 29, -75, -42, -16, 24, -28, -41, 2, -3, 1, 10, 60, 47, 55, -1, -53, 22, -40, 2, -3, -6, 4, -26, 44, 54, 15, -76, 42, 14], "time_elapsed": 1362756, "trialIndex": 10, "trialTime": 19884, "trial_id": "mdp_trial_7", "trial_index": 21, "trial_type": "mouselab-mdp", "withholdReward": false}, "uniqueid": "w13462376:a63428357"}, {"current_trial": 22, "dateTime": 1693482103821, "trialdata": {"actionTimes": [10056, 10647, 11353, 12153, 12814], "actions": ["up", "up", "up", "right", "up"], "block": "test", "clicked_states": ["5", "27"], "costs": -2.8, "displayed_time": "17.05", "internal_node_id": "0.0-6.0-1.0-7.0", "num_clicks_accrued": [0, 0, 0, 0, 0, 0, 0, 0, 0, 0, 0, 0, 0], "path": ["0", "0", "1", "2", "3", "4", "5"], "queries": {"click": {"edge": {"target": [], "time": []}, "state": {"target": ["5", "27"], "time": [5346, 7323]}}, "mouseout": {"edge": {"target": [], "time": []}, "state": {"target": ["23", "0", "7", "6", "5", "8", "26", "27", "27", "26", "25"], "time": [1281, 3716, 4799, 5083, 6283, 6373, 6550, 7408, 17666, 17848, 17916]}}, "mouseover": {"edge": {"target": [], "time": []}, "state": {"target": ["7", "6", "5", "8", "26", "27"], "time": [4016, 4916, 5183, 6339, 6516, 6666]}}}, "revealed_states": [], "rewards": [2, -1, 5, 8, 75], "rt": [7010, 77, 183, 267, 144], "score": 86.2, "simulationMode": [null, null, null, null, null], "stateRewards": ["", 2, -1, 5, 8, 75, -35, -77, 1, -9, -81, -58, 1, 2, -7, 5, 77, -16, 19, 16, -10, -18, 40, -2, 3, 7, -5, 64, 1, -62, 10, 27, 10, 65], "time_elapsed": 1383960, "trialIndex": 11, "trialTime": 20472, "trial_id": "mdp_trial_8", "trial_index": 22, "trial_type": "mouselab-mdp", "withholdReward": false}, "uniqueid": "w13462376:a63428357"}, {"current_trial": 23, "dateTime": 1693482123368, "trialdata": {"actionTimes": [8260, 8852, 9678, 10261, 10916], "actions": ["up", "up", "up", "right", "right"], "block": "test", "clicked_states": ["27", "6"], "costs": -2.8, "displayed_time": "15.85", "internal_node_id": "0.0-6.0-1.0-8.0", "num_clicks_accrued": [0, 0, 0, 0, 0, 0, 0, 0, 0, 0, 0, 0, 0], "path": ["0", "0", "1", "2", "3", "4", "6"], "queries": {"click": {"edge": {"target": [], "time": []}, "state": {"target": ["27", "6"], "time": [2640, 5313]}}, "mouseout": {"edge": {"target": [], "time": []}, "state": {"target": ["0", "27", "3", "4", "6", "16", "17", "17", "15", "15", "18"], "time": [2192, 2876, 3020, 3359, 5909, 5981, 6124, 7459, 7609, 17243, 17292]}}, "mouseover": {"edge": {"target": [], "time": []}, "state": {"target": ["27", "3", "4", "6", "16", "17", "17", "15"], "time": [2475, 2987, 3069, 3760, 5960, 6026, 6276, 7526]}}}, "revealed_states": [], "rewards": [-2, 3, -5, -7, 43], "rt": [6414, 71, 316, 66, 136], "score": 29.2, "simulationMode": [null, null, null, null, null], "stateRewards": ["", -2, 3, -5, -7, 66, 43, -60, -4, -70, -75, 4, -1, 2, 2, -13, 54, 11, -40, -1, 77, 32, 15, -2, 3, -8, -9, -35, 83, -27, 6, -74, -34, 44], "time_elapsed": 1403507, "trialIndex": 12, "trialTime": 18796, "trial_id": "mdp_trial_9", "trial_index": 23, "trial_type": "mouselab-mdp", "withholdReward": false}, "uniqueid": "w13462376:a63428357"}, {"current_trial": 24, "dateTime": 1693482141258, "trialdata": {"actionTimes": [6469, 7116, 7690, 8546, 9472], "actions": ["right", "right", "right", "down", "down"], "block": "test", "clicked_states": ["21"], "costs": -1.4, "displayed_time": "15.85", "internal_node_id": "0.0-6.0-1.0-9.0", "num_clicks_accrued": [0, 0, 0, 0, 0, 0, 0, 0, 0, 0, 0, 0, 0], "path": ["0", "0", "12", "13", "14", "19", "21"], "queries": {"click": {"edge": {"target": [], "time": []}, "state": {"target": ["21"], "time": [3331]}}, "mouseout": {"edge": {"target": [], "time": []}, "state": {"target": ["12", "19", "21", "21", "22"], "time": [2698, 3080, 3424, 4447, 4531]}}, "mouseover": {"edge": {"target": [], "time": []}, "state": {"target": ["12", "19", "21", "22"], "time": [2680, 2930, 3230, 4498]}}}, "revealed_states": [], "rewards": [-2, -1, -5, -16, 40], "rt": [4627, 147, 55, 328, 393], "score": 14.600000000000001, "simulationMode": [null, null, null, null, null], "stateRewards": ["", -1, -3, 4, -10, -5, 79, -87, -2, 53, 29, -20, -2, -1, -5, 10, 27, 86, 46, -16, -29, 40, 3, 2, 4, -1, -6, 37, 79, -29, 7, 86, -62, 29], "time_elapsed": 1421398, "trialIndex": 13, "trialTime": 17210, "trial_id": "mdp_trial_10", "trial_index": 24, "trial_type": "mouselab-mdp", "withholdReward": false}, "uniqueid": "w13462376:a63428357"}, {"current_trial": 25, "dateTime": 1693482160765, "trialdata": {"actionTimes": [9313, 9889, 10684, 11341, 11951], "actions": ["up", "up", "up", "left", "up"], "block": "test", "clicked_states": ["29", "20"], "costs": -2.8, "displayed_time": "15.96", "internal_node_id": "0.0-6.0-1.0-10.0", "num_clicks_accrued": [0, 0, 0, 0, 0, 0, 0, 0, 0, 0, 0, 0, 0], "path": ["0", "0", "1", "2", "3", "8", "9"], "queries": {"click": {"edge": {"target": [], "time": []}, "state": {"target": ["29", "20"], "time": [4035, 6085]}}, "mouseout": {"edge": {"target": [], "time": []}, "state": {"target": ["23", "26", "27", "29", "26", "14", "20", "16", "15", "13"], "time": [2701, 3317, 3685, 4501, 4634, 5086, 6552, 17651, 17717, 17750]}}, "mouseover": {"edge": {"target": [], "time": []}, "state": {"target": ["23", "26", "27", "29", "26", "14", "20", "16"], "time": [2667, 2968, 3384, 3801, 4567, 5068, 5501, 6751]}}}, "revealed_states": [], "rewards": [2, -1, -1, -6, 78], "rt": [7362, 68, 272, 137, 97], "score": 69.2, "simulationMode": [null, null, null, null, null], "stateRewards": ["", 2, -1, -1, -9, -81, -30, 55, -6, 78, 25, 62, 2, 4, -1, 9, -85, 1, -19, 1, -60, 12, -34, 1, 4, -1, -13, -24, -16, -83, -8, 16, 43, 9], "time_elapsed": 1440904, "trialIndex": 14, "trialTime": 18704, "trial_id": "mdp_trial_11", "trial_index": 25, "trial_type": "mouselab-mdp", "withholdReward": false}, "uniqueid": "w13462376:a63428357"}, {"current_trial": 26, "dateTime": 1693482178945, "trialdata": {"actionTimes": [7031, 7670, 8394, 8998, 9681], "actions": ["up", "up", "up", "right", "right"], "block": "test", "clicked_states": ["32", "6"], "costs": -2.8, "displayed_time": "15.44", "internal_node_id": "0.0-6.0-1.0-11.0", "num_clicks_accrued": [0, 0, 0, 0, 0, 0, 0, 0, 0, 0, 0, 0, 0], "path": ["0", "0", "1", "2", "3", "4", "6"], "queries": {"click": {"edge": {"target": [], "time": []}, "state": {"target": ["32", "6"], "time": [2422, 4783]}}, "mouseout": {"edge": {"target": [], "time": []}, "state": {"target": ["0", "31", "32", "31", "23", "16", "6", "7", "0"], "time": [1997, 2096, 2729, 2797, 2849, 3262, 5513, 12945, 16345]}}, "mouseover": {"edge": {"target": [], "time": []}, "state": {"target": ["31", "32", "31", "23", "16", "6", "7"], "time": [2062, 2162, 2779, 2830, 3213, 3313, 5564]}}}, "revealed_states": [], "rewards": [-1, -1, 4, -16, 81], "rt": [5598, 120, 212, 80, 164], "score": 64.2, "simulationMode": [null, null, null, null, null], "stateRewards": ["", -1, -1, 4, -16, -75, 81, -51, -7, -84, 73, -30, -2, 1, -3, -16, -77, 33, 14, 1, 45, 87, -66, 2, 2, -5, -7, -19, -17, 79, -3, 8, 49, 47], "time_elapsed": 1459084, "trialIndex": 15, "trialTime": 17347, "trial_id": "mdp_trial_12", "trial_index": 26, "trial_type": "mouselab-mdp", "withholdReward": false}, "uniqueid": "w13462376:a63428357"}, {"current_trial": 27, "dateTime": 1693482197086, "trialdata": {"actionTimes": [8555, 9102, 9734, 10277, 10893], "actions": ["up", "up", "up", "left", "up"], "block": "test", "clicked_states": ["25", "16", "9"], "costs": -4.199999999999999, "displayed_time": "15.56", "internal_node_id": "0.0-6.0-1.0-12.0", "num_clicks_accrued": [0, 0, 0, 0, 0, 0, 0, 0, 0, 0, 0, 0, 0], "path": ["0", "0", "1", "2", "3", "8", "9"], "queries": {"click": {"edge": {"target": [], "time": []}, "state": {"target": ["25", "16", "9"], "time": [2645, 4329, 6705]}}, "mouseout": {"edge": {"target": [], "time": []}, "state": {"target": ["0", "23", "24", "25", "28", "2", "7", "15", "16", "4", "9"], "time": [2013, 2079, 2246, 2721, 3463, 3531, 3582, 4146, 5381, 5476, 6978]}}, "mouseover": {"edge": {"target": [], "time": []}, "state": {"target": ["23", "24", "25", "28", "2", "7", "15", "16", "4", "9"], "time": [2045, 2112, 2363, 3446, 3514, 3563, 3629, 4180, 5452, 6596]}}}, "revealed_states": [], "rewards": [2, 3, -3, -12, 57], "rt": [6994, 36, 117, 28, 94], "score": 42.8, "simulationMode": [null, null, null, null, null], "stateRewards": ["", 2, 3, -3, 4, 72, -28, 34, -12, 57, -64, -15, 2, 1, -4, -15, 2, 49, 31, -1, -42, -58, 31, -2, 1, -2, -13, -75, -19, -22, -6, 61, 10, -56], "time_elapsed": 1477226, "trialIndex": 16, "trialTime": 17306, "trial_id": "mdp_trial_13", "trial_index": 27, "trial_type": "mouselab-mdp", "withholdReward": false}, "uniqueid": "w13462376:a63428357"}, {"current_trial": 28, "dateTime": 1693482216051, "trialdata": {"actionTimes": [8371, 8985, 9597, 10134, 10815], "actions": ["up", "up", "up", "right", "right"], "block": "test", "clicked_states": ["6", "20"], "costs": -2.8, "displayed_time": "16.48", "internal_node_id": "0.0-6.0-1.0-13.0", "num_clicks_accrued": [0, 0, 0, 0, 0, 0, 0, 0, 0, 0, 0, 0, 0], "path": ["0", "0", "1", "2", "3", "4", "6"], "queries": {"click": {"edge": {"target": [], "time": []}, "state": {"target": ["6", "20"], "time": [4150, 6344]}}, "mouseout": {"edge": {"target": [], "time": []}, "state": {"target": ["0", "1", "7", "6", "6", "16", "17", "20"], "time": [3437, 3537, 3837, 4247, 4771, 4920, 5904, 6670]}}, "mouseover": {"edge": {"target": [], "time": []}, "state": {"target": ["1", "7", "6", "16", "17", "20"], "time": [3520, 3603, 3920, 4820, 5503, 6170]}}}, "revealed_states": [], "rewards": [-1, -2, -1, -10, 73], "rt": [5899, 111, 88, 10, 141], "score": 56.2, "simulationMode": [null, null, null, null, null], "stateRewards": ["", -1, -2, -1, -10, -57, 73, -72, -16, 75, -14, -46, -2, -3, -7, -1, -61, -60, 76, -4, 50, 4, 14, 2, 2, -7, 12, -65, -32, 15, -8, -76, -25, -61], "time_elapsed": 1496190, "trialIndex": 17, "trialTime": 18012, "trial_id": "mdp_trial_14", "trial_index": 28, "trial_type": "mouselab-mdp", "withholdReward": false}, "uniqueid": "w13462376:a63428357"}, {"current_trial": 29, "dateTime": 1693482234181, "trialdata": {"actionTimes": [7161, 7704, 8336, 8894, 9556], "actions": ["left", "left", "left", "up", "left"], "block": "test", "clicked_states": ["29", "6"], "costs": -2.8, "displayed_time": "16.25", "internal_node_id": "0.0-6.0-1.0-14.0", "num_clicks_accrued": [0, 0, 0, 0, 0, 0, 0, 0, 0, 0, 0, 0, 0], "path": ["0", "0", "23", "24", "25", "26", "29"], "queries": {"click": {"edge": {"target": [], "time": []}, "state": {"target": ["29", "6"], "time": [3234, 5285]}}, "mouseout": {"edge": {"target": [], "time": []}, "state": {"target": ["7", "26", "23", "23", "26", "29", "26", "6", "15"], "time": [613, 1362, 1596, 2646, 2763, 3598, 3634, 14014, 15329]}}, "mouseover": {"edge": {"target": [], "time": []}, "state": {"target": ["23", "26", "29", "26", "6"], "time": [2631, 2713, 3046, 3616, 4214]}}}, "revealed_states": [], "rewards": [-1, 1, 6, -6, 88], "rt": [4919, 20, 103, 43, 120], "score": 85.2, "simulationMode": [null, null, null, null, null], "stateRewards": ["", -2, 2, -2, -7, -50, -62, -45, 7, 36, -24, -72, -1, -1, 8, -1, -67, 20, -52, 2, 35, -50, 80, -1, 1, 6, -6, -70, 6, 88, 8, -47, 74, -19], "time_elapsed": 1514320, "trialIndex": 18, "trialTime": 17253, "trial_id": "mdp_trial_15", "trial_index": 29, "trial_type": "mouselab-mdp", "withholdReward": false}, "uniqueid": "w13462376:a63428357"}, {"current_trial": 30, "dateTime": 1693482253155, "trialdata": {"actionTimes": [2564, 3194, 3784, 4409, 4999], "actions": ["left", "left", "left", "up", "left"], "block": "test", "clicked_states": [], "costs": 0, "displayed_time": "16.06", "internal_node_id": "0.0-6.0-1.0-15.0", "num_clicks_accrued": [0, 0, 0, 0, 0, 0, 0, 0, 0, 0, 0, 0, 0], "path": ["0", "0", "23", "24", "25", "26", "29"], "queries": {"click": {"edge": {"target": [], "time": []}, "state": {"target": [], "time": []}}, "mouseout": {"edge": {"target": [], "time": []}, "state": {"target": ["0"], "time": [12520]}}, "mouseover": {"edge": {"target": [], "time": []}, "state": {"target": [], "time": []}}}, "revealed_states": [], "rewards": [1, -1, -7, -16, -45], "rt": [545, 104, 76, 101, 75], "score": -68, "simulationMode": [null, null, null, null, null], "stateRewards": ["", 2, 3, 6, -5, -74, -53, 17, -12, 46, 44, 18, -2, 4, 1, -8, 22, -23, -49, 9, -45, 55, 81, 1, -1, -7, -16, -83, -71, -45, 2, 51, 82, 61], "time_elapsed": 1533295, "trialIndex": 19, "trialTime": 18019, "trial_id": "mdp_trial_16", "trial_index": 30, "trial_type": "mouselab-mdp", "withholdReward": false}, "uniqueid": "w13462376:a63428357"}, {"current_trial": 31, "dateTime": 1693482272570, "trialdata": {"actionTimes": [9147, 10618, 11157, 11869, 12411, 13073], "actions": ["right", "up", "up", "up", "right", "up"], "block": "test", "clicked_states": ["33", "17", "5"], "costs": -4.199999999999999, "displayed_time": "15.41", "internal_node_id": "0.0-6.0-1.0-16.0", "num_clicks_accrued": [0, 0, 0, 0, 0, 0, 0, 0, 0, 0, 0, 0, 0], "path": ["0", "0", "1", "2", "3", "4", "5"], "queries": {"click": {"edge": {"target": [], "time": []}, "state": {"target": ["33", "17", "5"], "time": [2877, 4721, 8263]}}, "mouseout": {"edge": {"target": [], "time": []}, "state": {"target": ["0", "23", "31", "30", "33", "30", "23", "12", "17", "15", "4", "5", "4"], "time": [1674, 1774, 1874, 2674, 3174, 3208, 3242, 3277, 5258, 5314, 5427, 17323, 17976]}}, "mouseover": {"edge": {"target": [], "time": []}, "state": {"target": ["23", "31", "30", "33", "30", "23", "12", "17", "15", "4", "5"], "time": [1740, 1824, 1890, 2740, 3191, 3225, 3260, 3708, 5291, 5388, 5472]}}}, "revealed_states": [], "rewards": [-1, -4, -1, -11, 43], "rt": [7740, 1466, 30, 192, 11, 131], "score": 21.8, "simulationMode": [null, null, null, null, null, null], "stateRewards": ["", -1, -4, -1, -11, 43, 69, 39, 4, 17, -20, -82, -2, -1, 4, 8, -79, 24, -79, 11, 36, 64, 41, 2, 4, -1, 11, -79, -47, 75, -3, 63, -36, -19], "time_elapsed": 1552701, "trialIndex": 20, "trialTime": 18244, "trial_id": "mdp_trial_17", "trial_index": 31, "trial_type": "mouselab-mdp", "withholdReward": false}, "uniqueid": "w13462376:a63428357"}, {"current_trial": 32, "dateTime": 1693482379751, "trialdata": {"actionTimes": [13408, 23949, 55914, 59991, 88959], "actions": ["right", "right", "right", "down", "down"], "block": "test", "clicked_states": ["9", "20", "33"], "costs": -4.199999999999999, "displayed_time": "89.45", "internal_node_id": "0.0-6.0-1.0-17.0", "num_clicks_accrued": [0, 0, 0, 0, 0, 0, 0, 0, 0, 0, 0, 0, 0], "path": ["0", "0", "12", "13", "14", "19", "21"], "queries": {"click": {"edge": {"target": [], "time": []}, "state": {"target": ["9", "20", "33"], "time": [4890, 8010, 10647]}}, "mouseout": {"edge": {"target": [], "time": []}, "state": {"target": ["0", "8", "9", "4", "16", "15", "14", "20", "19", "22", "30", "33", "13", "13", "12", "13", "12", "12", "20", "19", "22", "12", "1"], "time": [4352, 4442, 5759, 5931, 7075, 7159, 7325, 8792, 8853, 8879, 10109, 33216, 33890, 42957, 45247, 52456, 52877, 84098, 87172, 92755, 92955, 93638, 93871]}}, "mouseover": {"edge": {"target": [], "time": []}, "state": {"target": ["8", "9", "4", "16", "15", "14", "20", "19", "22", "30", "33"], "time": [4397, 4525, 5914, 7035, 7125, 7191, 7442, 8825, 8857, 9375, 10525]}}}, "revealed_states": [], "rewards": [-1, -4, -5, -3, -37], "rt": [10175, 8856, 10504, 2820, 28365], "score": -54.2, "simulationMode": [null, null, null, null, null], "stateRewards": ["", -2, 2, -5, -6, 10, -66, -58, -10, -11, -63, -70, -1, -4, -5, 7, 66, -64, -43, -3, 45, -37, 4, -2, -2, -6, -4, -30, 33, 43, 15, -32, -65, -59], "time_elapsed": 1659807, "trialIndex": 21, "trialTime": 103523, "trial_id": "mdp_trial_18", "trial_index": 32, "trial_type": "mouselab-mdp", "withholdReward": false}, "uniqueid": "w13462376:a63428357"}, {"current_trial": 33, "dateTime": 1693482848676, "trialdata": {"actionTimes": [417357, 417943, 418704, 419330, 420020], "actions": ["left", "left", "left", "up", "left"], "block": "test", "clicked_states": ["29", "6"], "costs": -2.8, "displayed_time": "423.66", "internal_node_id": "0.0-6.0-1.0-18.0", "num_clicks_accrued": [0, 0, 0, 0, 0, 0, 0, 0, 0, 0, 0, 0, 0], "path": ["0", "0", "23", "24", "25", "26", "29"], "queries": {"click": {"edge": {"target": [], "time": []}, "state": {"target": ["29", "6"], "time": [412067, 415067]}}, "mouseout": {"edge": {"target": [], "time": []}, "state": {"target": ["33", "27", "19", "12", "0", "0", "23", "24", "25", "26", "29", "27", "25", "28", "10", "4", "6", "6"], "time": [157731, 214952, 406978, 407091, 407532, 410500, 410650, 410733, 411383, 411500, 412104, 413200, 413710, 414039, 414101, 414216, 414666, 422716]}}, "mouseover": {"edge": {"target": [], "time": []}, "state": {"target": ["0", "23", "24", "25", "26", "29", "27", "25", "28", "10", "4", "6", "6"], "time": [409773, 410582, 410682, 410788, 411467, 411599, 412950, 413300, 414018, 414067, 414167, 414521, 415030]}}}, "revealed_states": [], "rewards": [-1, -3, 6, -16, 28], "rt": [7735, 73, 251, 110, 167], "score": 11.2, "simulationMode": [null, null, null, null, null], "stateRewards": ["", 2, 4, 4, 9, -88, -10, 44, 16, -54, 64, 78, 1, 2, 5, 16, 80, 36, 7, -4, 9, -47, -70, -1, -3, 6, -16, 11, 80, 28, 8, -1, 34, -17], "time_elapsed": 2128785, "trialIndex": 22, "trialTime": 426397, "trial_id": "mdp_trial_19", "trial_index": 33, "trial_type": "mouselab-mdp", "withholdReward": false}, "uniqueid": "w13462376:a63428357"}], "questiondata": {"params": {"CODE": "C6DMOQA6", "MIN_TIME": 14, "inspectCost": 1, "startTime": "Thu Aug 31 2023 14:02:51 GMT+0200 (South Africa Standard Time)", "bonusRate": 0.002, "variance": "1_2_4_8_44", "branching": "31123"}}, "eventdata": [{"eventtype": "initialized", "interval": 0, "timestamp": 1693480715192, "value": null}, {"eventtype": "window_resize", "interval": 0, "timestamp": 1693480715192, "value": [1024, 668]}, {"eventtype": "window_resize", "interval": 512, "timestamp": 1693480715704, "value": [1024, 668]}, {"eventtype": "focus", "interval": 7950, "timestamp": 1693480723654, "value": "off"}, {"eventtype": "focus", "interval": 11157, "timestamp": 1693480734811, "value": "on"}, {"eventtype": "window_resize", "interval": 2727, "timestamp": 1693480737538, "value": [1366, 672]}, {"eventtype": "window_resize", "interval": 1880, "timestamp": 1693480739418, "value": [1366, 768]}, {"eventtype": "focus", "interval": 772831, "timestamp": 1693481512249, "value": "off"}, {"eventtype": "focus", "interval": 1, "timestamp": 1693481512250, "value": "on"}, {"eventtype": "window_resize", "interval": 224, "timestamp": 1693481512474, "value": [1366, 672]}, {"eventtype": "window_resize", "interval": 1648, "timestamp": 1693481514122, "value": [1366, 768]}, {"eventtype": "focus", "interval": 978438, "timestamp": 1693482492560, "value": "off"}, {"eventtype": "focus", "interval": 1590, "timestamp": 1693482494150, "value": "on"}, {"eventtype": "window_resize", "interval": 2540, "timestamp": 1693482496690, "value": [1366, 672]}, {"eventtype": "window_resize", "interval": 99604, "timestamp": 1693482596294, "value": [1024, 668]}, {"eventtype": "focus", "interval": 59948, "timestamp": 1693482656242, "value": "off"}, {"eventtype": "focus", "interval": 137012, "timestamp": 1693482793254, "value": "on"}, {"eventtype": "window_resize", "interval": 4796, "timestamp": 1693482798050, "value": [1366, 672]}, {"eventtype": "window_resize", "interval": 29144, "timestamp": 1693482827194, "value": [1366, 733]}, {"eventtype": "window_resize", "value": [1362, 668], "timestamp": 1693483370164, "interval": 542970}], "useragent": "Mozilla/5.0 (X11; Linux x86_64) AppleWebKit/537.36 (KHTML, like Gecko) Chrome/115.0.0.0 Safari/537.36", "mode": "live", "id": "w13462376:a63428357", "status": "user data saved", "Beginhit": "2023-08-31 11:18:30.490683", "Beginexp": "2023-08-31 11:19:00.345771", "Endhit": null, "psiturkStatus": 2, "browser": "<redacted>", "platform": "linux", "language": "en-ZA", "excludeReason": "dataincomplete"}