{"condition": 0, "counterbalance": 0, "assignmentId": "a32233650", "workerId": "w31327541", "hitId": "h53634194", "currenttrial": 55, "bonus": 0, "data": [{"uniqueid": "w31327541:a32233650", "current_trial": 0, "dateTime": 1693571527553, "trialdata": {"success": true, "trial_type": "fullscreen", "trial_index": 0, "time_elapsed": 5433, "internal_node_id": "0.0-0.0"}}, {"uniqueid": "w31327541:a32233650", "current_trial": 1, "dateTime": 1693571544472, "trialdata": {"view_history": [{"page_index": 0, "viewing_time": 16916}], "rt": 16916, "trial_id": "exp_instructions_control", "trial_type": "instructions", "trial_index": 1, "time_elapsed": 22352, "internal_node_id": "0.0-1.0"}}, {"uniqueid": "w31327541:a32233650", "current_trial": 2, "dateTime": 1693571743730, "trialdata": {"view_history": [{"page_index": 0, "viewing_time": 64593}, {"page_index": 1, "viewing_time": 83116}, {"page_index": 2, "viewing_time": 18894}, {"page_index": 3, "viewing_time": 32653}], "rt": 199256, "trial_id": "mouselab_instructions_1_control", "trial_type": "instructions", "trial_index": 2, "time_elapsed": 221609, "internal_node_id": "0.0-2.0-1.0"}}, {"uniqueid": "w31327541:a32233650", "current_trial": 3, "dateTime": 1693571765918, "trialdata": {"revealed_states": [], "clicked_states": ["23", "24"], "num_clicks_accrued": [0, 0, 0, 0, 0, 0, 0, 0, 0, 0, 0, 0, 0], "stateRewards": ["", -10, 10, 10, -10, 10, 10, -10, 10, -10, -10, -10, 10, 10, -10, 10, -10, -10, 10, -10, 10, -10, -10, 10, 10, -10, 10, 10, -10, -10, -10, 10, -10, 10], "withholdReward": false, "trial_id": "practice_1", "block": "test", "trialIndex": 0, "score": 12.5, "costs": -1, "simulationMode": [null, null, null, null, null], "rewards": [10, 10, -10, 10, -10], "path": ["0", "0", "23", "24", "25", "26", "28"], "rt": [8550, 215, 175, 1822, 180], "actions": ["left", "left", "left", "up", "right"], "actionTimes": [10772, 11541, 12279, 14629, 15366], "queries": {"click": {"state": {"target": ["23", "24"], "time": [4384, 6315]}, "edge": {"target": [], "time": []}}, "mouseover": {"state": {"target": ["23", "24", "25"], "time": [3250, 5615, 6986]}, "edge": {"target": [], "time": []}}, "mouseout": {"state": {"target": ["12", "0", "23", "24", "25", "24"], "time": [431, 1672, 5311, 6858, 10457, 18359]}, "edge": {"target": [], "time": []}}}, "displayed_time": "15.90", "trialTime": 21778, "trial_type": "mouselab-mdp", "trial_index": 3, "time_elapsed": 243798, "internal_node_id": "0.0-2.0-2.0-0.0"}}, {"uniqueid": "w31327541:a32233650", "current_trial": 4, "dateTime": 1693571781717, "trialdata": {"revealed_states": [], "clicked_states": [], "num_clicks_accrued": [0, 0, 0, 0, 0, 0, 0, 0, 0, 0, 0, 0, 0], "stateRewards": ["", -10, 10, 10, -10, -10, -10, 10, 10, -10, 10, 10, 10, -10, 10, 10, -10, 10, -10, -10, -10, 10, 10, -10, 10, -10, 10, 10, -10, 10, 10, -10, -10, 10], "withholdReward": false, "trial_id": "practice_2", "block": "test", "trialIndex": 1, "score": 13.5, "costs": 0, "simulationMode": [null, null, null, null, null], "rewards": [10, -10, 10, -10, 10], "path": ["0", "0", "12", "13", "14", "19", "22"], "rt": [3183, 302, 443, 807, 475], "actions": ["right", "right", "right", "down", "left"], "actionTimes": [7701, 8541, 9527, 10853, 11852], "queries": {"click": {"state": {"target": [], "time": []}, "edge": {"target": [], "time": []}}, "mouseover": {"state": {"target": [], "time": []}, "edge": {"target": [], "time": []}}, "mouseout": {"state": {"target": ["23"], "time": [3762]}, "edge": {"target": [], "time": []}}}, "displayed_time": "12.38", "trialTime": 15426, "trial_type": "mouselab-mdp", "trial_index": 4, "time_elapsed": 259597, "internal_node_id": "0.0-2.0-2.0-1.0"}}, {"uniqueid": "w31327541:a32233650", "current_trial": 5, "dateTime": 1693571812694, "trialdata": {"view_history": [{"page_index": 0, "viewing_time": 25571}, {"page_index": 1, "viewing_time": 5402}], "rt": 30973, "trial_id": "mouselab_instructions_2_control", "trial_type": "instructions", "trial_index": 5, "time_elapsed": 290574, "internal_node_id": "0.0-2.0-3.0"}}, {"uniqueid": "w31327541:a32233650", "current_trial": 6, "dateTime": 1693571861567, "trialdata": {"rt": 48868, "response": {"Q0": "The cost for clicking on nodes may vary between nodes.", "Q1": "The better I perform the higher my bonus will be.", "Q2": "No, the amount of cash at each node of the web may be different each time.", "Q3": "To get the highest total score.", "Q4": "Only before moving the spider.", "Q5": "3 seconds"}, "question_order": [0, 1, 2, 3, 4, 5], "correct": {"Q0": "The cost for clicking on nodes may vary between nodes.", "Q1": "The better I perform the higher my bonus will be.", "Q2": "No, the amount of cash at each node of the web may be different each time.", "Q3": "To get the highest total score.", "Q4": "Only before moving the spider.", "Q5": "3 seconds"}, "trial_id": "mouselab_quiz_control", "trial_type": "survey-multi-choice", "trial_index": 6, "time_elapsed": 339447, "internal_node_id": "0.0-2.0-4.0"}}, {"uniqueid": "w31327541:a32233650", "current_trial": 7, "dateTime": 1693571868468, "trialdata": {"rt": 6896, "response": {"Q0": "No"}, "question_order": [0], "trial_id": "repeat_check", "trial_type": "survey-multi-choice", "trial_index": 7, "time_elapsed": 346348, "internal_node_id": "0.0-4.0-0.0"}}, {"uniqueid": "w31327541:a32233650", "current_trial": 8, "dateTime": 1693571876693, "trialdata": {"rt": 8221, "stimulus": "\n<h1> Get ready to start the game! </h1>\n\nThank you for reading the instructions. Get ready start with the 40 rounds of this game.\n<br><br>\nIf you need to take a break, feel free to take one after the end of a round, before continuing to the next one.\n<br><br>\nRemember, the more money the spider gets, the bigger your bonus will be!\n<br><br>\n<div style='text-align: center;'>Press <code>space</code> to begin.</div>\n\n<br><br>\n(If, at any point, the <code>space</code> key does not take you to the next page, click once on the text and try again.)", "response": " ", "trial_id": "mdp_ready", "trial_type": "html-keyboard-response", "trial_index": 8, "time_elapsed": 354572, "internal_node_id": "0.0-6.0-0.0"}}, {"uniqueid": "w31327541:a32233650", "current_trial": 9, "dateTime": 1693571896178, "trialdata": {"revealed_states": [], "clicked_states": [], "num_clicks_accrued": [0, 0, 0, 0, 0, 0, 0, 0, 0, 0, 0, 0, 0], "stateRewards": ["", -1, 3, -7, 16, -32, -74, -48, 2, 10, 15, -30, 1, 1, -2, 10, 12, -83, 67, 13, -66, 47, 65, -2, 4, 2, -14, -8, -57, 24, 9, 65, 12, 46], "withholdReward": false, "trial_id": "mdp_trial_1", "block": "test", "trialIndex": 2, "score": 59, "costs": 0, "simulationMode": [null, null, null, null, null], "rewards": [-2, 4, 2, 9, 46], "path": ["0", "0", "23", "24", "25", "30", "33"], "rt": [2430, 928, 1475, 973, 1082], "actions": ["left", "left", "left", "down", "left"], "actionTimes": [4722, 6173, 8196, 9684, 11286], "queries": {"click": {"state": {"target": [], "time": []}, "edge": {"target": [], "time": []}}, "mouseover": {"state": {"target": [], "time": []}, "edge": {"target": [], "time": []}}, "mouseout": {"state": {"target": ["9", "2", "1"], "time": [1399, 1456, 1508]}, "edge": {"target": [], "time": []}}}, "displayed_time": "16.54", "trialTime": 19109, "trial_type": "mouselab-mdp", "trial_index": 9, "time_elapsed": 374058, "internal_node_id": "0.0-6.0-1.0-0.0"}}, {"uniqueid": "w31327541:a32233650", "current_trial": 10, "dateTime": 1693571919393, "trialdata": {"revealed_states": [], "clicked_states": [], "num_clicks_accrued": [0, 0, 0, 0, 0, 0, 0, 0, 0, 0, 0, 0, 0], "stateRewards": ["", 1, -3, 4, 13, -72, 52, 5, 5, -58, 5, 14, 2, 1, 3, -14, -86, -4, 73, 6, -58, -50, 49, 2, -3, -4, 2, 33, -41, 42, -11, 81, 45, 53], "withholdReward": false, "trial_id": "mdp_trial_2", "block": "test", "trialIndex": 3, "score": -51, "costs": 0, "simulationMode": [null, null, null, null, null], "rewards": [1, -3, 4, 5, -58], "path": ["0", "0", "1", "2", "3", "8", "9"], "rt": [1661, 1361, 3910, 2462, 498], "actions": ["up", "up", "up", "left", "up"], "actionTimes": [6525, 8427, 12855, 15864, 16888], "queries": {"click": {"state": {"target": [], "time": []}, "edge": {"target": [], "time": []}}, "mouseover": {"state": {"target": [], "time": []}, "edge": {"target": [], "time": []}}, "mouseout": {"state": {"target": ["0", "0"], "time": [2256, 3117]}, "edge": {"target": [], "time": []}}}, "displayed_time": "19.17", "trialTime": 22889, "trial_type": "mouselab-mdp", "trial_index": 10, "time_elapsed": 397272, "internal_node_id": "0.0-6.0-1.0-1.0"}}, {"uniqueid": "w31327541:a32233650", "current_trial": 11, "dateTime": 1693571939420, "trialdata": {"revealed_states": [], "clicked_states": [], "num_clicks_accrued": [0, 0, 0, 0, 0, 0, 0, 0, 0, 0, 0, 0, 0], "stateRewards": ["", 2, -1, -1, 7, 11, -40, -22, -2, 69, 37, 8, -2, 4, -8, -12, -2, -72, -3, -12, 17, 63, 12, 1, 3, -7, 6, 25, 61, 61, -9, 28, -17, 27], "withholdReward": false, "trial_id": "mdp_trial_3", "block": "test", "trialIndex": 4, "score": -21, "costs": 0, "simulationMode": [null, null, null, null, null], "rewards": [-2, 4, -8, -12, -3], "path": ["0", "0", "12", "13", "14", "15", "18"], "rt": [1896, 641, 494, 519, 857], "actions": ["right", "right", "right", "up", "left"], "actionTimes": [5223, 6374, 7387, 8437, 9837], "queries": {"click": {"state": {"target": [], "time": []}, "edge": {"target": [], "time": []}}, "mouseover": {"state": {"target": [], "time": []}, "edge": {"target": [], "time": []}}, "mouseout": {"state": {"target": ["0"], "time": [2632]}, "edge": {"target": [], "time": []}}}, "displayed_time": "17.54", "trialTime": 19688, "trial_type": "mouselab-mdp", "trial_index": 11, "time_elapsed": 417298, "internal_node_id": "0.0-6.0-1.0-2.0"}}, {"uniqueid": "w31327541:a32233650", "current_trial": 12, "dateTime": 1693571961242, "trialdata": {"revealed_states": [], "clicked_states": [], "num_clicks_accrued": [0, 0, 0, 0, 0, 0, 0, 0, 0, 0, 0, 0, 0], "stateRewards": ["", -2, -1, -1, 5, -54, -87, 35, 2, -8, 20, -22, 1, 3, 6, 13, -75, -32, -55, -3, 56, 62, -22, -1, -4, -1, -7, -51, 84, 70, 7, -15, 5, 55], "withholdReward": false, "trial_id": "mdp_trial_4", "block": "test", "trialIndex": 5, "score": 57, "costs": 0, "simulationMode": [null, null, null, null, null], "rewards": [-1, -4, -1, -7, 70], "path": ["0", "0", "23", "24", "25", "26", "29"], "rt": [2561, 825, 1026, 538, 345], "actions": ["left", "left", "left", "up", "left"], "actionTimes": [6618, 7993, 9543, 10630, 11493], "queries": {"click": {"state": {"target": [], "time": []}, "edge": {"target": [], "time": []}}, "mouseover": {"state": {"target": [], "time": []}, "edge": {"target": [], "time": []}}, "mouseout": {"state": {"target": ["0", "1"], "time": [2116, 2450]}, "edge": {"target": [], "time": []}}}, "displayed_time": "18.37", "trialTime": 21454, "trial_type": "mouselab-mdp", "trial_index": 12, "time_elapsed": 439122, "internal_node_id": "0.0-6.0-1.0-3.0"}}, {"uniqueid": "w31327541:a32233650", "current_trial": 13, "dateTime": 1693571989942, "trialdata": {"revealed_states": [], "clicked_states": ["28", "18", "22", "31", "11"], "num_clicks_accrued": [0, 0, 0, 0, 0, 0, 0, 0, 0, 0, 0, 0, 0], "stateRewards": ["", 1, 3, -2, 15, 51, 15, -19, 11, 67, -45, -73, 2, 4, -2, -13, 36, 9, -28, 10, -30, 31, 16, 1, 2, -1, -16, 14, -22, 36, -1, 88, -5, 45], "withholdReward": false, "trial_id": "mdp_trial_5", "block": "test", "trialIndex": 6, "score": -11, "costs": -7, "simulationMode": [null, null, null, null, null], "rewards": [1, 2, -1, -1, -5], "path": ["0", "0", "23", "24", "25", "30", "32"], "rt": [18478, 397, 363, 511, 222], "actions": ["left", "left", "left", "down", "down"], "actionTimes": [21623, 22548, 23435, 24485, 25223], "queries": {"click": {"state": {"target": ["28", "18", "22", "31", "11"], "time": [5273, 8455, 11012, 12836, 15568]}, "edge": {"target": [], "time": []}}, "mouseover": {"state": {"target": ["23", "28", "28", "18", "18", "22", "31", "24", "28", "11"], "time": [3922, 4214, 4705, 6308, 6680, 10620, 12402, 13647, 13726, 15190]}, "edge": {"target": [], "time": []}}, "mouseout": {"state": {"target": ["0", "23", "28", "28", "18", "18", "22", "31", "24", "28", "11"], "time": [2259, 4083, 4299, 6190, 6460, 10014, 11687, 13570, 13684, 14214, 16681]}, "edge": {"target": [], "time": []}}}, "displayed_time": "25.74", "trialTime": 28347, "trial_type": "mouselab-mdp", "trial_index": 13, "time_elapsed": 467822, "internal_node_id": "0.0-6.0-1.0-4.0"}}, {"uniqueid": "w31327541:a32233650", "current_trial": 14, "dateTime": 1693572012567, "trialdata": {"revealed_states": [], "clicked_states": [], "num_clicks_accrued": [0, 0, 0, 0, 0, 0, 0, 0, 0, 0, 0, 0, 0], "stateRewards": ["", -2, -4, -8, 8, 63, -50, -19, -7, -17, -31, 31, 1, 3, -5, 12, -35, -63, -29, -4, -17, -75, -79, -2, -3, -2, 8, -3, -85, 10, -2, -82, -82, 56], "withholdReward": false, "trial_id": "mdp_trial_6", "block": "test", "trialIndex": 7, "score": -91, "costs": 0, "simulationMode": [null, null, null, null, null], "rewards": [-2, -3, -2, -2, -82], "path": ["0", "0", "23", "24", "25", "30", "31"], "rt": [2018, 247, 279, 262, 696], "actions": ["left", "left", "left", "down", "right"], "actionTimes": [7751, 8564, 9388, 10189, 11440], "queries": {"click": {"state": {"target": [], "time": []}, "edge": {"target": [], "time": []}}, "mouseover": {"state": {"target": [], "time": []}, "edge": {"target": [], "time": []}}, "mouseout": {"state": {"target": ["1"], "time": [4913]}, "edge": {"target": [], "time": []}}}, "displayed_time": "20.14", "trialTime": 22251, "trial_type": "mouselab-mdp", "trial_index": 14, "time_elapsed": 490447, "internal_node_id": "0.0-6.0-1.0-5.0"}}, {"uniqueid": "w31327541:a32233650", "current_trial": 15, "dateTime": 1693572033741, "trialdata": {"revealed_states": [], "clicked_states": ["22"], "num_clicks_accrued": [0, 0, 0, 0, 0, 0, 0, 0, 0, 0, 0, 0, 0], "stateRewards": ["", 1, 3, 1, -13, 52, -28, 67, -14, 3, 63, -70, -1, -4, 7, -11, -10, 47, -18, 6, 69, -9, -61, 2, 3, -6, 10, 63, -34, 40, -6, -79, -35, -32], "withholdReward": false, "trial_id": "mdp_trial_7", "block": "test", "trialIndex": 8, "score": -40.4, "costs": -1.4, "simulationMode": [null, null, null, null, null], "rewards": [2, 3, -6, -6, -32], "path": ["0", "0", "23", "24", "25", "30", "33"], "rt": [9655, 524, 372, 174, 289], "actions": ["left", "left", "left", "down", "left"], "actionTimes": [14308, 15347, 16261, 16948, 17773], "queries": {"click": {"state": {"target": ["22"], "time": [5973]}, "edge": {"target": [], "time": []}}, "mouseover": {"state": {"target": ["0", "12", "22", "31", "31", "30", "33", "33"], "time": [4911, 5272, 5680, 8559, 9560, 9658, 10257, 10655]}, "edge": {"target": [], "time": []}}, "mouseout": {"state": {"target": ["0", "0", "12", "22", "31", "31", "30", "33"], "time": [3404, 5213, 5311, 6646, 8604, 9622, 9996, 10312]}, "edge": {"target": [], "time": []}}}, "displayed_time": "19.00", "trialTime": 20821, "trial_type": "mouselab-mdp", "trial_index": 15, "time_elapsed": 511621, "internal_node_id": "0.0-6.0-1.0-6.0"}}, {"uniqueid": "w31327541:a32233650", "current_trial": 16, "dateTime": 1693572054330, "trialdata": {"revealed_states": [], "clicked_states": [], "num_clicks_accrued": [0, 0, 0, 0, 0, 0, 0, 0, 0, 0, 0, 0, 0], "stateRewards": ["", -1, 1, 6, -6, 70, 66, 67, -16, -75, -35, 37, -1, 4, 4, -6, 47, -9, 63, 15, 21, -63, 13, 1, 3, -6, 10, 79, -29, 18, -15, 9, -67, -19], "withholdReward": false, "trial_id": "mdp_trial_8", "block": "test", "trialIndex": 9, "score": 27, "costs": 0, "simulationMode": [null, null, null, null, null], "rewards": [-1, 1, 6, -16, 37], "path": ["0", "0", "1", "2", "3", "8", "11"], "rt": [1097, 451, 331, 222, 1122], "actions": ["up", "up", "up", "left", "left"], "actionTimes": [4781, 5783, 6631, 7395, 9057], "queries": {"click": {"state": {"target": [], "time": []}, "edge": {"target": [], "time": []}}, "mouseover": {"state": {"target": [], "time": []}, "edge": {"target": [], "time": []}}, "mouseout": {"state": {"target": ["33", "30"], "time": [2050, 2268]}, "edge": {"target": [], "time": []}}}, "displayed_time": "18.16", "trialTime": 20219, "trial_type": "mouselab-mdp", "trial_index": 16, "time_elapsed": 532209, "internal_node_id": "0.0-6.0-1.0-7.0"}}, {"uniqueid": "w31327541:a32233650", "current_trial": 17, "dateTime": 1693572073231, "trialdata": {"revealed_states": [], "clicked_states": [], "num_clicks_accrued": [0, 0, 0, 0, 0, 0, 0, 0, 0, 0, 0, 0, 0], "stateRewards": ["", -2, 3, 8, -9, 59, 41, -50, -1, 82, 66, 33, 2, -2, 7, 8, 1, -38, 12, -16, 24, -37, 67, 1, 4, -2, 5, 35, -83, 28, 8, -27, 69, -64], "withholdReward": false, "trial_id": "mdp_trial_9", "block": "test", "trialIndex": 10, "score": 59, "costs": 0, "simulationMode": [null, null, null, null, null], "rewards": [-2, 3, 8, -9, 59], "path": ["0", "0", "1", "2", "3", "4", "5"], "rt": [1546, 556, 964, 243, 410], "actions": ["up", "up", "up", "right", "up"], "actionTimes": [3846, 4921, 6408, 7207, 8160], "queries": {"click": {"state": {"target": [], "time": []}, "edge": {"target": [], "time": []}}, "mouseover": {"state": {"target": [], "time": []}, "edge": {"target": [], "time": []}}, "mouseout": {"state": {"target": ["0"], "time": [1743]}, "edge": {"target": [], "time": []}}}, "displayed_time": "16.74", "trialTime": 18546, "trial_type": "mouselab-mdp", "trial_index": 17, "time_elapsed": 551111, "internal_node_id": "0.0-6.0-1.0-8.0"}}, {"uniqueid": "w31327541:a32233650", "current_trial": 18, "dateTime": 1693572093241, "trialdata": {"revealed_states": [], "clicked_states": ["29"], "num_clicks_accrued": [0, 0, 0, 0, 0, 0, 0, 0, 0, 0, 0, 0, 0], "stateRewards": ["", -1, 3, 8, 10, -86, 61, -36, 10, 17, -60, 24, -1, -3, 3, 11, 50, 60, 33, -3, -20, 58, -6, 1, -4, -4, 13, -70, -71, 43, 14, 52, 82, -11], "withholdReward": false, "trial_id": "mdp_trial_10", "block": "test", "trialIndex": 11, "score": 47.6, "costs": -1.4, "simulationMode": [null, null, null, null, null], "rewards": [1, -4, -4, 13, 43], "path": ["0", "0", "23", "24", "25", "26", "29"], "rt": [4207, 411, 130, 1832, 61], "actions": ["left", "left", "left", "up", "left"], "actionTimes": [7087, 8039, 8714, 11089, 11675], "queries": {"click": {"state": {"target": ["29"], "time": [5131]}, "edge": {"target": [], "time": []}}, "mouseover": {"state": {"target": ["23", "24", "29", "1"], "time": [3795, 4126, 4728, 5579]}, "edge": {"target": [], "time": []}}, "mouseout": {"state": {"target": ["0", "23", "24", "29", "1"], "time": [1520, 3847, 4175, 5501, 5619]}, "edge": {"target": [], "time": []}}}, "displayed_time": "17.39", "trialTime": 19676, "trial_type": "mouselab-mdp", "trial_index": 18, "time_elapsed": 571121, "internal_node_id": "0.0-6.0-1.0-9.0"}}, {"uniqueid": "w31327541:a32233650", "current_trial": 19, "dateTime": 1693572111429, "trialdata": {"revealed_states": [], "clicked_states": ["22"], "num_clicks_accrued": [0, 0, 0, 0, 0, 0, 0, 0, 0, 0, 0, 0, 0], "stateRewards": ["", -2, -3, 1, -14, 48, -49, 67, -1, -35, -48, 3, -2, 1, -4, -5, 86, -84, 39, 1, 48, 41, -42, -1, -4, 2, -7, 18, -86, 17, 7, -9, 57, -69], "withholdReward": false, "trial_id": "mdp_trial_11", "block": "test", "trialIndex": 12, "score": -54.4, "costs": -1.4, "simulationMode": [null, null, null, null, null], "rewards": [-2, -3, 1, -1, -48], "path": ["0", "0", "1", "2", "3", "8", "10"], "rt": [4059, 182, 314, 181, 299], "actions": ["up", "up", "up", "left", "down"], "actionTimes": [6152, 6879, 7704, 8404, 9254], "queries": {"click": {"state": {"target": ["22"], "time": [3369]}, "edge": {"target": [], "time": []}}, "mouseover": {"state": {"target": ["12", "13", "22", "19"], "time": [2479, 2570, 3059, 4553]}, "edge": {"target": [], "time": []}}, "mouseout": {"state": {"target": ["12", "13", "22"], "time": [2533, 2789, 4513]}, "edge": {"target": [], "time": []}}}, "displayed_time": "16.49", "trialTime": 17828, "trial_type": "mouselab-mdp", "trial_index": 19, "time_elapsed": 589309, "internal_node_id": "0.0-6.0-1.0-10.0"}}, {"uniqueid": "w31327541:a32233650", "current_trial": 20, "dateTime": 1693572130343, "trialdata": {"revealed_states": [], "clicked_states": ["32"], "num_clicks_accrued": [0, 0, 0, 0, 0, 0, 0, 0, 0, 0, 0, 0, 0], "stateRewards": ["", -1, -3, -6, 14, 41, 18, 63, -14, 80, 21, 17, -2, -4, -2, -5, 13, 70, 8, -4, -64, -10, -20, 2, -1, 4, -1, -17, -55, 42, -7, 47, 54, 15], "withholdReward": false, "trial_id": "mdp_trial_12", "block": "test", "trialIndex": 13, "score": 50.6, "costs": -1.4, "simulationMode": [null, null, null, null, null, null], "rewards": [2, -1, 4, -7, 54], "path": ["0", "0", "23", "24", "25", "30", "32"], "rt": [4233, 764, 147, 197, 249, 82], "actions": ["left", "left", "left", "left", "down", "down"], "actionTimes": [6572, 7340, 8028, 8778, 9566, 10165], "queries": {"click": {"state": {"target": ["32"], "time": [5195]}, "edge": {"target": [], "time": []}}, "mouseover": {"state": {"target": ["32", "32"], "time": [2841, 4873]}, "edge": {"target": [], "time": []}}, "mouseout": {"state": {"target": ["19", "1", "10", "1", "0", "32"], "time": [1382, 1448, 1751, 1827, 2479, 2895]}, "edge": {"target": [], "time": []}}}, "displayed_time": "16.79", "trialTime": 18566, "trial_type": "mouselab-mdp", "trial_index": 20, "time_elapsed": 608222, "internal_node_id": "0.0-6.0-1.0-11.0"}}, {"uniqueid": "w31327541:a32233650", "current_trial": 21, "dateTime": 1693572150592, "trialdata": {"revealed_states": [], "clicked_states": ["29", "27", "28", "31"], "num_clicks_accrued": [0, 0, 0, 0, 0, 0, 0, 0, 0, 0, 0, 0, 0], "stateRewards": ["", 2, 4, -6, -13, -75, -81, 30, 7, 5, 59, -65, -1, -1, 7, 14, -38, 36, -41, 1, -54, -5, 64, 2, -1, 5, 6, -19, 79, 11, 16, -33, -50, 58], "withholdReward": false, "trial_id": "mdp_trial_13", "block": "test", "trialIndex": 14, "score": 85.4, "costs": -5.6, "simulationMode": [null, null, null, null, null, null], "rewards": [2, -1, 5, 6, 79], "path": ["0", "0", "23", "24", "25", "26", "28"], "rt": [8952, 534, 208, 126, 294, 113], "actions": ["left", "left", "left", "left", "up", "right"], "actionTimes": [10945, 11482, 12220, 12895, 13745, 14406], "queries": {"click": {"state": {"target": ["29", "27", "28", "31"], "time": [3860, 5484, 7512, 9506]}, "edge": {"target": [], "time": []}}, "mouseover": {"state": {"target": ["24", "29", "26", "29", "29", "27", "28", "24", "31"], "time": [2090, 2613, 2796, 3177, 3535, 4795, 6507, 8947, 9032]}, "edge": {"target": [], "time": []}}, "mouseout": {"state": {"target": ["32", "30", "23", "0", "24", "29", "26", "29", "29", "27", "28", "24"], "time": [422, 478, 1068, 2054, 2128, 2746, 3035, 3211, 4391, 5830, 8653, 8988]}, "edge": {"target": [], "time": []}}}, "displayed_time": "16.62", "trialTime": 19883, "trial_type": "mouselab-mdp", "trial_index": 21, "time_elapsed": 628472, "internal_node_id": "0.0-6.0-1.0-12.0"}}, {"uniqueid": "w31327541:a32233650", "current_trial": 22, "dateTime": 1693572172272, "trialdata": {"revealed_states": [], "clicked_states": ["22", "20"], "num_clicks_accrued": [0, 0, 0, 0, 0, 0, 0, 0, 0, 0, 0, 0, 0], "stateRewards": ["", -1, -4, -1, -11, 43, 69, 39, 4, 17, -20, -82, -2, -1, 4, 8, -79, 24, -79, 11, 36, 64, 41, 2, 4, -1, 11, -79, -47, 75, -3, 63, -36, -19], "withholdReward": false, "trial_id": "mdp_trial_14", "block": "test", "trialIndex": 15, "score": 50.2, "costs": -2.8, "simulationMode": [null, null, null, null, null], "rewards": [-2, -1, 4, 11, 41], "path": ["0", "0", "12", "13", "14", "19", "22"], "rt": [6952, 59, 211, 94, 400], "actions": ["right", "right", "right", "down", "left"], "actionTimes": [11085, 11683, 12409, 13046, 13960], "queries": {"click": {"state": {"target": ["22", "20"], "time": [6280, 8191]}, "edge": {"target": [], "time": []}}, "mouseover": {"state": {"target": ["12", "21", "22", "21", "20", "21"], "time": [4613, 4976, 5849, 6867, 7989, 9941]}, "edge": {"target": [], "time": []}}, "mouseout": {"state": {"target": ["31", "8", "10", "0", "0", "12", "21", "22", "21", "20", "21", "15", "14"], "time": [1299, 1814, 2025, 2496, 3027, 4663, 5030, 6526, 7432, 8826, 19449, 21111, 21290]}, "edge": {"target": [], "time": []}}}, "displayed_time": "18.62", "trialTime": 21340, "trial_type": "mouselab-mdp", "trial_index": 22, "time_elapsed": 650152, "internal_node_id": "0.0-6.0-1.0-13.0"}}, {"uniqueid": "w31327541:a32233650", "current_trial": 23, "dateTime": 1693572191979, "trialdata": {"revealed_states": [], "clicked_states": ["6", "7", "5"], "num_clicks_accrued": [0, 0, 0, 0, 0, 0, 0, 0, 0, 0, 0, 0, 0], "stateRewards": ["", 2, 3, 6, -12, -29, 12, 87, 4, 35, -30, 67, 2, 3, -5, -9, 44, 69, -8, 1, 45, -8, 28, -2, -1, -8, 11, -12, -5, 81, 9, 87, 82, 88], "withholdReward": false, "trial_id": "mdp_trial_15", "block": "test", "trialIndex": 16, "score": 81.8, "costs": -4.199999999999999, "simulationMode": [null, null, null, null, null], "rewards": [2, 3, 6, -12, 87], "path": ["0", "0", "1", "2", "3", "4", "7"], "rt": [8368, 115, 220, 140, 165], "actions": ["up", "up", "up", "right", "down"], "actionTimes": [11493, 12156, 12895, 13618, 14331], "queries": {"click": {"state": {"target": ["6", "7", "5"], "time": [4587, 6351, 8761]}, "edge": {"target": [], "time": []}}, "mouseover": {"state": {"target": ["16", "6", "7", "4", "7", "4", "5", "5"], "time": [3313, 4085, 4968, 5751, 6093, 6782, 7160, 7549]}, "edge": {"target": [], "time": []}}, "mouseout": {"state": {"target": ["17", "15", "23", "0", "16", "6", "7", "4", "7", "4", "5", "5"], "time": [1446, 1598, 2432, 3247, 3335, 4929, 5678, 6017, 6433, 7119, 7199, 9362]}, "edge": {"target": [], "time": []}}}, "displayed_time": "17.66", "trialTime": 19355, "trial_type": "mouselab-mdp", "trial_index": 23, "time_elapsed": 669858, "internal_node_id": "0.0-6.0-1.0-14.0"}}, {"uniqueid": "w31327541:a32233650", "current_trial": 24, "dateTime": 1693572217017, "trialdata": {"revealed_states": [], "clicked_states": ["11", "9", "10", "7", "6", "5"], "num_clicks_accrued": [0, 0, 0, 0, 0, 0, 0, 0, 0, 0, 0, 0, 0], "stateRewards": ["", 1, -1, 8, 4, 76, -33, -17, -3, -1, -54, -74, -2, 2, -5, 13, -51, 63, 83, 1, 84, 29, -36, 2, -1, 7, -12, -10, -44, -43, -14, 8, -69, 19], "withholdReward": false, "trial_id": "mdp_trial_16", "block": "test", "trialIndex": 17, "score": 79.6, "costs": -8.4, "simulationMode": [null, null, null, null, null], "rewards": [1, -1, 8, 4, 76], "path": ["0", "0", "1", "2", "3", "4", "5"], "rt": [13848, 80, 222, 261, 306], "actions": ["up", "up", "up", "right", "up"], "actionTimes": [15999, 16599, 17338, 18112, 18939], "queries": {"click": {"state": {"target": ["11", "9", "10", "7", "6", "5"], "time": [2919, 4565, 6644, 8351, 10502, 12506]}, "edge": {"target": [], "time": []}}, "mouseover": {"state": {"target": ["10", "11", "10", "8", "9", "10", "2", "7", "6", "5", "3", "8", "28"], "time": [2345, 2479, 3576, 4109, 4234, 5053, 7336, 7874, 9979, 11479, 13216, 13311, 14721]}, "edge": {"target": [], "time": []}}, "mouseout": {"state": {"target": ["6", "28", "24", "10", "11", "10", "8", "9", "9", "10", "2", "7", "6", "5", "3", "8", "28", "28", "24"], "time": [436, 901, 1082, 2429, 3197, 4022, 4193, 4683, 4967, 7213, 7748, 9345, 10901, 13171, 13263, 13406, 14772, 23322, 23430]}, "edge": {"target": [], "time": []}}}, "displayed_time": "19.47", "trialTime": 24675, "trial_type": "mouselab-mdp", "trial_index": 24, "time_elapsed": 694897, "internal_node_id": "0.0-6.0-1.0-15.0"}}, {"uniqueid": "w31327541:a32233650", "current_trial": 25, "dateTime": 1693572237517, "trialdata": {"revealed_states": [], "clicked_states": ["27", "29", "28"], "num_clicks_accrued": [0, 0, 0, 0, 0, 0, 0, 0, 0, 0, 0, 0, 0], "stateRewards": ["", -1, 4, 3, 12, -27, 34, -33, 3, -63, 1, 6, 2, 2, -6, -11, -77, -85, 68, -6, 51, 81, -60, -2, -2, 1, 15, 20, 15, 68, -10, -14, 6, -4], "withholdReward": false, "trial_id": "mdp_trial_17", "block": "test", "trialIndex": 18, "score": 75.8, "costs": -4.199999999999999, "simulationMode": [null, null, null, null, null], "rewards": [-2, -2, 1, 15, 68], "path": ["0", "0", "23", "24", "25", "26", "29"], "rt": [9305, 186, 218, 864, 126], "actions": ["left", "left", "left", "up", "left"], "actionTimes": [11784, 12510, 13242, 14635, 15285], "queries": {"click": {"state": {"target": ["27", "29", "28"], "time": [4041, 6718, 8646]}, "edge": {"target": [], "time": []}}, "mouseover": {"state": {"target": ["23", "28", "26", "27", "29", "29", "26", "28", "28"], "time": [2622, 2733, 3009, 3590, 4661, 6440, 7114, 7160, 7690]}, "edge": {"target": [], "time": []}}, "mouseout": {"state": {"target": ["23", "0", "23", "28", "26", "27", "29", "29", "26", "28"], "time": [773, 2600, 2663, 2801, 3241, 4363, 6031, 7076, 7156, 7194]}, "edge": {"target": [], "time": []}}}, "displayed_time": "17.02", "trialTime": 20148, "trial_type": "mouselab-mdp", "trial_index": 25, "time_elapsed": 715397, "internal_node_id": "0.0-6.0-1.0-16.0"}}, {"uniqueid": "w31327541:a32233650", "current_trial": 26, "dateTime": 1693572258054, "trialdata": {"revealed_states": [], "clicked_states": ["22", "21", "20"], "num_clicks_accrued": [0, 0, 0, 0, 0, 0, 0, 0, 0, 0, 0, 0, 0], "stateRewards": ["", -2, 3, -5, -7, 66, 43, -60, -4, -70, -75, 4, -1, 2, 2, -13, 54, 11, -40, -1, 77, 32, 15, -2, 3, -8, -9, -35, 83, -27, 6, -74, -34, 44], "withholdReward": false, "trial_id": "mdp_trial_18", "block": "test", "trialIndex": 19, "score": 74.8, "costs": -4.199999999999999, "simulationMode": [null, null, null, null, null], "rewards": [-1, 2, 2, -1, 77], "path": ["0", "0", "12", "13", "14", "19", "20"], "rt": [8723, 555, 275, 208, 206], "actions": ["right", "right", "right", "down", "right"], "actionTimes": [11224, 12324, 13149, 13875, 14640], "queries": {"click": {"state": {"target": ["22", "21", "20"], "time": [3930, 5753, 8059]}, "edge": {"target": [], "time": []}}, "mouseover": {"state": {"target": ["22", "21", "20", "20"], "time": [3479, 4567, 6542, 6960]}, "edge": {"target": [], "time": []}}, "mouseout": {"state": {"target": ["28", "0", "22", "21", "20", "20"], "time": [812, 2810, 4225, 6239, 6621, 8916]}, "edge": {"target": [], "time": []}}}, "displayed_time": "16.91", "trialTime": 20173, "trial_type": "mouselab-mdp", "trial_index": 26, "time_elapsed": 735933, "internal_node_id": "0.0-6.0-1.0-17.0"}}, {"uniqueid": "w31327541:a32233650", "current_trial": 27, "dateTime": 1693572278179, "trialdata": {"revealed_states": [], "clicked_states": ["28", "27", "29", "33"], "num_clicks_accrued": [0, 0, 0, 0, 0, 0, 0, 0, 0, 0, 0, 0, 0], "stateRewards": ["", -2, -3, -6, -7, 9, 16, 65, 5, -41, 20, -25, -1, -4, 1, -11, -49, -4, 71, 1, 39, -62, 52, -2, -3, 7, -9, -28, -70, 84, 8, 24, -58, 82], "withholdReward": false, "trial_id": "mdp_trial_19", "block": "test", "trialIndex": 20, "score": 86.4, "costs": -5.6, "simulationMode": [null, null, null, null, null], "rewards": [-2, -3, 7, 8, 82], "path": ["0", "0", "23", "24", "25", "30", "33"], "rt": [10195, 331, 317, 455, 297], "actions": ["left", "left", "left", "down", "left"], "actionTimes": [12894, 13758, 14634, 15634, 16447], "queries": {"click": {"state": {"target": ["28", "27", "29", "33"], "time": [4856, 6506, 8266, 9901]}, "edge": {"target": [], "time": []}}, "mouseover": {"state": {"target": ["23", "28", "28", "27", "29", "33", "33", "32"], "time": [3244, 3517, 4549, 5321, 7229, 8791, 9161, 10765]}, "edge": {"target": [], "time": []}}, "mouseout": {"state": {"target": ["18", "7", "12", "0", "23", "28", "28", "27", "29", "33", "33", "32"], "time": [378, 667, 1517, 3017, 3265, 3567, 5194, 6938, 8745, 8838, 10582, 11293]}, "edge": {"target": [], "time": []}}}, "displayed_time": "17.39", "trialTime": 19771, "trial_type": "mouselab-mdp", "trial_index": 27, "time_elapsed": 756059, "internal_node_id": "0.0-6.0-1.0-18.0"}}, {"uniqueid": "w31327541:a32233650", "current_trial": 28, "dateTime": 1693572298367, "trialdata": {"revealed_states": [], "clicked_states": ["22", "21", "20"], "num_clicks_accrued": [0, 0, 0, 0, 0, 0, 0, 0, 0, 0, 0, 0, 0], "stateRewards": ["", 1, -1, -7, -7, -22, 15, -13, 13, 26, -32, 38, -1, 1, -7, -4, 16, -62, 86, 12, -54, 56, 64, -2, -1, 6, 14, -57, 37, 62, -6, -25, 50, -70], "withholdReward": false, "trial_id": "mdp_trial_20", "block": "test", "trialIndex": 21, "score": 64.8, "costs": -4.199999999999999, "simulationMode": [null, null, null, null, null], "rewards": [-1, 1, -7, 12, 64], "path": ["0", "0", "12", "13", "14", "19", "22"], "rt": [7097, 283, 233, 206, 367], "actions": ["right", "right", "right", "down", "left"], "actionTimes": [9924, 10723, 11500, 12238, 13126], "queries": {"click": {"state": {"target": ["22", "21", "20"], "time": [4402, 6266, 7876]}, "edge": {"target": [], "time": []}}, "mouseover": {"state": {"target": ["12", "22", "22", "21", "20"], "time": [3248, 3748, 4151, 4902, 6913]}, "edge": {"target": [], "time": []}}, "mouseout": {"state": {"target": ["30", "2", "0", "12", "22", "22", "21", "20"], "time": [1385, 1480, 2298, 3363, 3793, 4713, 6796, 9613]}, "edge": {"target": [], "time": []}}}, "displayed_time": "17.64", "trialTime": 19812, "trial_type": "mouselab-mdp", "trial_index": 28, "time_elapsed": 776247, "internal_node_id": "0.0-6.0-1.0-19.0"}}, {"uniqueid": "w31327541:a32233650", "current_trial": 29, "dateTime": 1693572320843, "trialdata": {"revealed_states": [], "clicked_states": ["7", "6", "5", "9", "11", "10"], "num_clicks_accrued": [0, 0, 0, 0, 0, 0, 0, 0, 0, 0, 0, 0, 0], "stateRewards": ["", -1, 3, 1, -11, -22, -36, 19, -5, -70, -52, 50, -2, -4, 4, -2, -41, -83, 29, -2, 22, 10, -6, -2, 3, -2, 14, 54, 44, 77, -9, -65, -37, -40], "withholdReward": false, "trial_id": "mdp_trial_21", "block": "test", "trialIndex": 22, "score": 39.6, "costs": -8.4, "simulationMode": [null, null, null, null, null], "rewards": [-1, 3, 1, -5, 50], "path": ["0", "0", "1", "2", "3", "8", "11"], "rt": [12982, 136, 232, 180, 150], "actions": ["up", "up", "up", "left", "left"], "actionTimes": [16344, 17030, 17780, 18480, 19154], "queries": {"click": {"state": {"target": ["7", "6", "5", "9", "11", "10"], "time": [4605, 6400, 8119, 10080, 12109, 14034]}, "edge": {"target": [], "time": []}}, "mouseover": {"state": {"target": ["7", "7", "6", "5", "5", "5", "9", "8", "11", "10"], "time": [3509, 4265, 5284, 6896, 7427, 7809, 9655, 10701, 11010, 13072]}, "edge": {"target": [], "time": []}}, "mouseout": {"state": {"target": ["17", "16", "1", "0", "0", "7", "7", "6", "5", "5", "5", "9", "8", "11", "10"], "time": [1247, 1562, 1642, 2247, 3373, 3534, 4876, 6859, 6937, 7507, 8864, 10585, 10738, 12494, 14379]}, "edge": {"target": [], "time": []}}}, "displayed_time": "19.67", "trialTime": 22118, "trial_type": "mouselab-mdp", "trial_index": 29, "time_elapsed": 798722, "internal_node_id": "0.0-6.0-1.0-20.0"}}, {"uniqueid": "w31327541:a32233650", "current_trial": 30, "dateTime": 1693572345753, "trialdata": {"revealed_states": [], "clicked_states": ["29", "27", "28", "33", "32", "31"], "num_clicks_accrued": [0, 0, 0, 0, 0, 0, 0, 0, 0, 0, 0, 0, 0], "stateRewards": ["", -1, 3, 8, 9, -53, 20, -84, 2, -28, -62, -31, -1, -2, -7, 2, 51, 58, 45, -4, -17, -41, 36, 2, -2, -7, -15, 29, -54, -37, -16, -43, 65, -17], "withholdReward": false, "trial_id": "mdp_trial_22", "block": "test", "trialIndex": 23, "score": 33.6, "costs": -8.4, "simulationMode": [null, null, null, null, null], "rewards": [2, -2, -7, -16, 65], "path": ["0", "0", "23", "24", "25", "30", "32"], "rt": [13835, 318, 288, 141, 208], "actions": ["left", "left", "left", "down", "down"], "actionTimes": [18211, 19061, 19898, 20599, 21348], "queries": {"click": {"state": {"target": ["29", "27", "28", "33", "32", "31"], "time": [5433, 7506, 9166, 11009, 12985, 15053]}, "edge": {"target": [], "time": []}}, "mouseover": {"state": {"target": ["29", "27", "26", "28", "27", "28", "28", "28", "25", "33", "30", "32", "31"], "time": [5134, 6358, 6934, 7145, 7228, 7886, 8227, 8489, 9858, 10127, 11599, 11866, 13850]}, "edge": {"target": [], "time": []}}, "mouseout": {"state": {"target": ["10", "0", "29", "27", "26", "28", "27", "27", "28", "28", "28", "25", "33", "30", "32", "31"], "time": [3049, 4702, 5562, 6894, 6979, 7168, 7641, 7848, 7930, 8268, 9763, 9898, 11503, 11688, 13528, 15853]}, "edge": {"target": [], "time": []}}}, "displayed_time": "21.90", "trialTime": 24547, "trial_type": "mouselab-mdp", "trial_index": 30, "time_elapsed": 823632, "internal_node_id": "0.0-6.0-1.0-21.0"}}, {"uniqueid": "w31327541:a32233650", "current_trial": 31, "dateTime": 1693572369742, "trialdata": {"revealed_states": [], "clicked_states": ["21", "16", "5", "9"], "num_clicks_accrued": [0, 0, 0, 0, 0, 0, 0, 0, 0, 0, 0, 0, 0], "stateRewards": ["", 2, -3, -8, 14, -7, -51, 73, 2, 36, 36, -43, -1, 3, -4, 1, 6, 87, -65, 15, 61, -42, -83, -1, 3, -2, -7, 30, -48, 35, 13, 26, 60, 78], "withholdReward": false, "trial_id": "mdp_trial_23", "block": "test", "trialIndex": 24, "score": 23.4, "costs": -5.6, "simulationMode": [null, null, null, null, null], "rewards": [2, -3, -8, 2, 36], "path": ["0", "0", "1", "2", "3", "8", "9"], "rt": [10781, 49, 211, 519, 894], "actions": ["up", "up", "up", "left", "up"], "actionTimes": [12714, 13275, 14001, 15064, 16501], "queries": {"click": {"state": {"target": ["21", "16", "5", "9"], "time": [3443, 5166, 7369, 9591]}, "edge": {"target": [], "time": []}}, "mouseover": {"state": {"target": ["12", "19", "21", "21", "19", "14", "16", "4", "5", "5", "9", "2", "8"], "time": [2429, 2540, 2873, 3327, 4106, 4149, 4684, 5694, 5923, 6411, 8693, 10302, 10650]}, "edge": {"target": [], "time": []}}, "mouseout": {"state": {"target": ["32", "0", "12", "19", "21", "21", "19", "14", "16", "4", "5", "5", "9", "2"], "time": [693, 2405, 2467, 2827, 2956, 4068, 4145, 4183, 5285, 5885, 5964, 7809, 9998, 10340]}, "edge": {"target": [], "time": []}}}, "displayed_time": "17.03", "trialTime": 23614, "trial_type": "mouselab-mdp", "trial_index": 31, "time_elapsed": 847622, "internal_node_id": "0.0-6.0-1.0-22.0"}}, {"uniqueid": "w31327541:a32233650", "current_trial": 32, "dateTime": 1693572392253, "trialdata": {"revealed_states": [], "clicked_states": ["33", "31", "32"], "num_clicks_accrued": [0, 0, 0, 0, 0, 0, 0, 0, 0, 0, 0, 0, 0], "stateRewards": ["", -2, 1, -8, 12, -65, -79, 16, 7, -80, -17, -45, -2, 2, -5, -2, -85, 23, -4, -7, 48, 27, -76, 2, 3, 5, 2, 43, 71, -13, 7, -49, 59, -31], "withholdReward": false, "trial_id": "mdp_trial_24", "block": "test", "trialIndex": 25, "score": 71.8, "costs": -4.199999999999999, "simulationMode": [null, null, null, null, null], "rewards": [2, 3, 5, 7, 59], "path": ["0", "0", "23", "24", "25", "30", "32"], "rt": [10358, 115, 132, 519, 180], "actions": ["left", "left", "left", "down", "down"], "actionTimes": [13311, 13948, 14624, 15662, 16349], "queries": {"click": {"state": {"target": ["33", "31", "32"], "time": [5151, 8450, 10546]}, "edge": {"target": [], "time": []}}, "mouseover": {"state": {"target": ["0", "22", "30", "33", "30", "31", "32"], "time": [3405, 3733, 4081, 4972, 5681, 8205, 9520]}, "edge": {"target": [], "time": []}}, "mouseout": {"state": {"target": ["8", "12", "0", "0", "22", "30", "33", "30", "31"], "time": [1591, 1764, 2371, 3591, 3941, 4104, 5677, 5712, 9287]}, "edge": {"target": [], "time": []}}}, "displayed_time": "17.60", "trialTime": 22135, "trial_type": "mouselab-mdp", "trial_index": 32, "time_elapsed": 870132, "internal_node_id": "0.0-6.0-1.0-23.0"}}, {"uniqueid": "w31327541:a32233650", "current_trial": 33, "dateTime": 1693572412816, "trialdata": {"revealed_states": [], "clicked_states": ["21", "20"], "num_clicks_accrued": [0, 0, 0, 0, 0, 0, 0, 0, 0, 0, 0, 0, 0], "stateRewards": ["", 2, 3, -3, 12, -43, 81, -82, -15, 58, -7, -75, -1, -1, 3, -5, 50, -25, -8, 4, 66, 65, -66, 2, -4, 2, -1, -10, 10, 37, 11, 88, -37, 8], "withholdReward": false, "trial_id": "mdp_trial_25", "block": "test", "trialIndex": 26, "score": 68.2, "costs": -2.8, "simulationMode": [null, null, null, null, null], "rewards": [-1, -1, 3, 4, 66], "path": ["0", "0", "12", "13", "14", "19", "20"], "rt": [5345, 164, 365, 143, 274], "actions": ["right", "right", "right", "down", "right"], "actionTimes": [8999, 9675, 10588, 11289, 12113], "queries": {"click": {"state": {"target": ["21", "20"], "time": [5194, 7320]}, "edge": {"target": [], "time": []}}, "mouseover": {"state": {"target": ["0", "19", "21", "20", "20", "19", "22", "22"], "time": [4041, 4158, 4744, 5852, 6312, 7731, 7773, 8048]}, "edge": {"target": [], "time": []}}, "mouseout": {"state": {"target": ["32", "0", "0", "19", "21", "20", "20", "19", "22", "22"], "time": [1883, 3180, 4075, 4180, 5574, 5969, 7728, 7770, 7814, 8083]}, "edge": {"target": [], "time": []}}}, "displayed_time": "18.10", "trialTime": 20175, "trial_type": "mouselab-mdp", "trial_index": 33, "time_elapsed": 890696, "internal_node_id": "0.0-6.0-1.0-24.0"}}, {"uniqueid": "w31327541:a32233650", "current_trial": 34, "dateTime": 1693572432318, "trialdata": {"revealed_states": [], "clicked_states": ["6", "16", "20"], "num_clicks_accrued": [0, 0, 0, 0, 0, 0, 0, 0, 0, 0, 0, 0, 0], "stateRewards": ["", -1, -3, -3, 1, -38, 2, -53, -2, -1, -81, 70, -1, 1, -5, -9, 46, 15, 35, -1, -22, 38, 59, -2, 4, -8, 13, 1, -83, -43, 4, 76, 13, 48], "withholdReward": false, "trial_id": "mdp_trial_26", "block": "test", "trialIndex": 27, "score": 27.8, "costs": -4.199999999999999, "simulationMode": [null, null, null, null, null], "rewards": [-1, 1, -5, -9, 46], "path": ["0", "0", "12", "13", "14", "15", "16"], "rt": [9153, 44, 221, 254, 77], "actions": ["right", "right", "right", "up", "up"], "actionTimes": [12087, 12674, 13412, 14201, 14798], "queries": {"click": {"state": {"target": ["6", "16", "20"], "time": [4167, 6945, 9340]}, "edge": {"target": [], "time": []}}, "mouseover": {"state": {"target": ["6", "7", "7", "16", "20"], "time": [3728, 4865, 5243, 6564, 7745]}, "edge": {"target": [], "time": []}}, "mouseout": {"state": {"target": ["20", "14", "13", "12", "0", "6", "6", "7", "7", "16", "20"], "time": [1737, 1979, 2196, 2416, 2479, 4246, 4557, 4903, 5976, 7281, 9977]}, "edge": {"target": [], "time": []}}}, "displayed_time": "17.43", "trialTime": 19113, "trial_type": "mouselab-mdp", "trial_index": 34, "time_elapsed": 910197, "internal_node_id": "0.0-6.0-1.0-25.0"}}, {"uniqueid": "w31327541:a32233650", "current_trial": 35, "dateTime": 1693572452416, "trialdata": {"revealed_states": [], "clicked_states": ["28", "29"], "num_clicks_accrued": [0, 0, 0, 0, 0, 0, 0, 0, 0, 0, 0, 0, 0], "stateRewards": ["", -2, 1, 6, -2, -10, -78, -69, 14, -15, 7, -1, 1, -1, -2, 13, 77, 32, 87, 5, -74, 30, -26, 1, 3, 4, 12, 39, 54, -43, 2, 10, 23, 13], "withholdReward": false, "trial_id": "mdp_trial_27", "block": "test", "trialIndex": 28, "score": 71.2, "costs": -2.8, "simulationMode": [null, null, null, null, null], "rewards": [1, 3, 4, 12, 54], "path": ["0", "0", "23", "24", "25", "26", "28"], "rt": [5814, 124, 136, 993, 194], "actions": ["left", "left", "left", "up", "right"], "actionTimes": [8862, 9539, 10201, 11763, 12513], "queries": {"click": {"state": {"target": ["28", "29"], "time": [4325, 6001]}, "edge": {"target": [], "time": []}}, "mouseover": {"state": {"target": ["28", "28", "27", "29", "31"], "time": [3449, 4031, 4749, 5531, 7027]}, "edge": {"target": [], "time": []}}, "mouseout": {"state": {"target": ["16", "18", "12", "28", "28", "27", "29"], "time": [1180, 1457, 1781, 3497, 4515, 5492, 6396]}, "edge": {"target": [], "time": []}}}, "displayed_time": "17.85", "trialTime": 19725, "trial_type": "mouselab-mdp", "trial_index": 35, "time_elapsed": 930295, "internal_node_id": "0.0-6.0-1.0-26.0"}}, {"uniqueid": "w31327541:a32233650", "current_trial": 36, "dateTime": 1693572471192, "trialdata": {"revealed_states": [], "clicked_states": ["31", "20"], "num_clicks_accrued": [0, 0, 0, 0, 0, 0, 0, 0, 0, 0, 0, 0, 0], "stateRewards": ["", 2, 4, 7, -6, -76, -81, 2, 5, -66, -3, 36, -2, -4, 6, -2, -69, 4, -49, -6, 67, 38, -67, 2, 1, 1, 6, -68, -21, 52, -16, -16, 6, -70], "withholdReward": false, "trial_id": "mdp_trial_28", "block": "test", "trialIndex": 29, "score": 58.2, "costs": -2.8, "simulationMode": [null, null, null, null, null], "rewards": [-2, -4, 6, -6, 67], "path": ["0", "0", "12", "13", "14", "19", "20"], "rt": [7687, 36, 282, 173, 158], "actions": ["right", "right", "right", "down", "right"], "actionTimes": [9520, 10082, 10907, 11607, 12297], "queries": {"click": {"state": {"target": ["31", "20"], "time": [3863, 5885]}, "edge": {"target": [], "time": []}}, "mouseover": {"state": {"target": ["28", "28", "32", "31", "20", "19", "22", "13", "15", "18", "13"], "time": [2377, 2875, 3019, 3608, 5167, 6262, 6300, 6767, 6881, 7625, 8824]}, "edge": {"target": [], "time": []}}, "mouseout": {"state": {"target": ["31", "23", "0", "28", "28", "32", "31", "20", "19", "22", "13", "15", "18", "13"], "time": [830, 1207, 2142, 2432, 2946, 3294, 4172, 6260, 6298, 6339, 6844, 6921, 8225, 8862]}, "edge": {"target": [], "time": []}}}, "displayed_time": "16.51", "trialTime": 18396, "trial_type": "mouselab-mdp", "trial_index": 36, "time_elapsed": 949072, "internal_node_id": "0.0-6.0-1.0-27.0"}}, {"uniqueid": "w31327541:a32233650", "current_trial": 37, "dateTime": 1693572490055, "trialdata": {"revealed_states": [], "clicked_states": ["18", "22", "21"], "num_clicks_accrued": [0, 0, 0, 0, 0, 0, 0, 0, 0, 0, 0, 0, 0], "stateRewards": ["", 1, -1, 8, -3, 38, 85, -20, -4, 8, 23, 73, 2, -4, 6, -13, 44, 7, -28, -11, -77, 45, -69, 1, -1, -7, -11, 75, -51, -87, 7, 36, -53, -26], "withholdReward": false, "trial_id": "mdp_trial_29", "block": "test", "trialIndex": 30, "score": 33.8, "costs": -4.199999999999999, "simulationMode": [null, null, null, null, null], "rewards": [2, -4, 6, -11, 45], "path": ["0", "0", "12", "13", "14", "19", "21"], "rt": [8746, 772, 241, 147, 130], "actions": ["right", "right", "right", "down", "down"], "actionTimes": [11185, 12485, 13261, 13962, 14635], "queries": {"click": {"state": {"target": ["18", "22", "21"], "time": [3164, 5779, 7747]}, "edge": {"target": [], "time": []}}, "mouseover": {"state": {"target": ["18", "13", "22", "22", "22", "21", "20"], "time": [2849, 3543, 3856, 4341, 5597, 6624, 8280]}, "edge": {"target": [], "time": []}}, "mouseout": {"state": {"target": ["0", "18", "13", "22", "22", "22", "21"], "time": [2513, 3507, 3620, 3971, 5251, 6321, 8163]}, "edge": {"target": [], "time": []}}}, "displayed_time": "16.82", "trialTime": 18486, "trial_type": "mouselab-mdp", "trial_index": 37, "time_elapsed": 967934, "internal_node_id": "0.0-6.0-1.0-28.0"}}, {"uniqueid": "w31327541:a32233650", "current_trial": 38, "dateTime": 1693572509279, "trialdata": {"revealed_states": [], "clicked_states": ["18", "6", "11", "10"], "num_clicks_accrued": [0, 0, 0, 0, 0, 0, 0, 0, 0, 0, 0, 0, 0], "stateRewards": ["", 2, 3, 3, 10, 19, -21, 6, 9, 54, 68, 16, 2, 2, -6, -8, 40, -2, -75, -2, -42, 55, 59, -1, 2, 4, -14, 11, -34, -30, -6, 61, -53, 13], "withholdReward": false, "trial_id": "mdp_trial_30", "block": "test", "trialIndex": 31, "score": 79.4, "costs": -5.6, "simulationMode": [null, null, null, null, null], "rewards": [2, 3, 3, 9, 68], "path": ["0", "0", "1", "2", "3", "8", "10"], "rt": [10486, 67, 243, 202, 119], "actions": ["up", "up", "up", "left", "down"], "actionTimes": [12582, 13194, 13945, 14671, 15332], "queries": {"click": {"state": {"target": ["18", "6", "11", "10"], "time": [3472, 5488, 7519, 9756]}, "edge": {"target": [], "time": []}}, "mouseover": {"state": {"target": ["12", "13", "18", "16", "6", "4", "5", "9", "11", "10"], "time": [2237, 2723, 3090, 3857, 4469, 6000, 6126, 6533, 6983, 8389]}, "edge": {"target": [], "time": []}}, "mouseout": {"state": {"target": ["20", "13", "12", "12", "13", "18", "16", "6", "4", "5", "9", "11", "10"], "time": [805, 1156, 1436, 2431, 2785, 3820, 3897, 5960, 6086, 6488, 6573, 7933, 10219]}, "edge": {"target": [], "time": []}}}, "displayed_time": "16.68", "trialTime": 18833, "trial_type": "mouselab-mdp", "trial_index": 38, "time_elapsed": 987159, "internal_node_id": "0.0-6.0-1.0-29.0"}}, {"uniqueid": "w31327541:a32233650", "current_trial": 39, "dateTime": 1693572528204, "trialdata": {"revealed_states": [], "clicked_states": ["28", "31"], "num_clicks_accrued": [0, 0, 0, 0, 0, 0, 0, 0, 0, 0, 0, 0, 0], "stateRewards": ["", -2, 2, 3, -7, 76, 63, 21, 15, 35, -8, -44, 1, 1, -2, -12, 23, 24, 76, -9, 46, 66, -49, -2, -1, 7, 12, 40, -71, -45, -6, 38, -49, 46], "withholdReward": false, "trial_id": "mdp_trial_31", "block": "test", "trialIndex": 32, "score": 33.2, "costs": -2.8, "simulationMode": [null, null, null, null, null], "rewards": [-2, -1, 7, -6, 38], "path": ["0", "0", "23", "24", "25", "30", "31"], "rt": [6414, 278, 366, 229, 192], "actions": ["left", "left", "left", "down", "right"], "actionTimes": [8711, 9526, 10401, 11150, 11888], "queries": {"click": {"state": {"target": ["28", "31"], "time": [3646, 5483]}, "edge": {"target": [], "time": []}}, "mouseover": {"state": {"target": ["23", "28", "24", "31", "32"], "time": [2725, 3322, 4208, 4327, 6356]}, "edge": {"target": [], "time": []}}, "mouseout": {"state": {"target": ["1", "0", "0", "23", "28", "24", "31"], "time": [1486, 1547, 2431, 2777, 4171, 4250, 5936]}, "edge": {"target": [], "time": []}}}, "displayed_time": "16.65", "trialTime": 18538, "trial_type": "mouselab-mdp", "trial_index": 39, "time_elapsed": 1006083, "internal_node_id": "0.0-6.0-1.0-30.0"}}, {"uniqueid": "w31327541:a32233650", "current_trial": 40, "dateTime": 1693572554429, "trialdata": {"revealed_states": [], "clicked_states": ["18", "6", "5", "9", "11", "10", "7"], "num_clicks_accrued": [0, 0, 0, 0, 0, 0, 0, 0, 0, 0, 0, 0, 0], "stateRewards": ["", 1, -1, 4, 5, -32, 18, 20, 6, -88, -74, 9, -2, 1, -2, -14, 34, -77, -38, -1, 80, -36, 73, 2, 3, -8, 10, -48, -73, -71, -11, -22, 20, 54], "withholdReward": false, "trial_id": "mdp_trial_32", "block": "test", "trialIndex": 33, "score": 17.2, "costs": -9.8, "simulationMode": [null, null, null, null, null], "rewards": [1, -1, 4, 5, 18], "path": ["0", "0", "1", "2", "3", "4", "6"], "rt": [18866, 275, 310, 205, 233], "actions": ["up", "up", "up", "right", "right"], "actionTimes": [20276, 21076, 21925, 22687, 23463], "queries": {"click": {"state": {"target": ["18", "6", "5", "9", "11", "10", "7"], "time": [2601, 4658, 6744, 9292, 11289, 13534, 16604]}, "edge": {"target": [], "time": []}}, "mouseover": {"state": {"target": ["12", "13", "18", "18", "6", "6", "4", "5", "9", "11", "10", "7", "2", "27"], "time": [1577, 1810, 1910, 2268, 2985, 3443, 5028, 5483, 9098, 10225, 12414, 16235, 17115, 17771]}, "edge": {"target": [], "time": []}}, "mouseout": {"state": {"target": ["32", "24", "0", "12", "13", "18", "18", "6", "6", "4", "5", "9", "11", "10", "7", "2", "10"], "time": [41, 360, 1543, 1750, 1876, 1978, 2792, 3025, 4990, 5072, 7276, 9696, 11737, 15634, 17076, 17156, 17193]}, "edge": {"target": [], "time": []}}}, "displayed_time": "23.98", "trialTime": 25826, "trial_type": "mouselab-mdp", "trial_index": 40, "time_elapsed": 1032309, "internal_node_id": "0.0-6.0-1.0-31.0"}}, {"uniqueid": "w31327541:a32233650", "current_trial": 41, "dateTime": 1693572575202, "trialdata": {"revealed_states": [], "clicked_states": ["18", "22", "31"], "num_clicks_accrued": [0, 0, 0, 0, 0, 0, 0, 0, 0, 0, 0, 0, 0], "stateRewards": ["", 1, 1, 5, 6, -29, -7, 3, -16, 9, -46, 65, -1, 4, -1, -16, -63, -77, -87, 8, 80, -50, 43, -1, -1, -5, 5, -38, -71, -62, 9, 81, -50, -52], "withholdReward": false, "trial_id": "mdp_trial_33", "block": "test", "trialIndex": 34, "score": 78.8, "costs": -4.199999999999999, "simulationMode": [null, null, null, null, null], "rewards": [-1, -1, -5, 9, 81], "path": ["0", "0", "23", "24", "25", "30", "31"], "rt": [9144, 143, 203, 104, 307], "actions": ["left", "left", "left", "down", "right"], "actionTimes": [12697, 13369, 14108, 14767, 15594], "queries": {"click": {"state": {"target": ["18", "22", "31"], "time": [5383, 7578, 9868]}, "edge": {"target": [], "time": []}}, "mouseover": {"state": {"target": ["12", "13", "15", "18", "13", "22", "24", "31"], "time": [4160, 4356, 4439, 4989, 5802, 5884, 8210, 8788]}, "edge": {"target": [], "time": []}}, "mouseout": {"state": {"target": ["27", "1", "0", "12", "13", "15", "18", "13", "22", "24", "31"], "time": [304, 2801, 4115, 4204, 4390, 4772, 5762, 5844, 8044, 8580, 10525]}, "edge": {"target": [], "time": []}}}, "displayed_time": "18.42", "trialTime": 20380, "trial_type": "mouselab-mdp", "trial_index": 41, "time_elapsed": 1053082, "internal_node_id": "0.0-6.0-1.0-32.0"}}, {"uniqueid": "w31327541:a32233650", "current_trial": 42, "dateTime": 1693572593579, "trialdata": {"revealed_states": [], "clicked_states": ["28", "29"], "num_clicks_accrued": [0, 0, 0, 0, 0, 0, 0, 0, 0, 0, 0, 0, 0], "stateRewards": ["", -1, 3, -4, -14, 78, 67, 2, 13, -32, 28, 39, -2, 1, -4, -4, -4, -42, -86, 11, 64, -29, -32, -1, -4, 2, -7, 5, 68, -61, 2, -21, 85, 50], "withholdReward": false, "trial_id": "mdp_trial_34", "block": "test", "trialIndex": 35, "score": 55.2, "costs": -2.8, "simulationMode": [null, null, null, null, null], "rewards": [-1, -4, 2, -7, 68], "path": ["0", "0", "23", "24", "25", "26", "28"], "rt": [5758, 224, 198, 320, 134], "actions": ["left", "left", "left", "up", "right"], "actionTimes": [7801, 8577, 9314, 10151, 10800], "queries": {"click": {"state": {"target": ["28", "29"], "time": [3553, 5267]}, "edge": {"target": [], "time": []}}, "mouseover": {"state": {"target": ["28", "26", "29"], "time": [2965, 3821, 3865]}, "edge": {"target": [], "time": []}}, "mouseout": {"state": {"target": ["23", "0", "0", "28", "26", "29"], "time": [626, 1097, 2283, 3818, 3861, 6069]}, "edge": {"target": [], "time": []}}}, "displayed_time": "16.59", "trialTime": 17976, "trial_type": "mouselab-mdp", "trial_index": 42, "time_elapsed": 1071459, "internal_node_id": "0.0-6.0-1.0-33.0"}}, {"uniqueid": "w31327541:a32233650", "current_trial": 43, "dateTime": 1693572612916, "trialdata": {"revealed_states": [], "clicked_states": ["31", "22", "33", "20"], "num_clicks_accrued": [0, 0, 0, 0, 0, 0, 0, 0, 0, 0, 0, 0, 0], "stateRewards": ["", -1, 1, -1, 2, 19, 85, -18, 2, -3, -26, 36, 2, 4, 7, -9, -18, 70, 72, -5, 35, -20, -28, 1, -2, -4, -3, -59, -11, -63, -2, -72, 59, -69], "withholdReward": false, "trial_id": "mdp_trial_35", "block": "test", "trialIndex": 36, "score": 37.4, "costs": -5.6, "simulationMode": [null, null, null, null, null], "rewards": [2, 4, 7, -5, 35], "path": ["0", "0", "12", "13", "14", "19", "20"], "rt": [10240, 88, 310, 127, 237], "actions": ["right", "right", "right", "down", "right"], "actionTimes": [12708, 13343, 14170, 14857, 15645], "queries": {"click": {"state": {"target": ["31", "22", "33", "20"], "time": [3914, 5609, 7820, 9739]}, "edge": {"target": [], "time": []}}, "mouseover": {"state": {"target": ["0", "31", "22", "33", "30", "20"], "time": [2610, 3581, 4498, 7029, 8311, 9039]}, "edge": {"target": [], "time": []}}, "mouseout": {"state": {"target": ["33", "30", "0", "31", "22", "33", "30", "20"], "time": [545, 638, 2815, 4308, 6196, 8276, 8350, 10463]}, "edge": {"target": [], "time": []}}}, "displayed_time": "17.09", "trialTime": 18944, "trial_type": "mouselab-mdp", "trial_index": 43, "time_elapsed": 1090795, "internal_node_id": "0.0-6.0-1.0-34.0"}}, {"uniqueid": "w31327541:a32233650", "current_trial": 44, "dateTime": 1693572631366, "trialdata": {"revealed_states": [], "clicked_states": ["10", "9", "5"], "num_clicks_accrued": [0, 0, 0, 0, 0, 0, 0, 0, 0, 0, 0, 0, 0], "stateRewards": ["", -1, 2, 6, 11, 21, -21, -21, -6, 48, -71, 88, -1, -3, 3, 7, 64, 2, 9, -4, 37, -67, 72, 2, 2, -8, -8, -10, 71, -40, -3, 73, 80, 47], "withholdReward": false, "trial_id": "mdp_trial_36", "block": "test", "trialIndex": 37, "score": 44.8, "costs": -4.199999999999999, "simulationMode": [null, null, null, null, null], "rewards": [-1, 2, 6, -6, 48], "path": ["0", "0", "1", "2", "3", "8", "9"], "rt": [8949, 102, 323, 201, 148], "actions": ["up", "up", "up", "left", "up"], "actionTimes": [11251, 11865, 12727, 13477, 14177], "queries": {"click": {"state": {"target": ["10", "9", "5"], "time": [5000, 6927, 8643]}, "edge": {"target": [], "time": []}}, "mouseover": {"state": {"target": ["3", "8", "10", "8", "9", "9", "9", "7", "6", "5", "4"], "time": [3564, 3862, 4547, 5501, 5546, 5990, 6322, 7536, 7782, 8299, 9106]}, "edge": {"target": [], "time": []}}, "mouseout": {"state": {"target": ["0", "3", "8", "10", "8", "9", "9", "9", "7", "6", "5", "4"], "time": [2626, 3817, 3908, 5378, 5544, 5629, 6032, 7371, 7577, 7868, 8982, 9526]}, "edge": {"target": [], "time": []}}}, "displayed_time": "16.70", "trialTime": 18077, "trial_type": "mouselab-mdp", "trial_index": 44, "time_elapsed": 1109246, "internal_node_id": "0.0-6.0-1.0-35.0"}}, {"uniqueid": "w31327541:a32233650", "current_trial": 45, "dateTime": 1693572650754, "trialdata": {"revealed_states": [], "clicked_states": ["16", "18"], "num_clicks_accrued": [0, 0, 0, 0, 0, 0, 0, 0, 0, 0, 0, 0, 0], "stateRewards": ["", -2, 2, -5, 1, 42, -63, -58, -6, 2, 16, 81, -2, 4, 7, -10, 33, 3, -33, -2, -52, -84, -27, 2, -3, -3, 15, -74, -14, -5, -5, -84, 79, -31], "withholdReward": false, "trial_id": "mdp_trial_37", "block": "test", "trialIndex": 38, "score": 29.2, "costs": -2.8, "simulationMode": [null, null, null, null, null], "rewards": [-2, 4, 7, -10, 33], "path": ["0", "0", "12", "13", "14", "15", "16"], "rt": [5944, 90, 222, 177, 227], "actions": ["right", "right", "right", "up", "up"], "actionTimes": [8300, 8925, 9689, 10388, 11139], "queries": {"click": {"state": {"target": ["16", "18"], "time": [3374, 5474]}, "edge": {"target": [], "time": []}}, "mouseover": {"state": {"target": ["12", "13", "15", "16", "15", "18", "13", "22"], "time": [2500, 2757, 2934, 3033, 3993, 4384, 5983, 6064]}, "edge": {"target": [], "time": []}}, "mouseout": {"state": {"target": ["7", "12", "13", "15", "16", "15", "18", "13", "22"], "time": [1199, 2584, 2824, 3000, 3722, 4033, 5948, 6024, 16951]}, "edge": {"target": [], "time": []}}}, "displayed_time": "17.04", "trialTime": 18976, "trial_type": "mouselab-mdp", "trial_index": 45, "time_elapsed": 1128633, "internal_node_id": "0.0-6.0-1.0-36.0"}}, {"uniqueid": "w31327541:a32233650", "current_trial": 46, "dateTime": 1693572669429, "trialdata": {"revealed_states": [], "clicked_states": ["27"], "num_clicks_accrued": [0, 0, 0, 0, 0, 0, 0, 0, 0, 0, 0, 0, 0], "stateRewards": ["", -1, 1, 3, -8, -23, -15, -14, -11, -23, 58, 68, 1, 3, 5, 12, -17, -41, -7, -10, -4, 82, 10, 1, 4, -4, 11, 73, 55, -55, -1, -86, -86, 54], "withholdReward": false, "trial_id": "mdp_trial_38", "block": "test", "trialIndex": 39, "score": 83.6, "costs": -1.4, "simulationMode": [null, null, null, null, null], "rewards": [1, 4, -4, 11, 73], "path": ["0", "0", "23", "24", "25", "26", "27"], "rt": [4274, 60, 221, 146, 73], "actions": ["left", "left", "left", "up", "up"], "actionTimes": [6736, 7347, 8087, 8786, 9385], "queries": {"click": {"state": {"target": ["27"], "time": [3882]}, "edge": {"target": [], "time": []}}, "mouseover": {"state": {"target": ["27", "28"], "time": [3531, 4386]}, "edge": {"target": [], "time": []}}, "mouseout": {"state": {"target": ["0", "27", "27"], "time": [809, 3904, 4307]}, "edge": {"target": [], "time": []}}}, "displayed_time": "16.78", "trialTime": 18274, "trial_type": "mouselab-mdp", "trial_index": 46, "time_elapsed": 1147309, "internal_node_id": "0.0-6.0-1.0-37.0"}}, {"uniqueid": "w31327541:a32233650", "current_trial": 47, "dateTime": 1693572689039, "trialdata": {"revealed_states": [], "clicked_states": ["33", "31", "32"], "num_clicks_accrued": [0, 0, 0, 0, 0, 0, 0, 0, 0, 0, 0, 0, 0], "stateRewards": ["", -2, 2, -2, -7, -50, -62, -45, 7, 36, -24, -72, -1, -1, 8, -1, -67, 20, -52, 2, 35, -50, 80, -1, 1, 6, -6, -70, 6, 88, 8, -47, 74, -19], "withholdReward": false, "trial_id": "mdp_trial_39", "block": "test", "trialIndex": 40, "score": 83.8, "costs": -4.199999999999999, "simulationMode": [null, null, null, null, null], "rewards": [-1, 1, 6, 8, 74], "path": ["0", "0", "23", "24", "25", "30", "32"], "rt": [7806, 139, 434, 207, 781], "actions": ["left", "left", "left", "down", "down"], "actionTimes": [10581, 11269, 12253, 12995, 14295], "queries": {"click": {"state": {"target": ["33", "31", "32"], "time": [3698, 5659, 7632]}, "edge": {"target": [], "time": []}}, "mouseover": {"state": {"target": ["23", "33", "32", "31", "32", "30", "29", "29"], "time": [2976, 3449, 4377, 4998, 6640, 8086, 8171, 8633]}, "edge": {"target": [], "time": []}}, "mouseout": {"state": {"target": ["24", "23", "0", "0", "23", "33", "33", "32", "31", "32", "30", "29"], "time": [674, 824, 890, 1908, 3002, 3849, 4075, 4495, 6037, 8044, 8129, 8214]}, "edge": {"target": [], "time": []}}}, "displayed_time": "17.64", "trialTime": 19206, "trial_type": "mouselab-mdp", "trial_index": 47, "time_elapsed": 1166919, "internal_node_id": "0.0-6.0-1.0-38.0"}}, {"uniqueid": "w31327541:a32233650", "current_trial": 48, "dateTime": 1693572708689, "trialdata": {"revealed_states": [], "clicked_states": ["9", "11"], "num_clicks_accrued": [0, 0, 0, 0, 0, 0, 0, 0, 0, 0, 0, 0, 0], "stateRewards": ["", 2, -3, -2, 14, -4, 85, 46, 15, -28, 41, 31, -1, -1, -1, 5, 62, 79, 57, 12, -73, -64, 86, -1, 1, -3, -5, 68, 11, -32, 8, -80, -21, -56], "withholdReward": false, "trial_id": "mdp_trial_40", "block": "test", "trialIndex": 41, "score": 40.2, "costs": -2.8, "simulationMode": [null, null, null, null, null], "rewards": [2, -3, -2, 15, 31], "path": ["0", "0", "1", "2", "3", "8", "11"], "rt": [6805, 141, 227, 45, 32], "actions": ["up", "up", "up", "left", "left"], "actionTimes": [9254, 9918, 10667, 11253, 11811], "queries": {"click": {"state": {"target": ["9", "11"], "time": [4060, 6133]}, "edge": {"target": [], "time": []}}, "mouseover": {"state": {"target": ["1", "3", "9", "9", "11", "10"], "time": [2673, 2782, 3165, 3772, 4714, 7239]}, "edge": {"target": [], "time": []}}, "mouseout": {"state": {"target": ["29", "29", "26", "28", "0", "1", "3", "9", "9", "11", "10"], "time": [586, 1087, 1197, 1230, 1999, 2715, 2815, 3214, 4374, 6476, 18122]}, "edge": {"target": [], "time": []}}}, "displayed_time": "16.99", "trialTime": 19278, "trial_type": "mouselab-mdp", "trial_index": 48, "time_elapsed": 1186569, "internal_node_id": "0.0-6.0-1.0-39.0"}}, {"uniqueid": "w31327541:a32233650", "current_trial": 49, "dateTime": 1693572780029, "trialdata": {"rt": 71331, "response": {"Q0": "$-2 to $2", "Q1": "$-16 to $16", "Q2": "$-88 to $88", "Q3": "The cost for clicking on nodes varied between nodes.", "Q4": "Very motivated"}, "question_order": [0, 1, 2, 3, 4], "trial_id": "final_quiz_control", "trial_type": "survey-multi-choice", "trial_index": 49, "time_elapsed": 1257909, "internal_node_id": "0.0-6.0-2.0"}}, {"uniqueid": "w31327541:a32233650", "current_trial": 50, "dateTime": 1693572851251, "trialdata": {"rt": 71211, "response": {"Q0": "click on a few end nodes and go to the one that offered the best bonus", "Q1": "no stayed the same", "Q2": "the time made it difficult"}, "trial_id": "self_report_control", "trial_type": "survey-text", "trial_index": 50, "time_elapsed": 1329131, "internal_node_id": "0.0-6.0-3.0"}}, {"uniqueid": "w31327541:a32233650", "current_trial": 51, "dateTime": 1693572878535, "trialdata": {"rt": 27279, "response": {"gender": "female", "age": "23", "colorblind": "0", "effort": "1"}, "trial_type": "survey-html-form", "trial_index": 51, "time_elapsed": 1356415, "internal_node_id": "0.0-6.0-4.0"}}, {"uniqueid": "w31327541:a32233650", "current_trial": 52, "dateTime": 1693572899817, "trialdata": {"rt": 21275, "response": {"Q0": "no", "Q1": "no", "Q2": "n/a"}, "trial_type": "survey-text", "trial_index": 52, "time_elapsed": 1377697, "internal_node_id": "0.0-6.0-5.0"}}, {"uniqueid": "w31327541:a32233650", "current_trial": 53, "dateTime": 1693572929240, "trialdata": {"rt": 29420, "stimulus": "<h1>Completion Code Instructions (1/2)</h1>\n<br><br><br><br>\nYou have reached the end of the experiment! The completion code consists of two parts: (1) a code with 2 characters (2) a code with 6 characters. On this page, you will receive the second part of the code. The first part of the completion code will be on the next page.\n<br><br>\nThe second part of your completion code is: <b>EWEK22</b>\n<br><br>\nPlease note this down. Then, press 'Finish HIT' in order to find the first part of your completion code. Once the data has been saved, you will receive this code either in this window or in the original browser window where you started the experiment.\n", "response": 0, "trial_type": "html-button-response", "trial_index": 53, "time_elapsed": 1407119, "internal_node_id": "0.0-6.0-6.0"}}, {"uniqueid": "w31327541:a32233650", "current_trial": 54, "dateTime": 1693572930257, "trialdata": {"success": true, "trial_type": "fullscreen", "trial_index": 54, "time_elapsed": 1408137, "internal_node_id": "0.0-7.0"}}], "questiondata": {"params": {"CODE": "C6DMOQA6", "MIN_TIME": 14, "inspectCost": 1, "startTime": "Fri Sep 01 2023 13:32:01 GMT+0100 (British Summer Time)", "bonusRate": 0.002, "variance": "1_2_4_8_44", "branching": "31123"}, "final_score": 1640.6}, "eventdata": [{"eventtype": "initialized", "value": null, "timestamp": 1693571521200, "interval": 0}, {"eventtype": "window_resize", "value": [1024, 768], "timestamp": 1693571521200, "interval": 0}, {"eventtype": "focus", "value": "on", "timestamp": 1693571521304, "interval": 104}, {"eventtype": "window_resize", "value": [1024, 768], "timestamp": 1693571521519, "interval": 215}, {"eventtype": "window_resize", "value": [1920, 976], "timestamp": 1693571524979, "interval": 3460}, {"eventtype": "window_resize", "value": [1920, 1080], "timestamp": 1693571527064, "interval": 2085}, {"eventtype": "window_resize", "value": [1920, 976], "timestamp": 1693572929671, "interval": 1402607}], "useragent": "Mozilla/5.0 (Windows NT 10.0; Win64; x64; rv:109.0) Gecko/20100101 Firefox/116.0", "mode": "live", "id": "w31327541:a32233650", "status": "user data saved", "Beginhit": "2023-09-01 12:31:55.192665", "Beginexp": "2023-09-01 12:32:03.074403", "Endhit": "2023-09-01 12:55:26.364354", "psiturkStatus": 3, "browser": "<redacted>", "platform": "windows", "language": "en-GB"}