{"condition": 1, "counterbalance": 0, "assignmentId": "a91515449", "workerId": "w97948648", "hitId": "h60983826", "currenttrial": 8, "bonus": 0, "data": [{"uniqueid": "w97948648:a91515449", "current_trial": 0, "dateTime": 1693660302933, "trialdata": {"success": true, "trial_type": "fullscreen", "trial_index": 0, "time_elapsed": 3702, "internal_node_id": "0.0-0.0"}}, {"uniqueid": "w97948648:a91515449", "current_trial": 1, "dateTime": 1693660313929, "trialdata": {"view_history": [{"page_index": 0, "viewing_time": 10988}], "rt": 10988, "trial_id": "exp_instructions_misaligned", "trial_type": "instructions", "trial_index": 1, "time_elapsed": 14698, "internal_node_id": "0.0-1.0"}}, {"uniqueid": "w97948648:a91515449", "current_trial": 2, "dateTime": 1693660428862, "trialdata": {"view_history": [{"page_index": 0, "viewing_time": 31980}, {"page_index": 1, "viewing_time": 53637}, {"page_index": 2, "viewing_time": 7716}, {"page_index": 3, "viewing_time": 21604}], "rt": 114937, "trial_id": "mouselab_instructions_1_misaligned", "trial_type": "instructions", "trial_index": 2, "time_elapsed": 129631, "internal_node_id": "0.0-2.0-1.0"}}, {"uniqueid": "w97948648:a91515449", "current_trial": 3, "dateTime": 1693660443941, "trialdata": {"revealed_states": [], "clicked_states": [], "num_clicks_accrued": [0, 0, 0, 0, 0, 0, 0, 0, 0, 0, 0, 0, 0], "stateRewards": ["", -10, 10, -10, -10, 10, -10, -10, 10, -10, -10, -10, -10, 10, 10, 10, 10, -10, -10, -10, -10, -10, 10, -10, 10, 10, 10, 10, 10, 10, -10, -10, -10, -10], "withholdReward": false, "trial_id": "practice_1", "block": "test", "trialIndex": 0, "score": -6.5, "costs": 0, "simulationMode": [null, null, null, null, null], "rewards": [-10, 10, 10, -10, -10], "path": ["0", "0", "12", "13", "14", "19", "21"], "rt": [2701, 652, 555, 770, 686], "actions": ["right", "right", "right", "down", "down"], "actionTimes": [5986, 7177, 8246, 9561, 10778], "queries": {"click": {"state": {"target": [], "time": []}, "edge": {"target": [], "time": []}}, "mouseover": {"state": {"target": ["28"], "time": [5087]}, "edge": {"target": [], "time": []}}, "mouseout": {"state": {"target": ["0", "28"], "time": [2554, 5372]}, "edge": {"target": [], "time": []}}}, "displayed_time": "11.29", "trialTime": 14838, "trial_type": "mouselab-mdp", "trial_index": 3, "time_elapsed": 144709, "internal_node_id": "0.0-2.0-2.0-0.0"}}, {"uniqueid": "w97948648:a91515449", "current_trial": 4, "dateTime": 1693660454615, "trialdata": {"revealed_states": [], "clicked_states": [], "num_clicks_accrued": [0, 0, 0, 0, 0, 0, 0, 0, 0, 0, 0, 0, 0], "stateRewards": ["", -10, -10, 10, -10, 10, 10, 10, 10, 10, 10, 10, -10, -10, -10, -10, 10, -10, 10, 10, 10, 10, 10, 10, -10, -10, -10, 10, -10, -10, 10, 10, -10, 10], "withholdReward": false, "trial_id": "practice_2", "block": "test", "trialIndex": 1, "score": 13.5, "costs": 0, "simulationMode": [null, null, null, null, null], "rewards": [-10, -10, 10, 10, 10], "path": ["0", "0", "1", "2", "3", "8", "11"], "rt": [1365, 186, 15, 633, 333], "actions": ["up", "up", "up", "left", "left"], "actionTimes": [3803, 4525, 5072, 6242, 7105], "queries": {"click": {"state": {"target": [], "time": []}, "edge": {"target": [], "time": []}}, "mouseover": {"state": {"target": [], "time": []}, "edge": {"target": [], "time": []}}, "mouseout": {"state": {"target": ["10", "1", "0"], "time": [1722, 1877, 9148]}, "edge": {"target": [], "time": []}}}, "displayed_time": "7.64", "trialTime": 10476, "trial_type": "mouselab-mdp", "trial_index": 4, "time_elapsed": 155384, "internal_node_id": "0.0-2.0-2.0-1.0"}}, {"uniqueid": "w97948648:a91515449", "current_trial": 5, "dateTime": 1693660468676, "trialdata": {"view_history": [{"page_index": 0, "viewing_time": 9689}, {"page_index": 1, "viewing_time": 4367}], "rt": 14056, "trial_id": "mouselab_instructions_2_misaligned", "trial_type": "instructions", "trial_index": 5, "time_elapsed": 169444, "internal_node_id": "0.0-2.0-3.0"}}, {"uniqueid": "w97948648:a91515449", "current_trial": 6, "dateTime": 1693660496250, "trialdata": {"rt": 27569, "response": {"Q0": "The cost for clicking on nodes may vary between nodes.", "Q1": "The better I perform the higher my bonus will be.", "Q2": "Yes.", "Q3": "To get the highest total score.", "Q4": "Any time during the round.", "Q5": "10 seconds"}, "question_order": [0, 1, 2, 3, 4, 5], "correct": {"Q0": "The cost for clicking on nodes may vary between nodes.", "Q1": "The better I perform the higher my bonus will be.", "Q2": "No, the amount of cash at each node of the web may be different each time.", "Q3": "To get the highest total score.", "Q4": "Only before moving the spider.", "Q5": "3 seconds"}, "trial_id": "mouselab_quiz_misaligned", "trial_type": "survey-multi-choice", "trial_index": 6, "time_elapsed": 197019, "internal_node_id": "0.0-2.0-4.0"}}, {"uniqueid": "w97948648:a91515449", "current_trial": 7, "dateTime": 1693660503710, "trialdata": {"success": true, "trial_type": "fullscreen", "trial_index": 7, "time_elapsed": 204479, "internal_node_id": "0.0-2.1-0.1-0.1"}}], "questiondata": {"params": {"CODE": "C6DMOQA6", "MIN_TIME": 14, "inspectCost": 1, "startTime": "Sat Sep 02 2023 14:11:38 GMT+0100 (British Summer Time)", "bonusRate": 0.002, "variance": "1_2_4_8_44", "branching": "31123"}}, "eventdata": [{"eventtype": "initialized", "value": null, "timestamp": 1693660297768, "interval": 0}, {"eventtype": "window_resize", "value": [1024, 740], "timestamp": 1693660297768, "interval": 0}, {"eventtype": "window_resize", "value": [1024, 740], "timestamp": 1693660298102, "interval": 334}, {"eventtype": "window_resize", "value": [1440, 900], "timestamp": 1693660302164, "interval": 4062}, {"eventtype": "focus", "value": "off", "timestamp": 1693660302568, "interval": 404}, {"eventtype": "focus", "value": "on", "timestamp": 1693660305376, "interval": 2808}, {"eventtype": "focus", "value": "off", "timestamp": 1693660500612, "interval": 195236}, {"eventtype": "focus", "value": "on", "timestamp": 1693660500612, "interval": 0}, {"eventtype": "window_resize", "value": [1024, 740], "timestamp": 1693660500814, "interval": 202}, {"eventtype": "window_resize", "value": [1440, 900], "timestamp": 1693660502929, "interval": 2115}, {"eventtype": "focus", "value": "off", "timestamp": 1693660503326, "interval": 397}, {"eventtype": "focus", "value": "on", "timestamp": 1693660512439, "interval": 9113}, {"eventtype": "window_resize", "value": [1024, 740], "timestamp": 1693660553423, "interval": 40984}], "useragent": "Mozilla/5.0 (Macintosh; Intel Mac OS X 10_15_7) AppleWebKit/605.1.15 (KHTML, like Gecko) Version/16.2 Safari/605.1.15", "mode": "live", "id": "w97948648:a91515449", "status": "user data saved", "Beginhit": "2023-09-02 13:11:35.844484", "Beginexp": "2023-09-02 13:11:43.040552", "Endhit": null, "psiturkStatus": 6, "browser": "<redacted>", "platform": "macos", "language": "en-GB", "excludeReason": "quizfail"}