{"condition": 0, "counterbalance": 0, "assignmentId": "a12069207", "workerId": "w20838185", "hitId": "h17280208", "currenttrial": 55, "bonus": 0, "data": [{"uniqueid": "w20838185:a12069207", "current_trial": 0, "dateTime": 1691162132807, "trialdata": {"success": true, "trial_type": "fullscreen", "trial_index": 0, "time_elapsed": 5335, "internal_node_id": "0.0-0.0"}}, {"uniqueid": "w20838185:a12069207", "current_trial": 1, "dateTime": 1691162190095, "trialdata": {"view_history": [{"page_index": 0, "viewing_time": 57269}], "rt": 57271, "trial_id": "exp_instructions_control", "trial_type": "instructions", "trial_index": 1, "time_elapsed": 62625, "internal_node_id": "0.0-1.0"}}, {"uniqueid": "w20838185:a12069207", "current_trial": 2, "dateTime": 1691162197854, "trialdata": {"success": true, "trial_type": "fullscreen", "trial_index": 2, "time_elapsed": 70384, "internal_node_id": "0.0-2.0-0.0"}}, {"uniqueid": "w20838185:a12069207", "current_trial": 3, "dateTime": 1691162621371, "trialdata": {"view_history": [{"page_index": 0, "viewing_time": 167476}, {"page_index": 1, "viewing_time": 136758}, {"page_index": 2, "viewing_time": 45036}, {"page_index": 3, "viewing_time": 74238}], "rt": 423508, "trial_id": "mouselab_instructions_1_control", "trial_type": "instructions", "trial_index": 3, "time_elapsed": 493901, "internal_node_id": "0.0-2.0-1.0"}}, {"uniqueid": "w20838185:a12069207", "current_trial": 4, "dateTime": 1691162651710, "trialdata": {"revealed_states": [], "clicked_states": [], "num_clicks_accrued": [0, 0, 0, 0, 0, 0, 0, 0, 0, 0, 0, 0, 0], "stateRewards": ["", 10, -10, -10, 10, -10, 10, -10, 10, 10, -10, -10, 10, -10, 10, -10, 10, 10, -10, 10, 10, 10, -10, -10, -10, -10, -10, 10, 10, 10, 10, 10, 10, -10], "withholdReward": false, "trial_id": "practice_1", "block": "test", "trialIndex": 0, "score": 33.5, "costs": 0, "simulationMode": [null, null, null, null, null], "rewards": [10, -10, 10, 10, 10], "path": ["0", "0", "12", "13", "14", "19", "21"], "rt": [5697, 1581, 868, 2569, 1356], "actions": ["right", "right", "right", "down", "down"], "actionTimes": [10952, 13049, 14417, 17496, 19367], "queries": {"click": {"state": {"target": [], "time": []}, "edge": {"target": [], "time": []}}, "mouseover": {"state": {"target": [], "time": []}, "edge": {"target": [], "time": []}}, "mouseout": {"state": {"target": ["0"], "time": [2856]}, "edge": {"target": [], "time": []}}}, "displayed_time": "19.87", "trialTime": 28738, "trial_type": "mouselab-mdp", "trial_index": 4, "time_elapsed": 524239, "internal_node_id": "0.0-2.0-2.0-0.0"}}, {"uniqueid": "w20838185:a12069207", "current_trial": 5, "dateTime": 1691162676997, "trialdata": {"revealed_states": [], "clicked_states": [], "num_clicks_accrued": [0, 0, 0, 0, 0, 0, 0, 0, 0, 0, 0, 0, 0], "stateRewards": ["", -10, 10, 10, -10, 10, 10, 10, -10, 10, -10, -10, 10, -10, 10, -10, -10, 10, -10, 10, 10, 10, -10, 10, 10, 10, -10, -10, -10, -10, 10, -10, 10, 10], "withholdReward": false, "trial_id": "practice_2", "block": "test", "trialIndex": 1, "score": -6.5, "costs": 0, "simulationMode": [null, null, null, null, null], "rewards": [10, -10, 10, -10, -10], "path": ["0", "0", "12", "13", "14", "15", "16"], "rt": [4408, 1730, 685, 510, 969], "actions": ["right", "right", "right", "up", "up"], "actionTimes": [12672, 14921, 16131, 17159, 18647], "queries": {"click": {"state": {"target": [], "time": []}, "edge": {"target": [], "time": []}}, "mouseover": {"state": {"target": [], "time": []}, "edge": {"target": [], "time": []}}, "mouseout": {"state": {"target": ["0", "0"], "time": [6671, 7150]}, "edge": {"target": [], "time": []}}}, "displayed_time": "19.15", "trialTime": 24563, "trial_type": "mouselab-mdp", "trial_index": 5, "time_elapsed": 549525, "internal_node_id": "0.0-2.0-2.0-1.0"}}, {"uniqueid": "w20838185:a12069207", "current_trial": 6, "dateTime": 1691162764432, "trialdata": {"view_history": [{"page_index": 0, "viewing_time": 65575}, {"page_index": 1, "viewing_time": 21849}], "rt": 87424, "trial_id": "mouselab_instructions_2_control", "trial_type": "instructions", "trial_index": 6, "time_elapsed": 636962, "internal_node_id": "0.0-2.0-3.0"}}, {"uniqueid": "w20838185:a12069207", "current_trial": 7, "dateTime": 1691162857162, "trialdata": {"rt": 92631, "response": {"Q0": "The cost for clicking on nodes may vary between nodes.", "Q1": "The better I perform the higher my bonus will be.", "Q2": "No, the amount of cash at each node of the web may be different each time.", "Q3": "To get the highest total score.", "Q4": "Only before moving the spider.", "Q5": "3 seconds"}, "question_order": [0, 1, 2, 3, 4, 5], "correct": {"Q0": "The cost for clicking on nodes may vary between nodes.", "Q1": "The better I perform the higher my bonus will be.", "Q2": "No, the amount of cash at each node of the web may be different each time.", "Q3": "To get the highest total score.", "Q4": "Only before moving the spider.", "Q5": "3 seconds"}, "trial_id": "mouselab_quiz_control", "trial_type": "survey-multi-choice", "trial_index": 7, "time_elapsed": 729692, "internal_node_id": "0.0-2.0-4.0"}}, {"uniqueid": "w20838185:a12069207", "current_trial": 8, "dateTime": 1691162913145, "trialdata": {"rt": 55934, "stimulus": "\n<h1> Get ready to start the game! </h1>\n\nThank you for reading the instructions. Get ready start with the 40 rounds of this game.\n<br><br>\nIf you need to take a break, feel free to take one after the end of a round, before continuing to the next one.\n<br><br>\nRemember, the more money the spider gets, the bigger your bonus will be!\n<br><br>\n<div style='text-align: center;'>Press <code>space</code> to begin.</div>\n\n<br><br>\n(If, at any point, the <code>space</code> key does not take you to the next page, click once on the text and try again.)", "response": " ", "trial_id": "mdp_ready", "trial_type": "html-keyboard-response", "trial_index": 8, "time_elapsed": 785675, "internal_node_id": "0.0-4.0-0.0"}}, {"uniqueid": "w20838185:a12069207", "current_trial": 9, "dateTime": 1691162940688, "trialdata": {"revealed_states": [], "clicked_states": [], "num_clicks_accrued": [0, 0, 0, 0, 0, 0, 0, 0, 0, 0, 0, 0, 0], "stateRewards": ["", -1, -3, -7, -7, -76, 30, -49, 11, -70, 56, 2, 1, 4, -3, -14, -59, -83, -25, -9, -21, -67, -73, -2, 4, 4, -9, -11, -32, 60, 9, -87, 22, -64], "withholdReward": false, "trial_id": "mdp_trial_1", "block": "test", "trialIndex": 2, "score": -74, "costs": 0, "simulationMode": [null, null, null, null, null], "rewards": [1, 4, -3, -9, -67], "path": ["0", "0", "12", "13", "14", "19", "21"], "rt": [5421, 1615, 485, 481, 185], "actions": ["right", "right", "right", "down", "down"], "actionTimes": [14132, 16280, 17282, 18284, 18987], "queries": {"click": {"state": {"target": [], "time": []}, "edge": {"target": [], "time": []}}, "mouseover": {"state": {"target": [], "time": []}, "edge": {"target": [], "time": []}}, "mouseout": {"state": {"target": ["0"], "time": [2786]}, "edge": {"target": [], "time": []}}}, "displayed_time": "22.71", "trialTime": 26809, "trial_type": "mouselab-mdp", "trial_index": 9, "time_elapsed": 813217, "internal_node_id": "0.0-4.0-1.0-0.0"}}, {"uniqueid": "w20838185:a12069207", "current_trial": 10, "dateTime": 1691162990136, "trialdata": {"revealed_states": [], "clicked_states": ["1", "2", "23", "24", "25", "15", "19", "21", "7", "8"], "num_clicks_accrued": [0, 0, 0, 0, 0, 0, 0, 0, 0, 0, 0, 0, 0], "stateRewards": ["", 1, -4, -6, 11, -20, 8, -30, 1, -38, 88, 42, 2, 3, 5, -12, -8, -74, 30, -8, 67, -19, 42, 2, -1, 4, 13, 50, -68, 2, -8, -15, 87, -46], "withholdReward": false, "trial_id": "mdp_trial_2", "block": "test", "trialIndex": 3, "score": -4, "costs": -14.000000000000002, "simulationMode": [null, null, null, null, null], "rewards": [1, -4, -6, 11, 8], "path": ["0", "0", "1", "2", "3", "4", "6"], "rt": [34349, 883, 825, 920, 619], "actions": ["up", "up", "up", "right", "right"], "actionTimes": [37844, 39257, 40601, 42031, 43152], "queries": {"click": {"state": {"target": ["1", "2", "23", "24", "25", "15", "19", "21", "7", "8"], "time": [4999, 9190, 13713, 16070, 18239, 20102, 22406, 24540, 27070, 30717]}, "edge": {"target": [], "time": []}}, "mouseover": {"state": {"target": ["1", "2", "1", "23", "24", "25", "15", "14", "19", "21", "22", "2", "7", "4", "3", "8", "2", "1"], "time": [4322, 8584, 12538, 13221, 15129, 17309, 19493, 20694, 20946, 23936, 25463, 25936, 26460, 27781, 29435, 29891, 32371, 32447]}, "edge": {"target": [], "time": []}}, "mouseout": {"state": {"target": ["0", "1", "2", "1", "23", "24", "25", "15", "14", "19", "21", "22", "2", "7", "4", "3", "8", "2", "1"], "time": [4067, 8303, 12406, 12743, 14840, 17237, 18940, 20688, 20820, 23754, 25434, 25496, 25990, 27669, 29393, 29820, 32345, 32396, 32779]}, "edge": {"target": [], "time": []}}}, "displayed_time": "43.66", "trialTime": 48693, "trial_type": "mouselab-mdp", "trial_index": 10, "time_elapsed": 862664, "internal_node_id": "0.0-4.0-1.0-1.0"}}, {"uniqueid": "w20838185:a12069207", "current_trial": 11, "dateTime": 1691163010199, "trialdata": {"revealed_states": [], "clicked_states": [], "num_clicks_accrued": [0, 0, 0, 0, 0, 0, 0, 0, 0, 0, 0, 0, 0], "stateRewards": ["", 2, 3, -3, 12, -43, 81, -82, -15, 58, -7, -75, -1, -1, 3, -5, 50, -25, -8, 4, 66, 65, -66, 2, -4, 2, -1, -10, 10, 37, 11, 88, -37, 8], "withholdReward": false, "trial_id": "mdp_trial_3", "block": "test", "trialIndex": 4, "score": 70, "costs": 0, "simulationMode": [null, null, null, null, null], "rewards": [-1, -1, 3, 4, 65], "path": ["0", "0", "12", "13", "14", "19", "21"], "rt": [4658, 474, 349, 446, 553], "actions": ["right", "right", "right", "down", "down"], "actionTimes": [7511, 8504, 9355, 10304, 11370], "queries": {"click": {"state": {"target": [], "time": []}, "edge": {"target": [], "time": []}}, "mouseover": {"state": {"target": [], "time": []}, "edge": {"target": [], "time": []}}, "mouseout": {"state": {"target": ["0"], "time": [2233]}, "edge": {"target": [], "time": []}}}, "displayed_time": "16.86", "trialTime": 19281, "trial_type": "mouselab-mdp", "trial_index": 11, "time_elapsed": 882727, "internal_node_id": "0.0-4.0-1.0-2.0"}}, {"uniqueid": "w20838185:a12069207", "current_trial": 12, "dateTime": 1691163031412, "trialdata": {"revealed_states": [], "clicked_states": [], "num_clicks_accrued": [0, 0, 0, 0, 0, 0, 0, 0, 0, 0, 0, 0, 0], "stateRewards": ["", 2, -4, -8, -15, 71, -43, -41, 7, -17, 20, 67, -1, -1, -4, 6, 37, -24, -47, 9, 34, 57, 45, 1, 2, -4, -5, -23, 88, -5, 13, -40, 43, 44], "withholdReward": false, "trial_id": "mdp_trial_4", "block": "test", "trialIndex": 5, "score": -68, "costs": 0, "simulationMode": [null, null, null, null, null], "rewards": [2, -4, -8, -15, -43], "path": ["0", "0", "1", "2", "3", "4", "6"], "rt": [4662, 303, 325, 539, 255], "actions": ["up", "up", "up", "right", "right"], "actionTimes": [8068, 8882, 9709, 10747, 11520], "queries": {"click": {"state": {"target": [], "time": []}, "edge": {"target": [], "time": []}}, "mouseover": {"state": {"target": [], "time": []}, "edge": {"target": [], "time": []}}, "mouseout": {"state": {"target": ["0"], "time": [2767]}, "edge": {"target": [], "time": []}}}, "displayed_time": "17.41", "trialTime": 20307, "trial_type": "mouselab-mdp", "trial_index": 12, "time_elapsed": 903940, "internal_node_id": "0.0-4.0-1.0-3.0"}}, {"uniqueid": "w20838185:a12069207", "current_trial": 13, "dateTime": 1691163051182, "trialdata": {"revealed_states": [], "clicked_states": [], "num_clicks_accrued": [0, 0, 0, 0, 0, 0, 0, 0, 0, 0, 0, 0, 0], "stateRewards": ["", -1, -2, 8, -6, -79, -6, 87, 9, -5, -66, -38, 2, 2, 5, -6, -82, 74, 85, -8, 67, -30, -15, 1, -2, -2, -2, 87, 64, 49, 7, 2, -38, -9], "withholdReward": false, "trial_id": "mdp_trial_5", "block": "test", "trialIndex": 6, "score": -34, "costs": 0, "simulationMode": [null, null, null, null, null], "rewards": [1, -2, -2, 7, -38], "path": ["0", "0", "23", "24", "25", "30", "32"], "rt": [4288, 273, 250, 684, 696], "actions": ["left", "left", "left", "down", "down"], "actionTimes": [6431, 7228, 7985, 9183, 10383], "queries": {"click": {"state": {"target": [], "time": []}, "edge": {"target": [], "time": []}}, "mouseover": {"state": {"target": [], "time": []}, "edge": {"target": [], "time": []}}, "mouseout": {"state": {"target": ["0"], "time": [1474]}, "edge": {"target": [], "time": []}}}, "displayed_time": "16.14", "trialTime": 18797, "trial_type": "mouselab-mdp", "trial_index": 13, "time_elapsed": 923710, "internal_node_id": "0.0-4.0-1.0-4.0"}}, {"uniqueid": "w20838185:a12069207", "current_trial": 14, "dateTime": 1691163070616, "trialdata": {"revealed_states": [], "clicked_states": [], "num_clicks_accrued": [0, 0, 0, 0, 0, 0, 0, 0, 0, 0, 0, 0, 0], "stateRewards": ["", -1, -2, -1, -10, -57, 73, -72, -16, 75, -14, -46, -2, -3, -7, -1, -61, -60, 76, -4, 50, 4, 14, 2, 2, -7, 12, -65, -32, 15, -8, -76, -25, -61], "withholdReward": false, "trial_id": "mdp_trial_6", "block": "test", "trialIndex": 7, "score": 34, "costs": 0, "simulationMode": [null, null, null, null, null], "rewards": [-2, -3, -7, -4, 50], "path": ["0", "0", "12", "13", "14", "19", "20"], "rt": [3547, 399, 296, 218, 793], "actions": ["right", "right", "right", "down", "right"], "actionTimes": [6016, 6922, 7720, 8457, 9771], "queries": {"click": {"state": {"target": [], "time": []}, "edge": {"target": [], "time": []}}, "mouseover": {"state": {"target": [], "time": []}, "edge": {"target": [], "time": []}}, "mouseout": {"state": {"target": ["0"], "time": [1824]}, "edge": {"target": [], "time": []}}}, "displayed_time": "16.47", "trialTime": 18436, "trial_type": "mouselab-mdp", "trial_index": 14, "time_elapsed": 943144, "internal_node_id": "0.0-4.0-1.0-5.0"}}, {"uniqueid": "w20838185:a12069207", "current_trial": 15, "dateTime": 1691163090728, "trialdata": {"revealed_states": [], "clicked_states": [], "num_clicks_accrued": [0, 0, 0, 0, 0, 0, 0, 0, 0, 0, 0, 0, 0], "stateRewards": ["", 2, 4, -6, -13, -75, -81, 30, 7, 5, 59, -65, -1, -1, 7, 14, -38, 36, -41, 1, -54, -5, 64, 2, -1, 5, 6, -19, 79, 11, 16, -33, -50, 58], "withholdReward": false, "trial_id": "mdp_trial_7", "block": "test", "trialIndex": 8, "score": 1, "costs": 0, "simulationMode": [null, null, null, null, null], "rewards": [-1, -1, 7, 1, -5], "path": ["0", "0", "12", "13", "14", "19", "21"], "rt": [839, 455, 332, 388, 237], "actions": ["right", "right", "right", "down", "down"], "actionTimes": [2994, 3960, 4793, 5706, 6448], "queries": {"click": {"state": {"target": [], "time": []}, "edge": {"target": [], "time": []}}, "mouseover": {"state": {"target": [], "time": []}, "edge": {"target": [], "time": []}}, "mouseout": {"state": {"target": ["0"], "time": [1473]}, "edge": {"target": [], "time": []}}}, "displayed_time": "16.16", "trialTime": 19137, "trial_type": "mouselab-mdp", "trial_index": 15, "time_elapsed": 963256, "internal_node_id": "0.0-4.0-1.0-6.0"}}, {"uniqueid": "w20838185:a12069207", "current_trial": 16, "dateTime": 1691163115928, "trialdata": {"revealed_states": [], "clicked_states": [], "num_clicks_accrued": [0, 0, 0, 0, 0, 0, 0, 0, 0, 0, 0, 0, 0], "stateRewards": ["", -2, -4, -6, 12, -58, -70, -80, 2, 16, -88, -62, 1, 2, -5, 11, 77, -35, -44, -5, 18, -83, 87, 1, -3, -5, 13, -44, -21, -86, 10, -52, 8, 29], "withholdReward": false, "trial_id": "mdp_trial_8", "block": "test", "trialIndex": 9, "score": -90, "costs": 0, "simulationMode": [null, null, null, null, null], "rewards": [1, 2, -5, -5, -83], "path": ["0", "0", "12", "13", "14", "19", "21"], "rt": [734, 195, 226, 138, 178], "actions": ["right", "right", "right", "down", "down"], "actionTimes": [2739, 3444, 4177, 4816, 5513], "queries": {"click": {"state": {"target": [], "time": []}, "edge": {"target": [], "time": []}}, "mouseover": {"state": {"target": [], "time": []}, "edge": {"target": [], "time": []}}, "mouseout": {"state": {"target": ["0"], "time": [1284]}, "edge": {"target": [], "time": []}}}, "displayed_time": "16.01", "trialTime": 24148, "trial_type": "mouselab-mdp", "trial_index": 16, "time_elapsed": 988456, "internal_node_id": "0.0-4.0-1.0-7.0"}}, {"uniqueid": "w20838185:a12069207", "current_trial": 17, "dateTime": 1691163136338, "trialdata": {"revealed_states": [], "clicked_states": [], "num_clicks_accrued": [0, 0, 0, 0, 0, 0, 0, 0, 0, 0, 0, 0, 0], "stateRewards": ["", 2, 4, 7, -6, -76, -81, 2, 5, -66, -3, 36, -2, -4, 6, -2, -69, 4, -49, -6, 67, 38, -67, 2, 1, 1, 6, -68, -21, 52, -16, -16, 6, -70], "withholdReward": false, "trial_id": "mdp_trial_9", "block": "test", "trialIndex": 10, "score": 61, "costs": 0, "simulationMode": [null, null, null, null, null], "rewards": [-2, -4, 6, -6, 67], "path": ["0", "0", "12", "13", "14", "19", "20"], "rt": [637, 111, 135, 87, 187], "actions": ["right", "right", "right", "down", "right"], "actionTimes": [3195, 3821, 4508, 5099, 5803], "queries": {"click": {"state": {"target": [], "time": []}, "edge": {"target": [], "time": []}}, "mouseover": {"state": {"target": [], "time": []}, "edge": {"target": [], "time": []}}, "mouseout": {"state": {"target": ["0"], "time": [1854]}, "edge": {"target": [], "time": []}}}, "displayed_time": "16.57", "trialTime": 19420, "trial_type": "mouselab-mdp", "trial_index": 17, "time_elapsed": 1008867, "internal_node_id": "0.0-4.0-1.0-8.0"}}, {"uniqueid": "w20838185:a12069207", "current_trial": 18, "dateTime": 1691163155395, "trialdata": {"revealed_states": [], "clicked_states": [], "num_clicks_accrued": [0, 0, 0, 0, 0, 0, 0, 0, 0, 0, 0, 0, 0], "stateRewards": ["", 2, -3, -8, 14, -7, -51, 73, 2, 36, 36, -43, -1, 3, -4, 1, 6, 87, -65, 15, 61, -42, -83, -1, 3, -2, -7, 30, -48, 35, 13, 26, 60, 78], "withholdReward": false, "trial_id": "mdp_trial_10", "block": "test", "trialIndex": 11, "score": 74, "costs": 0, "simulationMode": [null, null, null, null, null], "rewards": [-1, 3, -4, 15, 61], "path": ["0", "0", "12", "13", "14", "19", "20"], "rt": [3496, 79, 157, 169, 366], "actions": ["right", "right", "right", "down", "right"], "actionTimes": [5436, 6037, 6715, 7405, 8279], "queries": {"click": {"state": {"target": [], "time": []}, "edge": {"target": [], "time": []}}, "mouseover": {"state": {"target": [], "time": []}, "edge": {"target": [], "time": []}}, "mouseout": {"state": {"target": ["0"], "time": [1220]}, "edge": {"target": [], "time": []}}}, "displayed_time": "15.94", "trialTime": 17926, "trial_type": "mouselab-mdp", "trial_index": 18, "time_elapsed": 1027923, "internal_node_id": "0.0-4.0-1.0-9.0"}}, {"uniqueid": "w20838185:a12069207", "current_trial": 19, "dateTime": 1691163174512, "trialdata": {"revealed_states": [], "clicked_states": [], "num_clicks_accrued": [0, 0, 0, 0, 0, 0, 0, 0, 0, 0, 0, 0, 0], "stateRewards": ["", 2, -3, 5, 11, -79, 54, 11, -9, -78, 33, 22, -2, -1, 2, 14, 43, 34, 1, 10, 49, -65, 39, -1, 1, -1, 3, -16, -2, 11, 2, 12, 48, -65], "withholdReward": false, "trial_id": "mdp_trial_11", "block": "test", "trialIndex": 12, "score": 58, "costs": 0, "simulationMode": [null, null, null, null, null], "rewards": [-2, -1, 2, 10, 49], "path": ["0", "0", "12", "13", "14", "19", "20"], "rt": [959, 229, 108, 99, 356], "actions": ["right", "right", "right", "down", "right"], "actionTimes": [3035, 3791, 4422, 5040, 5892], "queries": {"click": {"state": {"target": [], "time": []}, "edge": {"target": [], "time": []}}, "mouseover": {"state": {"target": [], "time": []}, "edge": {"target": [], "time": []}}, "mouseout": {"state": {"target": ["0"], "time": [1326]}, "edge": {"target": [], "time": []}}}, "displayed_time": "16.08", "trialTime": 18000, "trial_type": "mouselab-mdp", "trial_index": 19, "time_elapsed": 1047040, "internal_node_id": "0.0-4.0-1.0-10.0"}}, {"uniqueid": "w20838185:a12069207", "current_trial": 20, "dateTime": 1691163195367, "trialdata": {"revealed_states": [], "clicked_states": [], "num_clicks_accrued": [0, 0, 0, 0, 0, 0, 0, 0, 0, 0, 0, 0, 0], "stateRewards": ["", -1, 1, 8, -3, -24, 11, -65, -6, -77, 48, 44, -2, 1, -2, -7, -55, -35, 33, 8, -28, 19, -53, -1, -1, -5, -5, -70, 10, 44, 8, -58, -70, 51], "withholdReward": false, "trial_id": "mdp_trial_12", "block": "test", "trialIndex": 13, "score": -23, "costs": 0, "simulationMode": [null, null, null, null, null], "rewards": [-2, 1, -2, 8, -28], "path": ["0", "0", "12", "13", "14", "19", "20"], "rt": [3749, 95, 221, 222, 206], "actions": ["right", "right", "right", "down", "right"], "actionTimes": [5375, 5985, 6713, 7442, 8153], "queries": {"click": {"state": {"target": [], "time": []}, "edge": {"target": [], "time": []}}, "mouseover": {"state": {"target": [], "time": []}, "edge": {"target": [], "time": []}}, "mouseout": {"state": {"target": ["0"], "time": [748]}, "edge": {"target": [], "time": []}}}, "displayed_time": "15.63", "trialTime": 19701, "trial_type": "mouselab-mdp", "trial_index": 20, "time_elapsed": 1067896, "internal_node_id": "0.0-4.0-1.0-11.0"}}, {"uniqueid": "w20838185:a12069207", "current_trial": 21, "dateTime": 1691163215881, "trialdata": {"revealed_states": [], "clicked_states": [], "num_clicks_accrued": [0, 0, 0, 0, 0, 0, 0, 0, 0, 0, 0, 0, 0], "stateRewards": ["", 1, -1, 4, 5, -32, 18, 20, 6, -88, -74, 9, -2, 1, -2, -14, 34, -77, -38, -1, 80, -36, 73, 2, 3, -8, 10, -48, -73, -71, -11, -22, 20, 54], "withholdReward": false, "trial_id": "mdp_trial_13", "block": "test", "trialIndex": 14, "score": -94, "costs": 0, "simulationMode": [null, null, null, null, null], "rewards": [-2, 1, -2, -14, -77], "path": ["0", "0", "12", "13", "14", "15", "17"], "rt": [2415, 208, 347, 185, 106], "actions": ["right", "right", "right", "up", "right"], "actionTimes": [4032, 4747, 5595, 6285, 6905], "queries": {"click": {"state": {"target": [], "time": []}, "edge": {"target": [], "time": []}}, "mouseover": {"state": {"target": [], "time": []}, "edge": {"target": [], "time": []}}, "mouseout": {"state": {"target": ["0"], "time": [736]}, "edge": {"target": [], "time": []}}}, "displayed_time": "15.62", "trialTime": 19332, "trial_type": "mouselab-mdp", "trial_index": 21, "time_elapsed": 1088410, "internal_node_id": "0.0-4.0-1.0-12.0"}}, {"uniqueid": "w20838185:a12069207", "current_trial": 22, "dateTime": 1691163235260, "trialdata": {"revealed_states": [], "clicked_states": [], "num_clicks_accrued": [0, 0, 0, 0, 0, 0, 0, 0, 0, 0, 0, 0, 0], "stateRewards": ["", -2, -1, -3, -1, -78, -6, 2, -1, 22, -88, 32, 2, 2, -7, -8, -51, -17, 54, 2, -44, 54, 75, 2, -2, -8, -15, -29, 12, -67, 15, -1, -47, -47], "withholdReward": false, "trial_id": "mdp_trial_14", "block": "test", "trialIndex": 15, "score": -45, "costs": 0, "simulationMode": [null, null, null, null, null], "rewards": [2, 2, -7, 2, -44], "path": ["0", "0", "12", "13", "14", "19", "20"], "rt": [496, 52, 64, 78, 181], "actions": ["right", "right", "right", "down", "right"], "actionTimes": [1962, 2547, 3143, 3760, 4470], "queries": {"click": {"state": {"target": [], "time": []}, "edge": {"target": [], "time": []}}, "mouseover": {"state": {"target": [], "time": []}, "edge": {"target": [], "time": []}}, "mouseout": {"state": {"target": ["0"], "time": [691]}, "edge": {"target": [], "time": []}}}, "displayed_time": "15.47", "trialTime": 18170, "trial_type": "mouselab-mdp", "trial_index": 22, "time_elapsed": 1107789, "internal_node_id": "0.0-4.0-1.0-13.0"}}, {"uniqueid": "w20838185:a12069207", "current_trial": 23, "dateTime": 1691163253991, "trialdata": {"revealed_states": [], "clicked_states": [], "num_clicks_accrued": [0, 0, 0, 0, 0, 0, 0, 0, 0, 0, 0, 0, 0], "stateRewards": ["", 1, 1, -2, 7, -31, -6, 76, 1, -36, -16, -53, 2, 1, 7, 13, -47, -10, 47, -7, 72, 46, -56, -2, -2, -2, 11, -80, 44, 38, 16, 67, 85, -78], "withholdReward": false, "trial_id": "mdp_trial_15", "block": "test", "trialIndex": 16, "score": -68, "costs": 0, "simulationMode": [null, null, null, null, null], "rewards": [-2, -2, -2, 16, -78], "path": ["0", "0", "23", "24", "25", "30", "33"], "rt": [1532, 584, 239, 547, 250], "actions": ["left", "left", "left", "down", "left"], "actionTimes": [3299, 4415, 5165, 6231, 6981], "queries": {"click": {"state": {"target": [], "time": []}, "edge": {"target": [], "time": []}}, "mouseover": {"state": {"target": [], "time": []}, "edge": {"target": [], "time": []}}, "mouseout": {"state": {"target": ["0"], "time": [891]}, "edge": {"target": [], "time": []}}}, "displayed_time": "15.77", "trialTime": 17459, "trial_type": "mouselab-mdp", "trial_index": 23, "time_elapsed": 1126519, "internal_node_id": "0.0-4.0-1.0-14.0"}}, {"uniqueid": "w20838185:a12069207", "current_trial": 24, "dateTime": 1691163272519, "trialdata": {"revealed_states": [], "clicked_states": [], "num_clicks_accrued": [0, 0, 0, 0, 0, 0, 0, 0, 0, 0, 0, 0, 0], "stateRewards": ["", -1, 2, -2, 13, -56, -28, 10, 14, 53, -80, -29, 1, -3, -3, -14, 14, 9, -40, -9, 18, 18, 48, 1, 1, 1, -9, 64, -39, -9, 7, -52, -78, 7], "withholdReward": false, "trial_id": "mdp_trial_16", "block": "test", "trialIndex": 17, "score": 34, "costs": 0, "simulationMode": [null, null, null, null, null], "rewards": [1, -3, -3, -9, 48], "path": ["0", "0", "12", "13", "14", "19", "22"], "rt": [2301, 320, 159, 92, 589], "actions": ["right", "right", "right", "down", "left"], "actionTimes": [3947, 4778, 5444, 6049, 7171], "queries": {"click": {"state": {"target": [], "time": []}, "edge": {"target": [], "time": []}}, "mouseover": {"state": {"target": [], "time": []}, "edge": {"target": [], "time": []}}, "mouseout": {"state": {"target": ["0"], "time": [912]}, "edge": {"target": [], "time": []}}}, "displayed_time": "15.65", "trialTime": 17236, "trial_type": "mouselab-mdp", "trial_index": 24, "time_elapsed": 1145048, "internal_node_id": "0.0-4.0-1.0-15.0"}}, {"uniqueid": "w20838185:a12069207", "current_trial": 25, "dateTime": 1691163295513, "trialdata": {"revealed_states": [], "clicked_states": ["12", "14"], "num_clicks_accrued": [0, 0, 0, 0, 0, 0, 0, 0, 0, 0, 0, 0, 0], "stateRewards": ["", 1, 3, 1, -13, 52, -28, 67, -14, 3, 63, -70, -1, -4, 7, -11, -10, 47, -18, 6, 69, -9, -61, 2, 3, -6, 10, 63, -34, 40, -6, -79, -35, -32], "withholdReward": false, "trial_id": "mdp_trial_17", "block": "test", "trialIndex": 18, "score": -55.8, "costs": -2.8, "simulationMode": [null, null, null, null, null], "rewards": [-1, -4, 7, 6, -61], "path": ["0", "0", "12", "13", "14", "19", "22"], "rt": [10393, 329, 412, 489, 424], "actions": ["right", "right", "right", "down", "left"], "actionTimes": [14172, 15038, 15950, 16955, 17896], "queries": {"click": {"state": {"target": ["12", "14"], "time": [4879, 6582]}, "edge": {"target": [], "time": []}}, "mouseover": {"state": {"target": ["12", "13", "14"], "time": [4400, 5704, 5964]}, "edge": {"target": [], "time": []}}, "mouseout": {"state": {"target": ["0", "12", "13"], "time": [3050, 5010, 5869]}, "edge": {"target": [], "time": []}}}, "displayed_time": "18.40", "trialTime": 21498, "trial_type": "mouselab-mdp", "trial_index": 25, "time_elapsed": 1168042, "internal_node_id": "0.0-4.0-1.0-16.0"}}, {"uniqueid": "w20838185:a12069207", "current_trial": 26, "dateTime": 1691163318600, "trialdata": {"revealed_states": [], "clicked_states": [], "num_clicks_accrued": [0, 0, 0, 0, 0, 0, 0, 0, 0, 0, 0, 0, 0], "stateRewards": ["", -2, -4, -8, 8, 63, -50, -19, -7, -17, -31, 31, 1, 3, -5, 12, -35, -63, -29, -4, -17, -75, -79, -2, -3, -2, 8, -3, -85, 10, -2, -82, -82, 56], "withholdReward": false, "trial_id": "mdp_trial_18", "block": "test", "trialIndex": 19, "score": 10, "costs": 0, "simulationMode": [null, null, null, null, null], "rewards": [-2, -4, -8, -7, 31], "path": ["0", "0", "1", "2", "3", "8", "11"], "rt": [1657, 333, 242, 251, 152], "actions": ["up", "up", "up", "left", "left"], "actionTimes": [7392, 8242, 9004, 9761, 10421], "queries": {"click": {"state": {"target": [], "time": []}, "edge": {"target": [], "time": []}}, "mouseover": {"state": {"target": [], "time": []}, "edge": {"target": [], "time": []}}, "mouseout": {"state": {"target": ["14", "12"], "time": [4102, 4173]}, "edge": {"target": [], "time": []}}}, "displayed_time": "19.74", "trialTime": 21662, "trial_type": "mouselab-mdp", "trial_index": 26, "time_elapsed": 1191128, "internal_node_id": "0.0-4.0-1.0-17.0"}}, {"uniqueid": "w20838185:a12069207", "current_trial": 27, "dateTime": 1691163339046, "trialdata": {"revealed_states": [], "clicked_states": [], "num_clicks_accrued": [0, 0, 0, 0, 0, 0, 0, 0, 0, 0, 0, 0, 0], "stateRewards": ["", -2, -1, -4, -15, -14, -67, 32, -3, -59, 63, 31, 2, -1, -7, -15, 71, -66, -27, -3, -54, -39, 72, 2, 1, 1, -13, 77, -40, 35, -9, 35, 75, 57], "withholdReward": false, "trial_id": "mdp_trial_19", "block": "test", "trialIndex": 20, "score": -69, "costs": 0, "simulationMode": [null, null, null, null, null], "rewards": [-2, -1, -4, -3, -59], "path": ["0", "0", "1", "2", "3", "8", "9"], "rt": [4653, 21, 116, 501, 167], "actions": ["up", "up", "up", "left", "up"], "actionTimes": [6982, 7516, 8159, 9218, 9889], "queries": {"click": {"state": {"target": [], "time": []}, "edge": {"target": [], "time": []}}, "mouseover": {"state": {"target": [], "time": []}, "edge": {"target": [], "time": []}}, "mouseout": {"state": {"target": ["0"], "time": [839]}, "edge": {"target": [], "time": []}}}, "displayed_time": "16.33", "trialTime": 18926, "trial_type": "mouselab-mdp", "trial_index": 27, "time_elapsed": 1211574, "internal_node_id": "0.0-4.0-1.0-18.0"}}, {"uniqueid": "w20838185:a12069207", "current_trial": 28, "dateTime": 1691163358303, "trialdata": {"revealed_states": [], "clicked_states": [], "num_clicks_accrued": [0, 0, 0, 0, 0, 0, 0, 0, 0, 0, 0, 0, 0], "stateRewards": ["", 1, -3, -2, 14, 49, -40, -39, 2, 26, -61, 73, 1, -4, -8, 12, 79, 29, -65, -13, 55, -26, 27, -1, 3, 3, 9, -17, -60, -18, -8, 35, -88, 69], "withholdReward": false, "trial_id": "mdp_trial_20", "block": "test", "trialIndex": 21, "score": -50, "costs": 0, "simulationMode": [null, null, null, null, null], "rewards": [1, -4, -8, -13, -26], "path": ["0", "0", "12", "13", "14", "19", "21"], "rt": [1589, 366, 628, 51, 16], "actions": ["right", "right", "right", "down", "down"], "actionTimes": [3935, 4806, 5951, 6547, 7118], "queries": {"click": {"state": {"target": [], "time": []}, "edge": {"target": [], "time": []}}, "mouseover": {"state": {"target": [], "time": []}, "edge": {"target": [], "time": []}}, "mouseout": {"state": {"target": [], "time": []}, "edge": {"target": [], "time": []}}}, "displayed_time": "16.35", "trialTime": 17855, "trial_type": "mouselab-mdp", "trial_index": 28, "time_elapsed": 1230831, "internal_node_id": "0.0-4.0-1.0-19.0"}}, {"uniqueid": "w20838185:a12069207", "current_trial": 29, "dateTime": 1691163377770, "trialdata": {"revealed_states": [], "clicked_states": [], "num_clicks_accrued": [0, 0, 0, 0, 0, 0, 0, 0, 0, 0, 0, 0, 0], "stateRewards": ["", 2, -1, 3, -12, -83, 6, -33, 9, 28, 24, -50, -2, -1, -2, -5, -87, 37, 82, 12, 80, -5, 10, -2, -3, -6, 9, 22, -1, 16, 9, 77, -62, 58], "withholdReward": false, "trial_id": "mdp_trial_21", "block": "test", "trialIndex": 22, "score": 27, "costs": 0, "simulationMode": [null, null, null, null, null], "rewards": [-2, -1, -2, -5, 37], "path": ["0", "0", "12", "13", "14", "15", "17"], "rt": [2023, 130, 151, 671, 674], "actions": ["right", "right", "right", "up", "right"], "actionTimes": [4012, 4668, 5333, 6517, 7707], "queries": {"click": {"state": {"target": [], "time": []}, "edge": {"target": [], "time": []}}, "mouseover": {"state": {"target": [], "time": []}, "edge": {"target": [], "time": []}}, "mouseout": {"state": {"target": [], "time": []}, "edge": {"target": [], "time": []}}}, "displayed_time": "16.00", "trialTime": 17914, "trial_type": "mouselab-mdp", "trial_index": 29, "time_elapsed": 1250299, "internal_node_id": "0.0-4.0-1.0-20.0"}}, {"uniqueid": "w20838185:a12069207", "current_trial": 30, "dateTime": 1691163399430, "trialdata": {"revealed_states": [], "clicked_states": [], "num_clicks_accrued": [0, 0, 0, 0, 0, 0, 0, 0, 0, 0, 0, 0, 0], "stateRewards": ["", -2, 2, -5, 1, 42, -63, -58, -6, 2, 16, 81, -2, 4, 7, -10, 33, 3, -33, -2, -52, -84, -27, 2, -3, -3, 15, -74, -14, -5, -5, -84, 79, -31], "withholdReward": false, "trial_id": "mdp_trial_22", "block": "test", "trialIndex": 23, "score": -45, "costs": 0, "simulationMode": [null, null, null, null, null], "rewards": [-2, 4, 7, -2, -52], "path": ["0", "0", "12", "13", "14", "19", "20"], "rt": [1173, 489, 356, 318, 211], "actions": ["right", "right", "right", "down", "right"], "actionTimes": [3595, 4596, 5483, 6303, 7047], "queries": {"click": {"state": {"target": [], "time": []}, "edge": {"target": [], "time": []}}, "mouseover": {"state": {"target": [], "time": []}, "edge": {"target": [], "time": []}}, "mouseout": {"state": {"target": [], "time": []}, "edge": {"target": [], "time": []}}}, "displayed_time": "16.42", "trialTime": 20330, "trial_type": "mouselab-mdp", "trial_index": 30, "time_elapsed": 1271958, "internal_node_id": "0.0-4.0-1.0-21.0"}}, {"uniqueid": "w20838185:a12069207", "current_trial": 31, "dateTime": 1691163424331, "trialdata": {"revealed_states": [], "clicked_states": [], "num_clicks_accrued": [0, 0, 0, 0, 0, 0, 0, 0, 0, 0, 0, 0, 0], "stateRewards": ["", -2, -4, 2, 10, -17, 18, 73, 11, -32, 23, -13, -2, -4, 7, 12, -25, 66, -23, 15, 40, -76, -9, 1, 2, -7, -5, -20, 24, 3, -5, 16, -73, 70], "withholdReward": false, "trial_id": "mdp_trial_23", "block": "test", "trialIndex": 24, "score": 79, "costs": 0, "simulationMode": [null, null, null, null, null], "rewards": [-2, -4, 7, 12, 66], "path": ["0", "0", "12", "13", "14", "15", "17"], "rt": [1963, 144, 47, 524, 70], "actions": ["right", "right", "right", "up", "right"], "actionTimes": [9879, 10563, 11131, 12168, 12770], "queries": {"click": {"state": {"target": [], "time": []}, "edge": {"target": [], "time": []}}, "mouseover": {"state": {"target": [], "time": []}, "edge": {"target": [], "time": []}}, "mouseout": {"state": {"target": ["0", "0"], "time": [6110, 6485]}, "edge": {"target": [], "time": []}}}, "displayed_time": "21.92", "trialTime": 23528, "trial_type": "mouselab-mdp", "trial_index": 31, "time_elapsed": 1296859, "internal_node_id": "0.0-4.0-1.0-22.0"}}, {"uniqueid": "w20838185:a12069207", "current_trial": 32, "dateTime": 1691163443923, "trialdata": {"revealed_states": [], "clicked_states": [], "num_clicks_accrued": [0, 0, 0, 0, 0, 0, 0, 0, 0, 0, 0, 0, 0], "stateRewards": ["", -1, 2, -6, 6, -82, -19, -39, -16, -83, 11, -33, -2, -2, 4, -6, -82, -1, -19, -6, -10, -67, -41, -2, 1, -7, 16, -23, -78, -52, 14, 31, -71, 74], "withholdReward": false, "trial_id": "mdp_trial_24", "block": "test", "trialIndex": 25, "score": -15, "costs": 0, "simulationMode": [null, null, null, null, null], "rewards": [-2, 1, -7, 16, -23], "path": ["0", "0", "23", "24", "25", "26", "27"], "rt": [2242, 384, 249, 790, 209], "actions": ["left", "left", "left", "up", "up"], "actionTimes": [4549, 5474, 6247, 7561, 8283], "queries": {"click": {"state": {"target": [], "time": []}, "edge": {"target": [], "time": []}}, "mouseover": {"state": {"target": ["0"], "time": [2350]}, "edge": {"target": [], "time": []}}, "mouseout": {"state": {"target": ["0", "0"], "time": [1397, 3205]}, "edge": {"target": [], "time": []}}}, "displayed_time": "16.31", "trialTime": 17998, "trial_type": "mouselab-mdp", "trial_index": 32, "time_elapsed": 1316451, "internal_node_id": "0.0-4.0-1.0-23.0"}}, {"uniqueid": "w20838185:a12069207", "current_trial": 33, "dateTime": 1691163463078, "trialdata": {"revealed_states": [], "clicked_states": [], "num_clicks_accrued": [0, 0, 0, 0, 0, 0, 0, 0, 0, 0, 0, 0, 0], "stateRewards": ["", -1, 1, -1, 2, 19, 85, -18, 2, -3, -26, 36, 2, 4, 7, -9, -18, 70, 72, -5, 35, -20, -28, 1, -2, -4, -3, -59, -11, -63, -2, -72, 59, -69], "withholdReward": false, "trial_id": "mdp_trial_25", "block": "test", "trialIndex": 26, "score": -19, "costs": 0, "simulationMode": [null, null, null, null, null], "rewards": [1, -2, -4, -3, -11], "path": ["0", "0", "23", "24", "25", "26", "28"], "rt": [2806, 24, 85, 415, 166], "actions": ["left", "left", "left", "up", "right"], "actionTimes": [5245, 5802, 6416, 7406, 8100], "queries": {"click": {"state": {"target": [], "time": []}, "edge": {"target": [], "time": []}}, "mouseover": {"state": {"target": [], "time": []}, "edge": {"target": [], "time": []}}, "mouseout": {"state": {"target": [], "time": []}, "edge": {"target": [], "time": []}}}, "displayed_time": "16.44", "trialTime": 17850, "trial_type": "mouselab-mdp", "trial_index": 33, "time_elapsed": 1335606, "internal_node_id": "0.0-4.0-1.0-24.0"}}, {"uniqueid": "w20838185:a12069207", "current_trial": 34, "dateTime": 1691163482364, "trialdata": {"revealed_states": [], "clicked_states": [], "num_clicks_accrued": [0, 0, 0, 0, 0, 0, 0, 0, 0, 0, 0, 0, 0], "stateRewards": ["", -1, -4, -1, -5, -28, -23, -15, -15, -38, 59, -87, 2, 2, -5, 9, -55, -39, -71, -6, 85, -85, -11, -1, -2, 5, -10, 1, 25, 41, -4, 69, -35, 86], "withholdReward": false, "trial_id": "mdp_trial_26", "block": "test", "trialIndex": 27, "score": 78, "costs": 0, "simulationMode": [null, null, null, null, null], "rewards": [2, 2, -5, -6, 85], "path": ["0", "0", "12", "13", "14", "19", "20"], "rt": [1602, 255, 318, 566, 401], "actions": ["right", "right", "right", "down", "right"], "actionTimes": [3697, 4478, 5320, 6417, 7363], "queries": {"click": {"state": {"target": [], "time": []}, "edge": {"target": [], "time": []}}, "mouseover": {"state": {"target": [], "time": []}, "edge": {"target": [], "time": []}}, "mouseout": {"state": {"target": [], "time": []}, "edge": {"target": [], "time": []}}}, "displayed_time": "16.11", "trialTime": 17964, "trial_type": "mouselab-mdp", "trial_index": 34, "time_elapsed": 1354892, "internal_node_id": "0.0-4.0-1.0-25.0"}}, {"uniqueid": "w20838185:a12069207", "current_trial": 35, "dateTime": 1691163503025, "trialdata": {"revealed_states": [], "clicked_states": [], "num_clicks_accrued": [0, 0, 0, 0, 0, 0, 0, 0, 0, 0, 0, 0, 0], "stateRewards": ["", 1, 1, 5, 6, -29, -7, 3, -16, 9, -46, 65, -1, 4, -1, -16, -63, -77, -87, 8, 80, -50, 43, -1, -1, -5, 5, -38, -71, -62, 9, 81, -50, -52], "withholdReward": false, "trial_id": "mdp_trial_27", "block": "test", "trialIndex": 28, "score": 90, "costs": 0, "simulationMode": [null, null, null, null, null], "rewards": [-1, 4, -1, 8, 80], "path": ["0", "0", "12", "13", "14", "19", "20"], "rt": [2031, 22, 29, 106, 123], "actions": ["right", "right", "right", "down", "right"], "actionTimes": [5109, 5652, 6211, 6829, 7484], "queries": {"click": {"state": {"target": [], "time": []}, "edge": {"target": [], "time": []}}, "mouseover": {"state": {"target": [], "time": []}, "edge": {"target": [], "time": []}}, "mouseout": {"state": {"target": ["0"], "time": [1267]}, "edge": {"target": [], "time": []}}}, "displayed_time": "17.08", "trialTime": 19256, "trial_type": "mouselab-mdp", "trial_index": 35, "time_elapsed": 1375554, "internal_node_id": "0.0-4.0-1.0-26.0"}}, {"uniqueid": "w20838185:a12069207", "current_trial": 36, "dateTime": 1691163526573, "trialdata": {"revealed_states": [], "clicked_states": [], "num_clicks_accrued": [0, 0, 0, 0, 0, 0, 0, 0, 0, 0, 0, 0, 0], "stateRewards": ["", 2, -4, 7, 3, 23, -42, 4, 7, -81, -33, 7, -2, -4, 5, -1, 50, -57, -14, -13, -14, 44, 55, -2, -2, 5, -2, 33, 1, 57, -13, -7, 58, 87], "withholdReward": false, "trial_id": "mdp_trial_28", "block": "test", "trialIndex": 29, "score": -28, "costs": 0, "simulationMode": [null, null, null, null, null], "rewards": [-2, -4, 5, -13, -14], "path": ["0", "0", "12", "13", "14", "19", "20"], "rt": [528, 480, 173, 31, 186], "actions": ["right", "right", "right", "down", "right"], "actionTimes": [4049, 5085, 5790, 6378, 7086], "queries": {"click": {"state": {"target": [], "time": []}, "edge": {"target": [], "time": []}}, "mouseover": {"state": {"target": [], "time": []}, "edge": {"target": [], "time": []}}, "mouseout": {"state": {"target": ["0"], "time": [1779]}, "edge": {"target": [], "time": []}}}, "displayed_time": "17.53", "trialTime": 22154, "trial_type": "mouselab-mdp", "trial_index": 36, "time_elapsed": 1399101, "internal_node_id": "0.0-4.0-1.0-27.0"}}, {"uniqueid": "w20838185:a12069207", "current_trial": 37, "dateTime": 1691163547525, "trialdata": {"revealed_states": [], "clicked_states": [], "num_clicks_accrued": [0, 0, 0, 0, 0, 0, 0, 0, 0, 0, 0, 0, 0], "stateRewards": ["", -1, 2, 7, 8, 75, 67, -11, 6, 52, -17, 38, -1, 4, -8, 14, 74, -37, -17, -12, 52, 55, 71, -2, -1, -5, 2, 21, 6, -88, -14, 64, -61, -47], "withholdReward": false, "trial_id": "mdp_trial_29", "block": "test", "trialIndex": 30, "score": 35, "costs": 0, "simulationMode": [null, null, null, null, null], "rewards": [-1, 4, -8, -12, 52], "path": ["0", "0", "12", "13", "14", "19", "20"], "rt": [1547, 41, 151, 30, 213], "actions": ["right", "right", "right", "down", "right"], "actionTimes": [3729, 4303, 4972, 5533, 6288], "queries": {"click": {"state": {"target": [], "time": []}, "edge": {"target": [], "time": []}}, "mouseover": {"state": {"target": [], "time": []}, "edge": {"target": [], "time": []}}, "mouseout": {"state": {"target": ["0"], "time": [579]}, "edge": {"target": [], "time": []}}}, "displayed_time": "16.18", "trialTime": 19473, "trial_type": "mouselab-mdp", "trial_index": 37, "time_elapsed": 1420053, "internal_node_id": "0.0-4.0-1.0-28.0"}}, {"uniqueid": "w20838185:a12069207", "current_trial": 38, "dateTime": 1691163566728, "trialdata": {"revealed_states": [], "clicked_states": [], "num_clicks_accrued": [0, 0, 0, 0, 0, 0, 0, 0, 0, 0, 0, 0, 0], "stateRewards": ["", 1, -3, 4, 13, -72, 52, 5, 5, -58, 5, 14, 2, 1, 3, -14, -86, -4, 73, 6, -58, -50, 49, 2, -3, -4, 2, 33, -41, 42, -11, 81, 45, 53], "withholdReward": false, "trial_id": "mdp_trial_30", "block": "test", "trialIndex": 31, "score": -46, "costs": 0, "simulationMode": [null, null, null, null, null], "rewards": [2, 1, 3, 6, -58], "path": ["0", "0", "12", "13", "14", "19", "20"], "rt": [1340, 360, 474, 215, 329], "actions": ["right", "right", "right", "down", "right"], "actionTimes": [3339, 4216, 5213, 5940, 6808], "queries": {"click": {"state": {"target": [], "time": []}, "edge": {"target": [], "time": []}}, "mouseover": {"state": {"target": [], "time": []}, "edge": {"target": [], "time": []}}, "mouseout": {"state": {"target": [], "time": []}, "edge": {"target": [], "time": []}}}, "displayed_time": "16.00", "trialTime": 17724, "trial_type": "mouselab-mdp", "trial_index": 38, "time_elapsed": 1439256, "internal_node_id": "0.0-4.0-1.0-29.0"}}, {"uniqueid": "w20838185:a12069207", "current_trial": 39, "dateTime": 1691163586863, "trialdata": {"revealed_states": [], "clicked_states": [], "num_clicks_accrued": [0, 0, 0, 0, 0, 0, 0, 0, 0, 0, 0, 0, 0], "stateRewards": ["", -2, 2, 2, -6, 9, 37, 50, -13, -7, -18, -75, -2, -4, 4, 7, 23, -57, -66, -7, -81, -48, -76, 1, 1, -8, 1, 51, -2, 70, 14, 59, 71, -37], "withholdReward": false, "trial_id": "mdp_trial_31", "block": "test", "trialIndex": 32, "score": -90, "costs": 0, "simulationMode": [null, null, null, null, null], "rewards": [-2, -4, 4, -7, -81], "path": ["0", "0", "12", "13", "14", "19", "20"], "rt": [1140, 40, 75, 101, 176], "actions": ["right", "right", "right", "down", "right"], "actionTimes": [4376, 4924, 5520, 6173, 6877], "queries": {"click": {"state": {"target": [], "time": []}, "edge": {"target": [], "time": []}}, "mouseover": {"state": {"target": [], "time": []}, "edge": {"target": [], "time": []}}, "mouseout": {"state": {"target": ["0"], "time": [580]}, "edge": {"target": [], "time": []}}}, "displayed_time": "17.24", "trialTime": 18682, "trial_type": "mouselab-mdp", "trial_index": 39, "time_elapsed": 1459391, "internal_node_id": "0.0-4.0-1.0-30.0"}}, {"uniqueid": "w20838185:a12069207", "current_trial": 40, "dateTime": 1691163608082, "trialdata": {"revealed_states": [], "clicked_states": [], "num_clicks_accrued": [0, 0, 0, 0, 0, 0, 0, 0, 0, 0, 0, 0, 0], "stateRewards": ["", -2, 2, 8, -6, -25, 3, 87, 2, -62, -2, 74, -2, -1, 2, -1, 79, 49, -37, -14, 5, 67, -9, -1, 2, -2, 5, 15, 38, 32, -14, -38, -38, 30], "withholdReward": false, "trial_id": "mdp_trial_32", "block": "test", "trialIndex": 33, "score": 47, "costs": 0, "simulationMode": [null, null, null, null, null], "rewards": [-2, -1, 2, -1, 49], "path": ["0", "0", "12", "13", "14", "15", "17"], "rt": [1395, 607, 49, 311, 430], "actions": ["right", "right", "right", "up", "right"], "actionTimes": [4158, 5274, 5855, 6709, 7680], "queries": {"click": {"state": {"target": [], "time": []}, "edge": {"target": [], "time": []}}, "mouseover": {"state": {"target": [], "time": []}, "edge": {"target": [], "time": []}}, "mouseout": {"state": {"target": ["0"], "time": [982]}, "edge": {"target": [], "time": []}}}, "displayed_time": "16.77", "trialTime": 19729, "trial_type": "mouselab-mdp", "trial_index": 40, "time_elapsed": 1480610, "internal_node_id": "0.0-4.0-1.0-31.0"}}, {"uniqueid": "w20838185:a12069207", "current_trial": 41, "dateTime": 1691163628097, "trialdata": {"revealed_states": [], "clicked_states": [], "num_clicks_accrued": [0, 0, 0, 0, 0, 0, 0, 0, 0, 0, 0, 0, 0], "stateRewards": ["", -2, -3, -5, 8, 27, 11, 43, -6, -24, -87, 69, -2, 1, 1, 9, 19, 48, -37, 9, -14, 45, 62, 1, 2, 1, 16, -81, -41, 22, 4, -6, -63, 47], "withholdReward": false, "trial_id": "mdp_trial_33", "block": "test", "trialIndex": 34, "score": 28, "costs": 0, "simulationMode": [null, null, null, null, null], "rewards": [-2, 1, 1, 9, 19], "path": ["0", "0", "12", "13", "14", "15", "16"], "rt": [714, 281, 196, 279, 49], "actions": ["right", "right", "right", "up", "up"], "actionTimes": [3549, 4374, 5080, 5896, 6473], "queries": {"click": {"state": {"target": [], "time": []}, "edge": {"target": [], "time": []}}, "mouseover": {"state": {"target": [], "time": []}, "edge": {"target": [], "time": []}}, "mouseout": {"state": {"target": [], "time": []}, "edge": {"target": [], "time": []}}}, "displayed_time": "16.84", "trialTime": 18465, "trial_type": "mouselab-mdp", "trial_index": 41, "time_elapsed": 1500625, "internal_node_id": "0.0-4.0-1.0-32.0"}}, {"uniqueid": "w20838185:a12069207", "current_trial": 42, "dateTime": 1691163649835, "trialdata": {"revealed_states": [], "clicked_states": [], "num_clicks_accrued": [0, 0, 0, 0, 0, 0, 0, 0, 0, 0, 0, 0, 0], "stateRewards": ["", 1, -2, -8, -13, 4, 34, -84, -4, -49, 88, -70, -1, 3, -4, 10, -77, 13, -34, 15, -21, -16, 27, 1, -2, 8, -8, -6, 38, -26, 6, -15, 66, -3], "withholdReward": false, "trial_id": "mdp_trial_34", "block": "test", "trialIndex": 35, "score": -8, "costs": 0, "simulationMode": [null, null, null, null, null], "rewards": [-1, 3, -4, 15, -21], "path": ["0", "0", "12", "13", "14", "19", "20"], "rt": [1416, 55, 24, 22, 178], "actions": ["right", "right", "right", "down", "right"], "actionTimes": [5789, 6368, 6920, 7584, 8296], "queries": {"click": {"state": {"target": [], "time": []}, "edge": {"target": [], "time": []}}, "mouseover": {"state": {"target": [], "time": []}, "edge": {"target": [], "time": []}}, "mouseout": {"state": {"target": ["0", "12"], "time": [1197, 1603]}, "edge": {"target": [], "time": []}}}, "displayed_time": "18.38", "trialTime": 20141, "trial_type": "mouselab-mdp", "trial_index": 42, "time_elapsed": 1522363, "internal_node_id": "0.0-4.0-1.0-33.0"}}, {"uniqueid": "w20838185:a12069207", "current_trial": 43, "dateTime": 1691163669813, "trialdata": {"revealed_states": [], "clicked_states": [], "num_clicks_accrued": [0, 0, 0, 0, 0, 0, 0, 0, 0, 0, 0, 0, 0], "stateRewards": ["", -2, 4, 3, 5, -61, 4, 30, 1, -47, 83, 10, 1, 4, 7, -14, 19, -74, -83, 6, -2, -2, -65, -1, -2, 4, -11, 12, -1, -68, 11, -38, -28, 66], "withholdReward": false, "trial_id": "mdp_trial_35", "block": "test", "trialIndex": 36, "score": -76, "costs": 0, "simulationMode": [null, null, null, null, null], "rewards": [1, 4, 7, -14, -74], "path": ["0", "0", "12", "13", "14", "15", "17"], "rt": [613, 354, 385, 66, 205], "actions": ["right", "right", "right", "up", "right"], "actionTimes": [3281, 4149, 5075, 5685, 6443], "queries": {"click": {"state": {"target": [], "time": []}, "edge": {"target": [], "time": []}}, "mouseover": {"state": {"target": [], "time": []}, "edge": {"target": [], "time": []}}, "mouseout": {"state": {"target": ["0"], "time": [471]}, "edge": {"target": [], "time": []}}}, "displayed_time": "16.67", "trialTime": 18404, "trial_type": "mouselab-mdp", "trial_index": 43, "time_elapsed": 1542341, "internal_node_id": "0.0-4.0-1.0-34.0"}}, {"uniqueid": "w20838185:a12069207", "current_trial": 44, "dateTime": 1691163690729, "trialdata": {"revealed_states": [], "clicked_states": [], "num_clicks_accrued": [0, 0, 0, 0, 0, 0, 0, 0, 0, 0, 0, 0, 0], "stateRewards": ["", 2, -1, -4, -13, 74, 77, 3, 2, -43, -2, -11, 2, 3, 7, 11, -26, -29, -33, -3, -3, -13, -3, 1, 3, -7, 14, -59, 33, 9, -5, 34, 79, 68], "withholdReward": false, "trial_id": "mdp_trial_36", "block": "test", "trialIndex": 37, "score": 61, "costs": 0, "simulationMode": [null, null, null, null, null], "rewards": [2, -1, -4, -13, 77], "path": ["0", "0", "1", "2", "3", "4", "6"], "rt": [1387, 48, 97, 524, 282], "actions": ["up", "up", "up", "right", "right"], "actionTimes": [4033, 4617, 5277, 6326, 7138], "queries": {"click": {"state": {"target": [], "time": []}, "edge": {"target": [], "time": []}}, "mouseover": {"state": {"target": [], "time": []}, "edge": {"target": [], "time": []}}, "mouseout": {"state": {"target": ["0"], "time": [929]}, "edge": {"target": [], "time": []}}}, "displayed_time": "16.65", "trialTime": 19275, "trial_type": "mouselab-mdp", "trial_index": 44, "time_elapsed": 1563257, "internal_node_id": "0.0-4.0-1.0-35.0"}}, {"uniqueid": "w20838185:a12069207", "current_trial": 45, "dateTime": 1691163712820, "trialdata": {"revealed_states": [], "clicked_states": [], "num_clicks_accrued": [0, 0, 0, 0, 0, 0, 0, 0, 0, 0, 0, 0, 0], "stateRewards": ["", -2, -1, -5, 10, -36, -70, 68, -9, 86, 71, -10, 2, -4, 7, -7, 66, 44, -66, -13, -69, 43, 15, -2, 2, 6, -13, 62, 57, 50, -10, -69, 42, -72], "withholdReward": false, "trial_id": "mdp_trial_37", "block": "test", "trialIndex": 38, "score": -68, "costs": 0, "simulationMode": [null, null, null, null, null], "rewards": [-2, -1, -5, 10, -70], "path": ["0", "0", "1", "2", "3", "4", "6"], "rt": [1053, 64, 78, 538, 153], "actions": ["up", "up", "up", "right", "right"], "actionTimes": [4087, 4726, 5364, 6454, 7146], "queries": {"click": {"state": {"target": [], "time": []}, "edge": {"target": [], "time": []}}, "mouseover": {"state": {"target": [], "time": []}, "edge": {"target": [], "time": []}}, "mouseout": {"state": {"target": ["0"], "time": [1063]}, "edge": {"target": [], "time": []}}}, "displayed_time": "17.04", "trialTime": 20463, "trial_type": "mouselab-mdp", "trial_index": 45, "time_elapsed": 1585348, "internal_node_id": "0.0-4.0-1.0-36.0"}}, {"uniqueid": "w20838185:a12069207", "current_trial": 46, "dateTime": 1691163733030, "trialdata": {"revealed_states": [], "clicked_states": [], "num_clicks_accrued": [0, 0, 0, 0, 0, 0, 0, 0, 0, 0, 0, 0, 0], "stateRewards": ["", 1, -3, -4, -11, -56, 61, -47, -16, -28, -9, 69, -2, -3, -4, -8, 40, -86, 59, -4, 80, 27, 54, -1, 3, -1, 8, 67, 23, 50, 6, 83, -43, -29], "withholdReward": false, "trial_id": "mdp_trial_38", "block": "test", "trialIndex": 39, "score": 67, "costs": 0, "simulationMode": [null, null, null, null, null], "rewards": [-2, -3, -4, -4, 80], "path": ["0", "0", "12", "13", "14", "19", "20"], "rt": [1323, 543, 295, 99, 311], "actions": ["right", "right", "right", "down", "right"], "actionTimes": [4184, 5267, 6070, 6683, 7532], "queries": {"click": {"state": {"target": [], "time": []}, "edge": {"target": [], "time": []}}, "mouseover": {"state": {"target": [], "time": []}, "edge": {"target": [], "time": []}}, "mouseout": {"state": {"target": ["0"], "time": [969]}, "edge": {"target": [], "time": []}}}, "displayed_time": "16.86", "trialTime": 18533, "trial_type": "mouselab-mdp", "trial_index": 46, "time_elapsed": 1605558, "internal_node_id": "0.0-4.0-1.0-37.0"}}, {"uniqueid": "w20838185:a12069207", "current_trial": 47, "dateTime": 1691163753496, "trialdata": {"revealed_states": [], "clicked_states": [], "num_clicks_accrued": [0, 0, 0, 0, 0, 0, 0, 0, 0, 0, 0, 0, 0], "stateRewards": ["", -1, 1, -5, -6, -78, 47, -13, 12, 48, -88, 20, 2, -3, -2, 13, -20, 37, -57, 14, -38, 30, 31, -2, -2, 8, 2, -23, 78, 28, 12, -74, -88, 8], "withholdReward": false, "trial_id": "mdp_trial_39", "block": "test", "trialIndex": 40, "score": -47, "costs": 0, "simulationMode": [null, null, null, null, null], "rewards": [2, -3, -2, 13, -57], "path": ["0", "0", "12", "13", "14", "15", "18"], "rt": [1763, 135, 180, 856, 168], "actions": ["right", "right", "right", "up", "left"], "actionTimes": [4687, 5368, 6085, 7458, 8145], "queries": {"click": {"state": {"target": [], "time": []}, "edge": {"target": [], "time": []}}, "mouseover": {"state": {"target": [], "time": []}, "edge": {"target": [], "time": []}}, "mouseout": {"state": {"target": ["0", "23"], "time": [1034, 1339]}, "edge": {"target": [], "time": []}}}, "displayed_time": "16.93", "trialTime": 18832, "trial_type": "mouselab-mdp", "trial_index": 47, "time_elapsed": 1626025, "internal_node_id": "0.0-4.0-1.0-38.0"}}, {"uniqueid": "w20838185:a12069207", "current_trial": 48, "dateTime": 1691163777654, "trialdata": {"revealed_states": [], "clicked_states": [], "num_clicks_accrued": [0, 0, 0, 0, 0, 0, 0, 0, 0, 0, 0, 0, 0], "stateRewards": ["", -2, 4, -7, -3, -76, 39, -28, 10, 14, 12, 60, 2, -3, 6, -10, 88, -34, -41, -3, 72, -13, -56, 1, 3, 2, 8, -51, 23, -57, 1, 14, -46, -16], "withholdReward": false, "trial_id": "mdp_trial_40", "block": "test", "trialIndex": 41, "score": 74, "costs": 0, "simulationMode": [null, null, null, null, null], "rewards": [2, -3, 6, -3, 72], "path": ["0", "0", "12", "13", "14", "19", "20"], "rt": [771, 328, 234, 129, 283], "actions": ["right", "right", "right", "down", "right"], "actionTimes": [4993, 5856, 6620, 7292, 8095], "queries": {"click": {"state": {"target": [], "time": []}, "edge": {"target": [], "time": []}}, "mouseover": {"state": {"target": [], "time": []}, "edge": {"target": [], "time": []}}, "mouseout": {"state": {"target": ["0", "0"], "time": [1340, 1795]}, "edge": {"target": [], "time": []}}}, "displayed_time": "18.23", "trialTime": 22505, "trial_type": "mouselab-mdp", "trial_index": 48, "time_elapsed": 1650182, "internal_node_id": "0.0-4.0-1.0-39.0"}}, {"uniqueid": "w20838185:a12069207", "current_trial": 49, "dateTime": 1691163876331, "trialdata": {"rt": 95485, "response": {"Q0": "$-2 to $2", "Q1": "$-16 to $16", "Q2": "$-16 to $16", "Q3": "The cost was always $1.4.", "Q4": "Slightly motivated"}, "question_order": [0, 1, 2, 3, 4], "trial_id": "final_quiz_control", "trial_type": "survey-multi-choice", "trial_index": 49, "time_elapsed": 1748810, "internal_node_id": "0.0-4.0-2.0"}}, {"uniqueid": "w20838185:a12069207", "current_trial": 50, "dateTime": 1691164052821, "trialdata": {"rt": 174561, "response": {"Q0": "I was often going to the end that was most likely to give me the green value again", "Q1": "No I did not", "Q2": "It was difficult because it was like every end I go to was a loss for me"}, "trial_id": "self_report_control", "trial_type": "survey-text", "trial_index": 50, "time_elapsed": 1925350, "internal_node_id": "0.0-4.0-3.0"}}, {"uniqueid": "w20838185:a12069207", "current_trial": 51, "dateTime": 1691164087060, "trialdata": {"rt": 33741, "response": {"gender": "female", "age": "28", "colorblind": "0", "effort": "0"}, "trial_type": "survey-html-form", "trial_index": 51, "time_elapsed": 1959590, "internal_node_id": "0.0-4.0-4.0"}}, {"uniqueid": "w20838185:a12069207", "current_trial": 52, "dateTime": 1691164127391, "trialdata": {"rt": 40244, "response": {"Q0": "No", "Q1": "No it was my first time", "Q2": ""}, "trial_type": "survey-text", "trial_index": 52, "time_elapsed": 1999921, "internal_node_id": "0.0-4.0-5.0"}}, {"uniqueid": "w20838185:a12069207", "current_trial": 53, "dateTime": 1691164131881, "trialdata": {"rt": 4369, "stimulus": "Press 'Finish HIT' in order to reach the completion code. Once the data has been saved, you will receive the code either in this window or in the original browser window where you started the experiment.\n", "response": 0, "trial_type": "html-button-response", "trial_index": 53, "time_elapsed": 2004411, "internal_node_id": "0.0-5.0"}}, {"uniqueid": "w20838185:a12069207", "current_trial": 54, "dateTime": 1691164132984, "trialdata": {"success": true, "trial_type": "fullscreen", "trial_index": 54, "time_elapsed": 2005514, "internal_node_id": "0.0-6.0"}}], "questiondata": {"params": {"CODE": "C6DMOQA6", "MIN_TIME": 14, "inspectCost": 1, "startTime": "Fri Aug 04 2023 17:15:25 GMT+0200 (South Africa Standard Time)", "bonusRate": 0.002, "variance": "1_2_4_8_44", "branching": "31123"}, "final_score": -188.8}, "eventdata": [{"eventtype": "initialized", "value": null, "timestamp": 1691162125177, "interval": 0}, {"eventtype": "window_resize", "value": [1024, 654], "timestamp": 1691162125177, "interval": 0}, {"eventtype": "window_resize", "value": [1024, 654], "timestamp": 1691162125675, "interval": 498}, {"eventtype": "window_resize", "value": [1366, 768], "timestamp": 1691162132056, "interval": 6381}], "useragent": "Mozilla/5.0 (Windows NT 10.0; Win64; x64) AppleWebKit/537.36 (KHTML, like Gecko) Chrome/115.0.0.0 Safari/537.36", "mode": "live", "id": "w20838185:a12069207", "status": "user data saved", "Beginhit": "2023-08-04 15:15:22.853993", "Beginexp": "2023-08-04 15:15:33.590384", "Endhit": "2023-08-04 15:49:00.013875", "psiturkStatus": 3, "browser": "<redacted>", "platform": "windows", "language": "en-ZA"}