{"condition": 1, "counterbalance": 0, "assignmentId": "a69529561", "workerId": "w65423910", "hitId": "h25390876", "currenttrial": 28, "bonus": 0, "data": [{"uniqueid": "w65423910:a69529561", "current_trial": 0, "dateTime": 1693480650337, "trialdata": {"success": true, "trial_type": "fullscreen", "trial_index": 0, "time_elapsed": 6023, "internal_node_id": "0.0-0.0"}}, {"uniqueid": "w65423910:a69529561", "current_trial": 1, "dateTime": 1693480655600, "trialdata": {"view_history": [{"page_index": 0, "viewing_time": 5260}], "rt": 5260, "trial_id": "exp_instructions_misaligned", "trial_type": "instructions", "trial_index": 1, "time_elapsed": 11286, "internal_node_id": "0.0-1.0"}}, {"uniqueid": "w65423910:a69529561", "current_trial": 2, "dateTime": 1693480679425, "trialdata": {"view_history": [{"page_index": 0, "viewing_time": 10908}, {"page_index": 1, "viewing_time": 8445}, {"page_index": 2, "viewing_time": 2133}, {"page_index": 3, "viewing_time": 2338}], "rt": 23824, "trial_id": "mouselab_instructions_1_misaligned", "trial_type": "instructions", "trial_index": 2, "time_elapsed": 35111, "internal_node_id": "0.0-2.0-1.0"}}, {"uniqueid": "w65423910:a69529561", "current_trial": 3, "dateTime": 1693480758740, "trialdata": {"revealed_states": [], "clicked_states": ["1", "2", "7", "23", "24", "25", "26", "27", "28", "12", "13", "14", "15", "3", "8", "10", "31", "30", "19", "21", "20", "22", "17", "16", "18", "32", "4", "6", "5", "11", "9", "29", "33"], "num_clicks_accrued": [0, 0, 0, 0, 0, 0, 0, 0, 0, 0, 0, 0, 0], "stateRewards": ["", 10, 10, -10, 10, 10, 10, -10, 10, -10, -10, -10, -10, -10, -10, 10, -10, 10, -10, 10, -10, -10, -10, -10, 10, 10, -10, 10, 10, 10, -10, -10, -10, 10], "withholdReward": false, "trial_id": "practice_1", "block": "test", "trialIndex": 0, "score": -43, "costs": -16.5, "simulationMode": [null, null, null, null, null], "rewards": [-10, -10, -10, 10, -10], "path": ["0", "0", "12", "13", "14", "15", "16"], "rt": [69303, 1548, 459, 1231, 160], "actions": ["right", "right", "right", "up", "up"], "actionTimes": [69737, 71779, 72740, 74462, 75140], "queries": {"click": {"state": {"target": ["1", "2", "7", "23", "24", "25", "26", "27", "28", "12", "13", "14", "15", "3", "8", "10", "31", "30", "19", "21", "20", "22", "17", "16", "18", "32", "4", "6", "5", "11", "9", "29", "33"], "time": [1891, 4346, 7967, 9510, 10935, 12683, 13777, 15579, 17412, 18697, 19964, 21342, 22979, 26222, 27474, 28536, 31756, 32858, 34015, 35126, 36157, 37330, 38613, 40282, 41534, 43345, 44864, 46440, 47740, 52394, 53718, 54924, 56183]}, "edge": {"target": [], "time": []}}, "mouseover": {"state": {"target": ["1", "2", "7", "2", "23", "24", "25", "26", "27", "28", "23", "0", "12", "13", "14", "15", "18", "2", "3", "8", "10", "23", "24", "31", "30", "19", "21", "20", "22", "14", "17", "16", "16", "18", "18", "7", "0", "31", "32", "33", "25", "10", "3", "4", "6", "5", "7", "3", "11", "9", "27", "29", "25", "33", "30", "31", "0", "1", "10", "27", "26", "15", "15", "12", "0", "12", "24", "28", "10", "2", "1", "0"], "time": [1675, 4171, 7841, 8507, 9174, 10124, 12207, 13491, 15291, 17258, 18158, 18242, 18325, 19292, 20208, 21625, 23742, 24742, 25309, 27026, 28193, 29692, 31009, 31643, 32726, 33793, 34242, 35509, 37027, 37926, 38376, 39210, 40193, 40493, 41294, 42193, 42894, 42994, 43243, 43894, 44277, 44343, 44394, 44744, 45644, 46877, 49527, 51660, 52278, 52661, 54077, 54377, 55811, 55861, 59133, 59228, 59596, 60462, 60895, 60961, 61195, 62562, 62795, 63329, 63362, 64012, 64978, 65562, 65645, 66346, 66729, 67096]}, "edge": {"target": [], "time": []}}, "mouseout": {"state": {"target": ["0", "1", "1", "2", "7", "2", "23", "24", "25", "26", "27", "28", "23", "0", "12", "13", "14", "15", "18", "2", "3", "8", "10", "10", "23", "24", "31", "31", "30", "19", "21", "20", "19", "22", "14", "17", "16", "16", "18", "18", "7", "0", "31", "32", "33", "25", "10", "3", "4", "6", "5", "4", "7", "3", "11", "9", "11", "27", "29", "25", "33", "30", "31", "0", "1", "10", "27", "26", "15", "15", "12", "0", "12", "24", "28", "10", "2", "1"], "time": [322, 3723, 4040, 7540, 8391, 8591, 9609, 11724, 13291, 14258, 16958, 17775, 18208, 18292, 19058, 20175, 21427, 23708, 23775, 25059, 26742, 27959, 28668, 29026, 30892, 31593, 31856, 32159, 33159, 34209, 35409, 36626, 36727, 37469, 37960, 38960, 39610, 40427, 40960, 41843, 42210, 42910, 43010, 43394, 44243, 44294, 44360, 44410, 44957, 46777, 48277, 48694, 51294, 51711, 52578, 54028, 54061, 54094, 55527, 55828, 58379, 59211, 59244, 59612, 60512, 60912, 61134, 61928, 62595, 62845, 63346, 63995, 64028, 65512, 65579, 65912, 66396, 66779]}, "edge": {"target": [], "time": []}}}, "displayed_time": "75.63", "trialTime": 77895, "trial_type": "mouselab-mdp", "trial_index": 3, "time_elapsed": 114426, "internal_node_id": "0.0-2.0-2.0-0.0"}}, {"uniqueid": "w65423910:a69529561", "current_trial": 4, "dateTime": 1693480773086, "trialdata": {"revealed_states": [], "clicked_states": [], "num_clicks_accrued": [0, 0, 0, 0, 0, 0, 0, 0, 0, 0, 0, 0, 0], "stateRewards": ["", -10, -10, -10, -10, -10, 10, -10, 10, 10, 10, 10, 10, 10, 10, -10, 10, 10, -10, 10, -10, 10, 10, 10, 10, 10, 10, 10, 10, -10, -10, 10, 10, 10], "withholdReward": false, "trial_id": "practice_2", "block": "test", "trialIndex": 1, "score": -46.5, "costs": 0, "simulationMode": [null, null, null, null, null], "rewards": [-10, -10, -10, -10, -10], "path": ["0", "0", "1", "2", "3", "4", "5"], "rt": [2497, 3410, 302, 76, 248], "actions": ["up", "up", "up", "right", "up"], "actionTimes": [5631, 9540, 10332, 10923, 11662], "queries": {"click": {"state": {"target": [], "time": []}, "edge": {"target": [], "time": []}}, "mouseover": {"state": {"target": [], "time": []}, "edge": {"target": [], "time": []}}, "mouseout": {"state": {"target": ["0"], "time": [6762]}, "edge": {"target": [], "time": []}}}, "displayed_time": "12.18", "trialTime": 14223, "trial_type": "mouselab-mdp", "trial_index": 4, "time_elapsed": 128772, "internal_node_id": "0.0-2.0-2.0-1.0"}}, {"uniqueid": "w65423910:a69529561", "current_trial": 5, "dateTime": 1693480798189, "trialdata": {"view_history": [{"page_index": 0, "viewing_time": 19614}, {"page_index": 1, "viewing_time": 5487}], "rt": 25101, "trial_id": "mouselab_instructions_2_misaligned", "trial_type": "instructions", "trial_index": 5, "time_elapsed": 153875, "internal_node_id": "0.0-2.0-3.0"}}, {"uniqueid": "w65423910:a69529561", "current_trial": 6, "dateTime": 1693480824560, "trialdata": {"rt": 26368, "response": {"Q0": "The cost for clicking on nodes may vary between nodes.", "Q1": "The better I perform the higher my bonus will be.", "Q2": "No, the structure of the web will be different each time.", "Q3": "To get the highest total score.", "Q4": "Any time during the round.", "Q5": "10 seconds"}, "question_order": [0, 1, 2, 3, 4, 5], "correct": {"Q0": "The cost for clicking on nodes may vary between nodes.", "Q1": "The better I perform the higher my bonus will be.", "Q2": "No, the amount of cash at each node of the web may be different each time.", "Q3": "To get the highest total score.", "Q4": "Only before moving the spider.", "Q5": "3 seconds"}, "trial_id": "mouselab_quiz_misaligned", "trial_type": "survey-multi-choice", "trial_index": 6, "time_elapsed": 180246, "internal_node_id": "0.0-2.0-4.0"}}, {"uniqueid": "w65423910:a69529561", "current_trial": 7, "dateTime": 1693480828676, "trialdata": {"success": true, "trial_type": "fullscreen", "trial_index": 7, "time_elapsed": 184362, "internal_node_id": "0.0-2.1-0.1-0.1"}}, {"uniqueid": "w65423910:a69529561", "current_trial": 8, "dateTime": 1693480877613, "trialdata": {"view_history": [{"page_index": 0, "viewing_time": 31468}, {"page_index": 1, "viewing_time": 13318}, {"page_index": 2, "viewing_time": 3016}, {"page_index": 3, "viewing_time": 1133}], "rt": 48936, "trial_id": "mouselab_instructions_1_misaligned", "trial_type": "instructions", "trial_index": 8, "time_elapsed": 233299, "internal_node_id": "0.0-2.1-1.1"}}, {"uniqueid": "w65423910:a69529561", "current_trial": 9, "dateTime": 1693480895544, "trialdata": {"revealed_states": [], "clicked_states": ["1", "26", "23", "24"], "num_clicks_accrued": [0, 0, 0, 0, 0, 0, 0, 0, 0, 0, 0, 0, 0], "stateRewards": ["", 10, 10, -10, 10, 10, 10, -10, 10, -10, -10, -10, -10, -10, -10, 10, -10, 10, -10, 10, -10, -10, -10, -10, 10, 10, -10, 10, 10, 10, -10, -10, -10, 10], "withholdReward": false, "trial_id": "practice_1", "block": "test", "trialIndex": 2, "score": 31.5, "costs": -2, "simulationMode": [null, null, null, null, null], "rewards": [10, 10, -10, 10, 10], "path": ["0", "0", "1", "2", "3", "4", "5"], "rt": [9238, 878, 222, 698, 376], "actions": ["up", "up", "up", "right", "up"], "actionTimes": [10216, 11597, 12325, 13533, 14429], "queries": {"click": {"state": {"target": ["1", "26", "23", "24"], "time": [1939, 3962, 5049, 6434]}, "edge": {"target": [], "time": []}}, "mouseover": {"state": {"target": ["1", "7", "2", "26", "23", "24", "0", "0"], "time": [1433, 2500, 2934, 3400, 4883, 5801, 9434, 10117]}, "edge": {"target": [], "time": []}}, "mouseout": {"state": {"target": ["0", "1", "7", "2", "26", "23", "24", "23", "0", "0", "0"], "time": [567, 2022, 2867, 3200, 4651, 5400, 7384, 7573, 9534, 10167, 10534]}, "edge": {"target": [], "time": []}}}, "displayed_time": "14.92", "trialTime": 17794, "trial_type": "mouselab-mdp", "trial_index": 9, "time_elapsed": 251230, "internal_node_id": "0.0-2.1-2.1-0.1"}}, {"uniqueid": "w65423910:a69529561", "current_trial": 10, "dateTime": 1693480909274, "trialdata": {"revealed_states": [], "clicked_states": ["23"], "num_clicks_accrued": [0, 0, 0, 0, 0, 0, 0, 0, 0, 0, 0, 0, 0], "stateRewards": ["", -10, -10, -10, -10, -10, 10, -10, 10, 10, 10, 10, 10, 10, 10, -10, 10, 10, -10, 10, -10, 10, 10, 10, 10, 10, 10, 10, 10, -10, -10, 10, 10, 10], "withholdReward": false, "trial_id": "practice_2", "block": "test", "trialIndex": 3, "score": 53, "costs": -0.5, "simulationMode": [null, null, null, null, null], "rewards": [10, 10, 10, 10, 10], "path": ["0", "0", "23", "24", "25", "26", "27"], "rt": [5141, 299, 256, 1114, 10], "actions": ["left", "left", "left", "up", "up"], "actionTimes": [8047, 8849, 9607, 11232, 11760], "queries": {"click": {"state": {"target": ["23"], "time": [6001]}, "edge": {"target": [], "time": []}}, "mouseover": {"state": {"target": ["23", "23", "1"], "time": [3682, 5932, 6598]}, "edge": {"target": [], "time": []}}, "mouseout": {"state": {"target": ["0", "23", "23", "1"], "time": [1990, 5857, 6101, 13099]}, "edge": {"target": [], "time": []}}}, "displayed_time": "12.27", "trialTime": 13604, "trial_type": "mouselab-mdp", "trial_index": 10, "time_elapsed": 264960, "internal_node_id": "0.0-2.1-2.1-1.1"}}, {"uniqueid": "w65423910:a69529561", "current_trial": 11, "dateTime": 1693480914521, "trialdata": {"view_history": [{"page_index": 0, "viewing_time": 3679}, {"page_index": 1, "viewing_time": 1566}], "rt": 5246, "trial_id": "mouselab_instructions_2_misaligned", "trial_type": "instructions", "trial_index": 11, "time_elapsed": 270207, "internal_node_id": "0.0-2.1-3.1"}}, {"uniqueid": "w65423910:a69529561", "current_trial": 12, "dateTime": 1693480937566, "trialdata": {"rt": 23044, "response": {"Q0": "The cost is always $2.", "Q1": "The better I perform the higher my bonus will be.", "Q2": "Yes.", "Q3": "To get the highest total score.", "Q4": "Any time during the round.", "Q5": "10 seconds"}, "question_order": [0, 1, 2, 3, 4, 5], "correct": {"Q0": "The cost for clicking on nodes may vary between nodes.", "Q1": "The better I perform the higher my bonus will be.", "Q2": "No, the amount of cash at each node of the web may be different each time.", "Q3": "To get the highest total score.", "Q4": "Only before moving the spider.", "Q5": "3 seconds"}, "trial_id": "mouselab_quiz_misaligned", "trial_type": "survey-multi-choice", "trial_index": 12, "time_elapsed": 293252, "internal_node_id": "0.0-2.1-4.1"}}, {"uniqueid": "w65423910:a69529561", "current_trial": 13, "dateTime": 1693480942677, "trialdata": {"success": true, "trial_type": "fullscreen", "trial_index": 13, "time_elapsed": 298363, "internal_node_id": "0.0-2.2-0.2-0.2"}}, {"uniqueid": "w65423910:a69529561", "current_trial": 14, "dateTime": 1693480985835, "trialdata": {"view_history": [{"page_index": 0, "viewing_time": 6770}, {"page_index": 1, "viewing_time": 23362}, {"page_index": 2, "viewing_time": 3291}, {"page_index": 3, "viewing_time": 9734}], "rt": 43157, "trial_id": "mouselab_instructions_1_misaligned", "trial_type": "instructions", "trial_index": 14, "time_elapsed": 341521, "internal_node_id": "0.0-2.2-1.2"}}, {"uniqueid": "w65423910:a69529561", "current_trial": 15, "dateTime": 1693480995474, "trialdata": {"revealed_states": [], "clicked_states": [], "num_clicks_accrued": [0, 0, 0, 0, 0, 0, 0, 0, 0, 0, 0, 0, 0], "stateRewards": ["", 10, 10, -10, 10, 10, 10, -10, 10, -10, -10, -10, -10, -10, -10, 10, -10, 10, -10, 10, -10, -10, -10, -10, 10, 10, -10, 10, 10, 10, -10, -10, -10, 10], "withholdReward": false, "trial_id": "practice_1", "block": "test", "trialIndex": 4, "score": 33.5, "costs": 0, "simulationMode": [null, null, null, null, null], "rewards": [10, 10, -10, 10, 10], "path": ["0", "0", "1", "2", "3", "4", "6"], "rt": [1935, 778, 110, 48, 536], "actions": ["up", "up", "up", "right", "right"], "actionTimes": [4008, 5302, 5919, 6456, 7511], "queries": {"click": {"state": {"target": [], "time": []}, "edge": {"target": [], "time": []}}, "mouseover": {"state": {"target": [], "time": []}, "edge": {"target": [], "time": []}}, "mouseout": {"state": {"target": [], "time": []}, "edge": {"target": [], "time": []}}}, "displayed_time": "8.03", "trialTime": 9504, "trial_type": "mouselab-mdp", "trial_index": 15, "time_elapsed": 351160, "internal_node_id": "0.0-2.2-2.2-0.2"}}, {"uniqueid": "w65423910:a69529561", "current_trial": 16, "dateTime": 1693481003167, "trialdata": {"revealed_states": [], "clicked_states": [], "num_clicks_accrued": [0, 0, 0, 0, 0, 0, 0, 0, 0, 0, 0, 0, 0], "stateRewards": ["", -10, -10, -10, -10, -10, 10, -10, 10, 10, 10, 10, 10, 10, 10, -10, 10, 10, -10, 10, -10, 10, 10, 10, 10, 10, 10, 10, 10, -10, -10, 10, 10, 10], "withholdReward": false, "trial_id": "practice_2", "block": "test", "trialIndex": 5, "score": 53.5, "costs": 0, "simulationMode": [null, null, null, null, null], "rewards": [10, 10, 10, 10, 10], "path": ["0", "0", "12", "13", "14", "19", "21"], "rt": [1181, 753, 171, 157, 83], "actions": ["right", "right", "right", "down", "down"], "actionTimes": [3149, 4412, 5097, 5767, 6343], "queries": {"click": {"state": {"target": [], "time": []}, "edge": {"target": [], "time": []}}, "mouseover": {"state": {"target": [], "time": []}, "edge": {"target": [], "time": []}}, "mouseout": {"state": {"target": [], "time": []}, "edge": {"target": [], "time": []}}}, "displayed_time": "6.84", "trialTime": 7564, "trial_type": "mouselab-mdp", "trial_index": 16, "time_elapsed": 358853, "internal_node_id": "0.0-2.2-2.2-1.2"}}, {"uniqueid": "w65423910:a69529561", "current_trial": 17, "dateTime": 1693481014067, "trialdata": {"view_history": [{"page_index": 0, "viewing_time": 9433}, {"page_index": 1, "viewing_time": 1464}], "rt": 10898, "trial_id": "mouselab_instructions_2_misaligned", "trial_type": "instructions", "trial_index": 17, "time_elapsed": 369752, "internal_node_id": "0.0-2.2-3.2"}}, {"uniqueid": "w65423910:a69529561", "current_trial": 18, "dateTime": 1693481041952, "trialdata": {"rt": 27884, "response": {"Q0": "The cost for clicking on nodes may vary between nodes.", "Q1": "The better I perform the higher my bonus will be.", "Q2": "No, the amount of cash at each node of the web may be different each time.", "Q3": "To get the highest total score.", "Q4": "Only before moving the spider.", "Q5": "10 seconds"}, "question_order": [0, 1, 2, 3, 4, 5], "correct": {"Q0": "The cost for clicking on nodes may vary between nodes.", "Q1": "The better I perform the higher my bonus will be.", "Q2": "No, the amount of cash at each node of the web may be different each time.", "Q3": "To get the highest total score.", "Q4": "Only before moving the spider.", "Q5": "3 seconds"}, "trial_id": "mouselab_quiz_misaligned", "trial_type": "survey-multi-choice", "trial_index": 18, "time_elapsed": 397638, "internal_node_id": "0.0-2.2-4.2"}}, {"uniqueid": "w65423910:a69529561", "current_trial": 19, "dateTime": 1693481056620, "trialdata": {"success": true, "trial_type": "fullscreen", "trial_index": 19, "time_elapsed": 412306, "internal_node_id": "0.0-2.3-0.3-0.3"}}, {"uniqueid": "w65423910:a69529561", "current_trial": 20, "dateTime": 1693481072756, "trialdata": {"view_history": [{"page_index": 0, "viewing_time": 6152}, {"page_index": 1, "viewing_time": 2590}, {"page_index": 2, "viewing_time": 1307}, {"page_index": 3, "viewing_time": 6085}], "rt": 16133, "trial_id": "mouselab_instructions_1_misaligned", "trial_type": "instructions", "trial_index": 20, "time_elapsed": 428442, "internal_node_id": "0.0-2.3-1.3"}}, {"uniqueid": "w65423910:a69529561", "current_trial": 21, "dateTime": 1693481082905, "trialdata": {"revealed_states": [], "clicked_states": [], "num_clicks_accrued": [0, 0, 0, 0, 0, 0, 0, 0, 0, 0, 0, 0, 0], "stateRewards": ["", 10, 10, -10, 10, 10, 10, -10, 10, -10, -10, -10, -10, -10, -10, 10, -10, 10, -10, 10, -10, -10, -10, -10, 10, 10, -10, 10, 10, 10, -10, -10, -10, 10], "withholdReward": false, "trial_id": "practice_1", "block": "test", "trialIndex": 6, "score": 33.5, "costs": 0, "simulationMode": [null, null, null, null, null], "rewards": [10, 10, -10, 10, 10], "path": ["0", "0", "1", "2", "3", "4", "6"], "rt": [3977, 112, 124, 382, 90], "actions": ["up", "up", "up", "right", "right"], "actionTimes": [5513, 6125, 6737, 7629, 8219], "queries": {"click": {"state": {"target": [], "time": []}, "edge": {"target": [], "time": []}}, "mouseover": {"state": {"target": ["0", "12"], "time": [3396, 3494]}, "edge": {"target": [], "time": []}}, "mouseout": {"state": {"target": ["0", "0", "12"], "time": [1377, 3428, 9044]}, "edge": {"target": [], "time": []}}}, "displayed_time": "8.73", "trialTime": 9899, "trial_type": "mouselab-mdp", "trial_index": 21, "time_elapsed": 438591, "internal_node_id": "0.0-2.3-2.3-0.3"}}, {"uniqueid": "w65423910:a69529561", "current_trial": 22, "dateTime": 1693481090991, "trialdata": {"revealed_states": [], "clicked_states": [], "num_clicks_accrued": [0, 0, 0, 0, 0, 0, 0, 0, 0, 0, 0, 0, 0], "stateRewards": ["", -10, -10, -10, -10, -10, 10, -10, 10, 10, 10, 10, 10, 10, 10, -10, 10, 10, -10, 10, -10, 10, 10, 10, 10, 10, 10, 10, 10, -10, -10, 10, 10, 10], "withholdReward": false, "trial_id": "practice_2", "block": "test", "trialIndex": 7, "score": 53.5, "costs": 0, "simulationMode": [null, null, null, null, null], "rewards": [10, 10, 10, 10, 10], "path": ["0", "0", "12", "13", "14", "19", "21"], "rt": [1504, 122, 233, 441, 500], "actions": ["right", "right", "right", "down", "down"], "actionTimes": [3680, 4305, 5032, 5973, 6982], "queries": {"click": {"state": {"target": [], "time": []}, "edge": {"target": [], "time": []}}, "mouseover": {"state": {"target": [], "time": []}, "edge": {"target": [], "time": []}}, "mouseout": {"state": {"target": ["0"], "time": [2580]}, "edge": {"target": [], "time": []}}}, "displayed_time": "7.50", "trialTime": 7954, "trial_type": "mouselab-mdp", "trial_index": 22, "time_elapsed": 446676, "internal_node_id": "0.0-2.3-2.3-1.3"}}, {"uniqueid": "w65423910:a69529561", "current_trial": 23, "dateTime": 1693481100660, "trialdata": {"view_history": [{"page_index": 0, "viewing_time": 8588}, {"page_index": 1, "viewing_time": 1079}], "rt": 9667, "trial_id": "mouselab_instructions_2_misaligned", "trial_type": "instructions", "trial_index": 23, "time_elapsed": 456346, "internal_node_id": "0.0-2.3-3.3"}}, {"uniqueid": "w65423910:a69529561", "current_trial": 24, "dateTime": 1693481135735, "trialdata": {"rt": 35073, "response": {"Q0": "The cost for clicking on nodes may vary between nodes.", "Q1": "The better I perform the higher my bonus will be.", "Q2": "No, the amount of cash at each node of the web may be different each time.", "Q3": "To click on the least number of nodes.", "Q4": "Only before moving the spider.", "Q5": "10 seconds"}, "question_order": [0, 1, 2, 3, 4, 5], "correct": {"Q0": "The cost for clicking on nodes may vary between nodes.", "Q1": "The better I perform the higher my bonus will be.", "Q2": "No, the amount of cash at each node of the web may be different each time.", "Q3": "To get the highest total score.", "Q4": "Only before moving the spider.", "Q5": "3 seconds"}, "trial_id": "mouselab_quiz_misaligned", "trial_type": "survey-multi-choice", "trial_index": 24, "time_elapsed": 491421, "internal_node_id": "0.0-2.3-4.3"}}, {"uniqueid": "w65423910:a69529561", "current_trial": 25, "dateTime": 1693481161327, "trialdata": {"rt": 25587, "response": {"Q0": "I think I was reading too quick", "Q1": "31", "Q2": "female", "Q3": "no", "Q4": ""}, "trial_id": "finish_fail", "trial_type": "survey-text", "trial_index": 25, "time_elapsed": 517013, "internal_node_id": "0.0-3.0-0.0"}}, {"uniqueid": "w65423910:a69529561", "current_trial": 26, "dateTime": 1693481167980, "trialdata": {"rt": 6651, "stimulus": "<h1>Completion Code Instructions (1/2)</h1>\n<br><br><br><br>\nYou have reached the end of the experiment! The completion code consists of two parts: (1) a code with 2 characters (2) a code with 6 characters. On this page, you will receive the second part of the code. The first part of the completion code will be on the next page.\n<br><br>\nThe second part of your completion code is: <b>AYIWIP</b>\n<br><br>\nPlease note this down. Then, press 'Finish HIT' in order to find the first part of your completion code. Once the data has been saved, you will receive this code either in this window or in the original browser window where you started the experiment.\n", "response": 0, "trial_type": "html-button-response", "trial_index": 26, "time_elapsed": 523666, "internal_node_id": "0.0-3.0-1.0"}}, {"uniqueid": "w65423910:a69529561", "current_trial": 27, "dateTime": 1693481168982, "trialdata": {"success": true, "trial_type": "fullscreen", "trial_index": 27, "time_elapsed": 524668, "internal_node_id": "0.0-7.0"}}], "questiondata": {"params": {"CODE": "C6DMOQA6", "MIN_TIME": 14, "inspectCost": 1, "startTime": "Thu Aug 31 2023 13:17:23 GMT+0200 (Midden-Europese zomertijd)", "bonusRate": 0.002, "variance": "1_2_4_8_44", "branching": "31123"}, "final_score": 0}, "eventdata": [{"eventtype": "initialized", "value": null, "timestamp": 1693480643041, "interval": 0}, {"eventtype": "window_resize", "value": [1028, 744], "timestamp": 1693480643041, "interval": 0}, {"eventtype": "window_resize", "value": [1028, 744], "timestamp": 1693480643367, "interval": 326}, {"eventtype": "window_resize", "value": [1536, 864], "timestamp": 1693480649560, "interval": 6193}, {"eventtype": "focus", "value": "off", "timestamp": 1693480826347, "interval": 176787}, {"eventtype": "focus", "value": "on", "timestamp": 1693480826347, "interval": 0}, {"eventtype": "window_resize", "value": [1028, 744], "timestamp": 1693480826552, "interval": 205}, {"eventtype": "window_resize", "value": [1536, 864], "timestamp": 1693480827882, "interval": 1330}, {"eventtype": "focus", "value": "off", "timestamp": 1693480940253, "interval": 112371}, {"eventtype": "focus", "value": "on", "timestamp": 1693480940253, "interval": 0}, {"eventtype": "window_resize", "value": [1028, 744], "timestamp": 1693480940460, "interval": 207}, {"eventtype": "window_resize", "value": [1536, 864], "timestamp": 1693480941899, "interval": 1439}, {"eventtype": "focus", "value": "off", "timestamp": 1693481044235, "interval": 102336}, {"eventtype": "focus", "value": "on", "timestamp": 1693481044235, "interval": 0}, {"eventtype": "window_resize", "value": [1028, 744], "timestamp": 1693481044443, "interval": 208}, {"eventtype": "focus", "value": "off", "timestamp": 1693481045367, "interval": 924}, {"eventtype": "focus", "value": "on", "timestamp": 1693481053900, "interval": 8533}, {"eventtype": "window_resize", "value": [1536, 864], "timestamp": 1693481055831, "interval": 1931}, {"eventtype": "focus", "value": "off", "timestamp": 1693481121727, "interval": 65896}, {"eventtype": "focus", "value": "on", "timestamp": 1693481132892, "interval": 11165}, {"eventtype": "window_resize", "value": [1028, 744], "timestamp": 1693481168195, "interval": 35303}], "useragent": "Mozilla/5.0 (Windows NT 10.0; Win64; x64) AppleWebKit/537.36 (KHTML, like Gecko) Chrome/116.0.0.0 Safari/537.36", "mode": "live", "id": "w65423910:a69529561", "status": "user data saved", "Beginhit": "2023-08-31 11:17:21.641772", "Beginexp": "2023-08-31 11:17:30.422376", "Endhit": "2023-08-31 11:26:09.416904", "psiturkStatus": 3, "browser": "<redacted>", "platform": "windows", "language": "nl-NL", "excludeReason": "quizfail"}