{"condition": 0, "counterbalance": 0, "assignmentId": "a23916347", "workerId": "w87338769", "hitId": "h13304122", "currenttrial": 61, "bonus": 0, "data": [{"uniqueid": "w87338769:a23916347", "current_trial": 0, "dateTime": 1693564338821, "trialdata": {"success": true, "trial_type": "fullscreen", "trial_index": 0, "time_elapsed": 3754, "internal_node_id": "0.0-0.0"}}, {"uniqueid": "w87338769:a23916347", "current_trial": 1, "dateTime": 1693564352495, "trialdata": {"view_history": [{"page_index": 0, "viewing_time": 13669}], "rt": 13669, "trial_id": "exp_instructions_control", "trial_type": "instructions", "trial_index": 1, "time_elapsed": 17429, "internal_node_id": "0.0-1.0"}}, {"uniqueid": "w87338769:a23916347", "current_trial": 2, "dateTime": 1693564434625, "trialdata": {"view_history": [{"page_index": 0, "viewing_time": 43391}, {"page_index": 1, "viewing_time": 24383}, {"page_index": 2, "viewing_time": 6169}, {"page_index": 3, "viewing_time": 8186}], "rt": 82129, "trial_id": "mouselab_instructions_1_control", "trial_type": "instructions", "trial_index": 2, "time_elapsed": 99558, "internal_node_id": "0.0-2.0-1.0"}}, {"uniqueid": "w87338769:a23916347", "current_trial": 3, "dateTime": 1693564457043, "trialdata": {"revealed_states": [], "clicked_states": [], "num_clicks_accrued": [0, 0, 0, 0, 0, 0, 0, 0, 0, 0, 0, 0, 0], "stateRewards": ["", 10, 10, 10, 10, -10, -10, -10, -10, 10, 10, -10, 10, 10, -10, 10, 10, 10, -10, 10, -10, 10, 10, 10, 10, -10, -10, -10, 10, 10, -10, -10, -10, -10], "withholdReward": false, "trial_id": "practice_1", "block": "test", "trialIndex": 0, "score": 33.5, "costs": 0, "simulationMode": [null, null, null, null, null], "rewards": [10, 10, -10, 10, 10], "path": ["0", "0", "12", "13", "14", "19", "21"], "rt": [2533, 1083, 538, 119, 466], "actions": ["right", "right", "right", "down", "down"], "actionTimes": [9407, 10978, 12032, 12663, 13626], "queries": {"click": {"state": {"target": [], "time": []}, "edge": {"target": [], "time": []}}, "mouseover": {"state": {"target": [], "time": []}, "edge": {"target": [], "time": []}}, "mouseout": {"state": {"target": ["14", "6", "12", "0"], "time": [2295, 5399, 5883, 7759]}, "edge": {"target": [], "time": []}}}, "displayed_time": "14.14", "trialTime": 21246, "trial_type": "mouselab-mdp", "trial_index": 3, "time_elapsed": 121976, "internal_node_id": "0.0-2.0-2.0-0.0"}}, {"uniqueid": "w87338769:a23916347", "current_trial": 4, "dateTime": 1693564481485, "trialdata": {"revealed_states": [], "clicked_states": [], "num_clicks_accrued": [0, 0, 0, 0, 0, 0, 0, 0, 0, 0, 0, 0, 0], "stateRewards": ["", -10, 10, -10, -10, 10, -10, -10, 10, -10, 10, -10, 10, 10, -10, -10, 10, -10, -10, 10, -10, -10, 10, 10, -10, 10, 10, -10, -10, 10, 10, -10, -10, 10], "withholdReward": false, "trial_id": "practice_2", "block": "test", "trialIndex": 1, "score": 13.5, "costs": 0, "simulationMode": [null, null, null, null, null], "rewards": [10, -10, 10, 10, -10], "path": ["0", "0", "23", "24", "25", "30", "32"], "rt": [14453, 145, 66, 2879, 104], "actions": ["left", "left", "left", "down", "down"], "actionTimes": [16293, 16939, 17526, 20922, 21530], "queries": {"click": {"state": {"target": [], "time": []}, "edge": {"target": [], "time": []}}, "mouseover": {"state": {"target": [], "time": []}, "edge": {"target": [], "time": []}}, "mouseout": {"state": {"target": ["0", "12"], "time": [19374, 19390]}, "edge": {"target": [], "time": []}}}, "displayed_time": "22.04", "trialTime": 24280, "trial_type": "mouselab-mdp", "trial_index": 4, "time_elapsed": 146417, "internal_node_id": "0.0-2.0-2.0-1.0"}}, {"uniqueid": "w87338769:a23916347", "current_trial": 5, "dateTime": 1693564491737, "trialdata": {"view_history": [{"page_index": 0, "viewing_time": 5892}, {"page_index": 1, "viewing_time": 4356}], "rt": 10249, "trial_id": "mouselab_instructions_2_control", "trial_type": "instructions", "trial_index": 5, "time_elapsed": 156670, "internal_node_id": "0.0-2.0-3.0"}}, {"uniqueid": "w87338769:a23916347", "current_trial": 6, "dateTime": 1693564540379, "trialdata": {"rt": 48637, "response": {"Q0": "The cost for clicking on nodes may vary between nodes.", "Q1": "The better I perform the higher my bonus will be.", "Q2": "No, the amount of cash at each node of the web may be different each time.", "Q3": "To get the highest total score.", "Q4": "Only before moving the spider.", "Q5": "Unlimited time"}, "question_order": [0, 1, 2, 3, 4, 5], "correct": {"Q0": "The cost for clicking on nodes may vary between nodes.", "Q1": "The better I perform the higher my bonus will be.", "Q2": "No, the amount of cash at each node of the web may be different each time.", "Q3": "To get the highest total score.", "Q4": "Only before moving the spider.", "Q5": "3 seconds"}, "trial_id": "mouselab_quiz_control", "trial_type": "survey-multi-choice", "trial_index": 6, "time_elapsed": 205313, "internal_node_id": "0.0-2.0-4.0"}}, {"uniqueid": "w87338769:a23916347", "current_trial": 7, "dateTime": 1693564547325, "trialdata": {"success": true, "trial_type": "fullscreen", "trial_index": 7, "time_elapsed": 212258, "internal_node_id": "0.0-2.1-0.1-0.1"}}, {"uniqueid": "w87338769:a23916347", "current_trial": 8, "dateTime": 1693565307031, "trialdata": {"view_history": [{"page_index": 0, "viewing_time": 21973}, {"page_index": 1, "viewing_time": 710099}, {"page_index": 2, "viewing_time": 14620}, {"page_index": 3, "viewing_time": 13017}], "rt": 759709, "trial_id": "mouselab_instructions_1_control", "trial_type": "instructions", "trial_index": 8, "time_elapsed": 971965, "internal_node_id": "0.0-2.1-1.1"}}, {"uniqueid": "w87338769:a23916347", "current_trial": 9, "dateTime": 1693565323949, "trialdata": {"revealed_states": [], "clicked_states": [], "num_clicks_accrued": [0, 0, 0, 0, 0, 0, 0, 0, 0, 0, 0, 0, 0], "stateRewards": ["", 10, 10, 10, 10, -10, -10, -10, -10, 10, 10, -10, 10, 10, -10, 10, 10, 10, -10, 10, -10, 10, 10, 10, 10, -10, -10, -10, 10, 10, -10, -10, -10, -10], "withholdReward": false, "trial_id": "practice_1", "block": "test", "trialIndex": 2, "score": 33.5, "costs": 0, "simulationMode": [null, null, null, null, null], "rewards": [10, 10, -10, 10, 10], "path": ["0", "0", "12", "13", "14", "15", "17"], "rt": [7345, 38, 476, 780, 98], "actions": ["right", "right", "right", "up", "right"], "actionTimes": [9586, 10127, 11113, 12400, 13018], "queries": {"click": {"state": {"target": [], "time": []}, "edge": {"target": [], "time": []}}, "mouseover": {"state": {"target": [], "time": []}, "edge": {"target": [], "time": []}}, "mouseout": {"state": {"target": ["13", "15", "17", "17", "13", "12", "0", "20"], "time": [1241, 1257, 1274, 1424, 1491, 1724, 14765, 16052]}, "edge": {"target": [], "time": []}}}, "displayed_time": "13.54", "trialTime": 16732, "trial_type": "mouselab-mdp", "trial_index": 9, "time_elapsed": 988882, "internal_node_id": "0.0-2.1-2.1-0.1"}}, {"uniqueid": "w87338769:a23916347", "current_trial": 10, "dateTime": 1693565337170, "trialdata": {"revealed_states": [], "clicked_states": [], "num_clicks_accrued": [0, 0, 0, 0, 0, 0, 0, 0, 0, 0, 0, 0, 0], "stateRewards": ["", -10, 10, -10, -10, 10, -10, -10, 10, -10, 10, -10, 10, 10, -10, -10, 10, -10, -10, 10, -10, -10, 10, 10, -10, 10, 10, -10, -10, 10, 10, -10, -10, 10], "withholdReward": false, "trial_id": "practice_2", "block": "test", "trialIndex": 3, "score": -6.5, "costs": 0, "simulationMode": [null, null, null, null, null], "rewards": [10, 10, -10, -10, -10], "path": ["0", "0", "12", "13", "14", "15", "17"], "rt": [3044, 82, 40, 256, 107], "actions": ["right", "right", "right", "up", "right"], "actionTimes": [5074, 5677, 6233, 7017, 7634], "queries": {"click": {"state": {"target": [], "time": []}, "edge": {"target": [], "time": []}}, "mouseover": {"state": {"target": [], "time": []}, "edge": {"target": [], "time": []}}, "mouseout": {"state": {"target": ["22", "12", "0", "20"], "time": [1213, 1382, 10714, 11913]}, "edge": {"target": [], "time": []}}}, "displayed_time": "8.14", "trialTime": 13050, "trial_type": "mouselab-mdp", "trial_index": 10, "time_elapsed": 1002104, "internal_node_id": "0.0-2.1-2.1-1.1"}}, {"uniqueid": "w87338769:a23916347", "current_trial": 11, "dateTime": 1693565359747, "trialdata": {"view_history": [{"page_index": 0, "viewing_time": 20624}, {"page_index": 1, "viewing_time": 1949}], "rt": 22574, "trial_id": "mouselab_instructions_2_control", "trial_type": "instructions", "trial_index": 11, "time_elapsed": 1024681, "internal_node_id": "0.0-2.1-3.1"}}, {"uniqueid": "w87338769:a23916347", "current_trial": 12, "dateTime": 1693565410599, "trialdata": {"rt": 50847, "response": {"Q0": "The cost for clicking on nodes may vary between nodes.", "Q1": "The better I perform the higher my bonus will be.", "Q2": "No, the amount of cash at each node of the web may be different each time.", "Q3": "To get the highest total score.", "Q4": "Only before moving the spider.", "Q5": "3 seconds"}, "question_order": [0, 1, 2, 3, 4, 5], "correct": {"Q0": "The cost for clicking on nodes may vary between nodes.", "Q1": "The better I perform the higher my bonus will be.", "Q2": "No, the amount of cash at each node of the web may be different each time.", "Q3": "To get the highest total score.", "Q4": "Only before moving the spider.", "Q5": "3 seconds"}, "trial_id": "mouselab_quiz_control", "trial_type": "survey-multi-choice", "trial_index": 12, "time_elapsed": 1075533, "internal_node_id": "0.0-2.1-4.1"}}, {"uniqueid": "w87338769:a23916347", "current_trial": 13, "dateTime": 1693565416747, "trialdata": {"rt": 6141, "response": {"Q0": "No"}, "question_order": [0], "trial_id": "repeat_check", "trial_type": "survey-multi-choice", "trial_index": 13, "time_elapsed": 1081680, "internal_node_id": "0.0-4.0-0.0"}}, {"uniqueid": "w87338769:a23916347", "current_trial": 14, "dateTime": 1693565423482, "trialdata": {"rt": 6729, "stimulus": "\n<h1> Get ready to start the game! </h1>\n\nThank you for reading the instructions. Get ready start with the 40 rounds of this game.\n<br><br>\nIf you need to take a break, feel free to take one after the end of a round, before continuing to the next one.\n<br><br>\nRemember, the more money the spider gets, the bigger your bonus will be!\n<br><br>\n<div style='text-align: center;'>Press <code>space</code> to begin.</div>\n\n<br><br>\n(If, at any point, the <code>space</code> key does not take you to the next page, click once on the text and try again.)", "response": " ", "trial_id": "mdp_ready", "trial_type": "html-keyboard-response", "trial_index": 14, "time_elapsed": 1088416, "internal_node_id": "0.0-6.0-0.0"}}, {"uniqueid": "w87338769:a23916347", "current_trial": 15, "dateTime": 1693565441667, "trialdata": {"revealed_states": [], "clicked_states": [], "num_clicks_accrued": [0, 0, 0, 0, 0, 0, 0, 0, 0, 0, 0, 0, 0], "stateRewards": ["", 1, 1, -5, 10, -31, 73, 14, -8, -23, 63, -70, -1, 2, 8, 7, 25, -59, 27, -10, -40, -71, -15, -2, 3, -8, -5, -19, 77, -34, 7, 67, 63, 19], "withholdReward": false, "trial_id": "mdp_trial_1", "block": "test", "trialIndex": 4, "score": -43, "costs": 0, "simulationMode": [null, null, null, null, null], "rewards": [-1, 2, 8, 7, -59], "path": ["0", "0", "12", "13", "14", "15", "17"], "rt": [1995, 74, 275, 475, 68], "actions": ["right", "right", "right", "up", "right"], "actionTimes": [3869, 4444, 5228, 6211, 6787], "queries": {"click": {"state": {"target": [], "time": []}, "edge": {"target": [], "time": []}}, "mouseover": {"state": {"target": [], "time": []}, "edge": {"target": [], "time": []}}, "mouseout": {"state": {"target": ["0", "12", "15", "17", "19", "22"], "time": [1354, 8967, 9017, 9033, 17382, 17397]}, "edge": {"target": [], "time": []}}}, "displayed_time": "15.88", "trialTime": 17987, "trial_type": "mouselab-mdp", "trial_index": 15, "time_elapsed": 1106600, "internal_node_id": "0.0-6.0-1.0-0.0"}}, {"uniqueid": "w87338769:a23916347", "current_trial": 16, "dateTime": 1693565461928, "trialdata": {"revealed_states": [], "clicked_states": ["19"], "num_clicks_accrued": [0, 0, 0, 0, 0, 0, 0, 0, 0, 0, 0, 0, 0], "stateRewards": ["", 1, 2, -3, -5, 66, -50, -47, -5, 1, 28, -27, 1, 1, -1, -6, 37, -25, 56, 1, -82, -66, -40, -1, -4, -7, 15, -61, -23, 26, 10, 14, -56, 29], "withholdReward": false, "trial_id": "mdp_trial_2", "block": "test", "trialIndex": 5, "score": 27.6, "costs": -1.4, "simulationMode": [null, null, null, null, null], "rewards": [-1, -4, -7, 15, 26], "path": ["0", "0", "23", "24", "25", "26", "29"], "rt": [4069, 545, 196, 283, 130], "actions": ["left", "left", "left", "up", "left"], "actionTimes": [5618, 6669, 7387, 8190, 8838], "queries": {"click": {"state": {"target": ["19"], "time": [2899]}, "edge": {"target": [], "time": []}}, "mouseover": {"state": {"target": ["12", "13", "19"], "time": [2092, 2140, 2546]}, "edge": {"target": [], "time": []}}, "mouseout": {"state": {"target": ["0", "12", "13", "19", "0", "15"], "time": [2080, 2108, 2191, 4174, 10570, 10604]}, "edge": {"target": [], "time": []}}}, "displayed_time": "15.55", "trialTime": 20079, "trial_type": "mouselab-mdp", "trial_index": 16, "time_elapsed": 1126862, "internal_node_id": "0.0-6.0-1.0-1.0"}}, {"uniqueid": "w87338769:a23916347", "current_trial": 17, "dateTime": 1693565479277, "trialdata": {"revealed_states": [], "clicked_states": ["30"], "num_clicks_accrued": [0, 0, 0, 0, 0, 0, 0, 0, 0, 0, 0, 0, 0], "stateRewards": ["", 2, -4, 1, -12, -59, -53, -74, 16, -88, -66, 66, 1, -2, 8, -9, -14, 22, 25, -1, -39, 47, -14, -1, -1, -2, 1, -4, 52, -26, 15, -7, 46, 43], "withholdReward": false, "trial_id": "mdp_trial_3", "block": "test", "trialIndex": 6, "score": -73.4, "costs": -1.4, "simulationMode": [null, null, null, null, null], "rewards": [2, -4, 1, -12, -59], "path": ["0", "0", "1", "2", "3", "4", "5"], "rt": [4768, 383, 182, 67, 114], "actions": ["up", "up", "up", "right", "up"], "actionTimes": [6673, 7592, 8291, 8859, 9489], "queries": {"click": {"state": {"target": ["30"], "time": [4138]}, "edge": {"target": [], "time": []}}, "mouseover": {"state": {"target": ["1", "2", "2", "1", "24", "25", "30", "31"], "time": [2476, 2527, 3048, 3159, 3279, 3343, 3675, 4709]}, "edge": {"target": [], "time": []}}, "mouseout": {"state": {"target": ["0", "0", "1", "2", "2", "1", "24", "25", "30", "31", "22", "19", "20"], "time": [1147, 2432, 2493, 2593, 3109, 3193, 3296, 3525, 4693, 4727, 11743, 11756, 11773]}, "edge": {"target": [], "time": []}}}, "displayed_time": "15.91", "trialTime": 17153, "trial_type": "mouselab-mdp", "trial_index": 17, "time_elapsed": 1144210, "internal_node_id": "0.0-6.0-1.0-2.0"}}, {"uniqueid": "w87338769:a23916347", "current_trial": 18, "dateTime": 1693565496901, "trialdata": {"revealed_states": [], "clicked_states": [], "num_clicks_accrued": [0, 0, 0, 0, 0, 0, 0, 0, 0, 0, 0, 0, 0], "stateRewards": ["", -2, 3, -5, -7, 66, 43, -60, -4, -70, -75, 4, -1, 2, 2, -13, 54, 11, -40, -1, 77, 32, 15, -2, 3, -8, -9, -35, 83, -27, 6, -74, -34, 44], "withholdReward": false, "trial_id": "mdp_trial_4", "block": "test", "trialIndex": 7, "score": -50, "costs": 0, "simulationMode": [null, null, null, null, null], "rewards": [-1, 2, 2, -13, -40], "path": ["0", "0", "12", "13", "14", "15", "18"], "rt": [1889, 168, 125, 7, 232], "actions": ["right", "right", "right", "up", "left"], "actionTimes": [3315, 3992, 4633, 5147, 5890], "queries": {"click": {"state": {"target": [], "time": []}, "edge": {"target": [], "time": []}}, "mouseover": {"state": {"target": [], "time": []}, "edge": {"target": [], "time": []}}, "mouseout": {"state": {"target": ["14", "13", "12", "0", "15"], "time": [761, 775, 792, 7294, 7355]}, "edge": {"target": [], "time": []}}}, "displayed_time": "15.43", "trialTime": 17432, "trial_type": "mouselab-mdp", "trial_index": 18, "time_elapsed": 1161835, "internal_node_id": "0.0-6.0-1.0-3.0"}}, {"uniqueid": "w87338769:a23916347", "current_trial": 19, "dateTime": 1693565513875, "trialdata": {"revealed_states": [], "clicked_states": ["25"], "num_clicks_accrued": [0, 0, 0, 0, 0, 0, 0, 0, 0, 0, 0, 0, 0], "stateRewards": ["", -1, 3, 1, -7, 56, 76, 57, 3, 11, -9, 14, 1, -2, 2, 8, -77, -3, 79, -5, 88, 24, -66, -2, -1, 7, -7, -30, 14, -76, 11, -36, 28, -6], "withholdReward": false, "trial_id": "mdp_trial_5", "block": "test", "trialIndex": 8, "score": 41.6, "costs": -1.4, "simulationMode": [null, null, null, null, null], "rewards": [-2, -1, 7, 11, 28], "path": ["0", "0", "23", "24", "25", "30", "32"], "rt": [7377, 139, 220, 62, 150], "actions": ["left", "left", "left", "down", "down"], "actionTimes": [8643, 9292, 10023, 10599, 11269], "queries": {"click": {"state": {"target": ["25"], "time": [2631]}, "edge": {"target": [], "time": []}}, "mouseover": {"state": {"target": ["23", "24", "25", "24"], "time": [1575, 1606, 1863, 7456]}, "edge": {"target": [], "time": []}}, "mouseout": {"state": {"target": ["22", "12", "23", "24", "25", "25", "24", "18", "14"], "time": [595, 672, 1594, 1671, 2832, 3238, 13004, 13050, 16520]}, "edge": {"target": [], "time": []}}}, "displayed_time": "15.27", "trialTime": 16775, "trial_type": "mouselab-mdp", "trial_index": 19, "time_elapsed": 1178808, "internal_node_id": "0.0-6.0-1.0-4.0"}}, {"uniqueid": "w87338769:a23916347", "current_trial": 20, "dateTime": 1693565530616, "trialdata": {"revealed_states": [], "clicked_states": ["19"], "num_clicks_accrued": [0, 0, 0, 0, 0, 0, 0, 0, 0, 0, 0, 0, 0], "stateRewards": ["", -1, 2, -6, 6, -82, -19, -39, -16, -83, 11, -33, -2, -2, 4, -6, -82, -1, -19, -6, -10, -67, -41, -2, 1, -7, 16, -23, -78, -52, 14, 31, -71, 74], "withholdReward": false, "trial_id": "mdp_trial_6", "block": "test", "trialIndex": 9, "score": -71.4, "costs": -1.4, "simulationMode": [null, null, null, null, null], "rewards": [-2, 1, -7, 16, -78], "path": ["0", "0", "23", "24", "25", "26", "28"], "rt": [4434, 119, 126, 322, 80], "actions": ["left", "left", "left", "up", "right"], "actionTimes": [5673, 6299, 6940, 7769, 8360], "queries": {"click": {"state": {"target": ["19"], "time": [2250]}, "edge": {"target": [], "time": []}}, "mouseover": {"state": {"target": ["12", "13", "19"], "time": [1513, 1563, 1867]}, "edge": {"target": [], "time": []}}, "mouseout": {"state": {"target": ["18", "12", "0", "12", "13", "19"], "time": [585, 630, 1500, 1531, 1596, 2764]}, "edge": {"target": [], "time": []}}}, "displayed_time": "15.24", "trialTime": 16546, "trial_type": "mouselab-mdp", "trial_index": 20, "time_elapsed": 1195549, "internal_node_id": "0.0-6.0-1.0-5.0"}}, {"uniqueid": "w87338769:a23916347", "current_trial": 21, "dateTime": 1693565548497, "trialdata": {"revealed_states": [], "clicked_states": ["3"], "num_clicks_accrued": [0, 0, 0, 0, 0, 0, 0, 0, 0, 0, 0, 0, 0], "stateRewards": ["", -2, -3, -6, -7, 9, 16, 65, 5, -41, 20, -25, -1, -4, 1, -11, -49, -4, 71, 1, 39, -62, 52, -2, -3, 7, -9, -28, -70, 84, 8, 24, -58, 82], "withholdReward": false, "trial_id": "mdp_trial_7", "block": "test", "trialIndex": 10, "score": 34.6, "costs": -1.4, "simulationMode": [null, null, null, null, null], "rewards": [-1, -4, 1, 1, 39], "path": ["0", "0", "12", "13", "14", "19", "20"], "rt": [6248, 154, 175, 1497, 310], "actions": ["right", "right", "right", "down", "right"], "actionTimes": [8579, 9239, 9927, 11931, 12744], "queries": {"click": {"state": {"target": ["3"], "time": [3386]}, "edge": {"target": [], "time": []}}, "mouseover": {"state": {"target": ["7", "3", "4"], "time": [2757, 3090, 3835]}, "edge": {"target": [], "time": []}}, "mouseout": {"state": {"target": ["19", "22", "0", "7", "3", "4"], "time": [1319, 1386, 2668, 2772, 3597, 3852]}, "edge": {"target": [], "time": []}}}, "displayed_time": "16.33", "trialTime": 17690, "trial_type": "mouselab-mdp", "trial_index": 21, "time_elapsed": 1213431, "internal_node_id": "0.0-6.0-1.0-6.0"}}, {"uniqueid": "w87338769:a23916347", "current_trial": 22, "dateTime": 1693565565623, "trialdata": {"revealed_states": [], "clicked_states": ["33"], "num_clicks_accrued": [0, 0, 0, 0, 0, 0, 0, 0, 0, 0, 0, 0, 0], "stateRewards": ["", 1, 1, -2, 7, -31, -6, 76, 1, -36, -16, -53, 2, 1, 7, 13, -47, -10, 47, -7, 72, 46, -56, -2, -2, -2, 11, -80, 44, 38, 16, 67, 85, -78], "withholdReward": false, "trial_id": "mdp_trial_8", "block": "test", "trialIndex": 11, "score": 93.6, "costs": -1.4, "simulationMode": [null, null, null, null, null], "rewards": [-2, -2, -2, 16, 85], "path": ["0", "0", "23", "24", "25", "30", "32"], "rt": [3582, 301, 176, 141, 290], "actions": ["left", "left", "left", "down", "down"], "actionTimes": [5074, 5890, 6581, 7230, 8012], "queries": {"click": {"state": {"target": ["33"], "time": [2638]}, "edge": {"target": [], "time": []}}, "mouseover": {"state": {"target": ["0", "31", "30", "33", "30", "31"], "time": [1737, 1772, 1821, 1939, 3106, 3123]}, "edge": {"target": [], "time": []}}, "mouseout": {"state": {"target": ["17", "15", "12", "0", "31", "30", "33", "30", "31", "17", "13", "12"], "time": [641, 724, 957, 1748, 1789, 1889, 3089, 3122, 3139, 16136, 16235, 16386]}, "edge": {"target": [], "time": []}}}, "displayed_time": "15.49", "trialTime": 16923, "trial_type": "mouselab-mdp", "trial_index": 22, "time_elapsed": 1230556, "internal_node_id": "0.0-6.0-1.0-7.0"}}, {"uniqueid": "w87338769:a23916347", "current_trial": 23, "dateTime": 1693565583540, "trialdata": {"revealed_states": [], "clicked_states": ["16"], "num_clicks_accrued": [0, 0, 0, 0, 0, 0, 0, 0, 0, 0, 0, 0, 0], "stateRewards": ["", 1, -2, 4, 7, -43, -83, -60, -5, -86, -80, 83, -1, -2, 6, 11, -15, 21, 13, 9, 29, -49, 11, -1, 4, -6, -11, 87, 40, 63, -8, -39, -11, 62], "withholdReward": false, "trial_id": "mdp_trial_9", "block": "test", "trialIndex": 12, "score": 25.6, "costs": -1.4, "simulationMode": [null, null, null, null, null], "rewards": [-1, -2, 6, 11, 13], "path": ["0", "0", "12", "13", "14", "15", "18"], "rt": [4018, 214, 176, 204, 1327], "actions": ["right", "right", "right", "up", "left"], "actionTimes": [5488, 6214, 6892, 7603, 9442], "queries": {"click": {"state": {"target": ["16"], "time": [3199]}, "edge": {"target": [], "time": []}}, "mouseover": {"state": {"target": ["18", "15", "16"], "time": [2034, 2118, 2622]}, "edge": {"target": [], "time": []}}, "mouseout": {"state": {"target": ["0", "18", "15", "16", "14", "22"], "time": [1973, 2050, 2490, 3899, 17093, 17144]}, "edge": {"target": [], "time": []}}}, "displayed_time": "15.47", "trialTime": 17707, "trial_type": "mouselab-mdp", "trial_index": 23, "time_elapsed": 1248473, "internal_node_id": "0.0-6.0-1.0-8.0"}}, {"uniqueid": "w87338769:a23916347", "current_trial": 24, "dateTime": 1693565600410, "trialdata": {"revealed_states": [], "clicked_states": ["17"], "num_clicks_accrued": [0, 0, 0, 0, 0, 0, 0, 0, 0, 0, 0, 0, 0], "stateRewards": ["", 1, -1, 1, -14, -10, 67, -28, -11, 72, 40, -65, -1, 1, 1, -2, 8, -55, 34, -10, 61, 33, -15, 2, -4, 7, 4, -75, 63, -21, -16, 61, 19, 21], "withholdReward": false, "trial_id": "mdp_trial_10", "block": "test", "trialIndex": 13, "score": -25.4, "costs": -1.4, "simulationMode": [null, null, null, null, null], "rewards": [-1, 1, 1, -10, -15], "path": ["0", "0", "12", "13", "14", "19", "22"], "rt": [3941, 106, 158, 475, 355], "actions": ["right", "right", "right", "down", "left"], "actionTimes": [5265, 5880, 6548, 7531, 8394], "queries": {"click": {"state": {"target": ["17"], "time": [2261]}, "edge": {"target": [], "time": []}}, "mouseover": {"state": {"target": ["15", "17"], "time": [1689, 1757]}, "edge": {"target": [], "time": []}}, "mouseout": {"state": {"target": ["0", "15", "17", "22"], "time": [1627, 1706, 2923, 16173]}, "edge": {"target": [], "time": []}}}, "displayed_time": "15.33", "trialTime": 16640, "trial_type": "mouselab-mdp", "trial_index": 24, "time_elapsed": 1265343, "internal_node_id": "0.0-6.0-1.0-9.0"}}, {"uniqueid": "w87338769:a23916347", "current_trial": 25, "dateTime": 1693565617583, "trialdata": {"revealed_states": [], "clicked_states": ["4"], "num_clicks_accrued": [0, 0, 0, 0, 0, 0, 0, 0, 0, 0, 0, 0, 0], "stateRewards": ["", -2, -1, -3, -1, -78, -6, 2, -1, 22, -88, 32, 2, 2, -7, -8, -51, -17, 54, 2, -44, 54, 75, 2, -2, -8, -15, -29, 12, -67, 15, -1, -47, -47], "withholdReward": false, "trial_id": "mdp_trial_11", "block": "test", "trialIndex": 14, "score": -6.4, "costs": -1.4, "simulationMode": [null, null, null, null, null], "rewards": [-2, -1, -3, -1, 2], "path": ["0", "0", "1", "2", "3", "4", "7"], "rt": [6157, 198, 198, 54, 125], "actions": ["up", "up", "up", "right", "down"], "actionTimes": [7407, 8108, 8823, 9396, 10033], "queries": {"click": {"state": {"target": ["4"], "time": [2529]}, "edge": {"target": [], "time": []}}, "mouseover": {"state": {"target": ["7", "4"], "time": [1645, 1961]}, "edge": {"target": [], "time": []}}, "mouseout": {"state": {"target": ["0", "7", "4", "12"], "time": [1585, 1676, 3127, 16426]}, "edge": {"target": [], "time": []}}}, "displayed_time": "15.25", "trialTime": 16939, "trial_type": "mouselab-mdp", "trial_index": 25, "time_elapsed": 1282516, "internal_node_id": "0.0-6.0-1.0-10.0"}}, {"uniqueid": "w87338769:a23916347", "current_trial": 26, "dateTime": 1693565634232, "trialdata": {"revealed_states": [], "clicked_states": ["29"], "num_clicks_accrued": [0, 0, 0, 0, 0, 0, 0, 0, 0, 0, 0, 0, 0], "stateRewards": ["", 2, -4, -8, -15, 71, -43, -41, 7, -17, 20, 67, -1, -1, -4, 6, 37, -24, -47, 9, 34, 57, 45, 1, 2, -4, -5, -23, 88, -5, 13, -40, 43, 44], "withholdReward": false, "trial_id": "mdp_trial_12", "block": "test", "trialIndex": 15, "score": -30.4, "costs": -1.4, "simulationMode": [null, null, null, null, null], "rewards": [1, 2, -4, -5, -23], "path": ["0", "0", "23", "24", "25", "26", "27"], "rt": [4255, 108, 233, 487, 195], "actions": ["left", "left", "left", "up", "up"], "actionTimes": [5538, 6153, 6894, 7897, 8605], "queries": {"click": {"state": {"target": ["29"], "time": [3116]}, "edge": {"target": [], "time": []}}, "mouseover": {"state": {"target": ["23", "28", "26", "29", "25"], "time": [1795, 1929, 2047, 2363, 3677]}, "edge": {"target": [], "time": []}}, "mouseout": {"state": {"target": ["0", "23", "28", "26", "29", "25"], "time": [1767, 1812, 1961, 2213, 3628, 3728]}, "edge": {"target": [], "time": []}}}, "displayed_time": "15.28", "trialTime": 16414, "trial_type": "mouselab-mdp", "trial_index": 26, "time_elapsed": 1299165, "internal_node_id": "0.0-6.0-1.0-11.0"}}, {"uniqueid": "w87338769:a23916347", "current_trial": 27, "dateTime": 1693565652162, "trialdata": {"revealed_states": [], "clicked_states": ["4"], "num_clicks_accrued": [0, 0, 0, 0, 0, 0, 0, 0, 0, 0, 0, 0, 0], "stateRewards": ["", 2, -3, -8, 14, -7, -51, 73, 2, 36, 36, -43, -1, 3, -4, 1, 6, 87, -65, 15, 61, -42, -83, -1, 3, -2, -7, 30, -48, 35, 13, 26, 60, 78], "withholdReward": false, "trial_id": "mdp_trial_13", "block": "test", "trialIndex": 16, "score": -3.4000000000000004, "costs": -1.4, "simulationMode": [null, null, null, null, null], "rewards": [2, -3, -8, 14, -7], "path": ["0", "0", "1", "2", "3", "4", "5"], "rt": [3785, 86, 155, 523, 237], "actions": ["up", "up", "up", "right", "up"], "actionTimes": [5178, 5767, 6434, 7470, 8218], "queries": {"click": {"state": {"target": ["4"], "time": [2872]}, "edge": {"target": [], "time": []}}, "mouseover": {"state": {"target": ["5", "4", "7"], "time": [1836, 2548, 3363]}, "edge": {"target": [], "time": []}}, "mouseout": {"state": {"target": ["0", "0", "5", "4", "4", "7", "16"], "time": [734, 1590, 2420, 3070, 3346, 3414, 10116]}, "edge": {"target": [], "time": []}}}, "displayed_time": "15.39", "trialTime": 17683, "trial_type": "mouselab-mdp", "trial_index": 27, "time_elapsed": 1317095, "internal_node_id": "0.0-6.0-1.0-12.0"}}, {"uniqueid": "w87338769:a23916347", "current_trial": 28, "dateTime": 1693565671958, "trialdata": {"revealed_states": [], "clicked_states": ["19"], "num_clicks_accrued": [0, 0, 0, 0, 0, 0, 0, 0, 0, 0, 0, 0, 0], "stateRewards": ["", -1, 2, -2, 13, -56, -28, 10, 14, 53, -80, -29, 1, -3, -3, -14, 14, 9, -40, -9, 18, 18, 48, 1, 1, 1, -9, 64, -39, -9, 7, -52, -78, 7], "withholdReward": false, "trial_id": "mdp_trial_14", "block": "test", "trialIndex": 17, "score": -11.399999999999999, "costs": -1.4, "simulationMode": [null, null, null, null, null], "rewards": [1, -3, -3, -14, 9], "path": ["0", "0", "12", "13", "14", "15", "17"], "rt": [2979, 350, 314, 37, 54], "actions": ["right", "right", "right", "up", "right"], "actionTimes": [4610, 5471, 6301, 6857, 7424], "queries": {"click": {"state": {"target": ["19"], "time": [2586]}, "edge": {"target": [], "time": []}}, "mouseover": {"state": {"target": ["12", "22", "19", "20"], "time": [1903, 1986, 2238, 3172]}, "edge": {"target": [], "time": []}}, "mouseout": {"state": {"target": ["0", "12", "22", "19", "20"], "time": [1874, 1920, 2156, 3154, 3188]}, "edge": {"target": [], "time": []}}}, "displayed_time": "15.63", "trialTime": 19559, "trial_type": "mouselab-mdp", "trial_index": 28, "time_elapsed": 1336891, "internal_node_id": "0.0-6.0-1.0-13.0"}}, {"uniqueid": "w87338769:a23916347", "current_trial": 29, "dateTime": 1693565688971, "trialdata": {"revealed_states": [], "clicked_states": ["25"], "num_clicks_accrued": [0, 0, 0, 0, 0, 0, 0, 0, 0, 0, 0, 0, 0], "stateRewards": ["", -1, 4, 3, 12, -27, 34, -33, 3, -63, 1, 6, 2, 2, -6, -11, -77, -85, 68, -6, 51, 81, -60, -2, -2, 1, 15, 20, 15, 68, -10, -14, 6, -4], "withholdReward": false, "trial_id": "mdp_trial_15", "block": "test", "trialIndex": 18, "score": 25.6, "costs": -1.4, "simulationMode": [null, null, null, null, null], "rewards": [-2, -2, 1, 15, 15], "path": ["0", "0", "23", "24", "25", "26", "28"], "rt": [3130, 120, 227, 1020, 948], "actions": ["left", "left", "left", "up", "right"], "actionTimes": [4480, 5117, 5857, 7384, 8845], "queries": {"click": {"state": {"target": ["25"], "time": [2500]}, "edge": {"target": [], "time": []}}, "mouseover": {"state": {"target": ["23", "24", "25", "24"], "time": [1846, 1930, 2099, 3164]}, "edge": {"target": [], "time": []}}, "mouseout": {"state": {"target": ["14", "13", "0", "23", "24", "25", "24", "12", "22"], "time": [580, 630, 1813, 1897, 2001, 3147, 3181, 14559, 16461]}, "edge": {"target": [], "time": []}}}, "displayed_time": "15.35", "trialTime": 16771, "trial_type": "mouselab-mdp", "trial_index": 29, "time_elapsed": 1353903, "internal_node_id": "0.0-6.0-1.0-14.0"}}, {"uniqueid": "w87338769:a23916347", "current_trial": 30, "dateTime": 1693565705731, "trialdata": {"revealed_states": [], "clicked_states": ["30"], "num_clicks_accrued": [0, 0, 0, 0, 0, 0, 0, 0, 0, 0, 0, 0, 0], "stateRewards": ["", -2, -3, 4, 1, 33, -53, 15, 9, -12, 61, -6, -2, 4, 6, -11, 47, -43, -7, -11, 46, 23, -28, -1, -1, 3, -10, 11, 76, -76, 10, 18, -38, 87], "withholdReward": false, "trial_id": "mdp_trial_16", "block": "test", "trialIndex": 19, "score": 96.6, "costs": -1.4, "simulationMode": [null, null, null, null, null], "rewards": [-1, -1, 3, 10, 87], "path": ["0", "0", "23", "24", "25", "30", "33"], "rt": [3941, 88, 132, 987, 567], "actions": ["left", "left", "left", "down", "left"], "actionTimes": [5063, 5658, 6285, 7795, 8870], "queries": {"click": {"state": {"target": ["30"], "time": [3126]}, "edge": {"target": [], "time": []}}, "mouseover": {"state": {"target": ["23", "31", "30", "31"], "time": [1454, 1553, 1653, 3835]}, "edge": {"target": [], "time": []}}, "mouseout": {"state": {"target": ["12", "23", "31", "30", "31"], "time": [589, 1472, 1569, 3819, 3852]}, "edge": {"target": [], "time": []}}}, "displayed_time": "15.12", "trialTime": 16497, "trial_type": "mouselab-mdp", "trial_index": 30, "time_elapsed": 1370665, "internal_node_id": "0.0-6.0-1.0-15.0"}}, {"uniqueid": "w87338769:a23916347", "current_trial": 31, "dateTime": 1693565724004, "trialdata": {"revealed_states": [], "clicked_states": ["19"], "num_clicks_accrued": [0, 0, 0, 0, 0, 0, 0, 0, 0, 0, 0, 0, 0], "stateRewards": ["", -1, -4, -1, -5, -28, -23, -15, -15, -38, 59, -87, 2, 2, -5, 9, -55, -39, -71, -6, 85, -85, -11, -1, -2, 5, -10, 1, 25, 41, -4, 69, -35, 86], "withholdReward": false, "trial_id": "mdp_trial_17", "block": "test", "trialIndex": 20, "score": -48.4, "costs": -1.4, "simulationMode": [null, null, null, null, null], "rewards": [2, 2, -5, 9, -55], "path": ["0", "0", "12", "13", "14", "15", "16"], "rt": [3178, 72, 98, 7, 153], "actions": ["right", "right", "right", "up", "up"], "actionTimes": [4510, 5095, 5704, 6229, 6892], "queries": {"click": {"state": {"target": ["19"], "time": [2605]}, "edge": {"target": [], "time": []}}, "mouseover": {"state": {"target": ["12", "13", "19"], "time": [1607, 1639, 2217]}, "edge": {"target": [], "time": []}}, "mouseout": {"state": {"target": ["0", "12", "13", "19", "22"], "time": [1594, 1623, 1672, 3488, 14286]}, "edge": {"target": [], "time": []}}}, "displayed_time": "15.33", "trialTime": 18025, "trial_type": "mouselab-mdp", "trial_index": 31, "time_elapsed": 1388937, "internal_node_id": "0.0-6.0-1.0-16.0"}}, {"uniqueid": "w87338769:a23916347", "current_trial": 32, "dateTime": 1693565740216, "trialdata": {"revealed_states": [], "clicked_states": ["15"], "num_clicks_accrued": [0, 0, 0, 0, 0, 0, 0, 0, 0, 0, 0, 0, 0], "stateRewards": ["", -2, -4, -2, -13, -15, 87, -19, -6, -80, 30, 12, 1, 1, -8, 2, 55, 56, 15, 11, -68, -7, 55, -2, 3, -3, -3, 48, 62, 4, 1, -3, 69, -33], "withholdReward": false, "trial_id": "mdp_trial_18", "block": "test", "trialIndex": 21, "score": 50.6, "costs": -1.4, "simulationMode": [null, null, null, null, null], "rewards": [1, 1, -8, 2, 56], "path": ["0", "0", "12", "13", "14", "15", "17"], "rt": [3025, 115, 37, 106, 26], "actions": ["right", "right", "right", "up", "right"], "actionTimes": [4150, 4778, 5333, 5952, 6488], "queries": {"click": {"state": {"target": ["15"], "time": [2165]}, "edge": {"target": [], "time": []}}, "mouseover": {"state": {"target": ["18", "15", "15"], "time": [1479, 1512, 1832]}, "edge": {"target": [], "time": []}}, "mouseout": {"state": {"target": ["0", "18", "15", "15"], "time": [1445, 1495, 1596, 9131]}, "edge": {"target": [], "time": []}}}, "displayed_time": "15.13", "trialTime": 15969, "trial_type": "mouselab-mdp", "trial_index": 32, "time_elapsed": 1405149, "internal_node_id": "0.0-6.0-1.0-17.0"}}, {"uniqueid": "w87338769:a23916347", "current_trial": 33, "dateTime": 1693565757436, "trialdata": {"revealed_states": [], "clicked_states": ["19"], "num_clicks_accrued": [0, 0, 0, 0, 0, 0, 0, 0, 0, 0, 0, 0, 0], "stateRewards": ["", 2, 3, 6, -12, -29, 12, 87, 4, 35, -30, 67, 2, 3, -5, -9, 44, 69, -8, 1, 45, -8, 28, -2, -1, -8, 11, -12, -5, 81, 9, 87, 82, 88], "withholdReward": false, "trial_id": "mdp_trial_19", "block": "test", "trialIndex": 22, "score": 44.6, "costs": -1.4, "simulationMode": [null, null, null, null, null], "rewards": [2, 3, -5, 1, 45], "path": ["0", "0", "12", "13", "14", "19", "20"], "rt": [3315, 96, 127, 50, 75], "actions": ["right", "right", "right", "down", "right"], "actionTimes": [4958, 5567, 6214, 6769, 7378], "queries": {"click": {"state": {"target": ["19"], "time": [2477]}, "edge": {"target": [], "time": []}}, "mouseover": {"state": {"target": ["19"], "time": [1939]}, "edge": {"target": [], "time": []}}, "mouseout": {"state": {"target": ["16", "18", "12", "0", "19"], "time": [688, 738, 1057, 1826, 3187]}, "edge": {"target": [], "time": []}}}, "displayed_time": "15.64", "trialTime": 16951, "trial_type": "mouselab-mdp", "trial_index": 33, "time_elapsed": 1422369, "internal_node_id": "0.0-6.0-1.0-18.0"}}, {"uniqueid": "w87338769:a23916347", "current_trial": 34, "dateTime": 1693565773767, "trialdata": {"revealed_states": [], "clicked_states": ["30"], "num_clicks_accrued": [0, 0, 0, 0, 0, 0, 0, 0, 0, 0, 0, 0, 0], "stateRewards": ["", 2, -1, 5, 6, 10, 86, 55, 10, -45, 63, -71, 1, -2, 5, -8, -50, -72, 36, 15, 61, 12, 33, -1, -4, 6, 5, 79, -56, -21, -16, -87, 60, -81], "withholdReward": false, "trial_id": "mdp_trial_20", "block": "test", "trialIndex": 23, "score": -16.4, "costs": -1.4, "simulationMode": [null, null, null, null, null], "rewards": [-1, -4, 6, 5, -21], "path": ["0", "0", "23", "24", "25", "26", "29"], "rt": [3705, 32, 22, 15, 253], "actions": ["left", "left", "left", "up", "left"], "actionTimes": [5114, 5648, 6205, 6715, 7486], "queries": {"click": {"state": {"target": ["30"], "time": [2202]}, "edge": {"target": [], "time": []}}, "mouseover": {"state": {"target": ["0", "23", "30", "31"], "time": [1633, 1659, 1800, 2983]}, "edge": {"target": [], "time": []}}, "mouseout": {"state": {"target": ["15", "12", "0", "0", "23", "30", "31", "12", "13", "13", "12"], "time": [436, 517, 995, 1649, 1683, 2967, 3001, 9051, 9064, 15330, 15679]}, "edge": {"target": [], "time": []}}}, "displayed_time": "15.41", "trialTime": 16067, "trial_type": "mouselab-mdp", "trial_index": 34, "time_elapsed": 1438699, "internal_node_id": "0.0-6.0-1.0-19.0"}}, {"uniqueid": "w87338769:a23916347", "current_trial": 35, "dateTime": 1693565906140, "trialdata": {"revealed_states": [], "clicked_states": ["15"], "num_clicks_accrued": [0, 0, 0, 0, 0, 0, 0, 0, 0, 0, 0, 0, 0], "stateRewards": ["", -1, 1, -5, -6, -78, 47, -13, 12, 48, -88, 20, 2, -3, -2, 13, -20, 37, -57, 14, -38, 30, 31, -2, -2, 8, 2, -23, 78, 28, 12, -74, -88, 8], "withholdReward": false, "trial_id": "mdp_trial_21", "block": "test", "trialIndex": 24, "score": -48.4, "costs": -1.4, "simulationMode": [null, null, null, null, null], "rewards": [2, -3, -2, 13, -57], "path": ["0", "0", "12", "13", "14", "15", "18"], "rt": [4125, 420, 216, 67, 192], "actions": ["right", "right", "right", "up", "left"], "actionTimes": [5213, 6138, 6851, 7418, 8127], "queries": {"click": {"state": {"target": ["15"], "time": [2036]}, "edge": {"target": [], "time": []}}, "mouseover": {"state": {"target": ["15", "14", "19"], "time": [1557, 2735, 2818]}, "edge": {"target": [], "time": []}}, "mouseout": {"state": {"target": ["0", "15", "14", "19", "20"], "time": [637, 2701, 2785, 9219, 9251]}, "edge": {"target": [], "time": []}}}, "displayed_time": "15.09", "trialTime": 132118, "trial_type": "mouselab-mdp", "trial_index": 35, "time_elapsed": 1571073, "internal_node_id": "0.0-6.0-1.0-20.0"}}, {"uniqueid": "w87338769:a23916347", "current_trial": 36, "dateTime": 1693565923357, "trialdata": {"revealed_states": [], "clicked_states": ["26"], "num_clicks_accrued": [0, 0, 0, 0, 0, 0, 0, 0, 0, 0, 0, 0, 0], "stateRewards": ["", 1, 3, 3, -10, 52, 68, 59, 12, 7, 49, 21, -2, -3, -4, -2, -2, 63, 63, -4, 44, 43, -76, -2, -3, -6, 13, 48, 36, 12, -5, -36, -33, -11], "withholdReward": false, "trial_id": "mdp_trial_22", "block": "test", "trialIndex": 25, "score": 36.6, "costs": -1.4, "simulationMode": [null, null, null, null, null], "rewards": [-2, -3, -6, 13, 36], "path": ["0", "0", "23", "24", "25", "26", "28"], "rt": [3653, 2, 158, 67, 66], "actions": ["left", "left", "left", "up", "right"], "actionTimes": [5535, 6049, 6739, 7315, 7913], "queries": {"click": {"state": {"target": ["26"], "time": [2752]}, "edge": {"target": [], "time": []}}, "mouseover": {"state": {"target": ["28", "26", "28", "1", "18", "15", "23"], "time": [2364, 2616, 3663, 4063, 4602, 4712, 4931]}, "edge": {"target": [], "time": []}}, "mouseout": {"state": {"target": ["18", "12", "0", "28", "26", "28", "1", "18", "15", "23", "1", "16"], "time": [1014, 1417, 2269, 2480, 3630, 3746, 4080, 4646, 4817, 12866, 12893, 12926]}, "edge": {"target": [], "time": []}}}, "displayed_time": "15.89", "trialTime": 16908, "trial_type": "mouselab-mdp", "trial_index": 36, "time_elapsed": 1588290, "internal_node_id": "0.0-6.0-1.0-21.0"}}, {"uniqueid": "w87338769:a23916347", "current_trial": 37, "dateTime": 1693565939621, "trialdata": {"revealed_states": [], "clicked_states": ["15", "19"], "num_clicks_accrued": [0, 0, 0, 0, 0, 0, 0, 0, 0, 0, 0, 0, 0], "stateRewards": ["", -1, 2, -6, 6, 43, 78, 78, -2, 55, -29, -17, -2, -4, 1, -15, 13, 7, -79, 8, -28, -68, 36, -1, -3, 3, -16, 84, -18, 87, 10, 32, 13, -81], "withholdReward": false, "trial_id": "mdp_trial_23", "block": "test", "trialIndex": 26, "score": -27.8, "costs": -2.8, "simulationMode": [null, null, null, null, null], "rewards": [-2, -4, 1, 8, -28], "path": ["0", "0", "12", "13", "14", "19", "20"], "rt": [4937, 129, 157, 26, 56], "actions": ["right", "right", "right", "down", "right"], "actionTimes": [6077, 6726, 7404, 7939, 8518], "queries": {"click": {"state": {"target": ["15", "19"], "time": [1814, 4084]}, "edge": {"target": [], "time": []}}, "mouseover": {"state": {"target": ["18", "15", "14", "20", "19", "22"], "time": [1248, 1664, 2605, 2864, 3247, 4780]}, "edge": {"target": [], "time": []}}, "mouseout": {"state": {"target": ["18", "18", "15", "14", "20", "19", "22"], "time": [565, 1281, 2547, 2616, 3014, 4163, 4797]}, "edge": {"target": [], "time": []}}}, "displayed_time": "15.14", "trialTime": 15993, "trial_type": "mouselab-mdp", "trial_index": 37, "time_elapsed": 1604554, "internal_node_id": "0.0-6.0-1.0-22.0"}}, {"uniqueid": "w87338769:a23916347", "current_trial": 38, "dateTime": 1693565956482, "trialdata": {"revealed_states": [], "clicked_states": ["15"], "num_clicks_accrued": [0, 0, 0, 0, 0, 0, 0, 0, 0, 0, 0, 0, 0], "stateRewards": ["", 1, 1, -3, 2, 22, -25, -11, -5, 50, 49, 3, 1, -1, 8, 14, -85, -30, 57, -6, -39, -16, 59, -2, -1, 5, 5, 59, -16, 8, 4, 67, 56, -9], "withholdReward": false, "trial_id": "mdp_trial_24", "block": "test", "trialIndex": 27, "score": -64.4, "costs": -1.4, "simulationMode": [null, null, null, null, null], "rewards": [1, -1, 8, 14, -85], "path": ["0", "0", "12", "13", "14", "15", "16"], "rt": [3507, 7, 677, 22, 183], "actions": ["right", "right", "right", "up", "up"], "actionTimes": [5046, 5569, 6775, 7300, 8011], "queries": {"click": {"state": {"target": ["15"], "time": [2309]}, "edge": {"target": [], "time": []}}, "mouseover": {"state": {"target": ["12", "15", "14", "19"], "time": [1734, 2100, 2696, 2979]}, "edge": {"target": [], "time": []}}, "mouseout": {"state": {"target": ["17", "15", "12", "12", "15", "14", "19"], "time": [481, 564, 1094, 1762, 2663, 2829, 11640]}, "edge": {"target": [], "time": []}}}, "displayed_time": "15.54", "trialTime": 16594, "trial_type": "mouselab-mdp", "trial_index": 38, "time_elapsed": 1621416, "internal_node_id": "0.0-6.0-1.0-23.0"}}, {"uniqueid": "w87338769:a23916347", "current_trial": 39, "dateTime": 1693565975782, "trialdata": {"revealed_states": [], "clicked_states": ["25"], "num_clicks_accrued": [0, 0, 0, 0, 0, 0, 0, 0, 0, 0, 0, 0, 0], "stateRewards": ["", 1, 2, 7, 13, 88, -71, 27, 3, 60, 5, -53, -2, 2, -6, -1, -30, 79, 47, -4, -14, 46, 68, 1, 1, 8, 10, -14, 86, 48, -11, -67, -44, 5], "withholdReward": false, "trial_id": "mdp_trial_25", "block": "test", "trialIndex": 28, "score": 104.6, "costs": -1.4, "simulationMode": [null, null, null, null, null], "rewards": [1, 1, 8, 10, 86], "path": ["0", "0", "23", "24", "25", "26", "28"], "rt": [3466, 65, 4090, 321, 53], "actions": ["left", "left", "left", "up", "right"], "actionTimes": [5191, 5762, 10370, 11198, 11764], "queries": {"click": {"state": {"target": ["25"], "time": [3115]}, "edge": {"target": [], "time": []}}, "mouseover": {"state": {"target": ["23", "24", "25"], "time": [2107, 2146, 2213]}, "edge": {"target": [], "time": []}}, "mouseout": {"state": {"target": ["14", "0", "23", "24", "25", "28", "26", "2", "19"], "time": [435, 2101, 2130, 2180, 3679, 6962, 17483, 17525, 18676]}, "edge": {"target": [], "time": []}}}, "displayed_time": "15.73", "trialTime": 19016, "trial_type": "mouselab-mdp", "trial_index": 39, "time_elapsed": 1640716, "internal_node_id": "0.0-6.0-1.0-24.0"}}, {"uniqueid": "w87338769:a23916347", "current_trial": 40, "dateTime": 1693565992420, "trialdata": {"revealed_states": [], "clicked_states": ["30"], "num_clicks_accrued": [0, 0, 0, 0, 0, 0, 0, 0, 0, 0, 0, 0, 0], "stateRewards": ["", 1, 4, -8, -13, -13, -87, -77, -10, -44, 54, 42, 2, -3, -4, 12, -9, -80, 52, 9, 84, -2, -65, 1, -4, -5, -6, 8, 80, 32, 13, -59, -5, -13], "withholdReward": false, "trial_id": "mdp_trial_26", "block": "test", "trialIndex": 29, "score": -55.4, "costs": -1.4, "simulationMode": [null, null, null, null, null], "rewards": [1, -4, -5, 13, -59], "path": ["0", "0", "23", "24", "25", "30", "31"], "rt": [4523, 170, 49, 964, 138], "actions": ["left", "left", "left", "down", "right"], "actionTimes": [5618, 6288, 6833, 8314, 8972], "queries": {"click": {"state": {"target": ["30"], "time": [2921]}, "edge": {"target": [], "time": []}}, "mouseover": {"state": {"target": ["23", "24", "25", "26", "25", "30", "31"], "time": [1351, 1401, 1536, 1733, 2269, 2300, 4122]}, "edge": {"target": [], "time": []}}, "mouseout": {"state": {"target": ["13", "12", "0", "23", "24", "25", "26", "25", "30", "31"], "time": [367, 417, 1325, 1368, 1451, 1703, 2256, 2285, 4105, 4136]}, "edge": {"target": [], "time": []}}}, "displayed_time": "15.10", "trialTime": 16346, "trial_type": "mouselab-mdp", "trial_index": 40, "time_elapsed": 1657353, "internal_node_id": "0.0-6.0-1.0-25.0"}}, {"uniqueid": "w87338769:a23916347", "current_trial": 41, "dateTime": 1693566011793, "trialdata": {"revealed_states": [], "clicked_states": ["3"], "num_clicks_accrued": [0, 0, 0, 0, 0, 0, 0, 0, 0, 0, 0, 0, 0], "stateRewards": ["", -2, -1, -2, -15, 87, 57, 29, -10, 77, -80, -7, 1, -3, 6, 14, -11, 87, -59, 4, -71, 16, -11, 2, 2, -7, 2, -47, 61, 50, 14, -20, 17, 81], "withholdReward": false, "trial_id": "mdp_trial_27", "block": "test", "trialIndex": 30, "score": 90.6, "costs": -1.4, "simulationMode": [null, null, null, null, null], "rewards": [2, 2, -7, 14, 81], "path": ["0", "0", "23", "24", "25", "30", "33"], "rt": [11654, 43, 116, 567, 143], "actions": ["left", "left", "left", "down", "left"], "actionTimes": [12915, 13461, 14084, 15168, 15826], "queries": {"click": {"state": {"target": ["3"], "time": [2861]}, "edge": {"target": [], "time": []}}, "mouseover": {"state": {"target": ["1", "2", "3", "24", "25", "30", "30"], "time": [2202, 2319, 2469, 5487, 5619, 6002, 8940]}, "edge": {"target": [], "time": []}}, "mouseout": {"state": {"target": ["0", "1", "2", "3", "24", "25", "30", "30", "19"], "time": [1875, 2252, 2419, 3704, 5554, 5838, 8767, 17333, 18685]}, "edge": {"target": [], "time": []}}}, "displayed_time": "16.32", "trialTime": 19044, "trial_type": "mouselab-mdp", "trial_index": 41, "time_elapsed": 1676725, "internal_node_id": "0.0-6.0-1.0-26.0"}}, {"uniqueid": "w87338769:a23916347", "current_trial": 42, "dateTime": 1693566028484, "trialdata": {"revealed_states": [], "clicked_states": ["19"], "num_clicks_accrued": [0, 0, 0, 0, 0, 0, 0, 0, 0, 0, 0, 0, 0], "stateRewards": ["", 1, -1, 1, 13, 31, -56, 72, 2, 41, 5, 63, -2, -3, -2, 3, -71, -26, 52, 13, -31, 24, -67, 2, -2, 5, 4, 66, 43, 72, 9, 86, -26, 44], "withholdReward": false, "trial_id": "mdp_trial_28", "block": "test", "trialIndex": 31, "score": -62.4, "costs": -1.4, "simulationMode": [null, null, null, null, null], "rewards": [-2, -3, -2, 13, -67], "path": ["0", "0", "12", "13", "14", "19", "22"], "rt": [3712, 168, 124, 38, 369], "actions": ["right", "right", "right", "down", "left"], "actionTimes": [5534, 6220, 6859, 7406, 8287], "queries": {"click": {"state": {"target": ["19"], "time": [2823]}, "edge": {"target": [], "time": []}}, "mouseover": {"state": {"target": ["12", "13", "14", "19"], "time": [2158, 2185, 2420, 2621]}, "edge": {"target": [], "time": []}}, "mouseout": {"state": {"target": ["17", "18", "12", "13", "14", "19", "14"], "time": [1070, 1102, 2169, 2321, 2536, 2852, 9668]}, "edge": {"target": [], "time": []}}}, "displayed_time": "15.82", "trialTime": 16424, "trial_type": "mouselab-mdp", "trial_index": 42, "time_elapsed": 1693417, "internal_node_id": "0.0-6.0-1.0-27.0"}}, {"uniqueid": "w87338769:a23916347", "current_trial": 43, "dateTime": 1693566044920, "trialdata": {"revealed_states": [], "clicked_states": ["19"], "num_clicks_accrued": [0, 0, 0, 0, 0, 0, 0, 0, 0, 0, 0, 0, 0], "stateRewards": ["", 1, 3, 1, -13, 52, -28, 67, -14, 3, 63, -70, -1, -4, 7, -11, -10, 47, -18, 6, 69, -9, -61, 2, 3, -6, 10, 63, -34, 40, -6, -79, -35, -32], "withholdReward": false, "trial_id": "mdp_trial_29", "block": "test", "trialIndex": 32, "score": 75.6, "costs": -1.4, "simulationMode": [null, null, null, null, null], "rewards": [-1, -4, 7, 6, 69], "path": ["0", "0", "12", "13", "14", "19", "20"], "rt": [3093, 185, 5024, 142, 51], "actions": ["right", "right", "right", "down", "right"], "actionTimes": [4096, 4776, 10313, 10982, 11537], "queries": {"click": {"state": {"target": ["19"], "time": [1927]}, "edge": {"target": [], "time": []}}, "mouseover": {"state": {"target": ["12", "13", "19", "22"], "time": [1096, 1155, 1371, 2772]}, "edge": {"target": [], "time": []}}, "mouseout": {"state": {"target": ["0", "12", "13", "19", "22", "20", "19"], "time": [1062, 1107, 1321, 2756, 2794, 15520, 15567]}, "edge": {"target": [], "time": []}}}, "displayed_time": "15.01", "trialTime": 16138, "trial_type": "mouselab-mdp", "trial_index": 43, "time_elapsed": 1709853, "internal_node_id": "0.0-6.0-1.0-28.0"}}, {"uniqueid": "w87338769:a23916347", "current_trial": 44, "dateTime": 1693566061362, "trialdata": {"revealed_states": [], "clicked_states": ["15"], "num_clicks_accrued": [0, 0, 0, 0, 0, 0, 0, 0, 0, 0, 0, 0, 0], "stateRewards": ["", -2, 4, -5, -12, 85, -24, -18, -15, -78, -22, 26, -1, -1, 2, 14, -45, 52, -23, 7, -33, 24, -6, -2, -4, 5, -7, -16, 36, -39, 5, 71, -87, -23], "withholdReward": false, "trial_id": "mdp_trial_30", "block": "test", "trialIndex": 33, "score": 64.6, "costs": -1.4, "simulationMode": [null, null, null, null, null], "rewards": [-1, -1, 2, 14, 52], "path": ["0", "0", "12", "13", "14", "15", "17"], "rt": [3468, 91, 169, 594, 76], "actions": ["right", "right", "right", "up", "right"], "actionTimes": [4578, 5184, 5862, 6971, 7567], "queries": {"click": {"state": {"target": ["15"], "time": [2529]}, "edge": {"target": [], "time": []}}, "mouseover": {"state": {"target": ["18", "15", "15"], "time": [1366, 1379, 2233]}, "edge": {"target": [], "time": []}}, "mouseout": {"state": {"target": ["0", "18", "15", "15", "20"], "time": [1331, 1376, 1408, 10566, 15587]}, "edge": {"target": [], "time": []}}}, "displayed_time": "15.11", "trialTime": 16137, "trial_type": "mouselab-mdp", "trial_index": 44, "time_elapsed": 1726295, "internal_node_id": "0.0-6.0-1.0-29.0"}}, {"uniqueid": "w87338769:a23916347", "current_trial": 45, "dateTime": 1693566077497, "trialdata": {"revealed_states": [], "clicked_states": ["19"], "num_clicks_accrued": [0, 0, 0, 0, 0, 0, 0, 0, 0, 0, 0, 0, 0], "stateRewards": ["", -2, -3, 8, 14, -73, 73, 84, -12, -2, -50, -17, 2, 1, -2, -9, -44, -27, -33, 16, -63, -47, -66, -2, 1, 4, -5, -33, -11, 50, 9, 38, -79, 31], "withholdReward": false, "trial_id": "mdp_trial_31", "block": "test", "trialIndex": 34, "score": -31.4, "costs": -1.4, "simulationMode": [null, null, null, null, null], "rewards": [2, 1, -2, 16, -47], "path": ["0", "0", "12", "13", "14", "19", "21"], "rt": [5715, 49, 306, 279, 35], "actions": ["right", "right", "right", "down", "down"], "actionTimes": [6823, 7390, 8213, 9003, 9558], "queries": {"click": {"state": {"target": ["19"], "time": [1861]}, "edge": {"target": [], "time": []}}, "mouseover": {"state": {"target": ["12", "13", "19"], "time": [1276, 1308, 1630]}, "edge": {"target": [], "time": []}}, "mouseout": {"state": {"target": ["0", "12", "13", "19"], "time": [1265, 1292, 1325, 1953]}, "edge": {"target": [], "time": []}}}, "displayed_time": "15.11", "trialTime": 15827, "trial_type": "mouselab-mdp", "trial_index": 45, "time_elapsed": 1742429, "internal_node_id": "0.0-6.0-1.0-30.0"}}, {"uniqueid": "w87338769:a23916347", "current_trial": 46, "dateTime": 1693566094603, "trialdata": {"revealed_states": [], "clicked_states": ["19"], "num_clicks_accrued": [0, 0, 0, 0, 0, 0, 0, 0, 0, 0, 0, 0, 0], "stateRewards": ["", 2, -1, 3, -12, -83, 6, -33, 9, 28, 24, -50, -2, -1, -2, -5, -87, 37, 82, 12, 80, -5, 10, -2, -3, -6, 9, 22, -1, 16, 9, 77, -62, 58], "withholdReward": false, "trial_id": "mdp_trial_32", "block": "test", "trialIndex": 35, "score": 85.6, "costs": -1.4, "simulationMode": [null, null, null, null, null], "rewards": [-2, -1, -2, 12, 80], "path": ["0", "0", "12", "13", "14", "19", "20"], "rt": [3218, 114, 219, 42, 12], "actions": ["right", "right", "right", "down", "right"], "actionTimes": [5108, 5715, 6453, 7009, 7545], "queries": {"click": {"state": {"target": ["19"], "time": [3151]}, "edge": {"target": [], "time": []}}, "mouseover": {"state": {"target": ["12", "22", "19"], "time": [2336, 2416, 2618]}, "edge": {"target": [], "time": []}}, "mouseout": {"state": {"target": ["14", "13", "12", "0", "0", "12", "22", "19"], "time": [489, 516, 583, 1052, 2322, 2366, 2449, 3500]}, "edge": {"target": [], "time": []}}}, "displayed_time": "15.89", "trialTime": 16812, "trial_type": "mouselab-mdp", "trial_index": 46, "time_elapsed": 1759535, "internal_node_id": "0.0-6.0-1.0-31.0"}}, {"uniqueid": "w87338769:a23916347", "current_trial": 47, "dateTime": 1693566110839, "trialdata": {"revealed_states": [], "clicked_states": ["30"], "num_clicks_accrued": [0, 0, 0, 0, 0, 0, 0, 0, 0, 0, 0, 0, 0], "stateRewards": ["", 1, 1, 1, -3, -7, -1, -41, -10, 20, -72, -63, 1, -4, -2, 2, -66, 30, -84, -2, 49, 23, 71, -1, -4, 4, -12, 67, 5, 18, -16, 88, 56, -5], "withholdReward": false, "trial_id": "mdp_trial_33", "block": "test", "trialIndex": 36, "score": -88.4, "costs": -1.4, "simulationMode": [null, null, null, null, null], "rewards": [1, -4, -2, 2, -84], "path": ["0", "0", "12", "13", "14", "15", "18"], "rt": [2988, 89, 369, 741, 95], "actions": ["right", "right", "right", "up", "left"], "actionTimes": [4361, 4966, 5829, 7068, 7655], "queries": {"click": {"state": {"target": ["30"], "time": [2094]}, "edge": {"target": [], "time": []}}, "mouseover": {"state": {"target": ["23", "24", "30", "31"], "time": [1565, 1609, 1912, 3043]}, "edge": {"target": [], "time": []}}, "mouseout": {"state": {"target": ["13", "12", "0", "23", "24", "30", "31", "15", "22"], "time": [859, 926, 1548, 1577, 1659, 2184, 3060, 10972, 14340]}, "edge": {"target": [], "time": []}}}, "displayed_time": "15.37", "trialTime": 15915, "trial_type": "mouselab-mdp", "trial_index": 47, "time_elapsed": 1775772, "internal_node_id": "0.0-6.0-1.0-32.0"}}, {"uniqueid": "w87338769:a23916347", "current_trial": 48, "dateTime": 1693566126779, "trialdata": {"revealed_states": [], "clicked_states": ["19"], "num_clicks_accrued": [0, 0, 0, 0, 0, 0, 0, 0, 0, 0, 0, 0, 0], "stateRewards": ["", -1, -2, 4, 9, 10, -75, 39, 16, -43, 88, -19, -1, 1, 2, 4, -31, 10, 73, 12, 41, -64, -81, -2, 2, -6, 1, -81, -1, -26, 3, -59, -3, -20], "withholdReward": false, "trial_id": "mdp_trial_34", "block": "test", "trialIndex": 37, "score": -51.4, "costs": -1.4, "simulationMode": [null, null, null, null, null], "rewards": [-1, 1, 2, 12, -64], "path": ["0", "0", "12", "13", "14", "19", "21"], "rt": [4626, 12, 312, 538, 407], "actions": ["right", "right", "right", "down", "down"], "actionTimes": [5627, 6152, 6986, 8029, 8948], "queries": {"click": {"state": {"target": ["19"], "time": [1831]}, "edge": {"target": [], "time": []}}, "mouseover": {"state": {"target": ["12", "13", "19"], "time": [1179, 1207, 1479]}, "edge": {"target": [], "time": []}}, "mouseout": {"state": {"target": ["0", "12", "13"], "time": [546, 1193, 1239]}, "edge": {"target": [], "time": []}}}, "displayed_time": "15.00", "trialTime": 15641, "trial_type": "mouselab-mdp", "trial_index": 48, "time_elapsed": 1791712, "internal_node_id": "0.0-6.0-1.0-33.0"}}, {"uniqueid": "w87338769:a23916347", "current_trial": 49, "dateTime": 1693566143911, "trialdata": {"revealed_states": [], "clicked_states": ["19"], "num_clicks_accrued": [0, 0, 0, 0, 0, 0, 0, 0, 0, 0, 0, 0, 0], "stateRewards": ["", -1, 2, -7, -12, -62, 12, -13, 5, 77, -71, 83, 1, -4, 7, 15, -42, -87, -4, 5, -25, 44, 88, -1, 4, -5, -8, 14, 51, 8, -5, 83, -24, -19], "withholdReward": false, "trial_id": "mdp_trial_35", "block": "test", "trialIndex": 38, "score": 95.6, "costs": -1.4, "simulationMode": [null, null, null, null, null], "rewards": [1, -4, 7, 5, 88], "path": ["0", "0", "12", "13", "14", "19", "22"], "rt": [3001, 56, 505, 121, 257], "actions": ["right", "right", "right", "down", "left"], "actionTimes": [4457, 5031, 6047, 6679, 7447], "queries": {"click": {"state": {"target": ["19"], "time": [2295]}, "edge": {"target": [], "time": []}}, "mouseover": {"state": {"target": ["12", "19"], "time": [1709, 1912]}, "edge": {"target": [], "time": []}}, "mouseout": {"state": {"target": ["19", "22", "0", "12", "19"], "time": [603, 658, 1680, 1725, 2504]}, "edge": {"target": [], "time": []}}}, "displayed_time": "15.46", "trialTime": 16812, "trial_type": "mouselab-mdp", "trial_index": 49, "time_elapsed": 1808843, "internal_node_id": "0.0-6.0-1.0-34.0"}}, {"uniqueid": "w87338769:a23916347", "current_trial": 50, "dateTime": 1693566161152, "trialdata": {"revealed_states": [], "clicked_states": ["15"], "num_clicks_accrued": [0, 0, 0, 0, 0, 0, 0, 0, 0, 0, 0, 0, 0], "stateRewards": ["", -2, -4, -2, 10, -8, -15, -47, 7, -84, 53, 5, -1, 2, -7, 3, 83, 31, 47, -1, 30, -8, 69, 2, -4, -1, 8, -7, 12, -8, -8, -13, 30, -84], "withholdReward": false, "trial_id": "mdp_trial_36", "block": "test", "trialIndex": 39, "score": 42.6, "costs": -1.4, "simulationMode": [null, null, null, null, null], "rewards": [-1, 2, -7, 3, 47], "path": ["0", "0", "12", "13", "14", "15", "18"], "rt": [4176, 134, 212, 128, 166], "actions": ["right", "right", "right", "up", "left"], "actionTimes": [5248, 5894, 6605, 7253, 7909], "queries": {"click": {"state": {"target": ["15"], "time": [2080]}, "edge": {"target": [], "time": []}}, "mouseover": {"state": {"target": ["18", "15", "17"], "time": [1429, 1476, 2559]}, "edge": {"target": [], "time": []}}, "mouseout": {"state": {"target": ["13", "12", "0", "18", "15", "17", "22"], "time": [460, 493, 559, 1443, 2290, 2576, 16187]}, "edge": {"target": [], "time": []}}}, "displayed_time": "15.07", "trialTime": 16928, "trial_type": "mouselab-mdp", "trial_index": 50, "time_elapsed": 1826085, "internal_node_id": "0.0-6.0-1.0-35.0"}}, {"uniqueid": "w87338769:a23916347", "current_trial": 51, "dateTime": 1693566179150, "trialdata": {"revealed_states": [], "clicked_states": ["30"], "num_clicks_accrued": [0, 0, 0, 0, 0, 0, 0, 0, 0, 0, 0, 0, 0], "stateRewards": ["", -1, -4, -1, -11, 43, 69, 39, 4, 17, -20, -82, -2, -1, 4, 8, -79, 24, -79, 11, 36, 64, 41, 2, 4, -1, 11, -79, -47, 75, -3, 63, -36, -19], "withholdReward": false, "trial_id": "mdp_trial_37", "block": "test", "trialIndex": 40, "score": 46.6, "costs": -1.4, "simulationMode": [null, null, null, null, null], "rewards": [-2, -1, 4, 11, 36], "path": ["0", "0", "12", "13", "14", "19", "20"], "rt": [4183, 168, 22, 628, 218], "actions": ["right", "right", "right", "down", "right"], "actionTimes": [6715, 7401, 7937, 9076, 9815], "queries": {"click": {"state": {"target": ["30"], "time": [3469]}, "edge": {"target": [], "time": []}}, "mouseover": {"state": {"target": ["23", "24", "25", "30", "31"], "time": [2783, 2816, 2967, 3082, 4532]}, "edge": {"target": [], "time": []}}, "mouseout": {"state": {"target": ["0", "23", "0", "23", "24", "25", "30", "31", "14"], "time": [1286, 1314, 2753, 2799, 2833, 2998, 3680, 4565, 11411]}, "edge": {"target": [], "time": []}}}, "displayed_time": "16.53", "trialTime": 17672, "trial_type": "mouselab-mdp", "trial_index": 51, "time_elapsed": 1844083, "internal_node_id": "0.0-6.0-1.0-36.0"}}, {"uniqueid": "w87338769:a23916347", "current_trial": 52, "dateTime": 1693566195499, "trialdata": {"revealed_states": [], "clicked_states": ["30"], "num_clicks_accrued": [0, 0, 0, 0, 0, 0, 0, 0, 0, 0, 0, 0, 0], "stateRewards": ["", -2, 1, -3, -16, -39, -52, 30, -7, -41, -59, 11, 2, 1, 8, 2, -11, -26, -42, -13, 87, -59, -48, -1, -1, -1, 16, -79, 31, 50, -1, -84, 34, -82], "withholdReward": false, "trial_id": "mdp_trial_38", "block": "test", "trialIndex": 41, "score": 42.6, "costs": -1.4, "simulationMode": [null, null, null, null, null], "rewards": [-1, -1, -1, 16, 31], "path": ["0", "0", "23", "24", "25", "26", "28"], "rt": [3853, 40, 49, 321, 70], "actions": ["left", "left", "left", "up", "right"], "actionTimes": [5148, 5710, 6269, 7109, 7689], "queries": {"click": {"state": {"target": ["30"], "time": [2333]}, "edge": {"target": [], "time": []}}, "mouseover": {"state": {"target": ["23", "30", "31"], "time": [1720, 2002, 3355]}, "edge": {"target": [], "time": []}}, "mouseout": {"state": {"target": ["0", "23", "30", "31", "13", "17", "20", "19"], "time": [1718, 1752, 3353, 3370, 14148, 14182, 15381, 15448]}, "edge": {"target": [], "time": []}}}, "displayed_time": "15.30", "trialTime": 16047, "trial_type": "mouselab-mdp", "trial_index": 52, "time_elapsed": 1860431, "internal_node_id": "0.0-6.0-1.0-37.0"}}, {"uniqueid": "w87338769:a23916347", "current_trial": 53, "dateTime": 1693566212082, "trialdata": {"revealed_states": [], "clicked_states": ["8"], "num_clicks_accrued": [0, 0, 0, 0, 0, 0, 0, 0, 0, 0, 0, 0, 0], "stateRewards": ["", 1, -1, 8, -3, 38, 85, -20, -4, 8, 23, 73, 2, -4, 6, -13, 44, 7, -28, -11, -77, 45, -69, 1, -1, -7, -11, 75, -51, -87, 7, 36, -53, -26], "withholdReward": false, "trial_id": "mdp_trial_39", "block": "test", "trialIndex": 42, "score": -85.4, "costs": -1.4, "simulationMode": [null, null, null, null, null], "rewards": [2, -4, 6, -11, -77], "path": ["0", "0", "12", "13", "14", "19", "20"], "rt": [5364, 80, 269, 93, 650], "actions": ["right", "right", "right", "down", "right"], "actionTimes": [6640, 7213, 8005, 8594, 9749], "queries": {"click": {"state": {"target": ["8"], "time": [3850]}, "edge": {"target": [], "time": []}}, "mouseover": {"state": {"target": ["1", "2", "3", "2", "23", "24", "28", "10", "8"], "time": [1717, 1767, 2067, 2552, 2767, 2884, 3000, 3183, 3469]}, "edge": {"target": [], "time": []}}, "mouseout": {"state": {"target": ["0", "1", "2", "3", "2", "23", "24", "28", "10", "8", "14"], "time": [1638, 1750, 1952, 2536, 2584, 2834, 2968, 3049, 3250, 11591, 15929]}, "edge": {"target": [], "time": []}}}, "displayed_time": "15.28", "trialTime": 16269, "trial_type": "mouselab-mdp", "trial_index": 53, "time_elapsed": 1877015, "internal_node_id": "0.0-6.0-1.0-38.0"}}, {"uniqueid": "w87338769:a23916347", "current_trial": 54, "dateTime": 1693566229082, "trialdata": {"revealed_states": [], "clicked_states": ["15"], "num_clicks_accrued": [0, 0, 0, 0, 0, 0, 0, 0, 0, 0, 0, 0, 0], "stateRewards": ["", 2, -4, 7, 3, 23, -42, 4, 7, -81, -33, 7, -2, -4, 5, -1, 50, -57, -14, -13, -14, 44, 55, -2, -2, 5, -2, 33, 1, 57, -13, -7, 58, 87], "withholdReward": false, "trial_id": "mdp_trial_40", "block": "test", "trialIndex": 43, "score": 30.6, "costs": -1.4, "simulationMode": [null, null, null, null, null], "rewards": [-2, -2, 5, -2, 33], "path": ["0", "0", "23", "24", "25", "26", "27"], "rt": [4021, 76, 89, 434, 173], "actions": ["left", "left", "left", "up", "up"], "actionTimes": [5675, 6248, 6845, 7789, 8460], "queries": {"click": {"state": {"target": ["15"], "time": [3047]}, "edge": {"target": [], "time": []}}, "mouseover": {"state": {"target": ["12", "13", "19", "14", "15", "17"], "time": [1928, 1959, 2223, 2539, 2704, 3588]}, "edge": {"target": [], "time": []}}, "mouseout": {"state": {"target": ["12", "13", "19", "14", "15", "17"], "time": [1947, 2004, 2523, 2605, 3572, 3604]}, "edge": {"target": [], "time": []}}}, "displayed_time": "15.66", "trialTime": 16693, "trial_type": "mouselab-mdp", "trial_index": 54, "time_elapsed": 1894015, "internal_node_id": "0.0-6.0-1.0-39.0"}}, {"uniqueid": "w87338769:a23916347", "current_trial": 55, "dateTime": 1693566284883, "trialdata": {"rt": 55792, "response": {"Q0": "$-2 to $2", "Q1": "$-16 to $16", "Q2": "$-88 to $88", "Q3": "The cost was always $1.4.", "Q4": "Very motivated"}, "question_order": [0, 1, 2, 3, 4], "trial_id": "final_quiz_control", "trial_type": "survey-multi-choice", "trial_index": 55, "time_elapsed": 1949816, "internal_node_id": "0.0-6.0-2.0"}}, {"uniqueid": "w87338769:a23916347", "current_trial": 56, "dateTime": 1693566369570, "trialdata": {"rt": 84637, "response": {"Q0": "I used the nodes on the 4 dots in which i used to separate and identify possible positive amounts.", "Q1": "Yes. I clicked on the node in the center of each corner as i divided the exit points up.", "Q2": "Not difficult. "}, "trial_id": "self_report_control", "trial_type": "survey-text", "trial_index": 56, "time_elapsed": 2034504, "internal_node_id": "0.0-6.0-3.0"}}, {"uniqueid": "w87338769:a23916347", "current_trial": 57, "dateTime": 1693566423771, "trialdata": {"rt": 54193, "response": {"gender": "female", "age": "27", "colorblind": "0", "effort": "0"}, "trial_type": "survey-html-form", "trial_index": 57, "time_elapsed": 2088705, "internal_node_id": "0.0-6.0-4.0"}}, {"uniqueid": "w87338769:a23916347", "current_trial": 58, "dateTime": 1693566438665, "trialdata": {"rt": 14884, "response": {"Q0": "None", "Q1": "No", "Q2": ""}, "trial_type": "survey-text", "trial_index": 58, "time_elapsed": 2103599, "internal_node_id": "0.0-6.0-5.0"}}, {"uniqueid": "w87338769:a23916347", "current_trial": 59, "dateTime": 1693566468053, "trialdata": {"rt": 29382, "stimulus": "<h1>Completion Code Instructions (1/2)</h1>\n<br><br><br><br>\nYou have reached the end of the experiment! The completion code consists of two parts: (1) a code with 2 characters (2) a code with 6 characters. On this page, you will receive the second part of the code. The first part of the completion code will be on the next page.\n<br><br>\nThe second part of your completion code is: <b>EWEK22</b>\n<br><br>\nPlease note this down. Then, press 'Finish HIT' in order to find the first part of your completion code. Once the data has been saved, you will receive this code either in this window or in the original browser window where you started the experiment.\n", "response": 0, "trial_type": "html-button-response", "trial_index": 59, "time_elapsed": 2132987, "internal_node_id": "0.0-6.0-6.0"}}, {"uniqueid": "w87338769:a23916347", "current_trial": 60, "dateTime": 1693566469062, "trialdata": {"success": true, "trial_type": "fullscreen", "trial_index": 60, "time_elapsed": 2133996, "internal_node_id": "0.0-7.0"}}], "questiondata": {"params": {"CODE": "C6DMOQA6", "MIN_TIME": 14, "inspectCost": 1, "startTime": "Fri Sep 01 2023 12:32:11 GMT+0200 (South Africa Standard Time)", "bonusRate": 0.002, "variance": "1_2_4_8_44", "branching": "31123"}}, "eventdata": [{"eventtype": "initialized", "value": null, "timestamp": 1693564331069, "interval": 0}, {"eventtype": "window_resize", "value": [1280, 622], "timestamp": 1693564331069, "interval": 0}, {"eventtype": "window_resize", "value": [1280, 622], "timestamp": 1693564331620, "interval": 551}, {"eventtype": "window_resize", "value": [1280, 720], "timestamp": 1693564338054, "interval": 6434}, {"eventtype": "focus", "value": "off", "timestamp": 1693564543829, "interval": 205775}, {"eventtype": "focus", "value": "on", "timestamp": 1693564543829, "interval": 0}, {"eventtype": "window_resize", "value": [1280, 622], "timestamp": 1693564544034, "interval": 205}, {"eventtype": "window_resize", "value": [1280, 720], "timestamp": 1693564546538, "interval": 2504}, {"eventtype": "focus", "value": "off", "timestamp": 1693564582423, "interval": 35885}, {"eventtype": "focus", "value": "on", "timestamp": 1693565066507, "interval": 484084}, {"eventtype": "focus", "value": "off", "timestamp": 1693565789638, "interval": 723131}, {"eventtype": "focus", "value": "on", "timestamp": 1693565903639, "interval": 114001}, {"eventtype": "focus", "value": "off", "timestamp": 1693566035340, "interval": 131701}, {"eventtype": "focus", "value": "on", "timestamp": 1693566038422, "interval": 3082}, {"eventtype": "focus", "value": "off", "timestamp": 1693566333112, "interval": 294690}, {"eventtype": "focus", "value": "on", "timestamp": 1693566335459, "interval": 2347}, {"eventtype": "window_resize", "value": [1280, 622], "timestamp": 1693566374333, "interval": 38874}, {"eventtype": "focus", "value": "off", "timestamp": 1693566376255, "interval": 1922}, {"eventtype": "focus", "value": "on", "timestamp": 1693566408313, "interval": 32058}], "useragent": "Mozilla/5.0 (Windows NT 10.0; Win64; x64) AppleWebKit/537.36 (KHTML, like Gecko) Chrome/116.0.0.0 Safari/537.36", "mode": "live", "id": "w87338769:a23916347", "status": "user data saved", "Beginhit": "2023-09-01 10:32:07.529047", "Beginexp": "2023-09-01 10:32:19.028075", "Endhit": "2023-09-01 11:07:50.669879", "psiturkStatus": 3, "browser": "<redacted>", "platform": "windows", "language": "en-US"}