{"condition": 0, "counterbalance": 0, "assignmentId": "a31185118", "workerId": "w88049898", "hitId": "h11446102", "currenttrial": 55, "bonus": 0, "data": [{"uniqueid": "w88049898:a31185118", "current_trial": 0, "dateTime": 1693661992196, "trialdata": {"success": true, "trial_type": "fullscreen", "trial_index": 0, "time_elapsed": 17879, "internal_node_id": "0.0-0.0"}}, {"uniqueid": "w88049898:a31185118", "current_trial": 1, "dateTime": 1693662148350, "trialdata": {"view_history": [{"page_index": 0, "viewing_time": 156153}], "rt": 156153, "trial_id": "exp_instructions_control", "trial_type": "instructions", "trial_index": 1, "time_elapsed": 174034, "internal_node_id": "0.0-1.0"}}, {"uniqueid": "w88049898:a31185118", "current_trial": 2, "dateTime": 1693662416811, "trialdata": {"view_history": [{"page_index": 0, "viewing_time": 131302}, {"page_index": 1, "viewing_time": 786}, {"page_index": 0, "viewing_time": 1365}, {"page_index": 1, "viewing_time": 59398}, {"page_index": 2, "viewing_time": 772}, {"page_index": 1, "viewing_time": 679}, {"page_index": 0, "viewing_time": 627}, {"page_index": 1, "viewing_time": 214}, {"page_index": 2, "viewing_time": 25461}, {"page_index": 3, "viewing_time": 47854}], "rt": 268460, "trial_id": "mouselab_instructions_1_control", "trial_type": "instructions", "trial_index": 2, "time_elapsed": 442495, "internal_node_id": "0.0-2.0-1.0"}}, {"uniqueid": "w88049898:a31185118", "current_trial": 3, "dateTime": 1693662439234, "trialdata": {"revealed_states": [], "clicked_states": ["1", "12", "23"], "num_clicks_accrued": [0, 0, 0, 0, 0, 0, 0, 0, 0, 0, 0, 0, 0], "stateRewards": ["", -10, -10, 10, 10, 10, -10, 10, -10, 10, 10, -10, 10, 10, -10, -10, -10, -10, 10, -10, 10, 10, -10, -10, -10, 10, 10, -10, 10, -10, 10, -10, 10, 10], "withholdReward": false, "trial_id": "practice_1", "block": "test", "trialIndex": 0, "score": -8, "costs": -1.5, "simulationMode": [null, null, null, null, null], "rewards": [10, 10, -10, -10, -10], "path": ["0", "0", "12", "13", "14", "15", "17"], "rt": [9395, 2416, 540, 88, 122], "actions": ["right", "right", "right", "up", "right"], "actionTimes": [12109, 15032, 16073, 16668, 17298], "queries": {"click": {"state": {"target": ["1", "12", "23"], "time": [4815, 6127, 7494]}, "edge": {"target": [], "time": []}}, "mouseover": {"state": {"target": ["1", "12", "0", "23"], "time": [4411, 5515, 6678, 7032]}, "edge": {"target": [], "time": []}}, "mouseout": {"state": {"target": ["12", "0", "1", "12", "0", "23"], "time": [null, 4330, 5209, 6629, 6900, 8343]}, "edge": {"target": [], "time": []}}}, "displayed_time": "17.80", "trialTime": 22036, "trial_type": "mouselab-mdp", "trial_index": 3, "time_elapsed": 464918, "internal_node_id": "0.0-2.0-2.0-0.0"}}, {"uniqueid": "w88049898:a31185118", "current_trial": 4, "dateTime": 1693662455090, "trialdata": {"revealed_states": [], "clicked_states": ["13", "1", "23"], "num_clicks_accrued": [0, 0, 0, 0, 0, 0, 0, 0, 0, 0, 0, 0, 0], "stateRewards": ["", -10, 10, -10, 10, -10, 10, 10, -10, -10, 10, 10, 10, -10, 10, 10, -10, -10, 10, -10, -10, 10, -10, -10, 10, 10, 10, 10, -10, -10, -10, 10, -10, -10], "withholdReward": false, "trial_id": "practice_2", "block": "test", "trialIndex": 1, "score": 12, "costs": -1.5, "simulationMode": [null, null, null, null, null], "rewards": [-10, 10, 10, 10, -10], "path": ["0", "0", "23", "24", "25", "26", "28"], "rt": [9354, 73, 21, 0, 34], "actions": ["left", "left", "left", "up", "right"], "actionTimes": [10847, 11420, 11943, 12457, 13004], "queries": {"click": {"state": {"target": ["13", "1", "23"], "time": [3211, 5358, 7748]}, "edge": {"target": [], "time": []}}, "mouseover": {"state": {"target": ["12", "13", "12", "1", "0", "0", "23", "23"], "time": [2424, 2577, 4178, 4451, 5752, 6942, 7282, 7498]}, "edge": {"target": [], "time": []}}, "mouseout": {"state": {"target": ["0", "12", "13", "12", "1", "0", "0", "23", "23"], "time": [1348, 2479, 4129, 4247, 5697, 5773, 7005, 7394, 8083]}, "edge": {"target": [], "time": []}}}, "displayed_time": "13.51", "trialTime": 15774, "trial_type": "mouselab-mdp", "trial_index": 4, "time_elapsed": 480773, "internal_node_id": "0.0-2.0-2.0-1.0"}}, {"uniqueid": "w88049898:a31185118", "current_trial": 5, "dateTime": 1693662513682, "trialdata": {"view_history": [{"page_index": 0, "viewing_time": 52711}, {"page_index": 1, "viewing_time": 5880}], "rt": 58592, "trial_id": "mouselab_instructions_2_control", "trial_type": "instructions", "trial_index": 5, "time_elapsed": 539366, "internal_node_id": "0.0-2.0-3.0"}}, {"uniqueid": "w88049898:a31185118", "current_trial": 6, "dateTime": 1693662581683, "trialdata": {"rt": 67999, "response": {"Q0": "The cost for clicking on nodes may vary between nodes.", "Q1": "The better I perform the higher my bonus will be.", "Q2": "No, the amount of cash at each node of the web may be different each time.", "Q3": "To get the highest total score.", "Q4": "Only before moving the spider.", "Q5": "3 seconds"}, "question_order": [0, 1, 2, 3, 4, 5], "correct": {"Q0": "The cost for clicking on nodes may vary between nodes.", "Q1": "The better I perform the higher my bonus will be.", "Q2": "No, the amount of cash at each node of the web may be different each time.", "Q3": "To get the highest total score.", "Q4": "Only before moving the spider.", "Q5": "3 seconds"}, "trial_id": "mouselab_quiz_control", "trial_type": "survey-multi-choice", "trial_index": 6, "time_elapsed": 607367, "internal_node_id": "0.0-2.0-4.0"}}, {"uniqueid": "w88049898:a31185118", "current_trial": 7, "dateTime": 1693662589237, "trialdata": {"rt": 7550, "response": {"Q0": "No"}, "question_order": [0], "trial_id": "repeat_check", "trial_type": "survey-multi-choice", "trial_index": 7, "time_elapsed": 614920, "internal_node_id": "0.0-4.0-0.0"}}, {"uniqueid": "w88049898:a31185118", "current_trial": 8, "dateTime": 1693662600651, "trialdata": {"rt": 11412, "stimulus": "\n<h1> Get ready to start the game! </h1>\n\nThank you for reading the instructions. Get ready start with the 40 rounds of this game.\n<br><br>\nIf you need to take a break, feel free to take one after the end of a round, before continuing to the next one.\n<br><br>\nRemember, the more money the spider gets, the bigger your bonus will be!\n<br><br>\n<div style='text-align: center;'>Press <code>space</code> to begin.</div>\n\n<br><br>\n(If, at any point, the <code>space</code> key does not take you to the next page, click once on the text and try again.)", "response": " ", "trial_id": "mdp_ready", "trial_type": "html-keyboard-response", "trial_index": 8, "time_elapsed": 626335, "internal_node_id": "0.0-6.0-0.0"}}, {"uniqueid": "w88049898:a31185118", "current_trial": 9, "dateTime": 1693662618170, "trialdata": {"revealed_states": [], "clicked_states": ["12", "2"], "num_clicks_accrued": [0, 0, 0, 0, 0, 0, 0, 0, 0, 0, 0, 0, 0], "stateRewards": ["", 1, 1, 6, -14, -40, 37, 16, -13, 33, -68, 49, 2, 4, 3, 6, 55, 27, 32, 10, -65, 20, -87, 2, 1, -6, -5, -42, 12, 29, -8, 16, 76, -33], "withholdReward": false, "trial_id": "mdp_trial_1", "block": "test", "trialIndex": 2, "score": -48.8, "costs": -2.8, "simulationMode": [null, null, null, null, null], "rewards": [2, 4, 3, 10, -65], "path": ["0", "0", "12", "13", "14", "19", "20"], "rt": [8239, 871, 538, 223, 190], "actions": ["right", "right", "right", "down", "right"], "actionTimes": [9185, 10557, 11596, 12319, 13011], "queries": {"click": {"state": {"target": ["12", "2"], "time": [1963, 5438]}, "edge": {"target": [], "time": []}}, "mouseover": {"state": {"target": ["12", "0", "1", "2", "1"], "time": [1665, 4365, 4518, 4796, 5740]}, "edge": {"target": [], "time": []}}, "mouseout": {"state": {"target": ["0", "12", "0", "1", "2", "2", "1"], "time": [880, 3054, 4379, 4733, 5518, 5718, 5801]}, "edge": {"target": [], "time": []}}}, "displayed_time": "14.95", "trialTime": 17430, "trial_type": "mouselab-mdp", "trial_index": 9, "time_elapsed": 643854, "internal_node_id": "0.0-6.0-1.0-0.0"}}, {"uniqueid": "w88049898:a31185118", "current_trial": 10, "dateTime": 1693662637041, "trialdata": {"revealed_states": [], "clicked_states": ["24", "30"], "num_clicks_accrued": [0, 0, 0, 0, 0, 0, 0, 0, 0, 0, 0, 0, 0], "stateRewards": ["", -2, -3, 8, 14, -73, 73, 84, -12, -2, -50, -17, 2, 1, -2, -9, -44, -27, -33, 16, -63, -47, -66, -2, 1, 4, -5, -33, -11, 50, 9, 38, -79, 31], "withholdReward": false, "trial_id": "mdp_trial_2", "block": "test", "trialIndex": 3, "score": -69.8, "costs": -2.8, "simulationMode": [null, null, null, null, null], "rewards": [-2, 1, 4, 9, -79], "path": ["0", "0", "23", "24", "25", "30", "32"], "rt": [7985, 477, 294, 129, 238], "actions": ["left", "left", "left", "down", "down"], "actionTimes": [9827, 10805, 11607, 12237, 12983], "queries": {"click": {"state": {"target": ["24", "30"], "time": [2887, 4927]}, "edge": {"target": [], "time": []}}, "mouseover": {"state": {"target": ["23", "24", "30"], "time": [2455, 2695, 4420]}, "edge": {"target": [], "time": []}}, "mouseout": {"state": {"target": ["0", "23", "24", "30"], "time": [2400, 2625, 3816, 4941]}, "edge": {"target": [], "time": []}}}, "displayed_time": "15.84", "trialTime": 18788, "trial_type": "mouselab-mdp", "trial_index": 10, "time_elapsed": 662725, "internal_node_id": "0.0-6.0-1.0-1.0"}}, {"uniqueid": "w88049898:a31185118", "current_trial": 11, "dateTime": 1693662654435, "trialdata": {"revealed_states": [], "clicked_states": ["13", "23", "2"], "num_clicks_accrued": [0, 0, 0, 0, 0, 0, 0, 0, 0, 0, 0, 0, 0], "stateRewards": ["", -1, -3, 3, 5, 56, 39, 50, -1, -80, 33, -46, 1, -2, -6, -8, 87, 48, 54, -11, -20, -64, -54, -2, 3, -7, -3, 12, 88, 35, -16, -46, -70, -3], "withholdReward": false, "trial_id": "mdp_trial_3", "block": "test", "trialIndex": 4, "score": -1.1999999999999993, "costs": -4.199999999999999, "simulationMode": [null, null, null, null, null], "rewards": [-2, 3, -7, -3, 12], "path": ["0", "0", "23", "24", "25", "26", "27"], "rt": [10984, 357, 523, 35, 434], "actions": ["left", "left", "left", "up", "up"], "actionTimes": [12152, 13010, 14035, 14571, 15512], "queries": {"click": {"state": {"target": ["13", "23", "2"], "time": [2614, 5601, 8429]}, "edge": {"target": [], "time": []}}, "mouseover": {"state": {"target": ["12", "13", "14", "12", "23", "24", "25", "1", "2", "1"], "time": [1796, 1929, 3185, 5097, 5280, 6374, 6589, 8047, 8307, 8794]}, "edge": {"target": [], "time": []}}, "mouseout": {"state": {"target": ["30", "31", "0", "12", "13", "14", "13", "12", "23", "24", "25", "1", "2", "2", "1"], "time": [614, 663, 1049, 1859, 3033, 4936, 5048, 5153, 6340, 6430, 7998, 8062, 8539, 8769, 8818]}, "edge": {"target": [], "time": []}}}, "displayed_time": "16.03", "trialTime": 17310, "trial_type": "mouselab-mdp", "trial_index": 11, "time_elapsed": 680119, "internal_node_id": "0.0-6.0-1.0-2.0"}}, {"uniqueid": "w88049898:a31185118", "current_trial": 12, "dateTime": 1693662680308, "trialdata": {"revealed_states": [], "clicked_states": [], "num_clicks_accrued": [0, 0, 0, 0, 0, 0, 0, 0, 0, 0, 0, 0, 0], "stateRewards": ["", -1, -3, -6, 14, 41, 18, 63, -14, 80, 21, 17, -2, -4, -2, -5, 13, 70, 8, -4, -64, -10, -20, 2, -1, 4, -1, -17, -55, 42, -7, 47, 54, 15], "withholdReward": false, "trial_id": "mdp_trial_4", "block": "test", "trialIndex": 5, "score": 56, "costs": 0, "simulationMode": [null, null, null, null, null], "rewards": [-1, -3, -6, -14, 80], "path": ["0", "0", "1", "2", "3", "8", "9"], "rt": [5226, 9, 21, 443, 1], "actions": ["up", "up", "up", "left", "up"], "actionTimes": [10923, 11433, 11952, 12909, 13417], "queries": {"click": {"state": {"target": [], "time": []}, "edge": {"target": [], "time": []}}, "mouseover": {"state": {"target": ["1", "1", "2", "3", "2", "3", "2"], "time": [6382, 6662, 7352, 7893, 8636, 8986, 9576]}, "edge": {"target": [], "time": []}}, "mouseout": {"state": {"target": ["1", "1", "2", "3", "2", "3", "2"], "time": [6575, 7304, 7858, 8601, 8923, 9548, 9639]}, "edge": {"target": [], "time": []}}}, "displayed_time": "19.70", "trialTime": 25788, "trial_type": "mouselab-mdp", "trial_index": 12, "time_elapsed": 705992, "internal_node_id": "0.0-6.0-1.0-3.0"}}, {"uniqueid": "w88049898:a31185118", "current_trial": 13, "dateTime": 1693662699283, "trialdata": {"revealed_states": [], "clicked_states": ["2", "8", "4", "7"], "num_clicks_accrued": [0, 0, 0, 0, 0, 0, 0, 0, 0, 0, 0, 0, 0], "stateRewards": ["", 2, -3, -8, 14, -7, -51, 73, 2, 36, 36, -43, -1, 3, -4, 1, 6, 87, -65, 15, 61, -42, -83, -1, 3, -2, -7, 30, -48, 35, 13, 26, 60, 78], "withholdReward": false, "trial_id": "mdp_trial_5", "block": "test", "trialIndex": 6, "score": 72.4, "costs": -5.6, "simulationMode": [null, null, null, null, null, null], "rewards": [2, -3, -8, 14, 73], "path": ["0", "0", "1", "2", "3", "4", "7"], "rt": [7864, 1022, 280, 33, 1, 63], "actions": ["up", "up", "up", "up", "right", "down"], "actionTimes": [8720, 9744, 10524, 11058, 11567, 12136], "queries": {"click": {"state": {"target": ["2", "8", "4", "7"], "time": [1714, 3665, 5663, 8015]}, "edge": {"target": [], "time": []}}, "mouseover": {"state": {"target": ["1", "2", "4", "3", "8", "3", "4", "7"], "time": [1318, 1494, 2172, 2588, 2678, 3945, 4035, 6450]}, "edge": {"target": [], "time": []}}, "mouseout": {"state": {"target": ["1", "1", "2", "4", "3", "8", "3", "4", "7", "12", "12", "7", "12"], "time": [601, 1367, 2109, 2553, 2630, 3917, 3987, 6408, 13605, 13802, 17068, 18194, 18376]}, "edge": {"target": [], "time": []}}}, "displayed_time": "14.86", "trialTime": 18877, "trial_type": "mouselab-mdp", "trial_index": 13, "time_elapsed": 724967, "internal_node_id": "0.0-6.0-1.0-4.0"}}, {"uniqueid": "w88049898:a31185118", "current_trial": 14, "dateTime": 1693662717521, "trialdata": {"revealed_states": [], "clicked_states": ["3", "4", "8"], "num_clicks_accrued": [0, 0, 0, 0, 0, 0, 0, 0, 0, 0, 0, 0, 0], "stateRewards": ["", -2, 2, -2, -7, -50, -62, -45, 7, 36, -24, -72, -1, -1, 8, -1, -67, 20, -52, 2, 35, -50, 80, -1, 1, 6, -6, -70, 6, 88, 8, -47, 74, -19], "withholdReward": false, "trial_id": "mdp_trial_6", "block": "test", "trialIndex": 7, "score": 83.8, "costs": -4.199999999999999, "simulationMode": [null, null, null, null, null], "rewards": [-1, 1, 6, 8, 74], "path": ["0", "0", "23", "24", "25", "30", "32"], "rt": [10408, 37, 442, 1, 12], "actions": ["left", "left", "left", "down", "down"], "actionTimes": [11562, 12099, 13053, 13561, 14079], "queries": {"click": {"state": {"target": ["3", "4", "8"], "time": [3178, 5230, 7591]}, "edge": {"target": [], "time": []}}, "mouseover": {"state": {"target": ["1", "2", "2", "3", "3", "4", "7", "8", "10"], "time": [1547, 1701, 2255, 2650, 3034, 3928, 5628, 7475, 10344]}, "edge": {"target": [], "time": []}}, "mouseout": {"state": {"target": ["0", "1", "2", "2", "3", "3", "4", "7", "3", "8"], "time": [1505, 1589, 2102, 2403, 2797, 3574, 5538, 7202, 7327, 10288]}, "edge": {"target": [], "time": []}}}, "displayed_time": "15.15", "trialTime": 18146, "trial_type": "mouselab-mdp", "trial_index": 14, "time_elapsed": 743204, "internal_node_id": "0.0-6.0-1.0-5.0"}}, {"uniqueid": "w88049898:a31185118", "current_trial": 15, "dateTime": 1693662734234, "trialdata": {"revealed_states": [], "clicked_states": ["14", "3", "25"], "num_clicks_accrued": [0, 0, 0, 0, 0, 0, 0, 0, 0, 0, 0, 0, 0], "stateRewards": ["", 1, 2, -6, -13, -51, 22, -4, -12, -44, -12, 6, -2, -2, -2, -14, -46, -4, -77, -2, 36, -79, 41, 2, -4, 2, -6, -55, 59, 70, -5, 39, -19, 24], "withholdReward": false, "trial_id": "mdp_trial_7", "block": "test", "trialIndex": 8, "score": 59.8, "costs": -4.199999999999999, "simulationMode": [null, null, null, null, null], "rewards": [2, -4, 2, -6, 70], "path": ["0", "0", "23", "24", "25", "26", "29"], "rt": [8503, 433, 36, 466, 1], "actions": ["left", "left", "left", "up", "left"], "actionTimes": [9558, 10492, 11029, 12001, 12502], "queries": {"click": {"state": {"target": ["14", "3", "25"], "time": [2630, 5197, 7191]}, "edge": {"target": [], "time": []}}, "mouseover": {"state": {"target": ["12", "13", "13", "14", "15", "19", "13", "18", "2", "3", "2", "1", "23", "24", "25"], "time": [1560, 1721, 2206, 2535, 3574, 4060, 4675, 4710, 4864, 5018, 5487, 5529, 5994, 6043, 6341]}, "edge": {"target": [], "time": []}}, "mouseout": {"state": {"target": ["10", "2", "1", "12", "13", "13", "14", "15", "14", "19", "13", "18", "2", "3", "2", "1", "23", "24", "25"], "time": [595, 678, 789, 1616, 2086, 2479, 3102, 3866, 3984, 4633, 4682, 4724, 4963, 5466, 5508, 5550, 6001, 6293, 7537]}, "edge": {"target": [], "time": []}}}, "displayed_time": "15.06", "trialTime": 16623, "trial_type": "mouselab-mdp", "trial_index": 15, "time_elapsed": 759918, "internal_node_id": "0.0-6.0-1.0-6.0"}}, {"uniqueid": "w88049898:a31185118", "current_trial": 16, "dateTime": 1693662754855, "trialdata": {"revealed_states": [], "clicked_states": ["14", "15", "19"], "num_clicks_accrued": [0, 0, 0, 0, 0, 0, 0, 0, 0, 0, 0, 0, 0], "stateRewards": ["", -1, 3, 1, -7, 56, 76, 57, 3, 11, -9, 14, 1, -2, 2, 8, -77, -3, 79, -5, 88, 24, -66, -2, -1, 7, -7, -30, 14, -76, 11, -36, 28, -6], "withholdReward": false, "trial_id": "mdp_trial_8", "block": "test", "trialIndex": 9, "score": 1.8000000000000007, "costs": -4.199999999999999, "simulationMode": [null, null, null, null, null], "rewards": [1, -2, 2, 8, -3], "path": ["0", "0", "12", "13", "14", "15", "17"], "rt": [7510, 336, 83, 420, 163], "actions": ["right", "right", "right", "up", "right"], "actionTimes": [11492, 12336, 12919, 13841, 14504], "queries": {"click": {"state": {"target": ["14", "15", "19"], "time": [4643, 7143, 9153]}, "edge": {"target": [], "time": []}}, "mouseover": {"state": {"target": ["0", "12", "13", "14", "19", "15", "19"], "time": [4182, 4244, 4301, 4420, 5453, 6895, 7508]}, "edge": {"target": [], "time": []}}, "mouseout": {"state": {"target": ["0", "0", "12", "13", "14", "19", "14", "15", "14"], "time": [3901, 4216, 4273, 4343, 5251, 6800, 6853, 7409, 7471]}, "edge": {"target": [], "time": []}}}, "displayed_time": "17.98", "trialTime": 20533, "trial_type": "mouselab-mdp", "trial_index": 16, "time_elapsed": 780539, "internal_node_id": "0.0-6.0-1.0-7.0"}}, {"uniqueid": "w88049898:a31185118", "current_trial": 17, "dateTime": 1693662771269, "trialdata": {"revealed_states": [], "clicked_states": ["2", "4", "8"], "num_clicks_accrued": [0, 0, 0, 0, 0, 0, 0, 0, 0, 0, 0, 0, 0], "stateRewards": ["", -2, 2, 3, -7, 76, 63, 21, 15, 35, -8, -44, 1, 1, -2, -12, 23, 24, 76, -9, 46, 66, -49, -2, -1, 7, 12, 40, -71, -45, -6, 38, -49, 46], "withholdReward": false, "trial_id": "mdp_trial_9", "block": "test", "trialIndex": 10, "score": 5.800000000000001, "costs": -4.199999999999999, "simulationMode": [null, null, null, null, null], "rewards": [-2, 2, 3, 15, -8], "path": ["0", "0", "1", "2", "3", "8", "10"], "rt": [7788, 1, 1307, 327, 70], "actions": ["up", "up", "up", "left", "down"], "actionTimes": [8768, 9282, 11102, 11930, 12501], "queries": {"click": {"state": {"target": ["2", "4", "8"], "time": [2332, 4339, 6248]}, "edge": {"target": [], "time": []}}, "mouseover": {"state": {"target": ["1", "2", "3", "4", "3", "8"], "time": [1532, 1977, 3091, 3515, 4647, 4730]}, "edge": {"target": [], "time": []}}, "mouseout": {"state": {"target": ["19", "22", "0", "1", "2", "3", "4", "3", "8", "2"], "time": [583, 618, 1477, 1616, 2827, 3230, 4626, 4688, 6750, 6910]}, "edge": {"target": [], "time": []}}}, "displayed_time": "14.98", "trialTime": 16324, "trial_type": "mouselab-mdp", "trial_index": 17, "time_elapsed": 796953, "internal_node_id": "0.0-6.0-1.0-8.0"}}, {"uniqueid": "w88049898:a31185118", "current_trial": 18, "dateTime": 1693662788192, "trialdata": {"revealed_states": [], "clicked_states": ["14", "19", "15"], "num_clicks_accrued": [0, 0, 0, 0, 0, 0, 0, 0, 0, 0, 0, 0, 0], "stateRewards": ["", -2, 2, -1, -6, 22, 6, 6, -5, 70, -42, 65, 1, 3, 5, -6, -67, -9, 3, 14, 7, -62, -13, -2, 4, 1, 16, 42, -21, -52, -8, 32, 53, 81], "withholdReward": false, "trial_id": "mdp_trial_10", "block": "test", "trialIndex": 11, "score": -43.2, "costs": -4.199999999999999, "simulationMode": [null, null, null, null, null], "rewards": [1, 3, 5, 14, -62], "path": ["0", "0", "12", "13", "14", "19", "21"], "rt": [7119, 718, 36, 445, 153], "actions": ["right", "right", "right", "down", "down"], "actionTimes": [8510, 9728, 10265, 11209, 11883], "queries": {"click": {"state": {"target": ["14", "19", "15"], "time": [2833, 4704, 6616]}, "edge": {"target": [], "time": []}}, "mouseover": {"state": {"target": ["12", "13", "14", "13", "14", "19", "15"], "time": [1833, 1882, 2148, 2428, 2695, 3429, 5379]}, "edge": {"target": [], "time": []}}, "mouseout": {"state": {"target": ["10", "0", "0", "12", "13", "14", "13", "14", "19", "14", "15", "14"], "time": [867, 1006, 1819, 1861, 2029, 2387, 2625, 3262, 4819, 5067, 6993, 7056]}, "edge": {"target": [], "time": []}}}, "displayed_time": "15.39", "trialTime": 16832, "trial_type": "mouselab-mdp", "trial_index": 18, "time_elapsed": 813876, "internal_node_id": "0.0-6.0-1.0-9.0"}}, {"uniqueid": "w88049898:a31185118", "current_trial": 19, "dateTime": 1693662805557, "trialdata": {"revealed_states": [], "clicked_states": ["10", "7", "9"], "num_clicks_accrued": [0, 0, 0, 0, 0, 0, 0, 0, 0, 0, 0, 0, 0], "stateRewards": ["", 1, -3, -1, 9, -34, -40, 22, -7, 45, 53, -11, 2, 4, 5, 15, 21, 37, -49, -3, 80, -28, -34, 1, -3, 1, 1, -40, -6, -5, -16, -85, -86, 59], "withholdReward": false, "trial_id": "mdp_trial_11", "block": "test", "trialIndex": 12, "score": 38.8, "costs": -4.199999999999999, "simulationMode": [null, null, null, null, null], "rewards": [1, -3, -1, -7, 53], "path": ["0", "0", "1", "2", "3", "8", "10"], "rt": [7321, 393, 29, 295, 57], "actions": ["up", "up", "up", "left", "down"], "actionTimes": [9306, 10200, 10736, 11537, 12095], "queries": {"click": {"state": {"target": ["10", "7", "9"], "time": [2935, 5062, 7043]}, "edge": {"target": [], "time": []}}, "mouseover": {"state": {"target": ["1", "2", "10", "11", "8", "3", "7", "6", "5", "9", "3"], "time": [2447, 2544, 2777, 3544, 3912, 3961, 4030, 5529, 5987, 6334, 7392]}, "edge": {"target": [], "time": []}}, "mouseout": {"state": {"target": ["12", "0", "1", "2", "10", "11", "8", "3", "7", "6", "5", "9", "3", "7"], "time": [804, 2412, 2488, 2599, 3301, 3884, 3940, 3982, 5150, 5897, 6008, 7344, 7448, 8226]}, "edge": {"target": [], "time": []}}}, "displayed_time": "15.99", "trialTime": 17265, "trial_type": "mouselab-mdp", "trial_index": 19, "time_elapsed": 831241, "internal_node_id": "0.0-6.0-1.0-10.0"}}, {"uniqueid": "w88049898:a31185118", "current_trial": 20, "dateTime": 1693662822368, "trialdata": {"revealed_states": [], "clicked_states": ["21", "28", "5"], "num_clicks_accrued": [0, 0, 0, 0, 0, 0, 0, 0, 0, 0, 0, 0, 0], "stateRewards": ["", 1, -2, -3, 14, -42, -87, -37, -11, -50, 33, -44, -2, 4, -7, 13, 48, -75, -66, 12, 23, -2, 82, 1, -4, 3, 12, 51, -15, -26, -11, -52, -29, 82], "withholdReward": false, "trial_id": "mdp_trial_12", "block": "test", "trialIndex": 13, "score": -62.2, "costs": -4.199999999999999, "simulationMode": [null, null, null, null, null], "rewards": [-2, 4, -7, 13, -66], "path": ["0", "0", "12", "13", "14", "15", "18"], "rt": [8552, 175, 42, 67, 359], "actions": ["right", "right", "right", "up", "left"], "actionTimes": [10695, 11372, 11914, 12487, 13355], "queries": {"click": {"state": {"target": ["21", "28", "5"], "time": [3177, 5105, 7529]}, "edge": {"target": [], "time": []}}, "mouseover": {"state": {"target": ["12", "22", "21", "13", "28", "2", "7", "4", "5", "4"], "time": [2611, 2681, 2899, 3674, 4333, 5934, 5962, 7141, 7359, 7814]}, "edge": {"target": [], "time": []}}, "mouseout": {"state": {"target": ["12", "22", "21", "13", "28", "2", "7", "4", "5", "4"], "time": [2632, 2695, 3295, 3708, 5871, 5941, 7127, 7175, 7793, 7835]}, "edge": {"target": [], "time": []}}}, "displayed_time": "16.14", "trialTime": 16720, "trial_type": "mouselab-mdp", "trial_index": 20, "time_elapsed": 848052, "internal_node_id": "0.0-6.0-1.0-11.0"}}, {"uniqueid": "w88049898:a31185118", "current_trial": 21, "dateTime": 1693662838656, "trialdata": {"revealed_states": [], "clicked_states": ["9", "32", "6"], "num_clicks_accrued": [0, 0, 0, 0, 0, 0, 0, 0, 0, 0, 0, 0, 0], "stateRewards": ["", -1, -4, -6, -15, 21, -67, -63, 9, 51, 69, -14, -1, 3, 8, -8, 39, 72, 63, 15, 19, 47, 15, 1, 4, 5, 16, -18, 34, 35, -14, -80, 40, 1], "withholdReward": false, "trial_id": "mdp_trial_13", "block": "test", "trialIndex": 14, "score": 44.8, "costs": -4.199999999999999, "simulationMode": [null, null, null, null, null], "rewards": [-1, -4, -6, 9, 51], "path": ["0", "0", "1", "2", "3", "8", "9"], "rt": [8529, 43, 20, 474, 49], "actions": ["up", "up", "up", "left", "up"], "actionTimes": [9787, 10338, 10863, 11852, 12401], "queries": {"click": {"state": {"target": ["9", "32", "6"], "time": [2106, 4248, 6290]}, "edge": {"target": [], "time": []}}, "mouseover": {"state": {"target": ["1", "2", "3", "9", "8", "10", "24", "32", "31", "6"], "time": [1612, 1640, 1696, 1980, 2404, 2466, 2709, 3160, 4847, 5513]}, "edge": {"target": [], "time": []}}, "mouseout": {"state": {"target": ["18", "12", "0", "1", "2", "3", "9", "8", "10", "24", "32", "31", "6"], "time": [588, 693, 817, 1633, 1668, 1801, 2362, 2438, 2515, 2841, 4356, 4978, 6654]}, "edge": {"target": [], "time": []}}}, "displayed_time": "15.26", "trialTime": 16194, "trial_type": "mouselab-mdp", "trial_index": 21, "time_elapsed": 864340, "internal_node_id": "0.0-6.0-1.0-12.0"}}, {"uniqueid": "w88049898:a31185118", "current_trial": 22, "dateTime": 1693662857470, "trialdata": {"revealed_states": [], "clicked_states": ["32", "9", "7"], "num_clicks_accrued": [0, 0, 0, 0, 0, 0, 0, 0, 0, 0, 0, 0, 0], "stateRewards": ["", 1, 2, 3, 16, 63, -25, 16, -4, -14, 82, -66, -1, -3, -3, -11, -14, 19, 46, 3, -34, -82, 66, -2, -3, 4, -5, -63, 77, -37, -1, -45, -41, 84], "withholdReward": false, "trial_id": "mdp_trial_14", "block": "test", "trialIndex": 15, "score": 33.8, "costs": -4.199999999999999, "simulationMode": [null, null, null, null, null], "rewards": [1, 2, 3, 16, 16], "path": ["0", "0", "1", "2", "3", "4", "7"], "rt": [8793, 32, 428, 29, 36], "actions": ["up", "up", "up", "right", "down"], "actionTimes": [12145, 12678, 13608, 14137, 14679], "queries": {"click": {"state": {"target": ["32", "9", "7"], "time": [4235, 6739, 9103]}, "edge": {"target": [], "time": []}}, "mouseover": {"state": {"target": ["0", "32", "30", "28", "10", "8", "9", "3", "7"], "time": [3825, 4130, 4583, 4631, 4853, 4887, 5283, 7234, 7324]}, "edge": {"target": [], "time": []}}, "mouseout": {"state": {"target": ["14", "13", "12", "0", "32", "30", "28", "10", "8", "9", "3", "7"], "time": [2997, 3032, 3095, 3839, 4554, 4596, 4658, 4860, 5214, 7206, 7255, 15924]}, "edge": {"target": [], "time": []}}}, "displayed_time": "17.35", "trialTime": 18722, "trial_type": "mouselab-mdp", "trial_index": 22, "time_elapsed": 883154, "internal_node_id": "0.0-6.0-1.0-13.0"}}, {"uniqueid": "w88049898:a31185118", "current_trial": 23, "dateTime": 1693662875137, "trialdata": {"revealed_states": [], "clicked_states": ["21", "16", "18"], "num_clicks_accrued": [0, 0, 0, 0, 0, 0, 0, 0, 0, 0, 0, 0, 0], "stateRewards": ["", -2, 2, -5, -6, 10, -66, -58, -10, -11, -63, -70, -1, -4, -5, 7, 66, -64, -43, -3, 45, -37, 4, -2, -2, -6, -4, -30, 33, 43, 15, -32, -65, -59], "withholdReward": false, "trial_id": "mdp_trial_15", "block": "test", "trialIndex": 16, "score": 58.8, "costs": -4.199999999999999, "simulationMode": [null, null, null, null, null], "rewards": [-1, -4, -5, 7, 66], "path": ["0", "0", "12", "13", "14", "15", "16"], "rt": [7526, 25, 412, 2, 153], "actions": ["right", "right", "right", "up", "up"], "actionTimes": [9017, 9550, 10471, 10974, 11639], "queries": {"click": {"state": {"target": ["21", "16", "18"], "time": [2371, 4366, 7118]}, "edge": {"target": [], "time": []}}, "mouseover": {"state": {"target": ["12", "22", "21", "19", "14", "15", "16", "27", "18", "15", "18"], "time": [1926, 1961, 2155, 2739, 2759, 2801, 3086, 5195, 6659, 6750, 6969]}, "edge": {"target": [], "time": []}}, "mouseout": {"state": {"target": ["7", "12", "22", "21", "19", "14", "15", "16", "27", "18", "15", "18"], "time": [1125, 1933, 2003, 2718, 2752, 2780, 2947, 4764, 6588, 6693, 6869, 17363]}, "edge": {"target": [], "time": []}}}, "displayed_time": "15.49", "trialTime": 17570, "trial_type": "mouselab-mdp", "trial_index": 23, "time_elapsed": 900821, "internal_node_id": "0.0-6.0-1.0-14.0"}}, {"uniqueid": "w88049898:a31185118", "current_trial": 24, "dateTime": 1693662895260, "trialdata": {"revealed_states": [], "clicked_states": ["16", "18", "17"], "num_clicks_accrued": [0, 0, 0, 0, 0, 0, 0, 0, 0, 0, 0, 0, 0], "stateRewards": ["", -2, -1, -4, -15, -14, -67, 32, -3, -59, 63, 31, 2, -1, -7, -15, 71, -66, -27, -3, -54, -39, 72, 2, 1, 1, -13, 77, -40, 35, -9, 35, 75, 57], "withholdReward": false, "trial_id": "mdp_trial_16", "block": "test", "trialIndex": 17, "score": 45.8, "costs": -4.199999999999999, "simulationMode": [null, null, null, null, null], "rewards": [2, -1, -7, -15, 71], "path": ["0", "0", "12", "13", "14", "15", "16"], "rt": [7215, 426, 29, 353, 141], "actions": ["right", "right", "right", "up", "up"], "actionTimes": [11893, 12826, 13355, 14214, 14863], "queries": {"click": {"state": {"target": ["16", "18", "17"], "time": [5524, 7866, 9859]}, "edge": {"target": [], "time": []}}, "mouseover": {"state": {"target": ["12", "15", "16", "15", "18", "7", "18", "15", "17"], "time": [4988, 5114, 5359, 5857, 6030, 6746, 7653, 8194, 8294]}, "edge": {"target": [], "time": []}}, "mouseout": {"state": {"target": ["12", "1", "18", "12", "15", "16", "16", "15", "18", "7", "18", "15", "17"], "time": [610, 666, 4404, 4995, 5268, 5627, 5822, 5967, 6412, 7604, 8181, 8222, 10257]}, "edge": {"target": [], "time": []}}}, "displayed_time": "18.68", "trialTime": 20017, "trial_type": "mouselab-mdp", "trial_index": 24, "time_elapsed": 920944, "internal_node_id": "0.0-6.0-1.0-15.0"}}, {"uniqueid": "w88049898:a31185118", "current_trial": 25, "dateTime": 1693662922496, "trialdata": {"revealed_states": [], "clicked_states": ["9", "31", "20"], "num_clicks_accrued": [0, 0, 0, 0, 0, 0, 0, 0, 0, 0, 0, 0, 0], "stateRewards": ["", -2, 3, -1, -9, 44, 48, -37, -3, 71, -39, 87, -1, 3, -4, 4, -21, 59, -15, -8, -1, 28, -38, 2, 4, 4, 8, -85, -72, -63, 14, 58, 63, -46], "withholdReward": false, "trial_id": "mdp_trial_17", "block": "test", "trialIndex": 18, "score": 63.8, "costs": -4.199999999999999, "simulationMode": [null, null, null, null, null], "rewards": [-2, 3, -1, -3, 71], "path": ["0", "0", "1", "2", "3", "8", "9"], "rt": [7432, 72, 19, 13, 95], "actions": ["up", "up", "up", "left", "up"], "actionTimes": [8697, 9270, 9791, 10319, 10929], "queries": {"click": {"state": {"target": ["9", "31", "20"], "time": [2324, 4523, 6552]}, "edge": {"target": [], "time": []}}, "mouseover": {"state": {"target": ["1", "2", "8", "9", "8", "10", "24", "30", "31", "2", "7", "18", "14", "19", "20", "14", "18"], "time": [1628, 1664, 1726, 2250, 2604, 2648, 2987, 3083, 3328, 5277, 5311, 5333, 5362, 5416, 5818, 6999, 7027]}, "edge": {"target": [], "time": []}}, "mouseout": {"state": {"target": ["14", "13", "12", "1", "2", "8", "9", "8", "10", "24", "30", "31", "2", "7", "18", "14", "19", "20", "14", "18", "7", "12"], "time": [902, 937, 979, 1649, 1684, 1964, 2577, 2632, 2667, 3035, 3229, 4895, 5298, 5318, 5346, 5388, 5471, 6971, 7013, 7048, 26701, 26960]}, "edge": {"target": [], "time": []}}}, "displayed_time": "15.27", "trialTime": 27135, "trial_type": "mouselab-mdp", "trial_index": 25, "time_elapsed": 948180, "internal_node_id": "0.0-6.0-1.0-16.0"}}, {"uniqueid": "w88049898:a31185118", "current_trial": 26, "dateTime": 1693662939264, "trialdata": {"revealed_states": [], "clicked_states": ["21", "9", "17"], "num_clicks_accrued": [0, 0, 0, 0, 0, 0, 0, 0, 0, 0, 0, 0, 0], "stateRewards": ["", 2, 1, -3, 7, 46, 11, -36, 16, 71, 5, 1, 2, -2, -8, -3, -4, 6, 55, 7, 68, -54, 2, 1, 1, 6, -6, 42, -4, -84, -11, -65, 63, 25], "withholdReward": false, "trial_id": "mdp_trial_18", "block": "test", "trialIndex": 19, "score": 82.8, "costs": -4.199999999999999, "simulationMode": [null, null, null, null, null], "rewards": [2, 1, -3, 16, 71], "path": ["0", "0", "1", "2", "3", "8", "9"], "rt": [6837, 17, 58, 360, 53], "actions": ["up", "up", "up", "left", "up"], "actionTimes": [8070, 8589, 9150, 10014, 10574], "queries": {"click": {"state": {"target": ["21", "9", "17"], "time": [1894, 3927, 6170]}, "edge": {"target": [], "time": []}}, "mouseover": {"state": {"target": ["0", "22", "21", "22", "13", "2", "8", "9", "3", "4", "17", "15", "18", "2"], "time": [1415, 1512, 1723, 2227, 2241, 2276, 2304, 2651, 4326, 4339, 4777, 6444, 6471, 6513]}, "edge": {"target": [], "time": []}}, "mouseout": {"state": {"target": ["0", "0", "22", "21", "22", "13", "2", "8", "9", "3", "4", "17", "15", "18", "2"], "time": [1117, 1435, 1519, 2213, 2234, 2248, 2283, 2332, 4298, 4332, 4353, 6430, 6464, 6485, 6534]}, "edge": {"target": [], "time": []}}}, "displayed_time": "15.23", "trialTime": 16655, "trial_type": "mouselab-mdp", "trial_index": 26, "time_elapsed": 964948, "internal_node_id": "0.0-6.0-1.0-17.0"}}, {"uniqueid": "w88049898:a31185118", "current_trial": 27, "dateTime": 1693662955360, "trialdata": {"revealed_states": [], "clicked_states": ["32", "6", "21"], "num_clicks_accrued": [0, 0, 0, 0, 0, 0, 0, 0, 0, 0, 0, 0, 0], "stateRewards": ["", 1, 1, 4, 11, 83, -66, 18, -16, -23, 5, 25, 1, -3, 1, -12, 18, 24, -86, -11, -64, 36, 40, 2, 1, -6, 13, 55, 29, 72, -2, 81, -72, -41], "withholdReward": false, "trial_id": "mdp_trial_19", "block": "test", "trialIndex": 20, "score": 19.8, "costs": -4.199999999999999, "simulationMode": [null, null, null, null, null], "rewards": [1, -3, 1, -11, 36], "path": ["0", "0", "12", "13", "14", "19", "21"], "rt": [7237, 41, 432, 453, 127], "actions": ["right", "right", "right", "down", "down"], "actionTimes": [8501, 9043, 9983, 10936, 11563], "queries": {"click": {"state": {"target": ["32", "6", "21"], "time": [2050, 4125, 6102]}, "edge": {"target": [], "time": []}}, "mouseover": {"state": {"target": ["31", "32", "31", "24", "2", "4", "6", "18", "14", "19", "21"], "time": [1708, 1884, 2366, 2374, 2408, 2429, 2741, 5085, 5113, 5134, 5203]}, "edge": {"target": [], "time": []}}, "mouseout": {"state": {"target": ["0", "31", "32", "31", "24", "2", "4", "6", "18", "14", "19", "21"], "time": [1610, 1764, 2353, 2373, 2380, 2415, 2443, 5058, 5092, 5120, 5169, 6198]}, "edge": {"target": [], "time": []}}}, "displayed_time": "15.27", "trialTime": 15985, "trial_type": "mouselab-mdp", "trial_index": 27, "time_elapsed": 981043, "internal_node_id": "0.0-6.0-1.0-18.0"}}, {"uniqueid": "w88049898:a31185118", "current_trial": 28, "dateTime": 1693662971151, "trialdata": {"revealed_states": [], "clicked_states": ["5", "28", "33"], "num_clicks_accrued": [0, 0, 0, 0, 0, 0, 0, 0, 0, 0, 0, 0, 0], "stateRewards": ["", 1, 1, -6, -2, 7, 77, 3, 16, -16, 66, 31, -1, 3, -8, -6, 33, -50, -48, 7, -60, -66, 36, 2, -3, 3, -7, -12, -61, -79, -4, 8, 74, -70], "withholdReward": false, "trial_id": "mdp_trial_20", "block": "test", "trialIndex": 21, "score": -3.1999999999999993, "costs": -4.199999999999999, "simulationMode": [null, null, null, null, null], "rewards": [1, 1, -6, -2, 7], "path": ["0", "0", "1", "2", "3", "4", "5"], "rt": [7161, 23, 2, 28, 368], "actions": ["up", "up", "up", "right", "up"], "actionTimes": [8164, 8687, 9201, 9740, 10609], "queries": {"click": {"state": {"target": ["5", "28", "33"], "time": [1716, 3713, 5715]}, "edge": {"target": [], "time": []}}, "mouseover": {"state": {"target": ["1", "7", "4", "5", "3", "28", "28", "26", "25", "33", "30", "31"], "time": [1328, 1355, 1398, 1559, 1981, 2064, 2557, 4028, 4139, 4305, 6038, 6054]}, "edge": {"target": [], "time": []}}, "mouseout": {"state": {"target": ["0", "1", "7", "4", "5", "3", "28", "28", "26", "25", "33", "30", "31"], "time": [905, 1335, 1376, 1475, 1953, 1995, 2071, 3986, 4097, 4146, 5817, 6053, 6070]}, "edge": {"target": [], "time": []}}}, "displayed_time": "15.00", "trialTime": 15683, "trial_type": "mouselab-mdp", "trial_index": 28, "time_elapsed": 996835, "internal_node_id": "0.0-6.0-1.0-19.0"}}, {"uniqueid": "w88049898:a31185118", "current_trial": 29, "dateTime": 1693662987558, "trialdata": {"revealed_states": [], "clicked_states": ["21", "20", "17"], "num_clicks_accrued": [0, 0, 0, 0, 0, 0, 0, 0, 0, 0, 0, 0, 0], "stateRewards": ["", 1, 1, 7, -11, 80, -20, -53, -14, 3, 31, 27, 2, -1, -8, -10, 33, 41, 86, 9, 78, -37, -13, -1, -2, -6, -8, -80, 75, 4, -16, -49, -74, 24], "withholdReward": false, "trial_id": "mdp_trial_21", "block": "test", "trialIndex": 22, "score": 75.8, "costs": -4.199999999999999, "simulationMode": [null, null, null, null, null], "rewards": [2, -1, -8, 9, 78], "path": ["0", "0", "12", "13", "14", "19", "20"], "rt": [8044, 64, 44, 2, 54], "actions": ["right", "right", "right", "down", "right"], "actionTimes": [9232, 9797, 10339, 10846, 11411], "queries": {"click": {"state": {"target": ["21", "20", "17"], "time": [1803, 3704, 7113]}, "edge": {"target": [], "time": []}}, "mouseover": {"state": {"target": ["0", "12", "22", "21", "20", "19", "22", "14", "17"], "time": [1462, 1488, 1522, 1577, 2527, 4004, 4317, 6738, 6962]}, "edge": {"target": [], "time": []}}, "mouseout": {"state": {"target": ["0", "0", "0", "12", "22", "21", "20", "19", "22", "14", "17", "19"], "time": [831, 1055, 1473, 1494, 1543, 2187, 3977, 4109, 6724, 6752, 7342, 15777]}, "edge": {"target": [], "time": []}}}, "displayed_time": "15.19", "trialTime": 16300, "trial_type": "mouselab-mdp", "trial_index": 29, "time_elapsed": 1013242, "internal_node_id": "0.0-6.0-1.0-20.0"}}, {"uniqueid": "w88049898:a31185118", "current_trial": 30, "dateTime": 1693663004541, "trialdata": {"revealed_states": [], "clicked_states": ["9", "7", "10"], "num_clicks_accrued": [0, 0, 0, 0, 0, 0, 0, 0, 0, 0, 0, 0, 0], "stateRewards": ["", -2, 4, -7, -3, -76, 39, -28, 10, 14, 12, 60, 2, -3, 6, -10, 88, -34, -41, -3, 72, -13, -56, 1, 3, 2, 8, -51, 23, -57, 1, 14, -46, -16], "withholdReward": false, "trial_id": "mdp_trial_22", "block": "test", "trialIndex": 23, "score": 14.8, "costs": -4.199999999999999, "simulationMode": [null, null, null, null, null], "rewards": [-2, 4, -7, 10, 14], "path": ["0", "0", "1", "2", "3", "8", "9"], "rt": [6666, 24, 29, 331, 58], "actions": ["up", "up", "up", "left", "up"], "actionTimes": [7731, 8263, 8802, 9638, 10205], "queries": {"click": {"state": {"target": ["9", "7", "10"], "time": [1747, 3735, 5778]}, "edge": {"target": [], "time": []}}, "mouseover": {"state": {"target": ["1", "8", "9", "2", "7", "2", "10"], "time": [1443, 1492, 1555, 2061, 2110, 4182, 4362]}, "edge": {"target": [], "time": []}}, "mouseout": {"state": {"target": ["0", "1", "8", "9", "2", "7", "2"], "time": [1418, 1450, 1506, 1957, 2085, 4147, 4244]}, "edge": {"target": [], "time": []}}}, "displayed_time": "15.07", "trialTime": 16884, "trial_type": "mouselab-mdp", "trial_index": 30, "time_elapsed": 1030225, "internal_node_id": "0.0-6.0-1.0-21.0"}}, {"uniqueid": "w88049898:a31185118", "current_trial": 31, "dateTime": 1693663023275, "trialdata": {"revealed_states": [], "clicked_states": ["32", "31", "33"], "num_clicks_accrued": [0, 0, 0, 0, 0, 0, 0, 0, 0, 0, 0, 0, 0], "stateRewards": ["", -1, 4, -8, 12, 14, 69, -8, 5, -72, -14, 56, -1, -1, -1, 9, 67, 19, 11, -9, -88, -58, 3, 2, -4, -8, 4, 62, 77, -74, 5, -31, 65, 88], "withholdReward": false, "trial_id": "mdp_trial_23", "block": "test", "trialIndex": 24, "score": 78.8, "costs": -4.199999999999999, "simulationMode": [null, null, null, null, null], "rewards": [2, -4, -8, 5, 88], "path": ["0", "0", "23", "24", "25", "30", "33"], "rt": [8507, 107, 29, 367, 61], "actions": ["left", "left", "left", "down", "left"], "actionTimes": [10458, 11069, 11598, 12471, 13039], "queries": {"click": {"state": {"target": ["32", "31", "33"], "time": [2849, 5076, 7009]}, "edge": {"target": [], "time": []}}, "mouseover": {"state": {"target": ["0", "32", "31", "30", "33"], "time": [2524, 2632, 3331, 5474, 5835]}, "edge": {"target": [], "time": []}}, "mouseout": {"state": {"target": ["10", "0", "32", "31", "30", "33"], "time": [1115, 2535, 3275, 5456, 5523, 7455]}, "edge": {"target": [], "time": []}}}, "displayed_time": "15.95", "trialTime": 18628, "trial_type": "mouselab-mdp", "trial_index": 31, "time_elapsed": 1048959, "internal_node_id": "0.0-6.0-1.0-22.0"}}, {"uniqueid": "w88049898:a31185118", "current_trial": 32, "dateTime": 1693663040133, "trialdata": {"revealed_states": [], "clicked_states": ["5", "10", "7"], "num_clicks_accrued": [0, 0, 0, 0, 0, 0, 0, 0, 0, 0, 0, 0, 0], "stateRewards": ["", 1, -1, 4, -2, -75, -75, 84, -9, -60, -79, 59, 2, -4, 8, 9, -17, -82, 80, 14, -4, 49, 49, -1, 3, 6, -11, -33, 34, 55, 9, -57, 5, 59], "withholdReward": false, "trial_id": "mdp_trial_24", "block": "test", "trialIndex": 25, "score": 81.8, "costs": -4.199999999999999, "simulationMode": [null, null, null, null, null], "rewards": [1, -1, 4, -2, 84], "path": ["0", "0", "1", "2", "3", "4", "7"], "rt": [7408, 92, 14, 383, 66], "actions": ["up", "up", "up", "right", "down"], "actionTimes": [8583, 9176, 9691, 10581, 11148], "queries": {"click": {"state": {"target": ["5", "10", "7"], "time": [2063, 4098, 6262]}, "edge": {"target": [], "time": []}}, "mouseover": {"state": {"target": ["12", "7", "5", "4", "3", "10", "2", "7"], "time": [1436, 1659, 1972, 2354, 2409, 2604, 4462, 4524]}, "edge": {"target": [], "time": []}}, "mouseout": {"state": {"target": ["32", "0", "12", "7", "5", "4", "3", "10", "2", "7"], "time": [504, 1395, 1632, 1666, 2306, 2382, 2451, 4434, 4497, 7264]}, "edge": {"target": [], "time": []}}}, "displayed_time": "15.18", "trialTime": 16747, "trial_type": "mouselab-mdp", "trial_index": 32, "time_elapsed": 1065817, "internal_node_id": "0.0-6.0-1.0-23.0"}}, {"uniqueid": "w88049898:a31185118", "current_trial": 33, "dateTime": 1693663057243, "trialdata": {"revealed_states": [], "clicked_states": ["22", "21"], "num_clicks_accrued": [0, 0, 0, 0, 0, 0, 0, 0, 0, 0, 0, 0, 0], "stateRewards": ["", -1, -3, 1, -4, -48, -63, -49, -2, -84, -19, 65, 2, -2, -2, -12, -4, 59, 9, 6, 75, 69, -13, -1, -3, -3, -2, -37, -68, -36, 13, 32, 18, -14], "withholdReward": false, "trial_id": "mdp_trial_25", "block": "test", "trialIndex": 26, "score": 70.2, "costs": -2.8, "simulationMode": [null, null, null, null, null], "rewards": [2, -2, -2, 6, 69], "path": ["0", "0", "12", "13", "14", "19", "21"], "rt": [5733, 92, 82, 419, 144], "actions": ["right", "right", "right", "down", "down"], "actionTimes": [7050, 7642, 8226, 9152, 9797], "queries": {"click": {"state": {"target": ["22", "21"], "time": [2081, 4055]}, "edge": {"target": [], "time": []}}, "mouseover": {"state": {"target": ["12", "13", "22", "21", "20"], "time": [1690, 1753, 1920, 2593, 4482]}, "edge": {"target": [], "time": []}}, "mouseout": {"state": {"target": ["12", "13", "22", "21", "20"], "time": [1725, 1864, 2413, 4384, 11214]}, "edge": {"target": [], "time": []}}}, "displayed_time": "15.32", "trialTime": 16988, "trial_type": "mouselab-mdp", "trial_index": 33, "time_elapsed": 1082927, "internal_node_id": "0.0-6.0-1.0-24.0"}}, {"uniqueid": "w88049898:a31185118", "current_trial": 34, "dateTime": 1693663073473, "trialdata": {"revealed_states": [], "clicked_states": ["10", "7", "11"], "num_clicks_accrued": [0, 0, 0, 0, 0, 0, 0, 0, 0, 0, 0, 0, 0], "stateRewards": ["", 1, 2, -3, -5, 66, -50, -47, -5, 1, 28, -27, 1, 1, -1, -6, 37, -25, 56, 1, -82, -66, -40, -1, -4, -7, 15, -61, -23, 26, 10, 14, -56, 29], "withholdReward": false, "trial_id": "mdp_trial_26", "block": "test", "trialIndex": 27, "score": 18.8, "costs": -4.199999999999999, "simulationMode": [null, null, null, null, null], "rewards": [1, 2, -3, -5, 28], "path": ["0", "0", "1", "2", "3", "8", "10"], "rt": [7056, 60, 2, 461, 98], "actions": ["up", "up", "up", "left", "down"], "actionTimes": [8249, 8809, 9321, 10293, 10892], "queries": {"click": {"state": {"target": ["10", "7", "11"], "time": [2366, 4471, 6405]}, "edge": {"target": [], "time": []}}, "mouseover": {"state": {"target": ["1", "2", "3", "10", "2", "7", "2", "8", "11"], "time": [1745, 1772, 1842, 2186, 2876, 3217, 4910, 4993, 5320]}, "edge": {"target": [], "time": []}}, "mouseout": {"state": {"target": ["0", "1", "2", "3", "10", "2", "7", "2", "8", "11", "10"], "time": [1730, 1758, 1793, 1996, 2856, 2918, 4889, 4917, 5202, 6816, 6880]}, "edge": {"target": [], "time": []}}}, "displayed_time": "15.19", "trialTime": 16101, "trial_type": "mouselab-mdp", "trial_index": 34, "time_elapsed": 1099156, "internal_node_id": "0.0-6.0-1.0-25.0"}}, {"uniqueid": "w88049898:a31185118", "current_trial": 35, "dateTime": 1693663090447, "trialdata": {"revealed_states": [], "clicked_states": ["22", "20", "21"], "num_clicks_accrued": [0, 0, 0, 0, 0, 0, 0, 0, 0, 0, 0, 0, 0], "stateRewards": ["", 1, 1, 1, 15, -76, 52, -32, 14, -57, 37, 49, 1, -4, -3, 6, 83, -76, 25, 9, 36, -1, -17, -1, 4, 4, -2, -22, -21, 58, -15, -57, 49, -24], "withholdReward": false, "trial_id": "mdp_trial_27", "block": "test", "trialIndex": 28, "score": 34.8, "costs": -4.199999999999999, "simulationMode": [null, null, null, null, null], "rewards": [1, -4, -3, 9, 36], "path": ["0", "0", "12", "13", "14", "19", "20"], "rt": [6918, 56, 38, 54, 19], "actions": ["right", "right", "right", "down", "right"], "actionTimes": [8946, 9509, 10053, 10612, 11139], "queries": {"click": {"state": {"target": ["22", "20", "21"], "time": [2697, 4820, 6859]}, "edge": {"target": [], "time": []}}, "mouseover": {"state": {"target": ["0", "12", "22", "22", "21", "19", "21", "20", "21"], "time": [2210, 2252, 2336, 2613, 3106, 4238, 4481, 4662, 6141]}, "edge": {"target": [], "time": []}}, "mouseout": {"state": {"target": ["0", "0", "12", "22", "22", "21", "19", "21", "20", "21", "21"], "time": [1877, 2224, 2259, 2434, 3037, 3217, 4335, 4620, 5099, 7197, 14718]}, "edge": {"target": [], "time": []}}}, "displayed_time": "16.04", "trialTime": 16858, "trial_type": "mouselab-mdp", "trial_index": 35, "time_elapsed": 1116131, "internal_node_id": "0.0-6.0-1.0-26.0"}}, {"uniqueid": "w88049898:a31185118", "current_trial": 36, "dateTime": 1693663109552, "trialdata": {"revealed_states": [], "clicked_states": ["31", "33"], "num_clicks_accrued": [0, 0, 0, 0, 0, 0, 0, 0, 0, 0, 0, 0, 0], "stateRewards": ["", 1, 1, -3, 7, 49, 78, 26, -5, 26, 48, -43, -1, -3, 2, -5, 4, -1, -60, 10, -35, 51, 81, -2, 1, -7, -5, -39, -86, -54, 4, -3, 74, 77], "withholdReward": false, "trial_id": "mdp_trial_28", "block": "test", "trialIndex": 29, "score": 70.2, "costs": -2.8, "simulationMode": [null, null, null, null, null], "rewards": [-2, 1, -7, 4, 77], "path": ["0", "0", "23", "24", "25", "30", "33"], "rt": [5762, 12, 46, 348, 93], "actions": ["left", "left", "left", "down", "left"], "actionTimes": [9125, 9639, 10193, 11051, 11648], "queries": {"click": {"state": {"target": ["31", "33"], "time": [3994, 6530]}, "edge": {"target": [], "time": []}}, "mouseover": {"state": {"target": ["23", "31", "30", "33", "32"], "time": [3735, 3825, 6208, 6361, 6833]}, "edge": {"target": [], "time": []}}, "mouseout": {"state": {"target": ["2", "1", "23", "31", "31", "30", "33", "33", "32"], "time": [1535, 3179, 3742, 4437, 6056, 6236, 6611, 6764, 13240]}, "edge": {"target": [], "time": []}}}, "displayed_time": "17.36", "trialTime": 18978, "trial_type": "mouselab-mdp", "trial_index": 36, "time_elapsed": 1135236, "internal_node_id": "0.0-6.0-1.0-27.0"}}, {"uniqueid": "w88049898:a31185118", "current_trial": 37, "dateTime": 1693663133876, "trialdata": {"revealed_states": [], "clicked_states": ["5", "6"], "num_clicks_accrued": [0, 0, 0, 0, 0, 0, 0, 0, 0, 0, 0, 0, 0], "stateRewards": ["", 2, -1, 8, -2, -16, 69, -39, -7, -13, -27, -86, 2, -2, 2, 13, -34, -16, -20, -5, 19, 81, 32, -2, -1, 2, -14, 20, 80, 58, 4, 70, 12, 73], "withholdReward": false, "trial_id": "mdp_trial_29", "block": "test", "trialIndex": 30, "score": 73.2, "costs": -2.8, "simulationMode": [null, null, null, null, null], "rewards": [2, -1, 8, -2, 69], "path": ["0", "0", "1", "2", "3", "4", "6"], "rt": [7512, 53, 3, 450, 122], "actions": ["up", "up", "up", "right", "right"], "actionTimes": [9155, 9716, 10228, 11189, 11820], "queries": {"click": {"state": {"target": ["5", "6"], "time": [2797, 5673]}, "edge": {"target": [], "time": []}}, "mouseover": {"state": {"target": ["7", "4", "5", "6", "4", "9", "6", "7"], "time": [2087, 2204, 2686, 3326, 4952, 5186, 5498, 6196]}, "edge": {"target": [], "time": []}}, "mouseout": {"state": {"target": ["0", "7", "4", "5", "6", "4", "9", "6"], "time": [1979, 2156, 2288, 3079, 4937, 4972, 5407, 5898]}, "edge": {"target": [], "time": []}}}, "displayed_time": "15.64", "trialTime": 24169, "trial_type": "mouselab-mdp", "trial_index": 37, "time_elapsed": 1159559, "internal_node_id": "0.0-6.0-1.0-28.0"}}, {"uniqueid": "w88049898:a31185118", "current_trial": 38, "dateTime": 1693663151846, "trialdata": {"revealed_states": [], "clicked_states": ["32", "31", "9"], "num_clicks_accrued": [0, 0, 0, 0, 0, 0, 0, 0, 0, 0, 0, 0, 0], "stateRewards": ["", -2, 1, -8, 12, -65, -79, 16, 7, -80, -17, -45, -2, 2, -5, -2, -85, 23, -4, -7, 48, 27, -76, 2, 3, 5, 2, 43, 71, -13, 7, -49, 59, -31], "withholdReward": false, "trial_id": "mdp_trial_30", "block": "test", "trialIndex": 31, "score": 71.8, "costs": -4.199999999999999, "simulationMode": [null, null, null, null, null], "rewards": [2, 3, 5, 7, 59], "path": ["0", "0", "23", "24", "25", "30", "32"], "rt": [8369, 73, 35, 447, 167], "actions": ["left", "left", "left", "down", "down"], "actionTimes": [10990, 11570, 12127, 13081, 13748], "queries": {"click": {"state": {"target": ["32", "31", "9"], "time": [3393, 6076, 8645]}, "edge": {"target": [], "time": []}}, "mouseover": {"state": {"target": ["0", "32", "31", "30", "33", "25", "28", "10", "3", "9", "8", "10", "23"], "time": [2982, 3301, 3774, 6440, 6620, 7986, 8007, 8021, 8049, 8479, 9033, 9068, 9138]}, "edge": {"target": [], "time": []}}, "mouseout": {"state": {"target": ["7", "1", "0", "32", "31", "30", "33", "25", "28", "10", "3", "9", "8", "10", "23"], "time": [2192, 2367, 2996, 3649, 6419, 6474, 7979, 8000, 8014, 8035, 8055, 9006, 9061, 9089, 9165]}, "edge": {"target": [], "time": []}}}, "displayed_time": "16.62", "trialTime": 17836, "trial_type": "mouselab-mdp", "trial_index": 38, "time_elapsed": 1177530, "internal_node_id": "0.0-6.0-1.0-29.0"}}, {"uniqueid": "w88049898:a31185118", "current_trial": 39, "dateTime": 1693663167740, "trialdata": {"revealed_states": [], "clicked_states": ["16", "9"], "num_clicks_accrued": [0, 0, 0, 0, 0, 0, 0, 0, 0, 0, 0, 0, 0], "stateRewards": ["", -2, 3, -1, 2, -72, 63, 20, -1, 62, -66, 39, -2, 3, -6, 14, 22, 47, 1, 8, -49, -1, -41, 2, 2, -6, -16, -64, -60, -34, 16, 54, 22, -7], "withholdReward": false, "trial_id": "mdp_trial_31", "block": "test", "trialIndex": 32, "score": 58.2, "costs": -2.8, "simulationMode": [null, null, null, null, null], "rewards": [-2, 3, -1, -1, 62], "path": ["0", "0", "1", "2", "3", "8", "9"], "rt": [6314, 56, 45, 32, 67], "actions": ["up", "up", "up", "left", "up"], "actionTimes": [7200, 7764, 8315, 8845, 9421], "queries": {"click": {"state": {"target": ["16", "9"], "time": [1614, 4250]}, "edge": {"target": [], "time": []}}, "mouseover": {"state": {"target": ["12", "15", "16", "15", "18", "7", "3", "9", "2", "1", "0", "31", "31", "23"], "time": [1126, 1223, 1424, 2091, 3718, 3778, 3932, 4187, 4736, 4764, 4833, 5258, 6743, 6778]}, "edge": {"target": [], "time": []}}, "mouseout": {"state": {"target": ["0", "12", "15", "16", "15", "18", "7", "3", "9", "2", "1", "0", "31", "31", "23", "0"], "time": [1105, 1146, 1306, 2049, 2119, 3750, 3805, 4030, 4618, 4750, 4792, 4875, 5264, 6764, 6799, 10826]}, "edge": {"target": [], "time": []}}}, "displayed_time": "14.89", "trialTime": 15737, "trial_type": "mouselab-mdp", "trial_index": 39, "time_elapsed": 1193424, "internal_node_id": "0.0-6.0-1.0-30.0"}}, {"uniqueid": "w88049898:a31185118", "current_trial": 40, "dateTime": 1693663183712, "trialdata": {"revealed_states": [], "clicked_states": ["27", "11", "17"], "num_clicks_accrued": [0, 0, 0, 0, 0, 0, 0, 0, 0, 0, 0, 0, 0], "stateRewards": ["", 1, -1, 8, 4, 76, -33, -17, -3, -1, -54, -74, -2, 2, -5, 13, -51, 63, 83, 1, 84, 29, -36, 2, -1, 7, -12, -10, -44, -43, -14, 8, -69, 19], "withholdReward": false, "trial_id": "mdp_trial_32", "block": "test", "trialIndex": 33, "score": 66.8, "costs": -4.199999999999999, "simulationMode": [null, null, null, null, null], "rewards": [-2, 2, -5, 13, 63], "path": ["0", "0", "12", "13", "14", "15", "17"], "rt": [7507, 7, 373, 383, 93], "actions": ["right", "right", "right", "up", "right"], "actionTimes": [8451, 8980, 9860, 10750, 11347], "queries": {"click": {"state": {"target": ["27", "11", "17"], "time": [2147, 4228, 6208]}, "edge": {"target": [], "time": []}}, "mouseover": {"state": {"target": ["0", "0", "23", "24", "26", "27", "10", "3", "8", "11", "8", "3", "4", "16", "17"], "time": [1295, 1345, 1416, 1483, 1794, 2030, 2517, 2593, 2891, 3183, 4598, 4619, 4627, 4667, 5008]}, "edge": {"target": [], "time": []}}, "mouseout": {"state": {"target": ["0", "0", "0", "23", "24", "26", "27", "10", "3", "8", "11", "8", "3", "4", "16", "17", "19"], "time": [806, 1316, 1401, 1455, 1766, 1808, 2475, 2558, 2850, 2976, 4591, 4612, 4626, 4640, 4688, 14523, 14677]}, "edge": {"target": [], "time": []}}}, "displayed_time": "14.95", "trialTime": 15853, "trial_type": "mouselab-mdp", "trial_index": 40, "time_elapsed": 1209396, "internal_node_id": "0.0-6.0-1.0-31.0"}}, {"uniqueid": "w88049898:a31185118", "current_trial": 41, "dateTime": 1693663205444, "trialdata": {"revealed_states": [], "clicked_states": ["11", "10", "7"], "num_clicks_accrued": [0, 0, 0, 0, 0, 0, 0, 0, 0, 0, 0, 0, 0], "stateRewards": ["", -2, -2, -3, -6, -15, -11, 41, -12, -63, -76, 2, -2, -3, 8, 9, -36, -2, -18, -16, -32, -85, -17, -2, 1, 5, -16, 82, 35, -88, -1, 80, -82, -20], "withholdReward": false, "trial_id": "mdp_trial_33", "block": "test", "trialIndex": 34, "score": 23.8, "costs": -4.199999999999999, "simulationMode": [null, null, null, null, null], "rewards": [-2, -2, -3, -6, 41], "path": ["0", "0", "1", "2", "3", "4", "7"], "rt": [7387, 38, 328, 47, 115], "actions": ["up", "up", "up", "right", "down"], "actionTimes": [8225, 8767, 9599, 10147, 10770], "queries": {"click": {"state": {"target": ["11", "10", "7"], "time": [1617, 3690, 5874]}, "edge": {"target": [], "time": []}}, "mouseover": {"state": {"target": ["1", "11", "10", "8", "3", "7"], "time": [1171, 1519, 1977, 4109, 4810, 5758]}, "edge": {"target": [], "time": []}}, "mouseout": {"state": {"target": ["0", "1", "11", "10", "8", "3", "7", "12"], "time": [737, 1199, 1880, 4075, 4158, 4873, 6342, 21039]}, "edge": {"target": [], "time": []}}}, "displayed_time": "14.84", "trialTime": 21598, "trial_type": "mouselab-mdp", "trial_index": 41, "time_elapsed": 1231128, "internal_node_id": "0.0-6.0-1.0-32.0"}}, {"uniqueid": "w88049898:a31185118", "current_trial": 42, "dateTime": 1693663221473, "trialdata": {"revealed_states": [], "clicked_states": ["5", "6", "7"], "num_clicks_accrued": [0, 0, 0, 0, 0, 0, 0, 0, 0, 0, 0, 0, 0], "stateRewards": ["", 2, -1, -3, 16, -3, -16, -62, -1, 13, -26, 43, -1, 4, 3, -9, -54, -37, -3, -12, -71, -68, -57, 1, -3, 2, -9, 2, -2, -9, -11, 84, -52, 55], "withholdReward": false, "trial_id": "mdp_trial_34", "block": "test", "trialIndex": 35, "score": -11.2, "costs": -4.199999999999999, "simulationMode": [null, null, null, null, null], "rewards": [1, -3, 2, -9, 2], "path": ["0", "0", "23", "24", "25", "26", "27"], "rt": [8944, 408, 136, 77, 70], "actions": ["left", "left", "left", "up", "up"], "actionTimes": [9924, 10840, 11484, 12069, 12652], "queries": {"click": {"state": {"target": ["5", "6", "7"], "time": [1845, 5554, 7548]}, "edge": {"target": [], "time": []}}, "mouseover": {"state": {"target": ["6", "5", "6", "15", "15", "6", "7"], "time": [1470, 1647, 2231, 4685, 4972, 5267, 6038]}, "edge": {"target": [], "time": []}}, "mouseout": {"state": {"target": ["12", "6", "5", "6", "15", "15", "6", "7"], "time": [682, 1508, 2196, 4628, 4727, 4996, 5844, 7926]}, "edge": {"target": [], "time": []}}}, "displayed_time": "14.98", "trialTime": 15874, "trial_type": "mouselab-mdp", "trial_index": 42, "time_elapsed": 1247157, "internal_node_id": "0.0-6.0-1.0-33.0"}}, {"uniqueid": "w88049898:a31185118", "current_trial": 43, "dateTime": 1693663239043, "trialdata": {"revealed_states": [], "clicked_states": ["9", "10", "11"], "num_clicks_accrued": [0, 0, 0, 0, 0, 0, 0, 0, 0, 0, 0, 0, 0], "stateRewards": ["", 1, -3, -6, -5, 47, 80, -29, 11, -71, 10, -29, -2, 3, -6, 12, 2, -78, -6, 8, 34, -16, -5, -1, 3, 3, -13, 84, -36, -62, -3, -27, 66, 15], "withholdReward": false, "trial_id": "mdp_trial_35", "block": "test", "trialIndex": 36, "score": 8.8, "costs": -4.199999999999999, "simulationMode": [null, null, null, null, null], "rewards": [1, -3, -6, 11, 10], "path": ["0", "0", "1", "2", "3", "8", "10"], "rt": [7776, 59, 32, 17, 51], "actions": ["up", "up", "up", "left", "down"], "actionTimes": [9955, 10514, 11050, 11577, 12132], "queries": {"click": {"state": {"target": ["9", "10", "11"], "time": [2871, 4930, 7240]}, "edge": {"target": [], "time": []}}, "mouseover": {"state": {"target": ["1", "10", "8", "9", "8", "10", "11"], "time": [2483, 2531, 2560, 2686, 3122, 3219, 5766]}, "edge": {"target": [], "time": []}}, "mouseout": {"state": {"target": ["1", "0", "1", "10", "8", "9", "8", "10", "11", "10", "23"], "time": [1992, 2465, 2490, 2538, 2601, 3094, 3178, 5467, 8388, 17088, 17122]}, "edge": {"target": [], "time": []}}}, "displayed_time": "16.18", "trialTime": 17406, "trial_type": "mouselab-mdp", "trial_index": 43, "time_elapsed": 1264726, "internal_node_id": "0.0-6.0-1.0-34.0"}}, {"uniqueid": "w88049898:a31185118", "current_trial": 44, "dateTime": 1693663256857, "trialdata": {"revealed_states": [], "clicked_states": ["16"], "num_clicks_accrued": [0, 0, 0, 0, 0, 0, 0, 0, 0, 0, 0, 0, 0], "stateRewards": ["", -1, 2, 5, -6, 13, -64, -47, 8, -79, -80, -33, 1, 2, -2, -16, 56, -71, -10, 3, 29, 44, 85, -1, 4, 5, 4, -36, -56, 19, 8, 52, -13, -2], "withholdReward": false, "trial_id": "mdp_trial_36", "block": "test", "trialIndex": 37, "score": 39.6, "costs": -1.4, "simulationMode": [null, null, null, null, null], "rewards": [1, 2, -2, -16, 56], "path": ["0", "0", "12", "13", "14", "15", "16"], "rt": [4442, 161, 61, 11, 259], "actions": ["right", "right", "right", "up", "up"], "actionTimes": [6085, 6761, 7323, 7842, 8604], "queries": {"click": {"state": {"target": ["16"], "time": [2507]}, "edge": {"target": [], "time": []}}, "mouseover": {"state": {"target": ["12", "13", "15", "16", "15", "17", "19", "14", "15"], "time": [1892, 1949, 2025, 2427, 2808, 3072, 5376, 5411, 5453]}, "edge": {"target": [], "time": []}}, "mouseout": {"state": {"target": ["0", "12", "13", "15", "16", "15", "17", "19", "14", "15", "13"], "time": [1499, 1927, 1955, 2152, 2781, 2856, 4963, 5404, 5432, 17509, 17553]}, "edge": {"target": [], "time": []}}}, "displayed_time": "15.64", "trialTime": 17688, "trial_type": "mouselab-mdp", "trial_index": 44, "time_elapsed": 1282540, "internal_node_id": "0.0-6.0-1.0-35.0"}}, {"uniqueid": "w88049898:a31185118", "current_trial": 45, "dateTime": 1693663272839, "trialdata": {"revealed_states": [], "clicked_states": ["9", "7", "27"], "num_clicks_accrued": [0, 0, 0, 0, 0, 0, 0, 0, 0, 0, 0, 0, 0], "stateRewards": ["", -2, 3, 3, -14, 62, 36, 49, 16, 11, 17, -84, 2, -1, 6, 2, -82, -73, 49, -6, -87, 48, 50, -1, -2, -1, -16, -11, 37, -44, 4, 55, 73, -10], "withholdReward": false, "trial_id": "mdp_trial_37", "block": "test", "trialIndex": 38, "score": 34.8, "costs": -4.199999999999999, "simulationMode": [null, null, null, null, null], "rewards": [-2, 3, 3, -14, 49], "path": ["0", "0", "1", "2", "3", "4", "7"], "rt": [7863, 113, 49, 3, 119], "actions": ["up", "up", "up", "right", "down"], "actionTimes": [8609, 9223, 9773, 10283, 10905], "queries": {"click": {"state": {"target": ["9", "7", "27"], "time": [1741, 3716, 5985]}, "edge": {"target": [], "time": []}}, "mouseover": {"state": {"target": ["8", "9", "8", "2", "7", "2", "10", "26", "27"], "time": [1205, 1472, 2055, 2236, 2569, 4135, 4254, 4767, 4886]}, "edge": {"target": [], "time": []}}, "mouseout": {"state": {"target": ["0", "8", "9", "8", "2", "7", "2", "10", "26", "27", "28", "24"], "time": [614, 1303, 2000, 2111, 2284, 4115, 4163, 4330, 4795, 12632, 12673, 12701]}, "edge": {"target": [], "time": []}}}, "displayed_time": "14.75", "trialTime": 15821, "trial_type": "mouselab-mdp", "trial_index": 45, "time_elapsed": 1298522, "internal_node_id": "0.0-6.0-1.0-36.0"}}, {"uniqueid": "w88049898:a31185118", "current_trial": 46, "dateTime": 1693663290022, "trialdata": {"revealed_states": [], "clicked_states": ["33", "17", "21"], "num_clicks_accrued": [0, 0, 0, 0, 0, 0, 0, 0, 0, 0, 0, 0, 0], "stateRewards": ["", -2, 1, -7, -8, -37, -76, -87, 11, 30, -63, 80, -1, 4, 2, -1, 42, 17, 52, -3, -75, -80, -68, 2, -3, -5, -15, -48, 82, 24, -7, 5, -22, -71], "withholdReward": false, "trial_id": "mdp_trial_38", "block": "test", "trialIndex": 39, "score": 16.8, "costs": -4.199999999999999, "simulationMode": [null, null, null, null, null], "rewards": [-1, 4, 2, -1, 17], "path": ["0", "0", "12", "13", "14", "15", "17"], "rt": [6575, 23, 441, 134, 59], "actions": ["right", "right", "right", "up", "right"], "actionTimes": [8933, 9456, 10409, 11044, 11603], "queries": {"click": {"state": {"target": ["33", "17", "21"], "time": [3052, 4984, 6992]}, "edge": {"target": [], "time": []}}, "mouseover": {"state": {"target": ["23", "24", "25", "33", "30", "19", "20", "17", "21"], "time": [2550, 2600, 2677, 2980, 3320, 3702, 3890, 4313, 5451]}, "edge": {"target": [], "time": []}}, "mouseout": {"state": {"target": ["23", "24", "25", "33", "30", "19", "20", "17", "21"], "time": [2578, 2642, 2792, 3099, 3334, 3817, 3918, 5327, 16860]}, "edge": {"target": [], "time": []}}}, "displayed_time": "16.36", "trialTime": 17049, "trial_type": "mouselab-mdp", "trial_index": 46, "time_elapsed": 1315706, "internal_node_id": "0.0-6.0-1.0-37.0"}}, {"uniqueid": "w88049898:a31185118", "current_trial": 47, "dateTime": 1693663306469, "trialdata": {"revealed_states": [], "clicked_states": ["9", "10", "11"], "num_clicks_accrued": [0, 0, 0, 0, 0, 0, 0, 0, 0, 0, 0, 0, 0], "stateRewards": ["", 2, 3, 3, 10, 19, -21, 6, 9, 54, 68, 16, 2, 2, -6, -8, 40, -2, -75, -2, -42, 55, 59, -1, 2, 4, -14, 11, -34, -30, -6, 61, -53, 13], "withholdReward": false, "trial_id": "mdp_trial_39", "block": "test", "trialIndex": 40, "score": 80.8, "costs": -4.199999999999999, "simulationMode": [null, null, null, null, null], "rewards": [2, 3, 3, 9, 68], "path": ["0", "0", "1", "2", "3", "8", "10"], "rt": [7652, 65, 42, 140, 40], "actions": ["up", "up", "up", "left", "down"], "actionTimes": [8467, 9033, 9579, 10226, 10767], "queries": {"click": {"state": {"target": ["9", "10", "11"], "time": [1575, 3555, 6268]}, "edge": {"target": [], "time": []}}, "mouseover": {"state": {"target": ["1", "2", "3", "9", "8", "10", "7", "18", "19", "21", "22", "12", "1", "11", "11"], "time": [1113, 1148, 1189, 1411, 1862, 1938, 4265, 4640, 5050, 5276, 5825, 5839, 5853, 5901, 6126]}, "edge": {"target": [], "time": []}}, "mouseout": {"state": {"target": ["0", "1", "2", "3", "9", "8", "10", "7", "18", "19", "21", "22", "12", "1", "10", "11", "11", "11"], "time": [821, 1141, 1175, 1224, 1834, 1904, 4140, 4613, 4682, 5105, 5814, 5832, 5846, 5867, 5880, 5915, 6386, 7596]}, "edge": {"target": [], "time": []}}}, "displayed_time": "14.82", "trialTime": 16288, "trial_type": "mouselab-mdp", "trial_index": 47, "time_elapsed": 1332153, "internal_node_id": "0.0-6.0-1.0-38.0"}}, {"uniqueid": "w88049898:a31185118", "current_trial": 48, "dateTime": 1693663325530, "trialdata": {"revealed_states": [], "clicked_states": ["32", "17", "5"], "num_clicks_accrued": [0, 0, 0, 0, 0, 0, 0, 0, 0, 0, 0, 0, 0], "stateRewards": ["", 2, -3, 5, 11, -79, 54, 11, -9, -78, 33, 22, -2, -1, 2, 14, 43, 34, 1, 10, 49, -65, 39, -1, 1, -1, 3, -16, -2, 11, 2, 12, 48, -65], "withholdReward": false, "trial_id": "mdp_trial_40", "block": "test", "trialIndex": 41, "score": 44.8, "costs": -4.199999999999999, "simulationMode": [null, null, null, null, null], "rewards": [-1, 1, -1, 2, 48], "path": ["0", "0", "23", "24", "25", "30", "32"], "rt": [7235, 67, 54, 12, 119], "actions": ["left", "left", "left", "down", "down"], "actionTimes": [8538, 9106, 9667, 10180, 10815], "queries": {"click": {"state": {"target": ["32", "17", "5"], "time": [2133, 4170, 6060]}, "edge": {"target": [], "time": []}}, "mouseover": {"state": {"target": ["0", "31", "32", "31", "21", "20", "17", "15", "4", "5", "4", "7", "1", "23", "31", "32"], "time": [1611, 1772, 2067, 2740, 3192, 3275, 3351, 4520, 4880, 5047, 6437, 6486, 6507, 6534, 6569, 6902]}, "edge": {"target": [], "time": []}}, "mouseout": {"state": {"target": ["10", "1", "12", "12", "0", "0", "31", "32", "31", "21", "20", "17", "15", "4", "5", "4", "7", "1", "23", "31"], "time": [594, 636, 678, 1014, 1077, 1639, 1797, 2632, 2747, 3199, 3282, 4498, 4534, 4936, 6389, 6472, 6493, 6520, 6541, 6576]}, "edge": {"target": [], "time": []}}}, "displayed_time": "15.30", "trialTime": 18914, "trial_type": "mouselab-mdp", "trial_index": 48, "time_elapsed": 1351214, "internal_node_id": "0.0-6.0-1.0-39.0"}}, {"uniqueid": "w88049898:a31185118", "current_trial": 49, "dateTime": 1693663377824, "trialdata": {"rt": 52291, "response": {"Q0": "$-2 to $2", "Q1": "$-32 to $32", "Q2": "$-88 to $88", "Q3": "The cost was always $1.4.", "Q4": "Very motivated"}, "question_order": [0, 1, 2, 3, 4], "trial_id": "final_quiz_control", "trial_type": "survey-multi-choice", "trial_index": 49, "time_elapsed": 1403508, "internal_node_id": "0.0-6.0-2.0"}}, {"uniqueid": "w88049898:a31185118", "current_trial": 50, "dateTime": 1693663511245, "trialdata": {"rt": 133417, "response": {"Q0": "At first, i chose a direction i wanted to go, so inspected the nodes on which way was best to go. ", "Q1": "By around round 8, i realised that the last step at the edge of the web had the biggest variant that effected the pay out the most, i inspected the last steps after this to see if i could find a high green number", "Q2": "It was difficult if i only found 3 red numbers, but finding a green also didnt show all the negative numbers approaching it."}, "trial_id": "self_report_control", "trial_type": "survey-text", "trial_index": 50, "time_elapsed": 1536929, "internal_node_id": "0.0-6.0-3.0"}}, {"uniqueid": "w88049898:a31185118", "current_trial": 51, "dateTime": 1693663525844, "trialdata": {"rt": 14597, "response": {"gender": "male", "age": "37", "colorblind": "0", "effort": "0"}, "trial_type": "survey-html-form", "trial_index": 51, "time_elapsed": 1551528, "internal_node_id": "0.0-6.0-4.0"}}, {"uniqueid": "w88049898:a31185118", "current_trial": 52, "dateTime": 1693663577864, "trialdata": {"rt": 52018, "response": {"Q0": "No -  everything made sense once i started playing.", "Q1": "no - i have never played web of cash before.", "Q2": "This was very fun. i enjoyed it once i got a good tactic going."}, "trial_type": "survey-text", "trial_index": 52, "time_elapsed": 1603548, "internal_node_id": "0.0-6.0-5.0"}}, {"uniqueid": "w88049898:a31185118", "current_trial": 53, "dateTime": 1693663615640, "trialdata": {"rt": 37773, "stimulus": "<h1>Completion Code Instructions (1/2)</h1>\n<br><br><br><br>\nYou have reached the end of the experiment! The completion code consists of two parts: (1) a code with 2 characters (2) a code with 6 characters. On this page, you will receive the second part of the code. The first part of the completion code will be on the next page.\n<br><br>\nThe second part of your completion code is: <b>EWEK22</b>\n<br><br>\nPlease note this down. Then, press 'Next' in order to find the first part of your completion code. Once the data has been saved, you will receive this code either in this window or in the original browser window where you started the experiment.\n <br><br>\n<h2 style='color: red;'>Note: this is <strong>NOT</strong> the full completion code. Copy this down and click 'Next' to get the full completion code on the next page.</h2>", "response": 0, "trial_type": "html-button-response", "trial_index": 53, "time_elapsed": 1641324, "internal_node_id": "0.0-6.0-6.0"}}, {"uniqueid": "w88049898:a31185118", "current_trial": 54, "dateTime": 1693663616642, "trialdata": {"success": true, "trial_type": "fullscreen", "trial_index": 54, "time_elapsed": 1642326, "internal_node_id": "0.0-7.0"}}], "questiondata": {"params": {"CODE": "C6DMOQA6", "MIN_TIME": 14, "inspectCost": 1, "startTime": "Sat Sep 02 2023 14:39:33 GMT+0100 (British Summer Time)", "bonusRate": 0.002, "variance": "1_2_4_8_44", "branching": "31123"}, "final_score": 1393}, "eventdata": [{"eventtype": "initialized", "value": null, "timestamp": 1693661973421, "interval": 0}, {"eventtype": "window_resize", "value": [1024, 767], "timestamp": 1693661973421, "interval": 0}, {"eventtype": "window_resize", "value": [1024, 767], "timestamp": 1693661973723, "interval": 302}, {"eventtype": "window_resize", "value": [1920, 1080], "timestamp": 1693661991403, "interval": 17680}, {"eventtype": "window_resize", "value": [1024, 767], "timestamp": 1693663615854, "interval": 1624451}], "useragent": "Mozilla/5.0 (Windows NT 10.0; Win64; x64) AppleWebKit/537.36 (KHTML, like Gecko) Chrome/116.0.0.0 Safari/537.36", "mode": "live", "id": "w88049898:a31185118", "status": "user data saved", "Beginhit": "2023-09-02 13:39:32.716377", "Beginexp": "2023-09-02 13:39:52.624469", "Endhit": "2023-09-02 14:06:57.548619", "psiturkStatus": 3, "browser": "<redacted>", "platform": "windows", "language": "en-GB"}