{"condition": 1, "counterbalance": 0, "assignmentId": "a80714189", "workerId": "w12481300", "hitId": "h86132853", "currenttrial": 28, "bonus": 0, "data": [{"uniqueid": "w12481300:a80714189", "current_trial": 0, "dateTime": 1693564835643, "trialdata": {"success": true, "trial_type": "fullscreen", "trial_index": 0, "time_elapsed": 7321, "internal_node_id": "0.0-0.0"}}, {"uniqueid": "w12481300:a80714189", "current_trial": 1, "dateTime": 1693564863697, "trialdata": {"view_history": [{"page_index": 0, "viewing_time": 28024}], "rt": 28027, "trial_id": "exp_instructions_misaligned", "trial_type": "instructions", "trial_index": 1, "time_elapsed": 35376, "internal_node_id": "0.0-1.0"}}, {"uniqueid": "w12481300:a80714189", "current_trial": 2, "dateTime": 1693565179927, "trialdata": {"view_history": [{"page_index": 0, "viewing_time": 148793}, {"page_index": 1, "viewing_time": 126343}, {"page_index": 2, "viewing_time": 10668}, {"page_index": 3, "viewing_time": 30419}], "rt": 316223, "trial_id": "mouselab_instructions_1_misaligned", "trial_type": "instructions", "trial_index": 2, "time_elapsed": 351606, "internal_node_id": "0.0-2.0-1.0"}}, {"uniqueid": "w12481300:a80714189", "current_trial": 3, "dateTime": 1693565209797, "trialdata": {"revealed_states": [], "clicked_states": ["23"], "num_clicks_accrued": [0, 0, 0, 0, 0, 0, 0, 0, 0, 0, 0, 0, 0], "stateRewards": ["", 10, -10, 10, 10, -10, -10, 10, 10, 10, -10, -10, -10, -10, 10, 10, 10, -10, 10, -10, 10, -10, -10, 10, 10, 10, 10, 10, -10, -10, 10, -10, 10, -10], "withholdReward": false, "trial_id": "practice_1", "block": "test", "trialIndex": 0, "score": 53, "costs": -0.5, "simulationMode": [null, null, null, null, null], "rewards": [10, 10, 10, 10, 10], "path": ["0", "0", "23", "24", "25", "26", "27"], "rt": [6045, 522, 23, 1774, 569], "actions": ["left", "left", "left", "up", "up"], "actionTimes": [9810, 10845, 11377, 13663, 14776], "queries": {"click": {"state": {"target": ["23"], "time": [6945]}, "edge": {"target": [], "time": []}}, "mouseover": {"state": {"target": ["23"], "time": [5756]}, "edge": {"target": [], "time": []}}, "mouseout": {"state": {"target": ["0", "23", "28", "27", "10", "2", "15", "18", "0", "23", "0", "12", "0", "23", "24", "27", "0", "22"], "time": [990, 9189, 15890, 18791, 18887, 18907, 20538, 20588, 20872, 21988, 22060, 22325, 22422, 22488, 22839, 24721, 24855, 26304]}, "edge": {"target": [], "time": []}}}, "displayed_time": "15.29", "trialTime": 28836, "trial_type": "mouselab-mdp", "trial_index": 3, "time_elapsed": 381474, "internal_node_id": "0.0-2.0-2.0-0.0"}}, {"uniqueid": "w12481300:a80714189", "current_trial": 4, "dateTime": 1693565226338, "trialdata": {"revealed_states": [], "clicked_states": ["13"], "num_clicks_accrued": [0, 0, 0, 0, 0, 0, 0, 0, 0, 0, 0, 0, 0], "stateRewards": ["", 10, -10, 10, 10, 10, -10, 10, 10, -10, -10, 10, 10, 10, -10, -10, -10, -10, 10, 10, -10, 10, 10, 10, 10, -10, -10, 10, 10, -10, 10, 10, -10, 10], "withholdReward": false, "trial_id": "practice_2", "block": "test", "trialIndex": 1, "score": -7, "costs": -0.5, "simulationMode": [null, null, null, null, null], "rewards": [10, 10, -10, -10, -10], "path": ["0", "0", "12", "13", "14", "15", "16"], "rt": [3095, 221, 200, 345, 182], "actions": ["right", "right", "right", "up", "up"], "actionTimes": [5708, 6441, 7155, 8014, 8736], "queries": {"click": {"state": {"target": ["13"], "time": [4674]}, "edge": {"target": [], "time": []}}, "mouseover": {"state": {"target": ["12", "13"], "time": [3421, 4204]}, "edge": {"target": [], "time": []}}, "mouseout": {"state": {"target": ["0", "12", "13", "12", "32", "22", "19"], "time": [1653, 3509, 12007, 12037, 12629, 15442, 16002]}, "edge": {"target": [], "time": []}}}, "displayed_time": "9.28", "trialTime": 16227, "trial_type": "mouselab-mdp", "trial_index": 4, "time_elapsed": 398015, "internal_node_id": "0.0-2.0-2.0-1.0"}}, {"uniqueid": "w12481300:a80714189", "current_trial": 5, "dateTime": 1693565270097, "trialdata": {"view_history": [{"page_index": 0, "viewing_time": 30238}, {"page_index": 1, "viewing_time": 13510}], "rt": 43750, "trial_id": "mouselab_instructions_2_misaligned", "trial_type": "instructions", "trial_index": 5, "time_elapsed": 441776, "internal_node_id": "0.0-2.0-3.0"}}, {"uniqueid": "w12481300:a80714189", "current_trial": 6, "dateTime": 1693565317161, "trialdata": {"rt": 47046, "response": {"Q0": "The cost for clicking on nodes may vary between nodes.", "Q1": "The better I perform the higher my bonus will be.", "Q2": "No, the amount of cash at each node of the web may be different each time.", "Q3": "To get the highest total score.", "Q4": "Only after moving the spider.", "Q5": "3 seconds"}, "question_order": [0, 1, 2, 3, 4, 5], "correct": {"Q0": "The cost for clicking on nodes may vary between nodes.", "Q1": "The better I perform the higher my bonus will be.", "Q2": "No, the amount of cash at each node of the web may be different each time.", "Q3": "To get the highest total score.", "Q4": "Only before moving the spider.", "Q5": "3 seconds"}, "trial_id": "mouselab_quiz_misaligned", "trial_type": "survey-multi-choice", "trial_index": 6, "time_elapsed": 488840, "internal_node_id": "0.0-2.0-4.0"}}, {"uniqueid": "w12481300:a80714189", "current_trial": 7, "dateTime": 1693565368055, "trialdata": {"success": true, "trial_type": "fullscreen", "trial_index": 7, "time_elapsed": 539733, "internal_node_id": "0.0-2.1-0.1-0.1"}}, {"uniqueid": "w12481300:a80714189", "current_trial": 8, "dateTime": 1693565466096, "trialdata": {"view_history": [{"page_index": 0, "viewing_time": 36742}, {"page_index": 1, "viewing_time": 32520}, {"page_index": 2, "viewing_time": 7322}, {"page_index": 3, "viewing_time": 21451}], "rt": 98036, "trial_id": "mouselab_instructions_1_misaligned", "trial_type": "instructions", "trial_index": 8, "time_elapsed": 637775, "internal_node_id": "0.0-2.1-1.1"}}, {"uniqueid": "w12481300:a80714189", "current_trial": 9, "dateTime": 1693565493541, "trialdata": {"revealed_states": [], "clicked_states": ["25"], "num_clicks_accrued": [0, 0, 0, 0, 0, 0, 0, 0, 0, 0, 0, 0, 0], "stateRewards": ["", 10, -10, 10, 10, -10, -10, 10, 10, 10, -10, -10, -10, -10, 10, 10, 10, -10, 10, -10, 10, -10, -10, 10, 10, 10, 10, 10, -10, -10, 10, -10, 10, -10], "withholdReward": false, "trial_id": "practice_1", "block": "test", "trialIndex": 2, "score": 53, "costs": -0.5, "simulationMode": [null, null, null, null, null], "rewards": [10, 10, 10, 10, 10], "path": ["0", "0", "23", "24", "25", "30", "32"], "rt": [3126, 744, 364, 166, 461], "actions": ["left", "left", "left", "down", "down"], "actionTimes": [8396, 9687, 10566, 11259, 12227], "queries": {"click": {"state": {"target": ["25"], "time": [7365]}, "edge": {"target": [], "time": []}}, "mouseover": {"state": {"target": ["23", "24", "25"], "time": [6383, 6481, 6612]}, "edge": {"target": [], "time": []}}, "mouseout": {"state": {"target": ["0", "23", "24"], "time": [6350, 6436, 6547]}, "edge": {"target": [], "time": []}}}, "displayed_time": "12.73", "trialTime": 27039, "trial_type": "mouselab-mdp", "trial_index": 9, "time_elapsed": 665219, "internal_node_id": "0.0-2.1-2.1-0.1"}}, {"uniqueid": "w12481300:a80714189", "current_trial": 10, "dateTime": 1693565509482, "trialdata": {"revealed_states": [], "clicked_states": ["12"], "num_clicks_accrued": [0, 0, 0, 0, 0, 0, 0, 0, 0, 0, 0, 0, 0], "stateRewards": ["", 10, -10, 10, 10, 10, -10, 10, 10, -10, -10, 10, 10, 10, -10, -10, -10, -10, 10, 10, -10, 10, 10, 10, 10, -10, -10, 10, 10, -10, 10, 10, -10, 10], "withholdReward": false, "trial_id": "practice_2", "block": "test", "trialIndex": 3, "score": 33, "costs": -0.5, "simulationMode": [null, null, null, null, null], "rewards": [10, 10, -10, 10, 10], "path": ["0", "0", "12", "13", "14", "19", "21"], "rt": [5484, 90, 137, 430, 45], "actions": ["right", "right", "right", "down", "down"], "actionTimes": [7726, 8347, 9006, 9948, 10513], "queries": {"click": {"state": {"target": ["12"], "time": [4702]}, "edge": {"target": [], "time": []}}, "mouseover": {"state": {"target": ["12", "13", "13", "12", "0", "13"], "time": [3504, 3587, 3837, 4007, 7004, 7337]}, "edge": {"target": [], "time": []}}, "mouseout": {"state": {"target": ["25", "24", "23", "0", "12", "13", "13", "12", "0", "12", "13"], "time": [952, 999, 1049, 3455, 3554, 3670, 3937, 4903, 7221, 7304, 14138]}, "edge": {"target": [], "time": []}}}, "displayed_time": "11.04", "trialTime": 15552, "trial_type": "mouselab-mdp", "trial_index": 10, "time_elapsed": 681159, "internal_node_id": "0.0-2.1-2.1-1.1"}}, {"uniqueid": "w12481300:a80714189", "current_trial": 11, "dateTime": 1693565548742, "trialdata": {"view_history": [{"page_index": 0, "viewing_time": 37190}, {"page_index": 1, "viewing_time": 2058}], "rt": 39249, "trial_id": "mouselab_instructions_2_misaligned", "trial_type": "instructions", "trial_index": 11, "time_elapsed": 720421, "internal_node_id": "0.0-2.1-3.1"}}, {"uniqueid": "w12481300:a80714189", "current_trial": 12, "dateTime": 1693565606256, "trialdata": {"rt": 57504, "response": {"Q0": "The cost for clicking on nodes may vary between nodes.", "Q1": "The better I perform the higher my bonus will be.", "Q2": "No, the structure of the web will be different each time.", "Q3": "To get the highest total score.", "Q4": "Any time during the round.", "Q5": "3 seconds"}, "question_order": [0, 1, 2, 3, 4, 5], "correct": {"Q0": "The cost for clicking on nodes may vary between nodes.", "Q1": "The better I perform the higher my bonus will be.", "Q2": "No, the amount of cash at each node of the web may be different each time.", "Q3": "To get the highest total score.", "Q4": "Only before moving the spider.", "Q5": "3 seconds"}, "trial_id": "mouselab_quiz_misaligned", "trial_type": "survey-multi-choice", "trial_index": 12, "time_elapsed": 777935, "internal_node_id": "0.0-2.1-4.1"}}, {"uniqueid": "w12481300:a80714189", "current_trial": 13, "dateTime": 1693565616473, "trialdata": {"success": true, "trial_type": "fullscreen", "trial_index": 13, "time_elapsed": 788152, "internal_node_id": "0.0-2.2-0.2-0.2"}}, {"uniqueid": "w12481300:a80714189", "current_trial": 14, "dateTime": 1693565682860, "trialdata": {"view_history": [{"page_index": 0, "viewing_time": 41423}, {"page_index": 1, "viewing_time": 9029}, {"page_index": 2, "viewing_time": 8720}, {"page_index": 3, "viewing_time": 7207}], "rt": 66379, "trial_id": "mouselab_instructions_1_misaligned", "trial_type": "instructions", "trial_index": 14, "time_elapsed": 854539, "internal_node_id": "0.0-2.2-1.2"}}, {"uniqueid": "w12481300:a80714189", "current_trial": 15, "dateTime": 1693565697031, "trialdata": {"revealed_states": [], "clicked_states": ["2"], "num_clicks_accrued": [0, 0, 0, 0, 0, 0, 0, 0, 0, 0, 0, 0, 0], "stateRewards": ["", 10, -10, 10, 10, -10, -10, 10, 10, 10, -10, -10, -10, -10, 10, 10, 10, -10, 10, -10, 10, -10, -10, 10, 10, 10, 10, 10, -10, -10, 10, -10, 10, -10], "withholdReward": false, "trial_id": "practice_1", "block": "test", "trialIndex": 4, "score": 13, "costs": -0.5, "simulationMode": [null, null, null, null, null], "rewards": [10, -10, 10, 10, -10], "path": ["0", "0", "1", "2", "3", "8", "11"], "rt": [2652, 116, 78, 432, 446], "actions": ["up", "up", "up", "left", "left"], "actionTimes": [6846, 7495, 8091, 9068, 10014], "queries": {"click": {"state": {"target": ["2"], "time": [5791]}, "edge": {"target": [], "time": []}}, "mouseover": {"state": {"target": ["1", "2"], "time": [5129, 5230]}, "edge": {"target": [], "time": []}}, "mouseout": {"state": {"target": ["19", "23", "0", "1", "2", "1"], "time": [2179, 2612, 5066, 5198, 13142, 13179]}, "edge": {"target": [], "time": []}}}, "displayed_time": "10.53", "trialTime": 13717, "trial_type": "mouselab-mdp", "trial_index": 15, "time_elapsed": 868708, "internal_node_id": "0.0-2.2-2.2-0.2"}}, {"uniqueid": "w12481300:a80714189", "current_trial": 16, "dateTime": 1693565712861, "trialdata": {"revealed_states": [], "clicked_states": ["15"], "num_clicks_accrued": [0, 0, 0, 0, 0, 0, 0, 0, 0, 0, 0, 0, 0], "stateRewards": ["", 10, -10, 10, 10, 10, -10, 10, 10, -10, -10, 10, 10, 10, -10, -10, -10, -10, 10, 10, -10, 10, 10, 10, 10, -10, -10, 10, 10, -10, 10, 10, -10, 10], "withholdReward": false, "trial_id": "practice_2", "block": "test", "trialIndex": 5, "score": -7, "costs": -0.5, "simulationMode": [null, null, null, null, null], "rewards": [10, 10, -10, -10, -10], "path": ["0", "0", "12", "13", "14", "15", "17"], "rt": [5901, 19, 288, 244, 96], "actions": ["right", "right", "right", "up", "right"], "actionTimes": [9822, 10352, 11165, 11923, 12521], "queries": {"click": {"state": {"target": ["15"], "time": [8181]}, "edge": {"target": [], "time": []}}, "mouseover": {"state": {"target": ["0", "23", "24", "25", "26", "15", "17", "17", "15"], "time": [5678, 5727, 5809, 6012, 6362, 7277, 7303, 7579, 7643]}, "edge": {"target": [], "time": []}}, "mouseout": {"state": {"target": ["21", "20", "19", "23", "0", "0", "23", "24", "25", "26", "15", "17", "17", "15"], "time": [910, 2575, 2592, 2723, 3296, 5695, 5782, 5928, 6122, 7194, 7296, 7322, 7612, 8381]}, "edge": {"target": [], "time": []}}}, "displayed_time": "13.06", "trialTime": 15512, "trial_type": "mouselab-mdp", "trial_index": 16, "time_elapsed": 884538, "internal_node_id": "0.0-2.2-2.2-1.2"}}, {"uniqueid": "w12481300:a80714189", "current_trial": 17, "dateTime": 1693565729516, "trialdata": {"view_history": [{"page_index": 0, "viewing_time": 12162}, {"page_index": 1, "viewing_time": 4484}], "rt": 16647, "trial_id": "mouselab_instructions_2_misaligned", "trial_type": "instructions", "trial_index": 17, "time_elapsed": 901195, "internal_node_id": "0.0-2.2-3.2"}}, {"uniqueid": "w12481300:a80714189", "current_trial": 18, "dateTime": 1693566088274, "trialdata": {"rt": 358747, "response": {"Q0": "The cost for clicking on nodes may vary between nodes.", "Q1": "The better I perform the higher my bonus will be.", "Q2": "No, the amount of cash at each node of the web may be different each time.", "Q3": "To get the highest total score.", "Q4": "Only after moving the spider.", "Q5": "3 seconds"}, "question_order": [0, 1, 2, 3, 4, 5], "correct": {"Q0": "The cost for clicking on nodes may vary between nodes.", "Q1": "The better I perform the higher my bonus will be.", "Q2": "No, the amount of cash at each node of the web may be different each time.", "Q3": "To get the highest total score.", "Q4": "Only before moving the spider.", "Q5": "3 seconds"}, "trial_id": "mouselab_quiz_misaligned", "trial_type": "survey-multi-choice", "trial_index": 18, "time_elapsed": 1259952, "internal_node_id": "0.0-2.2-4.2"}}, {"uniqueid": "w12481300:a80714189", "current_trial": 19, "dateTime": 1693566241094, "trialdata": {"success": true, "trial_type": "fullscreen", "trial_index": 19, "time_elapsed": 1412772, "internal_node_id": "0.0-2.3-0.3-0.3"}}, {"uniqueid": "w12481300:a80714189", "current_trial": 20, "dateTime": 1693566257519, "trialdata": {"view_history": [{"page_index": 0, "viewing_time": 7026}, {"page_index": 1, "viewing_time": 3505}, {"page_index": 2, "viewing_time": 3201}, {"page_index": 3, "viewing_time": 2681}], "rt": 16416, "trial_id": "mouselab_instructions_1_misaligned", "trial_type": "instructions", "trial_index": 20, "time_elapsed": 1429198, "internal_node_id": "0.0-2.3-1.3"}}, {"uniqueid": "w12481300:a80714189", "current_trial": 21, "dateTime": 1693566291992, "trialdata": {"revealed_states": [], "clicked_states": ["14"], "num_clicks_accrued": [0, 0, 0, 0, 0, 0, 0, 0, 0, 0, 0, 0, 0], "stateRewards": ["", 10, -10, 10, 10, -10, -10, 10, 10, 10, -10, -10, -10, -10, 10, 10, 10, -10, 10, -10, 10, -10, -10, 10, 10, 10, 10, 10, -10, -10, 10, -10, 10, -10], "withholdReward": false, "trial_id": "practice_1", "block": "test", "trialIndex": 6, "score": -7, "costs": -0.5, "simulationMode": [null, null, null, null, null, null], "rewards": [-10, -10, 10, 10, -10], "path": ["0", "0", "12", "13", "14", "15", "17"], "rt": [1985, 206, 40, 249, 2713, 178], "actions": ["right", "right", "right", "right", "up", "right"], "actionTimes": [7480, 7691, 8259, 9074, 12305, 12975], "queries": {"click": {"state": {"target": ["14"], "time": [7048]}, "edge": {"target": [], "time": []}}, "mouseover": {"state": {"target": ["12", "13", "14"], "time": [6017, 6061, 6731]}, "edge": {"target": [], "time": []}}, "mouseout": {"state": {"target": ["22", "13", "12", "0", "12", "13", "14"], "time": [1113, 4446, 4664, 5999, 6039, 6149, 33397]}, "edge": {"target": [], "time": []}}}, "displayed_time": "13.48", "trialTime": 34063, "trial_type": "mouselab-mdp", "trial_index": 21, "time_elapsed": 1463669, "internal_node_id": "0.0-2.3-2.3-0.3"}}, {"uniqueid": "w12481300:a80714189", "current_trial": 22, "dateTime": 1693566301889, "trialdata": {"revealed_states": [], "clicked_states": ["12"], "num_clicks_accrued": [0, 0, 0, 0, 0, 0, 0, 0, 0, 0, 0, 0, 0], "stateRewards": ["", 10, -10, 10, 10, 10, -10, 10, 10, -10, -10, 10, 10, 10, -10, -10, -10, -10, 10, 10, -10, 10, 10, 10, 10, -10, -10, 10, 10, -10, 10, 10, -10, 10], "withholdReward": false, "trial_id": "practice_2", "block": "test", "trialIndex": 7, "score": 13, "costs": -0.5, "simulationMode": [null, null, null, null, null, null], "rewards": [10, 10, -10, 10, -10], "path": ["0", "0", "12", "13", "14", "19", "20"], "rt": [2301, 226, 80, 160, 251, 588], "actions": ["right", "right", "right", "right", "down", "right"], "actionTimes": [4850, 5090, 5689, 6367, 7152, 8249], "queries": {"click": {"state": {"target": ["12"], "time": [4325]}, "edge": {"target": [], "time": []}}, "mouseover": {"state": {"target": ["12", "13", "13", "12"], "time": [3095, 3136, 3264, 3567]}, "edge": {"target": [], "time": []}}, "mouseout": {"state": {"target": ["20", "14", "18", "0", "0", "12", "13", "13"], "time": [1045, 1077, 1124, 1458, 3077, 3129, 3209, 3360]}, "edge": {"target": [], "time": []}}}, "displayed_time": "8.74", "trialTime": 9557, "trial_type": "mouselab-mdp", "trial_index": 22, "time_elapsed": 1473566, "internal_node_id": "0.0-2.3-2.3-1.3"}}, {"uniqueid": "w12481300:a80714189", "current_trial": 23, "dateTime": 1693566308207, "trialdata": {"view_history": [{"page_index": 0, "viewing_time": 4206}, {"page_index": 1, "viewing_time": 2100}], "rt": 6307, "trial_id": "mouselab_instructions_2_misaligned", "trial_type": "instructions", "trial_index": 23, "time_elapsed": 1479886, "internal_node_id": "0.0-2.3-3.3"}}, {"uniqueid": "w12481300:a80714189", "current_trial": 24, "dateTime": 1693566334598, "trialdata": {"rt": 26383, "response": {"Q0": "The cost for clicking on nodes may vary between nodes.", "Q1": "The better I perform the higher my bonus will be.", "Q2": "No, the structure of the web will be different each time.", "Q3": "To get the highest total score.", "Q4": "Any time during the round.", "Q5": "3 seconds"}, "question_order": [0, 1, 2, 3, 4, 5], "correct": {"Q0": "The cost for clicking on nodes may vary between nodes.", "Q1": "The better I perform the higher my bonus will be.", "Q2": "No, the amount of cash at each node of the web may be different each time.", "Q3": "To get the highest total score.", "Q4": "Only before moving the spider.", "Q5": "3 seconds"}, "trial_id": "mouselab_quiz_misaligned", "trial_type": "survey-multi-choice", "trial_index": 24, "time_elapsed": 1506277, "internal_node_id": "0.0-2.3-4.3"}}, {"uniqueid": "w12481300:a80714189", "current_trial": 25, "dateTime": 1693566385332, "trialdata": {"rt": 50688, "response": {"Q0": "The instructions were too complicated.", "Q1": "23", "Q2": "Male", "Q3": "No", "Q4": ""}, "trial_id": "finish_fail", "trial_type": "survey-text", "trial_index": 25, "time_elapsed": 1557011, "internal_node_id": "0.0-3.0-0.0"}}, {"uniqueid": "w12481300:a80714189", "current_trial": 26, "dateTime": 1693566404619, "trialdata": {"rt": 19270, "stimulus": "<h1>Completion Code Instructions (1/2)</h1>\n<br><br><br><br>\nYou have reached the end of the experiment! The completion code consists of two parts: (1) a code with 2 characters (2) a code with 6 characters. On this page, you will receive the second part of the code. The first part of the completion code will be on the next page.\n<br><br>\nThe second part of your completion code is: <b>AYIWIP</b>\n<br><br>\nPlease note this down. Then, press 'Finish HIT' in order to find the first part of your completion code. Once the data has been saved, you will receive this code either in this window or in the original browser window where you started the experiment.\n", "response": 0, "trial_type": "html-button-response", "trial_index": 26, "time_elapsed": 1576297, "internal_node_id": "0.0-3.0-1.0"}}, {"uniqueid": "w12481300:a80714189", "current_trial": 27, "dateTime": 1693566405630, "trialdata": {"success": true, "trial_type": "fullscreen", "trial_index": 27, "time_elapsed": 1577309, "internal_node_id": "0.0-7.0"}}], "questiondata": {"params": {"CODE": "C6DMOQA6", "MIN_TIME": 14, "inspectCost": 1, "startTime": "Fri Sep 01 2023 12:40:26 GMT+0200 (South Africa Standard Time)", "bonusRate": 0.002, "variance": "1_2_4_8_44", "branching": "31123"}, "final_score": 0}, "eventdata": [{"eventtype": "initialized", "value": null, "timestamp": 1693564825755, "interval": 0}, {"eventtype": "window_resize", "value": [1024, 646], "timestamp": 1693564825755, "interval": 0}, {"eventtype": "window_resize", "value": [1024, 646], "timestamp": 1693564826238, "interval": 483}, {"eventtype": "window_resize", "value": [1366, 662], "timestamp": 1693564828282, "interval": 2044}, {"eventtype": "window_resize", "value": [1366, 768], "timestamp": 1693564834874, "interval": 6592}, {"eventtype": "focus", "value": "off", "timestamp": 1693565364783, "interval": 529909}, {"eventtype": "focus", "value": "on", "timestamp": 1693565364784, "interval": 1}, {"eventtype": "window_resize", "value": [1366, 662], "timestamp": 1693565365002, "interval": 218}, {"eventtype": "window_resize", "value": [1366, 768], "timestamp": 1693565367303, "interval": 2301}, {"eventtype": "focus", "value": "off", "timestamp": 1693565613112, "interval": 245809}, {"eventtype": "focus", "value": "on", "timestamp": 1693565613113, "interval": 1}, {"eventtype": "window_resize", "value": [1366, 662], "timestamp": 1693565613332, "interval": 219}, {"eventtype": "window_resize", "value": [1366, 768], "timestamp": 1693565615723, "interval": 2391}, {"eventtype": "focus", "value": "off", "timestamp": 1693566095127, "interval": 479404}, {"eventtype": "window_resize", "value": [1366, 662], "timestamp": 1693566233957, "interval": 138830}, {"eventtype": "focus", "value": "on", "timestamp": 1693566238358, "interval": 4401}, {"eventtype": "window_resize", "value": [1366, 768], "timestamp": 1693566240333, "interval": 1975}, {"eventtype": "window_resize", "value": [1366, 662], "timestamp": 1693566245801, "interval": 5468}], "useragent": "Mozilla/5.0 (Windows NT 10.0; Win64; x64) AppleWebKit/537.36 (KHTML, like Gecko) Chrome/116.0.0.0 Safari/537.36", "mode": "live", "id": "w12481300:a80714189", "status": "user data saved", "Beginhit": "2023-09-01 10:40:21.819801", "Beginexp": "2023-09-01 10:40:36.394852", "Endhit": "2023-09-01 11:06:47.359248", "psiturkStatus": 3, "browser": "<redacted>", "platform": "windows", "language": "en-ZA", "excludeReason": "quizfail"}