{"condition": 0, "counterbalance": 0, "assignmentId": "a71090581", "workerId": "w21695759", "hitId": "h36610977", "currenttrial": 62, "bonus": 0, "data": [{"uniqueid": "w21695759:a71090581", "current_trial": 0, "dateTime": 1693834788337, "trialdata": {"success": true, "trial_type": "fullscreen", "trial_index": 0, "time_elapsed": 88280, "internal_node_id": "0.0-0.0"}}, {"uniqueid": "w21695759:a71090581", "current_trial": 1, "dateTime": 1693834817234, "trialdata": {"view_history": [{"page_index": 0, "viewing_time": 28894}], "rt": 28894, "trial_id": "exp_instructions_misaligned", "trial_type": "instructions", "trial_index": 1, "time_elapsed": 117177, "internal_node_id": "0.0-1.0"}}, {"uniqueid": "w21695759:a71090581", "current_trial": 2, "dateTime": 1693835158438, "trialdata": {"view_history": [{"page_index": 0, "viewing_time": 91793}, {"page_index": 1, "viewing_time": 157859}, {"page_index": 2, "viewing_time": 36837}, {"page_index": 3, "viewing_time": 54711}], "rt": 341201, "trial_id": "mouselab_instructions_1_misaligned", "trial_type": "instructions", "trial_index": 2, "time_elapsed": 458381, "internal_node_id": "0.0-2.0-1.0"}}, {"uniqueid": "w21695759:a71090581", "current_trial": 3, "dateTime": 1693835210618, "trialdata": {"revealed_states": [], "clicked_states": ["30", "3", "14"], "num_clicks_accrued": [0, 0, 0, 0, 0, 0, 0, 0, 0, 0, 0, 0, 0], "stateRewards": ["", -10, 10, 10, 10, -10, -10, -10, -10, 10, -10, -10, -10, 10, 10, -10, -10, -10, 10, -10, 10, -10, -10, -10, -10, 10, 10, -10, 10, -10, 10, -10, -10, -10], "withholdReward": false, "trial_id": "practice_1", "block": "test", "trialIndex": 0, "score": -8, "costs": -1.5, "simulationMode": [null, null, null, null, null], "rewards": [-10, -10, 10, 10, -10], "path": ["0", "0", "23", "24", "25", "30", "33"], "rt": [25392, 634, 313, 572, 10703], "actions": ["left", "left", "left", "down", "left"], "actionTimes": [29420, 30566, 31387, 32465, 43673], "queries": {"click": {"state": {"target": ["30", "3", "14"], "time": [9978, 14264, 17569]}, "edge": {"target": [], "time": []}}, "mouseover": {"state": {"target": ["23", "24", "30", "25", "30", "24", "28", "8", "3", "7", "18", "13", "14", "19", "14", "22", "31", "25", "28", "28", "23"], "time": [7041, 7140, 7424, 8827, 9328, 11131, 11849, 12934, 13136, 14861, 14996, 15340, 15407, 15740, 17328, 18200, 19749, 21184, 22070, 24124, 25476]}, "edge": {"target": [], "time": []}}, "mouseout": {"state": {"target": ["12", "12", "0", "23", "24", "30", "25", "30", "24", "28", "8", "3", "7", "18", "13", "14", "19", "14", "14", "22", "31", "25", "28", "28", "23", "24", "23", "30", "22", "19"], "time": [1346, 2514, 7006, 7090, 7157, 8793, 9227, 10496, 11666, 12083, 12952, 14644, 14895, 15211, 15356, 15489, 17227, 17582, 17867, 18346, 19849, 21635, 22204, 24575, 25510, 35897, 36165, 39668, 49391, 49442]}, "edge": {"target": [], "time": []}}}, "displayed_time": "44.17", "trialTime": 51333, "trial_type": "mouselab-mdp", "trial_index": 3, "time_elapsed": 510560, "internal_node_id": "0.0-2.0-2.0-0.0"}}, {"uniqueid": "w21695759:a71090581", "current_trial": 4, "dateTime": 1693835262235, "trialdata": {"revealed_states": [], "clicked_states": ["23", "12", "1", "13", "2", "14", "3", "19", "21"], "num_clicks_accrued": [0, 0, 0, 0, 0, 0, 0, 0, 0, 0, 0, 0, 0], "stateRewards": ["", 10, 10, 10, -10, 10, 10, 10, -10, -10, 10, 10, 10, 10, 10, -10, 10, 10, -10, 10, -10, 10, -10, -10, 10, -10, -10, 10, 10, -10, 10, 10, -10, 10], "withholdReward": false, "trial_id": "practice_2", "block": "test", "trialIndex": 1, "score": 49, "costs": -4.5, "simulationMode": [null, null, null, null, null], "rewards": [10, 10, 10, 10, 10], "path": ["0", "0", "12", "13", "14", "19", "21"], "rt": [30118, 342, 235, 266, 364], "actions": ["right", "right", "right", "down", "down"], "actionTimes": [32693, 33543, 34297, 35069, 35945], "queries": {"click": {"state": {"target": ["23", "12", "1", "13", "2", "14", "3", "19", "21"], "time": [6098, 8105, 10416, 13088, 15042, 16814, 19010, 21737, 28278]}, "edge": {"target": [], "time": []}}, "mouseover": {"state": {"target": ["23", "0", "12", "0", "1", "13", "2", "18", "14", "18", "7", "3", "7", "19", "14", "15", "16", "15", "14", "21"], "time": [5709, 7072, 7212, 9468, 9785, 11448, 13981, 15785, 16096, 17240, 17406, 17884, 20048, 20940, 23812, 23863, 23962, 25182, 25332, 25716]}, "edge": {"target": [], "time": []}}, "mouseout": {"state": {"target": ["19", "22", "12", "0", "23", "0", "12", "0", "1", "12", "13", "2", "18", "14", "18", "7", "3", "7", "14", "19", "14", "15", "16", "15", "14", "19", "21", "21"], "time": [1016, 1116, 1317, 5659, 6589, 7110, 8479, 9584, 10827, 11177, 13499, 15418, 15886, 17122, 17306, 17539, 19626, 20154, 20839, 23746, 23829, 23897, 24132, 25299, 25366, 25582, 28295, 28581]}, "edge": {"target": [], "time": []}}}, "displayed_time": "36.45", "trialTime": 50952, "trial_type": "mouselab-mdp", "trial_index": 4, "time_elapsed": 562177, "internal_node_id": "0.0-2.0-2.0-1.0"}}, {"uniqueid": "w21695759:a71090581", "current_trial": 5, "dateTime": 1693835328794, "trialdata": {"view_history": [{"page_index": 0, "viewing_time": 53306}, {"page_index": 1, "viewing_time": 13249}], "rt": 66556, "trial_id": "mouselab_instructions_2_misaligned", "trial_type": "instructions", "trial_index": 5, "time_elapsed": 628737, "internal_node_id": "0.0-2.0-3.0"}}, {"uniqueid": "w21695759:a71090581", "current_trial": 6, "dateTime": 1693835409198, "trialdata": {"rt": 80399, "response": {"Q0": "The cost for clicking on nodes may vary between nodes.", "Q1": "The better I perform the higher my bonus will be.", "Q2": "No, the structure of the web will be different each time.", "Q3": "To get the highest total score.", "Q4": "Only before moving the spider.", "Q5": "3 seconds"}, "question_order": [0, 1, 2, 3, 4, 5], "correct": {"Q0": "The cost for clicking on nodes may vary between nodes.", "Q1": "The better I perform the higher my bonus will be.", "Q2": "No, the amount of cash at each node of the web may be different each time.", "Q3": "To get the highest total score.", "Q4": "Only before moving the spider.", "Q5": "3 seconds"}, "trial_id": "mouselab_quiz_misaligned", "trial_type": "survey-multi-choice", "trial_index": 6, "time_elapsed": 709141, "internal_node_id": "0.0-2.0-4.0"}}, {"uniqueid": "w21695759:a71090581", "current_trial": 7, "dateTime": 1693835426800, "trialdata": {"success": true, "trial_type": "fullscreen", "trial_index": 7, "time_elapsed": 726743, "internal_node_id": "0.0-2.1-0.1-0.1"}}, {"uniqueid": "w21695759:a71090581", "current_trial": 8, "dateTime": 1693835540001, "trialdata": {"view_history": [{"page_index": 0, "viewing_time": 30690}, {"page_index": 1, "viewing_time": 18776}, {"page_index": 2, "viewing_time": 36817}, {"page_index": 3, "viewing_time": 26916}], "rt": 113199, "trial_id": "mouselab_instructions_1_misaligned", "trial_type": "instructions", "trial_index": 8, "time_elapsed": 839944, "internal_node_id": "0.0-2.1-1.1"}}, {"uniqueid": "w21695759:a71090581", "current_trial": 9, "dateTime": 1693835623846, "trialdata": {"revealed_states": [], "clicked_states": ["23", "1", "12", "13", "2", "24", "3", "14", "15", "4", "6", "7", "5", "19", "18", "16"], "num_clicks_accrued": [0, 0, 0, 0, 0, 0, 0, 0, 0, 0, 0, 0, 0], "stateRewards": ["", -10, 10, 10, 10, -10, -10, -10, -10, 10, -10, -10, -10, 10, 10, -10, -10, -10, 10, -10, 10, -10, -10, -10, -10, 10, 10, -10, 10, -10, 10, -10, -10, -10], "withholdReward": false, "trial_id": "practice_1", "block": "test", "trialIndex": 2, "score": 5.5, "costs": -8, "simulationMode": [null, null, null, null, null], "rewards": [-10, 10, 10, -10, 10], "path": ["0", "0", "12", "13", "14", "15", "18"], "rt": [53719, 720, 927, 441, 424], "actions": ["right", "right", "right", "up", "left"], "actionTimes": [56382, 57606, 59031, 59963, 60881], "queries": {"click": {"state": {"target": ["23", "1", "12", "13", "2", "24", "3", "14", "15", "4", "6", "7", "5", "19", "18", "16"], "time": [4646, 6110, 7804, 9689, 11319, 12963, 16593, 18376, 21392, 23781, 28010, 31369, 34130, 40711, 43413, 46993]}, "edge": {"target": [], "time": []}}, "mouseover": {"state": {"target": ["23", "1", "12", "13", "18", "2", "24", "1", "2", "3", "15", "14", "15", "18", "4", "6", "7", "4", "5", "4", "2", "1", "0", "22", "19", "14", "17", "15", "18", "13", "22", "19", "22", "13", "18", "16", "17", "15", "18", "12", "12", "13", "14", "15", "18", "12"], "time": [3676, 5312, 7282, 8547, 10372, 10589, 12306, 15816, 16017, 16233, 17046, 17165, 21210, 22313, 22529, 27793, 29861, 33318, 33551, 35639, 35972, 36206, 36590, 37526, 37693, 38445, 38594, 38945, 39113, 39664, 39747, 40414, 41434, 42620, 42987, 44807, 47696, 49082, 49316, 49482, 49722, 50035, 50601, 51069, 51487, 52572]}, "edge": {"target": [], "time": []}}, "mouseout": {"state": {"target": ["0", "23", "1", "12", "13", "18", "2", "24", "24", "1", "2", "3", "15", "14", "15", "18", "4", "6", "7", "4", "5", "4", "2", "1", "0", "22", "19", "14", "17", "15", "18", "13", "22", "19", "22", "13", "18", "16", "17", "15", "18", "12", "12", "13", "14", "15", "18", "12"], "time": [3425, 5044, 6762, 8301, 10188, 10423, 11675, 14463, 15315, 15866, 16116, 16852, 17063, 21060, 22046, 22347, 27539, 28374, 33251, 33401, 35538, 35689, 35990, 36407, 36707, 37626, 38161, 38495, 38912, 39012, 39614, 39697, 40332, 41169, 42519, 42853, 43872, 47461, 49015, 49216, 49366, 49499, 49934, 50551, 50986, 51453, 52455, 52673]}, "edge": {"target": [], "time": []}}}, "displayed_time": "61.38", "trialTime": 83126, "trial_type": "mouselab-mdp", "trial_index": 9, "time_elapsed": 923789, "internal_node_id": "0.0-2.1-2.1-0.1"}}, {"uniqueid": "w21695759:a71090581", "current_trial": 10, "dateTime": 1693835667128, "trialdata": {"revealed_states": [], "clicked_states": ["23", "1", "12", "13", "2", "3", "14", "4", "8", "15", "19", "22", "20", "21"], "num_clicks_accrued": [0, 0, 0, 0, 0, 0, 0, 0, 0, 0, 0, 0, 0], "stateRewards": ["", 10, 10, 10, -10, 10, 10, 10, -10, -10, 10, 10, 10, 10, 10, -10, 10, 10, -10, 10, -10, 10, -10, -10, 10, -10, -10, 10, 10, -10, 10, 10, -10, 10], "withholdReward": false, "trial_id": "practice_2", "block": "test", "trialIndex": 3, "score": 46.5, "costs": -7, "simulationMode": [null, null, null, null, null], "rewards": [10, 10, 10, 10, 10], "path": ["0", "0", "12", "13", "14", "19", "21"], "rt": [32062, 368, 435, 506, 608], "actions": ["right", "right", "right", "down", "down"], "actionTimes": [34585, 35452, 36385, 37407, 38515], "queries": {"click": {"state": {"target": ["23", "1", "12", "13", "2", "3", "14", "4", "8", "15", "19", "22", "20", "21"], "time": [5104, 6720, 8285, 9986, 11855, 13706, 15227, 17383, 19181, 21267, 23277, 26122, 27940, 29588]}, "edge": {"target": [], "time": []}}, "mouseover": {"state": {"target": ["23", "1", "12", "13", "2", "3", "7", "18", "14", "18", "4", "3", "8", "7", "18", "15", "14", "19", "22", "20", "21"], "time": [4752, 5723, 7142, 9479, 10614, 13286, 14121, 14188, 14289, 16610, 17077, 18798, 18948, 19933, 20050, 20250, 21636, 21717, 25811, 27749, 28964]}, "edge": {"target": [], "time": []}}, "mouseout": {"state": {"target": ["21", "0", "23", "1", "12", "13", "2", "3", "7", "18", "14", "18", "4", "3", "8", "7", "18", "15", "14", "19", "22", "19", "20", "21"], "time": [1245, 4719, 5454, 7005, 8863, 10231, 12836, 14071, 14155, 14222, 16359, 16709, 18563, 18880, 19766, 19950, 20067, 21583, 21685, 25744, 26396, 26530, 28283, 40023]}, "edge": {"target": [], "time": []}}}, "displayed_time": "39.01", "trialTime": 42632, "trial_type": "mouselab-mdp", "trial_index": 10, "time_elapsed": 967070, "internal_node_id": "0.0-2.1-2.1-1.1"}}, {"uniqueid": "w21695759:a71090581", "current_trial": 11, "dateTime": 1693835701851, "trialdata": {"view_history": [{"page_index": 0, "viewing_time": 28158}, {"page_index": 1, "viewing_time": 6563}], "rt": 34721, "trial_id": "mouselab_instructions_2_misaligned", "trial_type": "instructions", "trial_index": 11, "time_elapsed": 1001794, "internal_node_id": "0.0-2.1-3.1"}}, {"uniqueid": "w21695759:a71090581", "current_trial": 12, "dateTime": 1693836190035, "trialdata": {"rt": 488181, "response": {"Q0": "The cost for clicking on nodes may vary between nodes.", "Q1": "The better I perform the higher my bonus will be.", "Q2": "No, the amount of cash at each node of the web may be different each time.", "Q3": "To get the highest total score.", "Q4": "Only before moving the spider.", "Q5": "3 seconds"}, "question_order": [0, 1, 2, 3, 4, 5], "correct": {"Q0": "The cost for clicking on nodes may vary between nodes.", "Q1": "The better I perform the higher my bonus will be.", "Q2": "No, the amount of cash at each node of the web may be different each time.", "Q3": "To get the highest total score.", "Q4": "Only before moving the spider.", "Q5": "3 seconds"}, "trial_id": "mouselab_quiz_misaligned", "trial_type": "survey-multi-choice", "trial_index": 12, "time_elapsed": 1489978, "internal_node_id": "0.0-2.1-4.1"}}, {"uniqueid": "w21695759:a71090581", "current_trial": 13, "dateTime": 1693836200316, "trialdata": {"rt": 10273, "response": {"Q0": "No"}, "question_order": [0], "trial_id": "repeat_check", "trial_type": "survey-multi-choice", "trial_index": 13, "time_elapsed": 1500259, "internal_node_id": "0.0-4.0-0.0"}}, {"uniqueid": "w21695759:a71090581", "current_trial": 14, "dateTime": 1693836248170, "trialdata": {"rt": 47850, "stimulus": "\n<h1> Get ready to start the game! </h1>\n\nThank you for reading the instructions. Get ready start with the 40 rounds of this game.\n<br><br>\nIf you need to take a break, feel free to take one after the end of a round, before continuing to the next one.\n<br><br>\nRemember, the more money the spider gets, the bigger your bonus will be!\n<br><br>\n<div style='text-align: center;'>Press <code>space</code> to begin.</div>\n\n<br><br>\n(If, at any point, the <code>space</code> key does not take you to the next page, click once on the text and try again.)", "response": " ", "trial_id": "mdp_ready", "trial_type": "html-keyboard-response", "trial_index": 14, "time_elapsed": 1548113, "internal_node_id": "0.0-6.0-0.0"}}, {"uniqueid": "w21695759:a71090581", "current_trial": 15, "dateTime": 1693836289799, "trialdata": {"revealed_states": [], "clicked_states": ["23", "1", "12", "24", "2", "3", "8", "4"], "num_clicks_accrued": [0, 0, 0, 0, 0, 0, 0, 0, 0, 0, 0, 0, 0], "stateRewards": ["", 1, -1, 1, -14, -10, 67, -28, -11, 72, 40, -65, -1, 1, 1, -2, 8, -55, 34, -10, 61, 33, -15, 2, -4, 7, 4, -75, 63, -21, -16, 61, 19, 21], "withholdReward": false, "trial_id": "mdp_trial_1", "block": "test", "trialIndex": 4, "score": 3, "costs": -4, "simulationMode": [null, null, null, null, null], "rewards": [-1, 1, 1, -2, 8], "path": ["0", "0", "12", "13", "14", "15", "16"], "rt": [22725, 438, 1356, 311, 969], "actions": ["right", "right", "right", "up", "up"], "actionTimes": [30292, 31235, 33094, 33898, 35394], "queries": {"click": {"state": {"target": ["23", "1", "12", "24", "2", "3", "8", "4"], "time": [9596, 11125, 12749, 14384, 16041, 18134, 19569, 20827]}, "edge": {"target": [], "time": []}}, "mouseover": {"state": {"target": ["23", "1", "12", "0", "23", "24", "1", "2", "3", "8", "4", "3", "2", "12", "13", "12", "12", "13", "14"], "time": [9418, 10855, 11790, 13260, 13477, 13678, 15263, 15547, 17852, 19204, 20245, 22478, 22678, 23029, 23096, 26002, 28205, 29308, 29341]}, "edge": {"target": [], "time": []}}, "mouseout": {"state": {"target": ["0", "23", "1", "12", "0", "23", "24", "1", "2", "3", "3", "8", "3", "4", "3", "2", "12", "13", "12", "12", "13", "14"], "time": [9235, 10053, 11442, 13196, 13376, 13543, 15097, 15297, 17718, 18720, 19104, 20007, 20141, 22344, 22495, 22711, 23063, 25901, 27805, 29274, 29325, 29359]}, "edge": {"target": [], "time": []}}}, "displayed_time": "35.90", "trialTime": 40864, "trial_type": "mouselab-mdp", "trial_index": 15, "time_elapsed": 1589742, "internal_node_id": "0.0-6.0-1.0-0.0"}}, {"uniqueid": "w21695759:a71090581", "current_trial": 16, "dateTime": 1693836347134, "trialdata": {"revealed_states": [], "clicked_states": ["23", "1", "12", "13", "14", "2", "3", "4", "8", "15", "19", "21", "22", "20", "16"], "num_clicks_accrued": [0, 0, 0, 0, 0, 0, 0, 0, 0, 0, 0, 0, 0], "stateRewards": ["", 1, 2, -3, -5, 66, -50, -47, -5, 1, 28, -27, 1, 1, -1, -6, 37, -25, 56, 1, -82, -66, -40, -1, -4, -7, 15, -61, -23, 26, 10, 14, -56, 29], "withholdReward": false, "trial_id": "mdp_trial_2", "block": "test", "trialIndex": 5, "score": 15.349999999999998, "costs": -16.650000000000002, "simulationMode": [null, null, null, null, null], "rewards": [1, 1, -1, -6, 37], "path": ["0", "0", "12", "13", "14", "15", "16"], "rt": [37766, 118, 157, 160, 202], "actions": ["right", "right", "right", "up", "up"], "actionTimes": [45231, 45851, 46510, 47161, 47854], "queries": {"click": {"state": {"target": ["23", "1", "12", "13", "14", "2", "3", "4", "8", "15", "19", "21", "22", "20", "16"], "time": [8529, 9918, 11563, 13132, 14740, 16545, 18028, 20148, 21786, 23068, 24630, 26294, 30327, 33826, 38756]}, "edge": {"target": [], "time": []}}, "mouseover": {"state": {"target": ["23", "1", "12", "13", "14", "2", "3", "4", "8", "10", "2", "18", "15", "14", "19", "21", "19", "21", "22", "19", "20", "19", "12", "13", "14", "17", "16", "18", "14"], "time": [8371, 9607, 11161, 12797, 14152, 16370, 17373, 19978, 20849, 22235, 22332, 22450, 22751, 23703, 23793, 24153, 24437, 25756, 28012, 31168, 31752, 34207, 36160, 36561, 36969, 37914, 38548, 39719, 44109]}, "edge": {"target": [], "time": []}}, "mouseout": {"state": {"target": ["19", "12", "0", "23", "1", "12", "13", "14", "2", "3", "4", "3", "8", "10", "2", "18", "15", "14", "19", "21", "19", "21", "22", "19", "20", "19", "12", "13", "14", "17", "16", "18", "14"], "time": [3728, 3929, 8254, 9240, 10893, 12646, 14017, 15337, 17023, 19461, 20567, 20735, 22135, 22266, 22352, 22489, 23385, 23770, 23987, 24336, 24956, 27060, 31118, 31503, 34157, 35927, 36428, 36762, 37479, 38498, 39017, 43959, 44159]}, "edge": {"target": [], "time": []}}}, "displayed_time": "48.35", "trialTime": 56521, "trial_type": "mouselab-mdp", "trial_index": 16, "time_elapsed": 1647077, "internal_node_id": "0.0-6.0-1.0-1.0"}}, {"uniqueid": "w21695759:a71090581", "current_trial": 17, "dateTime": 1693836379395, "trialdata": {"revealed_states": [], "clicked_states": ["23", "24", "25", "26", "27"], "num_clicks_accrued": [0, 0, 0, 0, 0, 0, 0, 0, 0, 0, 0, 0, 0], "stateRewards": ["", -2, 1, -8, 12, -65, -79, 16, 7, -80, -17, -45, -2, 2, -5, -2, -85, 23, -4, -7, 48, 27, -76, 2, 3, 5, 2, 43, 71, -13, 7, -49, 59, -31], "withholdReward": false, "trial_id": "mdp_trial_3", "block": "test", "trialIndex": 6, "score": 50.25, "costs": -4.75, "simulationMode": [null, null, null, null, null], "rewards": [2, 3, 5, 2, 43], "path": ["0", "0", "23", "24", "25", "26", "27"], "rt": [16651, 243, 168, 170, 238], "actions": ["left", "left", "left", "up", "up"], "actionTimes": [21716, 22464, 23140, 23812, 24544], "queries": {"click": {"state": {"target": ["23", "24", "25", "26", "27"], "time": [6328, 8968, 10562, 12448, 15032]}, "edge": {"target": [], "time": []}}, "mouseover": {"state": {"target": ["23", "1", "24", "24", "24", "25", "26", "27", "26", "25", "30", "31"], "time": [6085, 7121, 8222, 8322, 8740, 9895, 11846, 13900, 16372, 16907, 17360, 20713]}, "edge": {"target": [], "time": []}}, "mouseout": {"state": {"target": ["13", "12", "0", "23", "1", "24", "24", "24", "25", "26", "27", "26", "25", "30", "31"], "time": [873, 939, 6051, 6888, 8072, 8256, 8606, 9677, 11464, 13683, 15404, 16690, 17057, 20580, 20814]}, "edge": {"target": [], "time": []}}}, "displayed_time": "25.04", "trialTime": 31502, "trial_type": "mouselab-mdp", "trial_index": 17, "time_elapsed": 1679338, "internal_node_id": "0.0-6.0-1.0-2.0"}}, {"uniqueid": "w21695759:a71090581", "current_trial": 18, "dateTime": 1693836413523, "trialdata": {"revealed_states": [], "clicked_states": ["23", "1", "12", "13", "14", "15", "19", "16"], "num_clicks_accrued": [0, 0, 0, 0, 0, 0, 0, 0, 0, 0, 0, 0, 0], "stateRewards": ["", -2, 1, -3, -16, -39, -52, 30, -7, -41, -59, 11, 2, 1, 8, 2, -11, -26, -42, -13, 87, -59, -48, -1, -1, -1, 16, -79, 31, 50, -1, -84, 34, -82], "withholdReward": false, "trial_id": "mdp_trial_4", "block": "test", "trialIndex": 7, "score": -3.8000000000000007, "costs": -5.800000000000001, "simulationMode": [null, null, null, null, null], "rewards": [2, 1, 8, 2, -11], "path": ["0", "0", "12", "13", "14", "15", "16"], "rt": [21169, 397, 138, 298, 153], "actions": ["right", "right", "right", "up", "up"], "actionTimes": [24363, 25255, 25899, 26692, 27349], "queries": {"click": {"state": {"target": ["23", "1", "12", "13", "14", "15", "19", "16"], "time": [4540, 5804, 6961, 8718, 10320, 12079, 13616, 15186]}, "edge": {"target": [], "time": []}}, "mouseover": {"state": {"target": ["23", "1", "12", "13", "14", "15", "19", "16", "17"], "time": [4197, 5316, 6404, 7887, 9824, 11695, 13265, 14620, 20045]}, "edge": {"target": [], "time": []}}, "mouseout": {"state": {"target": ["21", "22", "0", "0", "23", "1", "12", "13", "14", "14", "15", "14", "19", "16", "17", "22"], "time": [1658, 1707, 1975, 4180, 5134, 6120, 7822, 9693, 10846, 11545, 12313, 13198, 13933, 15670, 20078, 31134]}, "edge": {"target": [], "time": []}}}, "displayed_time": "27.85", "trialTime": 33415, "trial_type": "mouselab-mdp", "trial_index": 18, "time_elapsed": 1713466, "internal_node_id": "0.0-6.0-1.0-3.0"}}, {"uniqueid": "w21695759:a71090581", "current_trial": 19, "dateTime": 1693836448759, "trialdata": {"revealed_states": [], "clicked_states": ["23", "1", "12", "24", "2", "13", "14", "15", "19", "20"], "num_clicks_accrued": [0, 0, 0, 0, 0, 0, 0, 0, 0, 0, 0, 0, 0], "stateRewards": ["", 1, -4, -6, 11, -20, 8, -30, 1, -38, 88, 42, 2, 3, 5, -12, -8, -74, 30, -8, 67, -19, 42, 2, -1, 4, 13, 50, -68, 2, -8, -15, 87, -46], "withholdReward": false, "trial_id": "mdp_trial_5", "block": "test", "trialIndex": 8, "score": 62.5, "costs": -6.5, "simulationMode": [null, null, null, null, null], "rewards": [2, 3, 5, -8, 67], "path": ["0", "0", "12", "13", "14", "19", "20"], "rt": [22601, 175, 141, 260, 267], "actions": ["right", "right", "right", "down", "right"], "actionTimes": [25076, 25750, 26401, 27155, 27931], "queries": {"click": {"state": {"target": ["23", "1", "12", "24", "2", "13", "14", "15", "19", "20"], "time": [3889, 5278, 6709, 8301, 9592, 11044, 13232, 15183, 16520, 18671]}, "edge": {"target": [], "time": []}}, "mouseover": {"state": {"target": ["23", "1", "12", "0", "23", "24", "2", "13", "18", "14", "15", "19", "20", "21"], "time": [3292, 4866, 5867, 7407, 7503, 7768, 9008, 10512, 12628, 12912, 14532, 16235, 18406, 19241]}, "edge": {"target": [], "time": []}}, "mouseout": {"state": {"target": ["0", "0", "23", "1", "12", "0", "23", "24", "2", "13", "13", "18", "14", "15", "14", "19", "20", "21"], "time": [1889, 3209, 4430, 5636, 7284, 7469, 7571, 8737, 10107, 11545, 12311, 12761, 13714, 15985, 16120, 18206, 18925, 24618]}, "edge": {"target": [], "time": []}}}, "displayed_time": "28.43", "trialTime": 34447, "trial_type": "mouselab-mdp", "trial_index": 19, "time_elapsed": 1748702, "internal_node_id": "0.0-6.0-1.0-4.0"}}, {"uniqueid": "w21695759:a71090581", "current_trial": 20, "dateTime": 1693836486241, "trialdata": {"revealed_states": [], "clicked_states": ["23", "1", "12", "24", "2", "25", "3", "26", "30", "33", "32"], "num_clicks_accrued": [0, 0, 0, 0, 0, 0, 0, 0, 0, 0, 0, 0, 0], "stateRewards": ["", 1, -2, -8, -13, 4, 34, -84, -4, -49, 88, -70, -1, 3, -4, 10, -77, 13, -34, 15, -21, -16, 27, 1, -2, 8, -8, -6, 38, -26, 6, -15, 66, -3], "withholdReward": false, "trial_id": "mdp_trial_6", "block": "test", "trialIndex": 9, "score": 69.75, "costs": -9.25, "simulationMode": [null, null, null, null, null], "rewards": [1, -2, 8, 6, 66], "path": ["0", "0", "23", "24", "25", "30", "32"], "rt": [24206, 309, 607, 212, 181], "actions": ["left", "left", "left", "down", "down"], "actionTimes": [26340, 27153, 28253, 28960, 29646], "queries": {"click": {"state": {"target": ["23", "1", "12", "24", "2", "25", "3", "26", "30", "33", "32"], "time": [3286, 4421, 5426, 6644, 8105, 9842, 11308, 13082, 14918, 17333, 20722]}, "edge": {"target": [], "time": []}}, "mouseover": {"state": {"target": ["0", "23", "1", "12", "0", "24", "2", "28", "25", "3", "10", "26", "25", "30", "33", "32"], "time": [2153, 2876, 4079, 4932, 6036, 6304, 7604, 9239, 9545, 10943, 12329, 12579, 14265, 14366, 17154, 18540]}, "edge": {"target": [], "time": []}}, "mouseout": {"state": {"target": ["0", "0", "23", "1", "12", "0", "23", "24", "2", "28", "25", "2", "3", "10", "26", "25", "30", "33", "32", "32"], "time": [1288, 2759, 3996, 4665, 5968, 6076, 6203, 7003, 9106, 9306, 10245, 10642, 12280, 12362, 14182, 14299, 17021, 18271, 23968, 30498]}, "edge": {"target": [], "time": []}}}, "displayed_time": "30.16", "trialTime": 36710, "trial_type": "mouselab-mdp", "trial_index": 20, "time_elapsed": 1786184, "internal_node_id": "0.0-6.0-1.0-5.0"}}, {"uniqueid": "w21695759:a71090581", "current_trial": 21, "dateTime": 1693836529586, "trialdata": {"revealed_states": [], "clicked_states": ["23", "1", "12", "2", "24", "3", "25", "26", "30", "8", "4", "7", "5", "6"], "num_clicks_accrued": [0, 0, 0, 0, 0, 0, 0, 0, 0, 0, 0, 0, 0], "stateRewards": ["", 2, -1, -3, 16, -3, -16, -62, -1, 13, -26, 43, -1, 4, 3, -9, -54, -37, -3, -12, -71, -68, -57, 1, -3, 2, -9, 2, -2, -9, -11, 84, -52, 55], "withholdReward": false, "trial_id": "mdp_trial_7", "block": "test", "trialIndex": 10, "score": -3.5, "costs": -14.500000000000002, "simulationMode": [null, null, null, null, null], "rewards": [2, -1, -3, 16, -3], "path": ["0", "0", "1", "2", "3", "4", "5"], "rt": [29883, 128, 292, 104, 325], "actions": ["up", "up", "up", "right", "up"], "actionTimes": [34321, 34959, 35756, 36371, 37197], "queries": {"click": {"state": {"target": ["23", "1", "12", "2", "24", "3", "25", "26", "30", "8", "4", "7", "5", "6"], "time": [5442, 6448, 7606, 8950, 10219, 11630, 13778, 15699, 17161, 19014, 20969, 23091, 26583, 30091]}, "edge": {"target": [], "time": []}}, "mouseover": {"state": {"target": ["0", "23", "1", "12", "0", "2", "24", "10", "3", "10", "28", "25", "2", "10", "28", "26", "30", "10", "3", "8", "3", "4", "7", "5", "6"], "time": [4932, 5015, 6036, 7240, 8406, 8689, 9943, 10861, 11135, 12947, 13031, 13282, 14571, 15218, 15302, 15402, 16556, 18541, 18609, 18861, 19728, 19813, 22917, 24030, 27413]}, "edge": {"target": [], "time": []}}, "mouseout": {"state": {"target": ["0", "0", "23", "1", "12", "0", "2", "24", "10", "3", "10", "28", "25", "2", "10", "28", "26", "25", "30", "10", "3", "8", "3", "4", "7", "4", "5", "6"], "time": [2459, 4965, 5902, 7020, 8056, 8441, 9694, 10670, 10878, 12898, 12998, 13048, 13884, 14818, 15254, 15352, 16342, 16457, 18376, 18559, 18692, 19697, 19762, 22817, 23621, 23839, 27082, 40986]}, "edge": {"target": [], "time": []}}}, "displayed_time": "37.70", "trialTime": 42531, "trial_type": "mouselab-mdp", "trial_index": 21, "time_elapsed": 1829529, "internal_node_id": "0.0-6.0-1.0-6.0"}}, {"uniqueid": "w21695759:a71090581", "current_trial": 22, "dateTime": 1693836557664, "trialdata": {"revealed_states": [], "clicked_states": ["23", "1", "12", "24", "2", "3", "8", "4", "6"], "num_clicks_accrued": [0, 0, 0, 0, 0, 0, 0, 0, 0, 0, 0, 0, 0], "stateRewards": ["", 2, 3, -3, 12, -43, 81, -82, -15, 58, -7, -75, -1, -1, 3, -5, 50, -25, -8, 4, 66, 65, -66, 2, -4, 2, -1, -10, 10, 37, 11, 88, -37, 8], "withholdReward": false, "trial_id": "mdp_trial_8", "block": "test", "trialIndex": 11, "score": 88.85, "costs": -6.15, "simulationMode": [null, null, null, null, null], "rewards": [2, 3, -3, 12, 81], "path": ["0", "0", "1", "2", "3", "4", "6"], "rt": [17771, 198, 136, 175, 351], "actions": ["up", "up", "up", "right", "right"], "actionTimes": [19686, 20396, 21032, 21722, 22569], "queries": {"click": {"state": {"target": ["23", "1", "12", "24", "2", "3", "8", "4", "6"], "time": [3179, 4154, 5142, 6377, 7453, 9319, 11225, 12351, 14476]}, "edge": {"target": [], "time": []}}, "mouseover": {"state": {"target": ["23", "1", "12", "0", "24", "2", "3", "8", "4", "6", "5"], "time": [2658, 3828, 4701, 5784, 6102, 7152, 8357, 10924, 11826, 14239, 15234]}, "edge": {"target": [], "time": []}}, "mouseout": {"state": {"target": ["14", "13", "12", "0", "23", "1", "12", "0", "23", "24", "2", "3", "8", "3", "4", "4", "6", "4", "5", "6", "15", "13"], "time": [753, 803, 936, 2591, 3663, 4515, 5748, 5868, 6019, 6767, 8103, 10891, 11526, 11726, 12795, 14097, 14749, 14968, 19190, 19942, 26038, 26105]}, "edge": {"target": [], "time": []}}}, "displayed_time": "23.08", "trialTime": 27336, "trial_type": "mouselab-mdp", "trial_index": 22, "time_elapsed": 1857606, "internal_node_id": "0.0-6.0-1.0-7.0"}}, {"uniqueid": "w21695759:a71090581", "current_trial": 23, "dateTime": 1693836589155, "trialdata": {"revealed_states": [], "clicked_states": ["23", "1", "12", "13", "14", "2", "3", "4", "6"], "num_clicks_accrued": [0, 0, 0, 0, 0, 0, 0, 0, 0, 0, 0, 0, 0], "stateRewards": ["", -1, 4, 3, 12, -27, 34, -33, 3, -63, 1, 6, 2, 2, -6, -11, -77, -85, 68, -6, 51, 81, -60, -2, -2, 1, 15, 20, 15, 68, -10, -14, 6, -4], "withholdReward": false, "trial_id": "mdp_trial_9", "block": "test", "trialIndex": 12, "score": 46.45, "costs": -5.55, "simulationMode": [null, null, null, null, null], "rewards": [-1, 4, 3, 12, 34], "path": ["0", "0", "1", "2", "3", "4", "6"], "rt": [17610, 138, 219, 108, 348], "actions": ["up", "up", "up", "right", "right"], "actionTimes": [19757, 20400, 21114, 21724, 22580], "queries": {"click": {"state": {"target": ["23", "1", "12", "13", "14", "2", "3", "4", "6"], "time": [3159, 4106, 4940, 6051, 7378, 10059, 11501, 13105, 14768]}, "edge": {"target": [], "time": []}}, "mouseover": {"state": {"target": ["23", "1", "12", "13", "14", "15", "18", "2", "3", "4", "6"], "time": [2824, 3777, 4611, 5730, 6849, 8702, 9520, 9754, 11290, 12543, 14163]}, "edge": {"target": [], "time": []}}, "mouseout": {"state": {"target": ["0", "23", "1", "12", "13", "14", "14", "15", "18", "2", "3", "4", "6", "16", "17", "14", "22"], "time": [2723, 3548, 4481, 5662, 6598, 7651, 8535, 9487, 9537, 11173, 12259, 14030, 21477, 21594, 28425, 28492, 28542]}, "edge": {"target": [], "time": []}}}, "displayed_time": "23.08", "trialTime": 30754, "trial_type": "mouselab-mdp", "trial_index": 23, "time_elapsed": 1889098, "internal_node_id": "0.0-6.0-1.0-8.0"}}, {"uniqueid": "w21695759:a71090581", "current_trial": 24, "dateTime": 1693836629546, "trialdata": {"revealed_states": [], "clicked_states": ["23", "1", "12", "13", "2", "24", "25", "26", "27", "29", "28"], "num_clicks_accrued": [0, 0, 0, 0, 0, 0, 0, 0, 0, 0, 0, 0, 0], "stateRewards": ["", -2, -3, 7, -13, 60, 9, 37, -6, 37, 20, 1, 2, -2, -8, 6, -80, -31, -10, -7, 70, -65, -44, -1, 1, 7, 6, -11, 73, -85, 16, -21, 47, 34], "withholdReward": false, "trial_id": "mdp_trial_10", "block": "test", "trialIndex": 13, "score": 76.75, "costs": -9.25, "simulationMode": [null, null, null, null, null], "rewards": [-1, 1, 7, 6, 73], "path": ["0", "0", "23", "24", "25", "26", "28"], "rt": [27965, 249, 295, 337, 355], "actions": ["left", "left", "left", "up", "right"], "actionTimes": [29793, 30549, 31346, 32190, 33044], "queries": {"click": {"state": {"target": ["23", "1", "12", "13", "2", "24", "25", "26", "27", "29", "28"], "time": [3404, 4896, 6490, 7936, 9458, 11085, 12834, 14388, 16318, 19788, 23288]}, "edge": {"target": [], "time": []}}, "mouseover": {"state": {"target": ["23", "1", "12", "13", "2", "24", "25", "26", "27", "26", "29", "26", "28", "25", "30", "31"], "time": [3043, 4246, 5531, 7702, 9205, 10775, 12112, 14032, 16018, 17773, 18591, 20178, 20361, 23769, 23985, 28527]}, "edge": {"target": [], "time": []}}, "mouseout": {"state": {"target": ["0", "23", "1", "12", "13", "2", "24", "25", "25", "26", "25", "25", "26", "27", "26", "26", "29", "26", "28", "25", "30", "31"], "time": [3010, 3760, 5365, 7585, 8972, 10458, 12062, 13364, 13864, 14866, 15701, 15836, 15919, 16703, 17088, 18106, 20127, 20245, 23635, 23885, 26907, 28578]}, "edge": {"target": [], "time": []}}}, "displayed_time": "33.54", "trialTime": 39701, "trial_type": "mouselab-mdp", "trial_index": 24, "time_elapsed": 1929489, "internal_node_id": "0.0-6.0-1.0-9.0"}}, {"uniqueid": "w21695759:a71090581", "current_trial": 25, "dateTime": 1693836667041, "trialdata": {"revealed_states": [], "clicked_states": ["28", "31", "22", "18"], "num_clicks_accrued": [0, 0, 0, 0, 0, 0, 0, 0, 0, 0, 0, 0, 0], "stateRewards": ["", 2, -1, 5, 8, 75, -35, -77, 1, -9, -81, -58, 1, 2, -7, 5, 77, -16, 19, 16, -10, -18, 40, -2, 3, 7, -5, 64, 1, -62, 10, 27, 10, 65], "withholdReward": false, "trial_id": "mdp_trial_11", "block": "test", "trialIndex": 14, "score": 43.4, "costs": -8.6, "simulationMode": [null, null, null, null, null], "rewards": [1, 2, -7, 16, 40], "path": ["0", "0", "12", "13", "14", "19", "22"], "rt": [21561, 208, 225, 211, 290], "actions": ["right", "right", "right", "down", "left"], "actionTimes": [25279, 25995, 26714, 27422, 28215], "queries": {"click": {"state": {"target": ["28", "31", "22", "18"], "time": [5980, 9418, 14366, 18785]}, "edge": {"target": [], "time": []}}, "mouseover": {"state": {"target": ["23", "24", "28", "24", "31", "22", "12", "18", "13"], "time": [5460, 5561, 5678, 6332, 6761, 14078, 15251, 15567, 22963]}, "edge": {"target": [], "time": []}}, "mouseout": {"state": {"target": ["0", "23", "24", "28", "24", "31", "22", "12", "18", "13"], "time": [5444, 5544, 5594, 6219, 6632, 9974, 14648, 15351, 22795, 31161]}, "edge": {"target": [], "time": []}}}, "displayed_time": "28.71", "trialTime": 36628, "trial_type": "mouselab-mdp", "trial_index": 25, "time_elapsed": 1966984, "internal_node_id": "0.0-6.0-1.0-10.0"}}, {"uniqueid": "w21695759:a71090581", "current_trial": 26, "dateTime": 1693836710971, "trialdata": {"revealed_states": [], "clicked_states": ["28", "31", "22", "18", "10", "7"], "num_clicks_accrued": [0, 0, 0, 0, 0, 0, 0, 0, 0, 0, 0, 0, 0], "stateRewards": ["", -1, -3, -6, 14, 41, 18, 63, -14, 80, 21, 17, -2, -4, -2, -5, 13, 70, 8, -4, -64, -10, -20, 2, -1, 4, -1, -17, -55, 42, -7, 47, 54, 15], "withholdReward": false, "trial_id": "mdp_trial_12", "block": "test", "trialIndex": 15, "score": 54.1, "costs": -12.9, "simulationMode": [null, null, null, null, null], "rewards": [-1, -3, -6, 14, 63], "path": ["0", "0", "1", "2", "3", "4", "7"], "rt": [24983, 140, 233, 131, 240], "actions": ["up", "up", "up", "right", "down"], "actionTimes": [28181, 28824, 29549, 30181, 30925], "queries": {"click": {"state": {"target": ["28", "31", "22", "18", "10", "7"], "time": [4990, 8436, 12047, 15640, 19334, 23428]}, "edge": {"target": [], "time": []}}, "mouseover": {"state": {"target": ["23", "28", "24", "31", "22", "13", "18", "2", "10", "2", "7", "1", "23", "31"], "time": [4346, 4564, 5566, 6250, 9908, 12480, 12597, 16521, 16755, 19978, 20379, 23819, 23936, 24220]}, "edge": {"target": [], "time": []}}, "mouseout": {"state": {"target": ["0", "23", "28", "24", "31", "22", "13", "18", "2", "10", "2", "7", "1", "23", "31"], "time": [4297, 4430, 5449, 5783, 9273, 12397, 12531, 16254, 16555, 19827, 20195, 23752, 23869, 24002, 27109]}, "edge": {"target": [], "time": []}}}, "displayed_time": "31.42", "trialTime": 43155, "trial_type": "mouselab-mdp", "trial_index": 26, "time_elapsed": 2010914, "internal_node_id": "0.0-6.0-1.0-11.0"}}, {"uniqueid": "w21695759:a71090581", "current_trial": 27, "dateTime": 1693836738017, "trialdata": {"revealed_states": [], "clicked_states": ["31", "32", "28"], "num_clicks_accrued": [0, 0, 0, 0, 0, 0, 0, 0, 0, 0, 0, 0, 0], "stateRewards": ["", 2, 4, -6, -13, -75, -81, 30, 7, 5, 59, -65, -1, -1, 7, 14, -38, 36, -41, 1, -54, -5, 64, 2, -1, 5, 6, -19, 79, 11, 16, -33, -50, 58], "withholdReward": false, "trial_id": "mdp_trial_13", "block": "test", "trialIndex": 16, "score": 84.55, "costs": -6.449999999999999, "simulationMode": [null, null, null, null, null], "rewards": [2, -1, 5, 6, 79], "path": ["0", "0", "23", "24", "25", "26", "28"], "rt": [14334, 208, 365, 237, 391], "actions": ["left", "left", "left", "up", "right"], "actionTimes": [16228, 16934, 17806, 18546, 19436], "queries": {"click": {"state": {"target": ["31", "32", "28"], "time": [3545, 6946, 10291]}, "edge": {"target": [], "time": []}}, "mouseover": {"state": {"target": ["31", "32", "24", "28", "27"], "time": [2990, 4425, 7738, 8071, 11712]}, "edge": {"target": [], "time": []}}, "mouseout": {"state": {"target": ["0", "31", "32", "31", "24", "28", "27", "28", "23", "0"], "time": [2789, 3959, 7439, 7653, 7855, 11329, 16322, 16456, 16555, 16636]}, "edge": {"target": [], "time": []}}}, "displayed_time": "19.95", "trialTime": 26275, "trial_type": "mouselab-mdp", "trial_index": 27, "time_elapsed": 2037959, "internal_node_id": "0.0-6.0-1.0-12.0"}}, {"uniqueid": "w21695759:a71090581", "current_trial": 28, "dateTime": 1693836768540, "trialdata": {"revealed_states": [], "clicked_states": ["31", "28", "18", "22"], "num_clicks_accrued": [0, 0, 0, 0, 0, 0, 0, 0, 0, 0, 0, 0, 0], "stateRewards": ["", -1, 2, 5, -6, 13, -64, -47, 8, -79, -80, -33, 1, 2, -2, -16, 56, -71, -10, 3, 29, 44, 85, -1, 4, 5, 4, -36, -56, 19, 8, 52, -13, -2], "withholdReward": false, "trial_id": "mdp_trial_14", "block": "test", "trialIndex": 17, "score": 80.4, "costs": -8.6, "simulationMode": [null, null, null, null, null], "rewards": [1, 2, -2, 3, 85], "path": ["0", "0", "12", "13", "14", "19", "22"], "rt": [20238, 236, 155, 233, 364], "actions": ["right", "right", "right", "down", "left"], "actionTimes": [22286, 23022, 23676, 24405, 25270], "queries": {"click": {"state": {"target": ["31", "28", "18", "22"], "time": [4123, 8076, 12505, 15873]}, "edge": {"target": [], "time": []}}, "mouseover": {"state": {"target": ["31", "28", "1", "18", "13", "22", "31", "21"], "time": [3794, 4847, 11827, 12245, 12898, 13014, 16587, 21563]}, "edge": {"target": [], "time": []}}, "mouseout": {"state": {"target": ["0", "31", "28", "1", "18", "13", "22", "31", "21"], "time": [3510, 4513, 11711, 11862, 12830, 12964, 16170, 21296, 21597]}, "edge": {"target": [], "time": []}}}, "displayed_time": "25.77", "trialTime": 29797, "trial_type": "mouselab-mdp", "trial_index": 28, "time_elapsed": 2068482, "internal_node_id": "0.0-6.0-1.0-13.0"}}, {"uniqueid": "w21695759:a71090581", "current_trial": 29, "dateTime": 1693836804104, "trialdata": {"revealed_states": [], "clicked_states": ["31", "28", "10", "7", "18", "22"], "num_clicks_accrued": [0, 0, 0, 0, 0, 0, 0, 0, 0, 0, 0, 0, 0], "stateRewards": ["", -2, -4, -2, 10, -8, -15, -47, 7, -84, 53, 5, -1, 2, -7, 3, 83, 31, 47, -1, 30, -8, 69, 2, -4, -1, 8, -7, 12, -8, -8, -13, 30, -84], "withholdReward": false, "trial_id": "mdp_trial_15", "block": "test", "trialIndex": 18, "score": 49.1, "costs": -12.9, "simulationMode": [null, null, null, null, null], "rewards": [-1, 2, -7, -1, 69], "path": ["0", "0", "12", "13", "14", "19", "22"], "rt": [25447, 145, 152, 196, 296], "actions": ["right", "right", "right", "down", "left"], "actionTimes": [28820, 29462, 30123, 30814, 31615], "queries": {"click": {"state": {"target": ["31", "28", "10", "7", "18", "22"], "time": [5418, 8926, 12840, 16692, 20412, 24420]}, "edge": {"target": [], "time": []}}, "mouseover": {"state": {"target": ["31", "28", "10", "2", "7", "18", "13", "22", "0", "10", "1"], "time": [5181, 6067, 12462, 13431, 13833, 20143, 20896, 21298, 25289, 25772, 28243]}, "edge": {"target": [], "time": []}}, "mouseout": {"state": {"target": ["0", "31", "28", "10", "2", "7", "18", "13", "22", "0", "10", "1"], "time": [4746, 5437, 12061, 13315, 13651, 19977, 20778, 21163, 24988, 25319, 28109, 28259]}, "edge": {"target": [], "time": []}}}, "displayed_time": "32.13", "trialTime": 34901, "trial_type": "mouselab-mdp", "trial_index": 29, "time_elapsed": 2104047, "internal_node_id": "0.0-6.0-1.0-14.0"}}, {"uniqueid": "w21695759:a71090581", "current_trial": 30, "dateTime": 1693836839093, "trialdata": {"revealed_states": [], "clicked_states": ["31", "28", "10", "7", "18", "22"], "num_clicks_accrued": [0, 0, 0, 0, 0, 0, 0, 0, 0, 0, 0, 0, 0], "stateRewards": ["", 1, -4, -4, 8, 1, -79, 68, -10, -79, 8, -74, -1, -3, -6, 14, 43, 23, 9, 5, -51, 63, 61, -2, 4, 6, -10, 69, -32, 57, 15, -80, -80, -77], "withholdReward": false, "trial_id": "mdp_trial_16", "block": "test", "trialIndex": 19, "score": 56.1, "costs": -12.9, "simulationMode": [null, null, null, null, null], "rewards": [1, -4, -4, 8, 68], "path": ["0", "0", "1", "2", "3", "4", "7"], "rt": [24190, 344, 796, 779, 271], "actions": ["up", "up", "up", "right", "down"], "actionTimes": [26600, 27449, 28752, 30037, 30817], "queries": {"click": {"state": {"target": ["31", "28", "10", "7", "18", "22"], "time": [4051, 7816, 11617, 15074, 18856, 22208]}, "edge": {"target": [], "time": []}}, "mouseover": {"state": {"target": ["23", "31", "23", "28", "10", "2", "7", "18", "13", "22"], "time": [3504, 3671, 4592, 4824, 11336, 12073, 12456, 16983, 19331, 19721]}, "edge": {"target": [], "time": []}}, "mouseout": {"state": {"target": ["19", "22", "0", "0", "23", "31", "23", "28", "10", "2", "7", "18", "13", "22"], "time": [816, 881, 1165, 3421, 3554, 4424, 4657, 11103, 11922, 12274, 15579, 19237, 19554, 25365]}, "edge": {"target": [], "time": []}}}, "displayed_time": "31.31", "trialTime": 34263, "trial_type": "mouselab-mdp", "trial_index": 30, "time_elapsed": 2139036, "internal_node_id": "0.0-6.0-1.0-15.0"}}, {"uniqueid": "w21695759:a71090581", "current_trial": 31, "dateTime": 1693836886700, "trialdata": {"revealed_states": [], "clicked_states": ["31", "28", "10", "7", "18", "22", "16", "21"], "num_clicks_accrued": [0, 0, 0, 0, 0, 0, 0, 0, 0, 0, 0, 0, 0], "stateRewards": ["", 1, 1, 6, -14, -40, 37, 16, -13, 33, -68, 49, 2, 4, 3, 6, 55, 27, 32, 10, -65, 20, -87, 2, 1, -6, -5, -42, 12, 29, -8, 16, 76, -33], "withholdReward": false, "trial_id": "mdp_trial_17", "block": "test", "trialIndex": 20, "score": 52.8, "costs": -17.2, "simulationMode": [null, null, null, null, null], "rewards": [2, 4, 3, 6, 55], "path": ["0", "0", "12", "13", "14", "15", "16"], "rt": [34205, 92, 658, 208, 291], "actions": ["right", "right", "right", "up", "up"], "actionTimes": [39791, 40380, 41545, 42248, 43030], "queries": {"click": {"state": {"target": ["31", "28", "10", "7", "18", "22", "16", "21"], "time": [7402, 10878, 14176, 17583, 21214, 24941, 30667, 34893]}, "edge": {"target": [], "time": []}}, "mouseover": {"state": {"target": ["31", "24", "28", "10", "2", "7", "18", "13", "22", "13", "13", "21", "19", "14", "15", "16", "16", "15", "21"], "time": [6564, 8209, 8340, 11397, 14607, 14858, 18992, 21883, 22520, 25892, 28492, 28726, 30079, 30145, 30195, 30329, 30490, 30976, 31285]}, "edge": {"target": [], "time": []}}, "mouseout": {"state": {"target": ["0", "0", "31", "24", "28", "10", "2", "7", "18", "13", "22", "13", "18", "13", "21", "19", "14", "15", "16", "16", "15", "21", "21"], "time": [4560, 6053, 8108, 8272, 11247, 14553, 14771, 18562, 21752, 22200, 25823, 25960, 28458, 28542, 30061, 30129, 30169, 30279, 30396, 30955, 31017, 35442, 39113]}, "edge": {"target": [], "time": []}}}, "displayed_time": "43.52", "trialTime": 46938, "trial_type": "mouselab-mdp", "trial_index": 31, "time_elapsed": 2186642, "internal_node_id": "0.0-6.0-1.0-16.0"}}, {"uniqueid": "w21695759:a71090581", "current_trial": 32, "dateTime": 1693836907110, "trialdata": {"revealed_states": [], "clicked_states": ["31"], "num_clicks_accrued": [0, 0, 0, 0, 0, 0, 0, 0, 0, 0, 0, 0, 0], "stateRewards": ["", -1, -4, 8, 8, -68, 47, 24, -7, -61, 49, -69, -1, -1, 8, -7, 42, 1, -45, -11, 10, -63, -6, 1, 4, 6, -16, 79, -37, -58, -12, 81, 18, -53], "withholdReward": false, "trial_id": "mdp_trial_18", "block": "test", "trialIndex": 21, "score": 77.85, "costs": -2.15, "simulationMode": [null, null, null, null, null], "rewards": [1, 4, 6, -12, 81], "path": ["0", "0", "23", "24", "25", "30", "31"], "rt": [7295, 150, 351, 155, 436], "actions": ["left", "left", "left", "down", "right"], "actionTimes": [9241, 9897, 10751, 11406, 12356], "queries": {"click": {"state": {"target": ["31"], "time": [3320]}, "edge": {"target": [], "time": []}}, "mouseover": {"state": {"target": ["23", "31", "24", "28", "24"], "time": [2843, 3026, 3866, 4182, 7886]}, "edge": {"target": [], "time": []}}, "mouseout": {"state": {"target": ["0", "23", "31", "24", "28", "24"], "time": [2726, 2942, 3790, 3886, 7869, 7909]}, "edge": {"target": [], "time": []}}}, "displayed_time": "15.95", "trialTime": 19737, "trial_type": "mouselab-mdp", "trial_index": 32, "time_elapsed": 2207052, "internal_node_id": "0.0-6.0-1.0-17.0"}}, {"uniqueid": "w21695759:a71090581", "current_trial": 33, "dateTime": 1693836948634, "trialdata": {"revealed_states": [], "clicked_states": ["31", "28", "18", "22", "10", "7", "16", "21"], "num_clicks_accrued": [0, 0, 0, 0, 0, 0, 0, 0, 0, 0, 0, 0, 0], "stateRewards": ["", 2, 1, -3, 7, 46, 11, -36, 16, 71, 5, 1, 2, -2, -8, -3, -4, 6, 55, 7, 68, -54, 2, 1, 1, 6, -6, 42, -4, -84, -11, -65, 63, 25], "withholdReward": false, "trial_id": "mdp_trial_19", "block": "test", "trialIndex": 22, "score": 26.8, "costs": -17.2, "simulationMode": [null, null, null, null, null], "rewards": [2, -2, -8, -3, 55], "path": ["0", "0", "12", "13", "14", "15", "18"], "rt": [33182, 136, 255, 184, 169], "actions": ["right", "right", "right", "up", "left"], "actionTimes": [34874, 35513, 36263, 36967, 37656], "queries": {"click": {"state": {"target": ["31", "28", "18", "22", "10", "7", "16", "21"], "time": [3358, 6755, 10067, 13780, 17248, 20716, 25645, 30521]}, "edge": {"target": [], "time": []}}, "mouseover": {"state": {"target": ["31", "23", "28", "1", "18", "13", "22", "0", "10", "2", "7", "18", "16", "15", "14", "14", "22", "21", "19", "14", "18"], "time": [3039, 5295, 5865, 7251, 7468, 10574, 10925, 14450, 14709, 17722, 17938, 21511, 24934, 29176, 29426, 29877, 30127, 30344, 30947, 31064, 31285]}, "edge": {"target": [], "time": []}}, "mouseout": {"state": {"target": ["0", "31", "23", "28", "1", "18", "13", "22", "0", "10", "2", "7", "18", "16", "15", "14", "14", "22", "21", "19", "14", "18", "12"], "time": [1712, 4368, 5380, 7116, 7299, 10424, 10741, 14348, 14498, 17656, 17854, 21261, 24599, 29041, 29309, 29643, 29960, 30177, 30897, 31032, 31082, 37276, 39429]}, "edge": {"target": [], "time": []}}}, "displayed_time": "38.16", "trialTime": 40650, "trial_type": "mouselab-mdp", "trial_index": 33, "time_elapsed": 2248576, "internal_node_id": "0.0-6.0-1.0-18.0"}}, {"uniqueid": "w21695759:a71090581", "current_trial": 34, "dateTime": 1693836985093, "trialdata": {"revealed_states": [], "clicked_states": ["31", "28", "10", "7", "18", "22", "29"], "num_clicks_accrued": [0, 0, 0, 0, 0, 0, 0, 0, 0, 0, 0, 0, 0], "stateRewards": ["", -1, -3, -6, -2, -7, 80, -45, -3, -38, -72, 76, 2, 1, 7, 4, -62, 14, -74, 14, -87, -21, -88, -2, 1, -7, -10, 66, 56, -76, 10, -29, -72, -70], "withholdReward": false, "trial_id": "mdp_trial_20", "block": "test", "trialIndex": 23, "score": 22.950000000000003, "costs": -15.05, "simulationMode": [null, null, null, null, null], "rewards": [-2, 1, -7, -10, 56], "path": ["0", "0", "23", "24", "25", "26", "28"], "rt": [28740, 187, 172, 215, 267], "actions": ["left", "left", "left", "up", "right"], "actionTimes": [30367, 31072, 31742, 32453, 33222], "queries": {"click": {"state": {"target": ["31", "28", "10", "7", "18", "22", "29"], "time": [2914, 6407, 10156, 13788, 17252, 20648, 25999]}, "edge": {"target": [], "time": []}}, "mouseover": {"state": {"target": ["31", "28", "1", "18", "18", "2", "10", "2", "2", "7", "18", "13", "22", "23", "24", "26", "29", "33", "30", "31"], "time": [2690, 3677, 7068, 7240, 7669, 8253, 8470, 10876, 10946, 11159, 14432, 17889, 18373, 24667, 25151, 25402, 25536, 27259, 29944, 29994]}, "edge": {"target": [], "time": []}}, "mouseout": {"state": {"target": ["0", "31", "28", "1", "18", "18", "2", "10", "2", "2", "7", "18", "13", "22", "23", "24", "26", "29", "33", "30", "31"], "time": [1644, 3461, 6933, 7101, 7401, 7986, 8270, 10808, 10893, 11010, 14183, 17760, 18090, 21178, 24750, 25285, 25485, 26432, 29911, 29978, 30062]}, "edge": {"target": [], "time": []}}}, "displayed_time": "33.72", "trialTime": 35744, "trial_type": "mouselab-mdp", "trial_index": 34, "time_elapsed": 2285035, "internal_node_id": "0.0-6.0-1.0-19.0"}}, {"uniqueid": "w21695759:a71090581", "current_trial": 35, "dateTime": 1693837042171, "trialdata": {"revealed_states": [], "clicked_states": ["31", "28", "18", "22", "10", "7", "11", "6", "17", "20", "33", "29"], "num_clicks_accrued": [0, 0, 0, 0, 0, 0, 0, 0, 0, 0, 0, 0, 0], "stateRewards": ["", -1, 1, 8, -3, -24, 11, -65, -6, -77, 48, 44, -2, 1, -2, -7, -55, -35, 33, 8, -28, 19, -53, -1, -1, -5, -5, -70, 10, 44, 8, -58, -70, 51], "withholdReward": false, "trial_id": "mdp_trial_21", "block": "test", "trialIndex": 24, "score": 26.200000000000003, "costs": -25.799999999999994, "simulationMode": [null, null, null, null, null], "rewards": [-1, -1, -5, 8, 51], "path": ["0", "0", "23", "24", "25", "30", "33"], "rt": [48218, 246, 145, 117, 285], "actions": ["left", "left", "left", "down", "left"], "actionTimes": [50772, 51521, 52171, 52796, 53579], "queries": {"click": {"state": {"target": ["31", "28", "18", "22", "10", "7", "11", "6", "17", "20", "33", "29"], "time": [4276, 7837, 11174, 14721, 18370, 21947, 26472, 30399, 33907, 37495, 41409, 46263]}, "edge": {"target": [], "time": []}}, "mouseover": {"state": {"target": ["31", "24", "28", "18", "13", "22", "13", "2", "10", "2", "7", "2", "10", "11", "8", "3", "4", "6", "17", "17", "20", "21", "32", "33", "29", "33"], "time": [3873, 6814, 6899, 9272, 11642, 12059, 16902, 17103, 17303, 18722, 19055, 25366, 25600, 26134, 26838, 26905, 26973, 27106, 31464, 31815, 35255, 38060, 38796, 41031, 41937, 47915]}, "edge": {"target": [], "time": []}}, "mouseout": {"state": {"target": ["0", "31", "31", "24", "28", "18", "13", "22", "13", "2", "10", "2", "7", "2", "10", "11", "8", "3", "4", "6", "17", "17", "20", "21", "32", "33", "29", "33", "30"], "time": [2572, 4728, 6748, 6864, 8418, 11540, 11843, 16836, 16935, 17169, 18671, 18821, 25265, 25550, 25750, 26806, 26872, 26955, 27022, 30796, 31681, 34570, 37894, 38095, 39397, 41681, 46812, 51774, 51855]}, "edge": {"target": [], "time": []}}}, "displayed_time": "54.08", "trialTime": 56231, "trial_type": "mouselab-mdp", "trial_index": 35, "time_elapsed": 2342114, "internal_node_id": "0.0-6.0-1.0-20.0"}}, {"uniqueid": "w21695759:a71090581", "current_trial": 36, "dateTime": 1693837073793, "trialdata": {"revealed_states": [], "clicked_states": ["31", "22", "18", "28"], "num_clicks_accrued": [0, 0, 0, 0, 0, 0, 0, 0, 0, 0, 0, 0, 0], "stateRewards": ["", 1, 2, 2, -15, -84, 28, -26, 13, 31, 86, 30, -2, 1, -1, -8, 66, -40, -1, -10, -32, 57, -17, 1, 2, -2, 9, -23, 77, 85, 12, -32, -62, -35], "withholdReward": false, "trial_id": "mdp_trial_22", "block": "test", "trialIndex": 25, "score": 78.4, "costs": -8.6, "simulationMode": [null, null, null, null, null], "rewards": [1, 2, -2, 9, 77], "path": ["0", "0", "23", "24", "25", "26", "28"], "rt": [16535, 76, 351, 134, 513], "actions": ["left", "left", "left", "up", "right"], "actionTimes": [19193, 19778, 20632, 21268, 22278], "queries": {"click": {"state": {"target": ["31", "22", "18", "28"], "time": [4399, 7845, 11140, 14508]}, "edge": {"target": [], "time": []}}, "mouseover": {"state": {"target": ["31", "22", "13", "18", "1", "28", "10", "15", "17"], "time": [4193, 5853, 8426, 8581, 11715, 12268, 16437, 18706, 18772]}, "edge": {"target": [], "time": []}}, "mouseout": {"state": {"target": ["0", "31", "22", "13", "18", "1", "28", "10", "15", "17", "20", "21"], "time": [4060, 4854, 8376, 8511, 11498, 11918, 15787, 18539, 18739, 18806, 28625, 28809]}, "edge": {"target": [], "time": []}}}, "displayed_time": "22.79", "trialTime": 30941, "trial_type": "mouselab-mdp", "trial_index": 36, "time_elapsed": 2373735, "internal_node_id": "0.0-6.0-1.0-21.0"}}, {"uniqueid": "w21695759:a71090581", "current_trial": 37, "dateTime": 1693837121801, "trialdata": {"revealed_states": [], "clicked_states": ["31", "28", "18", "22", "10", "7", "32", "21", "20", "33"], "num_clicks_accrued": [0, 0, 0, 0, 0, 0, 0, 0, 0, 0, 0, 0, 0], "stateRewards": ["", 1, -3, -2, 14, 49, -40, -39, 2, 26, -61, 73, 1, -4, -8, 12, 79, 29, -65, -13, 55, -26, 27, -1, 3, 3, 9, -17, -60, -18, -8, 35, -88, 69], "withholdReward": false, "trial_id": "mdp_trial_23", "block": "test", "trialIndex": 26, "score": 44.5, "costs": -21.499999999999996, "simulationMode": [null, null, null, null, null], "rewards": [-1, 3, 3, -8, 69], "path": ["0", "0", "23", "24", "25", "30", "33"], "rt": [40273, 162, 59, 125, 282], "actions": ["left", "left", "left", "down", "left"], "actionTimes": [41781, 42441, 43007, 43639, 44433], "queries": {"click": {"state": {"target": ["31", "28", "18", "22", "10", "7", "32", "21", "20", "33"], "time": [3264, 7218, 10678, 14053, 17914, 21297, 25304, 29115, 32819, 37382]}, "edge": {"target": [], "time": []}}, "mouseover": {"state": {"target": ["31", "24", "28", "1", "18", "13", "22", "0", "10", "2", "7", "2", "24", "31", "32", "21", "20", "30", "33", "30", "31", "22", "19", "20"], "time": [2727, 3930, 4063, 7826, 8040, 11129, 11598, 14537, 14871, 18461, 18795, 22019, 23673, 24008, 25039, 26345, 32220, 33676, 34078, 38177, 38225, 38386, 38455, 41254]}, "edge": {"target": [], "time": []}}, "mouseout": {"state": {"target": ["0", "31", "24", "28", "1", "18", "13", "22", "0", "10", "2", "7", "2", "24", "31", "32", "21", "20", "30", "33", "30", "31", "22", "19", "20", "20"], "time": [1642, 3846, 3997, 7707, 7889, 11030, 11363, 14419, 14588, 18361, 18578, 21836, 22804, 23823, 24314, 25660, 31187, 33158, 33727, 38121, 38201, 38241, 38437, 38486, 38536, 41438]}, "edge": {"target": [], "time": []}}}, "displayed_time": "44.94", "trialTime": 47373, "trial_type": "mouselab-mdp", "trial_index": 37, "time_elapsed": 2421743, "internal_node_id": "0.0-6.0-1.0-22.0"}}, {"uniqueid": "w21695759:a71090581", "current_trial": 38, "dateTime": 1693837155432, "trialdata": {"revealed_states": [], "clicked_states": ["31", "28", "18", "22"], "num_clicks_accrued": [0, 0, 0, 0, 0, 0, 0, 0, 0, 0, 0, 0, 0], "stateRewards": ["", -1, 3, 2, 9, 41, 4, -46, -12, -54, -87, -25, 2, 3, -1, 11, -77, 12, -33, -9, -32, 35, 72, 1, 3, -7, 4, 37, 65, -73, 6, 77, -43, 8], "withholdReward": false, "trial_id": "mdp_trial_24", "block": "test", "trialIndex": 27, "score": 71.4, "costs": -8.6, "simulationMode": [null, null, null, null, null], "rewards": [1, 3, -7, 6, 77], "path": ["0", "0", "23", "24", "25", "30", "31"], "rt": [20634, 101, 272, 132, 600], "actions": ["left", "left", "left", "down", "right"], "actionTimes": [22963, 23598, 24377, 25007, 26107], "queries": {"click": {"state": {"target": ["31", "28", "18", "22"], "time": [3984, 7570, 12343, 15787]}, "edge": {"target": [], "time": []}}, "mouseover": {"state": {"target": ["31", "24", "28", "1", "18", "13", "22", "12", "1", "10", "31", "24", "10", "1", "12", "22", "19"], "time": [3257, 4496, 4630, 11256, 11574, 12366, 12590, 20224, 20324, 20474, 20909, 21226, 21576, 22562, 22696, 22845, 22929]}, "edge": {"target": [], "time": []}}, "mouseout": {"state": {"target": ["0", "31", "24", "28", "1", "18", "13", "22", "12", "1", "10", "31", "24", "10", "1", "12", "22", "19"], "time": [3124, 4413, 4580, 11173, 11289, 12363, 12430, 18972, 20274, 20374, 20558, 21176, 21260, 22478, 22595, 22762, 22862, 23063]}, "edge": {"target": [], "time": []}}}, "displayed_time": "26.61", "trialTime": 32903, "trial_type": "mouselab-mdp", "trial_index": 38, "time_elapsed": 2455374, "internal_node_id": "0.0-6.0-1.0-23.0"}}, {"uniqueid": "w21695759:a71090581", "current_trial": 39, "dateTime": 1693837184870, "trialdata": {"revealed_states": [], "clicked_states": ["31", "22", "18", "28", "32"], "num_clicks_accrued": [0, 0, 0, 0, 0, 0, 0, 0, 0, 0, 0, 0, 0], "stateRewards": ["", -2, 2, 5, -14, -56, 64, 84, -5, 52, 39, 85, -2, 1, 7, 8, 21, 29, -78, -9, -10, -69, 10, -2, -1, -7, 15, 72, 20, 41, -2, 52, 80, 22], "withholdReward": false, "trial_id": "mdp_trial_25", "block": "test", "trialIndex": 28, "score": 57.25, "costs": -10.75, "simulationMode": [null, null, null, null, null], "rewards": [-2, -1, -7, -2, 80], "path": ["0", "0", "23", "24", "25", "30", "32"], "rt": [20659, 188, 121, 313, 304], "actions": ["left", "left", "left", "down", "down"], "actionTimes": [22793, 23489, 24107, 24918, 25726], "queries": {"click": {"state": {"target": ["31", "22", "18", "28", "32"], "time": [3336, 6773, 10085, 13484, 17851]}, "edge": {"target": [], "time": []}}, "mouseover": {"state": {"target": ["31", "22", "22", "13", "18", "1", "28", "24", "30", "32", "21"], "time": [3121, 4328, 4665, 7340, 7472, 10558, 10974, 17299, 17400, 17533, 19475]}, "edge": {"target": [], "time": []}}, "mouseout": {"state": {"target": ["0", "0", "31", "22", "22", "13", "18", "18", "1", "28", "24", "30", "32", "21"], "time": [932, 2921, 3830, 4401, 7254, 7411, 10207, 10440, 10590, 17249, 17333, 17483, 18255, 21808]}, "edge": {"target": [], "time": []}}}, "displayed_time": "26.22", "trialTime": 28606, "trial_type": "mouselab-mdp", "trial_index": 39, "time_elapsed": 2484813, "internal_node_id": "0.0-6.0-1.0-24.0"}}, {"uniqueid": "w21695759:a71090581", "current_trial": 40, "dateTime": 1693837218786, "trialdata": {"revealed_states": [], "clicked_states": ["31", "22", "18", "28", "10", "7"], "num_clicks_accrued": [0, 0, 0, 0, 0, 0, 0, 0, 0, 0, 0, 0, 0], "stateRewards": ["", -1, 1, 6, -6, 70, 66, 67, -16, -75, -35, 37, -1, 4, 4, -6, 47, -9, 63, 15, 21, -63, 13, 1, 3, -6, 10, 79, -29, 18, -15, 9, -67, -19], "withholdReward": false, "trial_id": "mdp_trial_26", "block": "test", "trialIndex": 29, "score": 54.1, "costs": -12.9, "simulationMode": [null, null, null, null, null], "rewards": [-1, 1, 6, -6, 67], "path": ["0", "0", "1", "2", "3", "4", "7"], "rt": [24599, 192, 378, 157, 244], "actions": ["up", "up", "up", "right", "down"], "actionTimes": [26223, 26922, 27805, 28470, 29224], "queries": {"click": {"state": {"target": ["31", "22", "18", "28", "10", "7"], "time": [3782, 7204, 10562, 14250, 17672, 21024]}, "edge": {"target": [], "time": []}}, "mouseover": {"state": {"target": ["13", "31", "22", "13", "18", "1", "28", "10", "2", "7"], "time": [2958, 3374, 5666, 7654, 7960, 11094, 11227, 14969, 18175, 18543]}, "edge": {"target": [], "time": []}}, "mouseout": {"state": {"target": ["0", "13", "31", "22", "13", "18", "1", "28", "10", "2", "7", "18", "12"], "time": [1101, 2990, 4162, 7570, 7768, 11009, 11113, 14367, 18124, 18275, 27589, 30796, 30896]}, "edge": {"target": [], "time": []}}}, "displayed_time": "29.73", "trialTime": 33199, "trial_type": "mouselab-mdp", "trial_index": 40, "time_elapsed": 2518729, "internal_node_id": "0.0-6.0-1.0-25.0"}}, {"uniqueid": "w21695759:a71090581", "current_trial": 41, "dateTime": 1693837250135, "trialdata": {"revealed_states": [], "clicked_states": ["31", "28", "18", "22", "10", "7"], "num_clicks_accrued": [0, 0, 0, 0, 0, 0, 0, 0, 0, 0, 0, 0, 0], "stateRewards": ["", 2, 2, 3, -15, 23, -14, 73, -7, -32, -20, -6, 1, 1, -5, -12, 73, 6, -84, 11, -81, -57, 13, -2, -1, -4, -8, -52, -58, 49, 13, 5, -41, -41], "withholdReward": false, "trial_id": "mdp_trial_27", "block": "test", "trialIndex": 30, "score": 52.1, "costs": -12.9, "simulationMode": [null, null, null, null, null], "rewards": [2, 2, 3, -15, 73], "path": ["0", "0", "1", "2", "3", "4", "7"], "rt": [23148, 83, 304, 50, 214], "actions": ["up", "up", "up", "right", "down"], "actionTimes": [25030, 25618, 26437, 26988, 27718], "queries": {"click": {"state": {"target": ["31", "28", "18", "22", "10", "7"], "time": [3235, 6578, 9781, 13054, 17444, 20927]}, "edge": {"target": [], "time": []}}, "mouseover": {"state": {"target": ["31", "24", "28", "1", "18", "13", "22", "0", "1", "10", "2", "7"], "time": [2997, 3769, 3950, 7051, 7301, 10372, 10599, 17026, 17092, 17193, 17790, 18170]}, "edge": {"target": [], "time": []}}, "mouseout": {"state": {"target": ["0", "31", "24", "28", "1", "18", "13", "22", "0", "1", "10", "2", "7", "17", "20"], "time": [2781, 3657, 3877, 6933, 7098, 10238, 10473, 16943, 17060, 17126, 17738, 17886, 25314, 25643, 29551]}, "edge": {"target": [], "time": []}}}, "displayed_time": "28.22", "trialTime": 30604, "trial_type": "mouselab-mdp", "trial_index": 41, "time_elapsed": 2550077, "internal_node_id": "0.0-6.0-1.0-26.0"}}, {"uniqueid": "w21695759:a71090581", "current_trial": 42, "dateTime": 1693837295459, "trialdata": {"revealed_states": [], "clicked_states": ["31", "28", "18", "22", "10", "7", "6", "11", "29"], "num_clicks_accrued": [0, 0, 0, 0, 0, 0, 0, 0, 0, 0, 0, 0, 0], "stateRewards": ["", 2, -1, 4, -9, -43, 7, 54, -13, 38, -40, -83, -1, 2, -8, -10, 34, -33, 11, -14, -79, 65, 26, 1, 2, 4, 10, 21, 1, 86, 4, -53, 28, -29], "withholdReward": false, "trial_id": "mdp_trial_28", "block": "test", "trialIndex": 31, "score": 83.65, "costs": -19.349999999999998, "simulationMode": [null, null, null, null, null], "rewards": [1, 2, 4, 10, 86], "path": ["0", "0", "23", "24", "25", "26", "29"], "rt": [35057, 145, 57, 135, 276], "actions": ["left", "left", "left", "up", "left"], "actionTimes": [36663, 37312, 37888, 38535, 39311], "queries": {"click": {"state": {"target": ["31", "28", "18", "22", "10", "7", "6", "11", "29"], "time": [2813, 6134, 9383, 12556, 16441, 19805, 24603, 28041, 32509]}, "edge": {"target": [], "time": []}}, "mouseover": {"state": {"target": ["22", "19", "22", "31", "22", "23", "28", "1", "18", "18", "13", "22", "0", "10", "2", "7", "13", "13", "6", "8", "11", "29", "33"], "time": [1819, 1887, 2304, 2589, 4414, 5148, 5299, 6535, 6668, 7050, 9908, 10308, 15982, 16182, 16764, 17038, 20914, 21364, 24299, 25690, 26089, 32247, 34106]}, "edge": {"target": [], "time": []}}, "mouseout": {"state": {"target": ["21", "22", "0", "22", "19", "22", "31", "22", "23", "28", "1", "18", "18", "13", "22", "0", "10", "2", "7", "13", "13", "7", "6", "8", "11", "29", "33", "30", "31", "21"], "time": [650, 717, 1624, 1853, 2270, 2337, 3177, 4981, 5216, 6444, 6600, 6767, 9808, 10075, 15747, 16015, 16744, 16822, 20730, 20933, 21397, 24165, 24912, 25761, 28763, 32904, 37046, 37145, 37191, 37409]}, "edge": {"target": [], "time": []}}}, "displayed_time": "39.82", "trialTime": 44524, "trial_type": "mouselab-mdp", "trial_index": 42, "time_elapsed": 2595402, "internal_node_id": "0.0-6.0-1.0-27.0"}}, {"uniqueid": "w21695759:a71090581", "current_trial": 43, "dateTime": 1693837314511, "trialdata": {"revealed_states": [], "clicked_states": ["31"], "num_clicks_accrued": [0, 0, 0, 0, 0, 0, 0, 0, 0, 0, 0, 0, 0], "stateRewards": ["", 2, 3, -2, -8, -8, -41, 74, 15, -23, -80, 1, 1, 3, 3, -15, -63, -78, 67, 13, 75, -41, 86, 2, -2, 6, -3, -8, -49, 50, -6, 83, 74, 80], "withholdReward": false, "trial_id": "mdp_trial_29", "block": "test", "trialIndex": 32, "score": 80.85, "costs": -2.15, "simulationMode": [null, null, null, null, null], "rewards": [2, -2, 6, -6, 83], "path": ["0", "0", "23", "24", "25", "30", "31"], "rt": [5309, 351, 139, 147, 309], "actions": ["left", "left", "left", "down", "right"], "actionTimes": [7074, 7923, 8560, 9203, 10018], "queries": {"click": {"state": {"target": ["31"], "time": [2797]}, "edge": {"target": [], "time": []}}, "mouseover": {"state": {"target": ["31", "24", "28"], "time": [2604, 3208, 3342]}, "edge": {"target": [], "time": []}}, "mouseout": {"state": {"target": ["0", "31", "24", "28", "24"], "time": [1786, 3152, 3296, 16898, 16964]}, "edge": {"target": [], "time": []}}}, "displayed_time": "15.77", "trialTime": 18316, "trial_type": "mouselab-mdp", "trial_index": 43, "time_elapsed": 2614453, "internal_node_id": "0.0-6.0-1.0-28.0"}}, {"uniqueid": "w21695759:a71090581", "current_trial": 44, "dateTime": 1693837333387, "trialdata": {"revealed_states": [], "clicked_states": ["31", "28"], "num_clicks_accrued": [0, 0, 0, 0, 0, 0, 0, 0, 0, 0, 0, 0, 0], "stateRewards": ["", -1, -3, 3, 5, 56, 39, 50, -1, -80, 33, -46, 1, -2, -6, -8, 87, 48, 54, -11, -20, -64, -54, -2, 3, -7, -3, 12, 88, 35, -16, -46, -70, -3], "withholdReward": false, "trial_id": "mdp_trial_30", "block": "test", "trialIndex": 33, "score": 74.7, "costs": -4.3, "simulationMode": [null, null, null, null, null], "rewards": [-2, 3, -7, -3, 88], "path": ["0", "0", "23", "24", "25", "26", "28"], "rt": [9781, 189, 162, 247, 397], "actions": ["left", "left", "left", "up", "right"], "actionTimes": [11325, 12021, 12693, 13447, 14351], "queries": {"click": {"state": {"target": ["31", "28"], "time": [3512, 6909]}, "edge": {"target": [], "time": []}}, "mouseover": {"state": {"target": ["31", "24", "28", "1", "18"], "time": [2621, 3896, 4113, 7403, 7569]}, "edge": {"target": [], "time": []}}, "mouseout": {"state": {"target": ["0", "31", "24", "28", "1", "18", "12"], "time": [2321, 3796, 3996, 7269, 7436, 16616, 16782]}, "edge": {"target": [], "time": []}}}, "displayed_time": "15.55", "trialTime": 18023, "trial_type": "mouselab-mdp", "trial_index": 44, "time_elapsed": 2633330, "internal_node_id": "0.0-6.0-1.0-29.0"}}, {"uniqueid": "w21695759:a71090581", "current_trial": 45, "dateTime": 1693837356835, "trialdata": {"revealed_states": [], "clicked_states": ["31", "28", "18", "22"], "num_clicks_accrued": [0, 0, 0, 0, 0, 0, 0, 0, 0, 0, 0, 0, 0], "stateRewards": ["", 1, 1, 5, 6, -29, -7, 3, -16, 9, -46, 65, -1, 4, -1, -16, -63, -77, -87, 8, 80, -50, 43, -1, -1, -5, 5, -38, -71, -62, 9, 81, -50, -52], "withholdReward": false, "trial_id": "mdp_trial_31", "block": "test", "trialIndex": 34, "score": 74.4, "costs": -8.6, "simulationMode": [null, null, null, null, null], "rewards": [-1, -1, -5, 9, 81], "path": ["0", "0", "23", "24", "25", "30", "31"], "rt": [15496, 156, 192, 129, 295], "actions": ["left", "left", "left", "down", "right"], "actionTimes": [17406, 18066, 18771, 19407, 20208], "queries": {"click": {"state": {"target": ["31", "28", "18", "22"], "time": [3546, 7303, 10468, 13716]}, "edge": {"target": [], "time": []}}, "mouseover": {"state": {"target": ["0", "31", "24", "28", "1", "18", "13", "22", "31"], "time": [1943, 2888, 4262, 4412, 8254, 8488, 10910, 11283, 14717]}, "edge": {"target": [], "time": []}}, "mouseout": {"state": {"target": ["0", "0", "31", "24", "28", "28", "1", "18", "13", "22", "31"], "time": [1203, 2688, 4196, 4347, 7820, 8142, 8306, 10827, 11093, 14115, 17612]}, "edge": {"target": [], "time": []}}}, "displayed_time": "20.72", "trialTime": 22683, "trial_type": "mouselab-mdp", "trial_index": 45, "time_elapsed": 2656778, "internal_node_id": "0.0-6.0-1.0-30.0"}}, {"uniqueid": "w21695759:a71090581", "current_trial": 46, "dateTime": 1693837394542, "trialdata": {"revealed_states": [], "clicked_states": ["31", "28", "18", "22", "10", "7", "33", "29"], "num_clicks_accrued": [0, 0, 0, 0, 0, 0, 0, 0, 0, 0, 0, 0, 0], "stateRewards": ["", 2, -4, -4, 13, -80, 62, 13, -11, 57, -13, -44, 1, 4, 3, -4, -29, -88, 15, 16, -58, 68, -45, -1, -3, -1, -9, -44, -86, -19, -7, -36, 59, 66], "withholdReward": false, "trial_id": "mdp_trial_32", "block": "test", "trialIndex": 35, "score": 36.8, "costs": -17.2, "simulationMode": [null, null, null, null, null], "rewards": [-1, -3, -1, -7, 66], "path": ["0", "0", "23", "24", "25", "30", "33"], "rt": [29843, 174, 197, 82, 261], "actions": ["left", "left", "left", "down", "left"], "actionTimes": [31245, 31937, 32652, 33239, 34001], "queries": {"click": {"state": {"target": ["31", "28", "18", "22", "10", "7", "33", "29"], "time": [2596, 5800, 9080, 12486, 15948, 19252, 23370, 27275]}, "edge": {"target": [], "time": []}}, "mouseover": {"state": {"target": ["31", "24", "28", "1", "18", "13", "22", "0", "10", "2", "7", "28", "26", "33", "29"], "time": [2403, 3043, 3225, 6318, 6501, 9641, 10007, 12928, 13198, 16438, 16653, 22828, 22893, 23111, 23850]}, "edge": {"target": [], "time": []}}, "mouseout": {"state": {"target": ["0", "31", "24", "28", "1", "18", "13", "22", "0", "10", "2", "7", "28", "26", "33", "29", "33", "30"], "time": [2019, 2927, 3128, 6199, 6361, 9473, 9858, 12829, 12963, 16386, 16537, 22678, 22862, 22911, 23467, 27977, 31666, 31751]}, "edge": {"target": [], "time": []}}}, "displayed_time": "34.51", "trialTime": 36908, "trial_type": "mouselab-mdp", "trial_index": 46, "time_elapsed": 2694484, "internal_node_id": "0.0-6.0-1.0-31.0"}}, {"uniqueid": "w21695759:a71090581", "current_trial": 47, "dateTime": 1693837426936, "trialdata": {"revealed_states": [], "clicked_states": ["31", "28", "18", "22", "10", "7"], "num_clicks_accrued": [0, 0, 0, 0, 0, 0, 0, 0, 0, 0, 0, 0, 0], "stateRewards": ["", 1, -4, -6, -1, -21, 17, -72, 10, 77, 67, -46, -1, 4, -2, 14, -66, -49, -45, -15, -52, 23, -67, 2, -2, -2, 15, -3, 45, -64, 5, -44, 83, 61], "withholdReward": false, "trial_id": "mdp_trial_33", "block": "test", "trialIndex": 36, "score": 55.1, "costs": -12.9, "simulationMode": [null, null, null, null, null], "rewards": [1, -4, -6, 10, 67], "path": ["0", "0", "1", "2", "3", "8", "10"], "rt": [24184, 135, 203, 235, 206], "actions": ["up", "up", "up", "left", "down"], "actionTimes": [25653, 26289, 26997, 27740, 28448], "queries": {"click": {"state": {"target": ["31", "28", "18", "22", "10", "7"], "time": [2755, 6048, 9411, 12785, 17356, 21559]}, "edge": {"target": [], "time": []}}, "mouseover": {"state": {"target": ["31", "23", "28", "1", "18", "13", "22", "23", "28", "24", "10", "2", "7"], "time": [2500, 3539, 3758, 6530, 6747, 10322, 10573, 13443, 13727, 16896, 17111, 17819, 18122]}, "edge": {"target": [], "time": []}}, "mouseout": {"state": {"target": ["0", "31", "23", "28", "28", "1", "18", "13", "22", "23", "28", "24", "10", "2", "7", "10", "1", "12"], "time": [1488, 3291, 3624, 6151, 6431, 6582, 10223, 10453, 13244, 13527, 14278, 16911, 17751, 17919, 21944, 26882, 27104, 27205]}, "edge": {"target": [], "time": []}}}, "displayed_time": "28.95", "trialTime": 31657, "trial_type": "mouselab-mdp", "trial_index": 47, "time_elapsed": 2726879, "internal_node_id": "0.0-6.0-1.0-32.0"}}, {"uniqueid": "w21695759:a71090581", "current_trial": 48, "dateTime": 1693837445983, "trialdata": {"revealed_states": [], "clicked_states": ["31", "28"], "num_clicks_accrued": [0, 0, 0, 0, 0, 0, 0, 0, 0, 0, 0, 0, 0], "stateRewards": ["", 1, -3, 4, 13, -72, 52, 5, 5, -58, 5, 14, 2, 1, 3, -14, -86, -4, 73, 6, -58, -50, 49, 2, -3, -4, 2, 33, -41, 42, -11, 81, 45, 53], "withholdReward": false, "trial_id": "mdp_trial_34", "block": "test", "trialIndex": 37, "score": 60.7, "costs": -4.3, "simulationMode": [null, null, null, null, null], "rewards": [2, -3, -4, -11, 81], "path": ["0", "0", "23", "24", "25", "30", "31"], "rt": [10330, 146, 162, 113, 291], "actions": ["left", "left", "left", "down", "right"], "actionTimes": [11993, 12671, 13354, 13990, 14798], "queries": {"click": {"state": {"target": ["31", "28"], "time": [4267, 8557]}, "edge": {"target": [], "time": []}}, "mouseover": {"state": {"target": ["31", "28", "24", "30", "31"], "time": [2937, 5021, 9295, 9478, 10665]}, "edge": {"target": [], "time": []}}, "mouseout": {"state": {"target": ["0", "31", "28", "24", "30", "31"], "time": [966, 4655, 9227, 9379, 10646, 12557]}, "edge": {"target": [], "time": []}}}, "displayed_time": "15.67", "trialTime": 18226, "trial_type": "mouselab-mdp", "trial_index": 48, "time_elapsed": 2745925, "internal_node_id": "0.0-6.0-1.0-33.0"}}, {"uniqueid": "w21695759:a71090581", "current_trial": 49, "dateTime": 1693837476276, "trialdata": {"revealed_states": [], "clicked_states": ["31", "28", "18", "22", "10", "7"], "num_clicks_accrued": [0, 0, 0, 0, 0, 0, 0, 0, 0, 0, 0, 0, 0], "stateRewards": ["", 1, 1, -3, 2, 22, -25, -11, -5, 50, 49, 3, 1, -1, 8, 14, -85, -30, 57, -6, -39, -16, 59, -2, -1, 5, 5, 59, -16, 8, 4, 67, 56, -9], "withholdReward": false, "trial_id": "mdp_trial_35", "block": "test", "trialIndex": 38, "score": 60.1, "costs": -12.9, "simulationMode": [null, null, null, null, null], "rewards": [-2, -1, 5, 4, 67], "path": ["0", "0", "23", "24", "25", "30", "31"], "rt": [22781, 101, 19, 301, 269], "actions": ["left", "left", "left", "down", "right"], "actionTimes": [24281, 24891, 25413, 26224, 26996], "queries": {"click": {"state": {"target": ["31", "28", "18", "22", "10", "7"], "time": [2626, 6182, 9634, 13120, 16792, 20182]}, "edge": {"target": [], "time": []}}, "mouseover": {"state": {"target": ["31", "28", "1", "18", "13", "22", "0", "10", "2", "7", "1", "23", "24", "31"], "time": [2384, 3417, 6927, 7140, 10229, 10631, 14318, 14503, 17244, 17437, 20693, 20860, 20927, 21232]}, "edge": {"target": [], "time": []}}, "mouseout": {"state": {"target": ["0", "31", "31", "28", "1", "18", "13", "22", "0", "10", "2", "7", "1", "23", "24", "31", "21"], "time": [880, 2727, 2905, 6789, 6973, 10063, 10487, 13636, 14340, 17137, 17336, 20593, 20762, 20879, 21028, 24552, 25433]}, "edge": {"target": [], "time": []}}}, "displayed_time": "27.50", "trialTime": 29497, "trial_type": "mouselab-mdp", "trial_index": 49, "time_elapsed": 2776219, "internal_node_id": "0.0-6.0-1.0-34.0"}}, {"uniqueid": "w21695759:a71090581", "current_trial": 50, "dateTime": 1693837533873, "trialdata": {"revealed_states": [], "clicked_states": ["31", "28", "18", "22", "10", "7", "29", "33", "20", "17", "5", "9", "11"], "num_clicks_accrued": [0, 0, 0, 0, 0, 0, 0, 0, 0, 0, 0, 0, 0], "stateRewards": ["", 2, -4, 1, -12, -59, -53, -74, 16, -88, -66, 66, 1, -2, 8, -9, -14, 22, 25, -1, -39, 47, -14, -1, -1, -2, 1, -4, 52, -26, 15, -7, 46, 43], "withholdReward": false, "trial_id": "mdp_trial_36", "block": "test", "trialIndex": 39, "score": 53.05000000000001, "costs": -27.949999999999992, "simulationMode": [null, null, null, null, null], "rewards": [2, -4, 1, 16, 66], "path": ["0", "0", "1", "2", "3", "8", "11"], "rt": [48929, 113, 124, 146, 92], "actions": ["up", "up", "up", "left", "left"], "actionTimes": [50416, 51042, 51668, 52323, 52919], "queries": {"click": {"state": {"target": ["31", "28", "18", "22", "10", "7", "29", "33", "20", "17", "5", "9", "11"], "time": [2627, 5910, 9338, 12838, 16158, 19541, 23768, 27073, 30830, 34221, 38425, 41768, 45813]}, "edge": {"target": [], "time": []}}, "mouseover": {"state": {"target": ["31", "24", "28", "1", "18", "13", "22", "0", "1", "10", "2", "7", "2", "26", "29", "33", "30", "21", "20", "17", "16", "6", "5", "9", "11", "10", "18"], "time": [2251, 3047, 3290, 6489, 6709, 10162, 10428, 13291, 13386, 13675, 16665, 16912, 23076, 23309, 23626, 24902, 27442, 27726, 28048, 31533, 35190, 35341, 35608, 39649, 44343, 50280, 50397]}, "edge": {"target": [], "time": []}}, "mouseout": {"state": {"target": ["0", "31", "24", "28", "1", "18", "13", "22", "0", "1", "10", "2", "7", "2", "26", "29", "33", "30", "21", "20", "17", "16", "6", "5", "9", "11", "10", "18", "15", "21"], "time": [1513, 2947, 3134, 6373, 6540, 10064, 10306, 13199, 13317, 13422, 16560, 16811, 22959, 23144, 23411, 24101, 27425, 27491, 27758, 30982, 34990, 35223, 35376, 38865, 43942, 46463, 50297, 50411, 50439, 55173]}, "edge": {"target": [], "time": []}}}, "displayed_time": "53.43", "trialTime": 56866, "trial_type": "mouselab-mdp", "trial_index": 50, "time_elapsed": 2833815, "internal_node_id": "0.0-6.0-1.0-35.0"}}, {"uniqueid": "w21695759:a71090581", "current_trial": 51, "dateTime": 1693837553034, "trialdata": {"revealed_states": [], "clicked_states": ["31"], "num_clicks_accrued": [0, 0, 0, 0, 0, 0, 0, 0, 0, 0, 0, 0, 0], "stateRewards": ["", -1, -3, 4, -10, -5, 79, -87, -2, 53, 29, -20, -2, -1, -5, 10, 27, 86, 46, -16, -29, 40, 3, 2, 4, -1, -6, 37, 79, -29, 7, 86, -62, 29], "withholdReward": false, "trial_id": "mdp_trial_37", "block": "test", "trialIndex": 40, "score": 95.85, "costs": -2.15, "simulationMode": [null, null, null, null, null], "rewards": [2, 4, -1, 7, 86], "path": ["0", "0", "23", "24", "25", "30", "31"], "rt": [5775, 154, 245, 185, 345], "actions": ["left", "left", "left", "down", "right"], "actionTimes": [7370, 8034, 8812, 9521, 10375], "queries": {"click": {"state": {"target": ["31"], "time": [3139]}, "edge": {"target": [], "time": []}}, "mouseover": {"state": {"target": ["23", "31", "31", "28"], "time": [2502, 2653, 2936, 3716]}, "edge": {"target": [], "time": []}}, "mouseout": {"state": {"target": ["0", "23", "31", "31", "28", "1"], "time": [1617, 2585, 2854, 3449, 8277, 8444]}, "edge": {"target": [], "time": []}}}, "displayed_time": "15.60", "trialTime": 18430, "trial_type": "mouselab-mdp", "trial_index": 51, "time_elapsed": 2852977, "internal_node_id": "0.0-6.0-1.0-36.0"}}, {"uniqueid": "w21695759:a71090581", "current_trial": 52, "dateTime": 1693837577229, "trialdata": {"revealed_states": [], "clicked_states": ["31", "28", "18", "22"], "num_clicks_accrued": [0, 0, 0, 0, 0, 0, 0, 0, 0, 0, 0, 0, 0], "stateRewards": ["", 1, 2, 3, 16, 63, -25, 16, -4, -14, 82, -66, -1, -3, -3, -11, -14, 19, 46, 3, -34, -82, 66, -2, -3, 4, -5, -63, 77, -37, -1, -45, -41, 84], "withholdReward": false, "trial_id": "mdp_trial_38", "block": "test", "trialIndex": 41, "score": 62.4, "costs": -8.6, "simulationMode": [null, null, null, null, null], "rewards": [-2, -3, 4, -5, 77], "path": ["0", "0", "23", "24", "25", "26", "28"], "rt": [14962, 222, 163, 10, 922], "actions": ["left", "left", "left", "up", "right"], "actionTimes": [16472, 17203, 17872, 18393, 19841], "queries": {"click": {"state": {"target": ["31", "28", "18", "22"], "time": [2270, 5662, 9335, 12851]}, "edge": {"target": [], "time": []}}, "mouseover": {"state": {"target": ["31", "24", "28", "1", "18", "13", "22", "23", "28"], "time": [2042, 2984, 3203, 6192, 6307, 9783, 10031, 13354, 13638]}, "edge": {"target": [], "time": []}}, "mouseout": {"state": {"target": ["0", "31", "24", "28", "1", "18", "13", "22", "23", "28", "1"], "time": [1531, 2917, 3051, 6073, 6226, 9698, 9932, 13171, 13505, 19250, 21264]}, "edge": {"target": [], "time": []}}}, "displayed_time": "20.36", "trialTime": 23344, "trial_type": "mouselab-mdp", "trial_index": 52, "time_elapsed": 2877172, "internal_node_id": "0.0-6.0-1.0-37.0"}}, {"uniqueid": "w21695759:a71090581", "current_trial": 53, "dateTime": 1693837615163, "trialdata": {"revealed_states": [], "clicked_states": ["31", "28", "18", "22", "10", "7", "33", "29"], "num_clicks_accrued": [0, 0, 0, 0, 0, 0, 0, 0, 0, 0, 0, 0, 0], "stateRewards": ["", 2, -3, -4, -1, 25, -16, 16, 10, -71, -20, -55, 1, 3, -4, -9, 1, 32, 11, -6, 32, -50, -41, -1, 4, 4, -8, 7, -81, 70, 2, -52, 45, -10], "withholdReward": false, "trial_id": "mdp_trial_39", "block": "test", "trialIndex": 42, "score": 51.8, "costs": -17.2, "simulationMode": [null, null, null, null, null], "rewards": [-1, 4, 4, -8, 70], "path": ["0", "0", "23", "24", "25", "26", "29"], "rt": [30293, 112, 176, 140, 298], "actions": ["left", "left", "left", "up", "left"], "actionTimes": [31843, 32468, 33147, 33816, 34624], "queries": {"click": {"state": {"target": ["31", "28", "18", "22", "10", "7", "33", "29"], "time": [2826, 6138, 9661, 13194, 16552, 19841, 23958, 27349]}, "edge": {"target": [], "time": []}}, "mouseover": {"state": {"target": ["31", "28", "1", "18", "13", "22", "12", "1", "10", "2", "7", "1", "23", "24", "30", "33", "29", "26", "28", "1", "17"], "time": [2536, 3813, 7649, 7897, 10229, 10475, 13636, 13734, 13899, 17056, 17392, 22794, 23027, 23211, 23344, 23679, 25573, 28111, 28215, 28353, 28746]}, "edge": {"target": [], "time": []}}, "mouseout": {"state": {"target": ["0", "31", "28", "1", "18", "13", "22", "12", "1", "10", "2", "7", "1", "23", "24", "30", "33", "29", "26", "28", "1", "17"], "time": [1571, 3495, 7406, 7710, 10103, 10361, 13565, 13658, 13753, 17005, 17139, 22483, 22910, 23127, 23262, 23546, 24303, 28062, 28179, 28262, 28394, 31326]}, "edge": {"target": [], "time": []}}}, "displayed_time": "35.13", "trialTime": 37122, "trial_type": "mouselab-mdp", "trial_index": 53, "time_elapsed": 2915105, "internal_node_id": "0.0-6.0-1.0-38.0"}}, {"uniqueid": "w21695759:a71090581", "current_trial": 54, "dateTime": 1693837644956, "trialdata": {"revealed_states": [], "clicked_states": ["31", "28", "10", "7", "18", "22"], "num_clicks_accrued": [0, 0, 0, 0, 0, 0, 0, 0, 0, 0, 0, 0, 0], "stateRewards": ["", -2, -4, -6, 12, -58, -70, -80, 2, 16, -88, -62, 1, 2, -5, 11, 77, -35, -44, -5, 18, -83, 87, 1, -3, -5, 13, -44, -21, -86, 10, -52, 8, 29], "withholdReward": false, "trial_id": "mdp_trial_40", "block": "test", "trialIndex": 43, "score": 67.1, "costs": -12.9, "simulationMode": [null, null, null, null, null], "rewards": [1, 2, -5, -5, 87], "path": ["0", "0", "12", "13", "14", "19", "22"], "rt": [21389, 143, 161, 174, 377], "actions": ["right", "right", "right", "down", "left"], "actionTimes": [23895, 24541, 25210, 25896, 26780], "queries": {"click": {"state": {"target": ["31", "28", "10", "7", "18", "22"], "time": [3684, 6948, 10161, 13404, 16636, 19833]}, "edge": {"target": [], "time": []}}, "mouseover": {"state": {"target": ["31", "23", "28", "10", "2", "7", "18", "13", "22", "21"], "time": [3196, 4125, 4448, 7565, 10636, 10951, 14292, 17157, 17407, 23553]}, "edge": {"target": [], "time": []}}, "mouseout": {"state": {"target": ["0", "31", "23", "28", "10", "2", "7", "18", "13", "22", "21"], "time": [2961, 4009, 4191, 7293, 10568, 10726, 13823, 17087, 17273, 23185, 23570]}, "edge": {"target": [], "time": []}}}, "displayed_time": "27.29", "trialTime": 29032, "trial_type": "mouselab-mdp", "trial_index": 54, "time_elapsed": 2944899, "internal_node_id": "0.0-6.0-1.0-39.0"}}, {"uniqueid": "w21695759:a71090581", "current_trial": 55, "dateTime": 1693837764595, "trialdata": {"rt": 119634, "response": {"Q0": "$-2 to $2", "Q1": "$-16 to $16", "Q2": "$-88 to $88", "Q3": "The cost for clicking on nodes varied between nodes.", "Q4": "Very motivated"}, "question_order": [0, 1, 2, 3, 4], "trial_id": "final_quiz_control", "trial_type": "survey-multi-choice", "trial_index": 55, "time_elapsed": 3064538, "internal_node_id": "0.0-6.0-2.0"}}, {"uniqueid": "w21695759:a71090581", "current_trial": 56, "dateTime": 1693838044196, "trialdata": {"rt": 279594, "response": {"Q0": "Initially I started from the centre, trying all three directions and weeding out the routes with minus numbers.", "Q1": "Before too long I just started looking at the outer cells.  I was trying to find the highest paying destination.", "Q2": "In focusing on the destination, it let me make a choice without investing loads of money in revealing cells and I just accepted that there would be minus numbers in-between.\n\nYou can't mathematically work out the best route without seeing all the cells and I didn't think it would be worth doing that so I just went with what seemed like the best option."}, "trial_id": "self_report_control", "trial_type": "survey-text", "trial_index": 56, "time_elapsed": 3344139, "internal_node_id": "0.0-6.0-3.0"}}, {"uniqueid": "w21695759:a71090581", "current_trial": 57, "dateTime": 1693838136880, "trialdata": {"rt": 92679, "response": {"Q0": "Disagree", "Q1": "Strongly disagree", "Q2": "Strongly agree", "Q3": "Strongly agree", "Q4": "Strongly disagree", "Q5": "Strongly agree", "Q6": "Strongly disagree"}, "question_order": [0, 1, 2, 3, 4, 5, 6], "trial_id": "self_report_2", "trial_type": "survey-multi-choice", "trial_index": 57, "time_elapsed": 3436823, "internal_node_id": "0.0-6.0-4.0"}}, {"uniqueid": "w21695759:a71090581", "current_trial": 58, "dateTime": 1693838166951, "trialdata": {"rt": 30066, "response": {"gender": "male", "age": "44", "colorblind": "0", "effort": "0"}, "trial_type": "survey-html-form", "trial_index": 58, "time_elapsed": 3466894, "internal_node_id": "0.0-6.0-5.0"}}, {"uniqueid": "w21695759:a71090581", "current_trial": 59, "dateTime": 1693838204618, "trialdata": {"rt": 37662, "response": {"Q0": "I had to go back over the instructions once.", "Q1": "No, never.", "Q2": ""}, "trial_type": "survey-text", "trial_index": 59, "time_elapsed": 3504561, "internal_node_id": "0.0-6.0-6.0"}}, {"uniqueid": "w21695759:a71090581", "current_trial": 60, "dateTime": 1693838245662, "trialdata": {"rt": 41039, "stimulus": "<h1>Completion Code Instructions (1/2)</h1>\n<br><br><br><br>\nYou have reached the end of the experiment! The completion code consists of two parts: (1) a code with 2 characters (2) a code with 6 characters. On this page, you will receive the second part of the code. The first part of the completion code will be on the next page.\n<br><br>\nThe second part of your completion code is: <b>EWEK22</b>\n<br><br>\nPlease note this down. Then, press 'Next' in order to find the first part of your completion code. Once the data has been saved, you will receive this code either in this window or in the original browser window where you started the experiment.\n <br><br>\n<h2 style='color: red;'>Note: this is <strong>NOT</strong> the full completion code. Copy this down and click 'Next' to get the full completion code on the next page.</h2>", "response": 0, "trial_type": "html-button-response", "trial_index": 60, "time_elapsed": 3545605, "internal_node_id": "0.0-6.0-7.0"}}, {"uniqueid": "w21695759:a71090581", "current_trial": 61, "dateTime": 1693838246672, "trialdata": {"success": true, "trial_type": "fullscreen", "trial_index": 61, "time_elapsed": 3546615, "internal_node_id": "0.0-7.0"}}], "questiondata": {"params": {"CODE": "C6DMOQA6", "MIN_TIME": 14, "inspectCost": 1, "startTime": "Mon Sep 04 2023 14:38:19 GMT+0100 (British Summer Time)", "bonusRate": 0.002, "variance": "1_2_4_8_44", "branching": "31123"}, "final_score": 2194.1}, "eventdata": [{"eventtype": "initialized", "value": null, "timestamp": 1693834698821, "interval": 0}, {"eventtype": "window_resize", "value": [1400, 835], "timestamp": 1693834698822, "interval": 1}, {"eventtype": "window_resize", "value": [1400, 835], "timestamp": 1693834699128, "interval": 306}, {"eventtype": "window_resize", "value": [720, 375], "timestamp": 1693834706784, "interval": 7656}, {"eventtype": "window_resize", "value": [1920, 1051], "timestamp": 1693834711856, "interval": 5072}, {"eventtype": "focus", "value": "off", "timestamp": 1693834716056, "interval": 4200}, {"eventtype": "focus", "value": "on", "timestamp": 1693834787227, "interval": 71171}, {"eventtype": "window_resize", "value": [1920, 1080], "timestamp": 1693834787552, "interval": 325}, {"eventtype": "focus", "value": "off", "timestamp": 1693834946526, "interval": 158974}, {"eventtype": "focus", "value": "on", "timestamp": 1693835066764, "interval": 120238}, {"eventtype": "focus", "value": "off", "timestamp": 1693835423437, "interval": 356673}, {"eventtype": "focus", "value": "on", "timestamp": 1693835423437, "interval": 0}, {"eventtype": "window_resize", "value": [1920, 1051], "timestamp": 1693835423648, "interval": 211}, {"eventtype": "window_resize", "value": [1920, 1080], "timestamp": 1693835426016, "interval": 2368}, {"eventtype": "focus", "value": "off", "timestamp": 1693835434375, "interval": 8359}, {"eventtype": "focus", "value": "on", "timestamp": 1693835446548, "interval": 12173}, {"eventtype": "focus", "value": "off", "timestamp": 1693835465370, "interval": 18822}, {"eventtype": "focus", "value": "on", "timestamp": 1693835473088, "interval": 7718}, {"eventtype": "focus", "value": "off", "timestamp": 1693835479839, "interval": 6751}, {"eventtype": "focus", "value": "on", "timestamp": 1693835502769, "interval": 22930}, {"eventtype": "focus", "value": "off", "timestamp": 1693835520651, "interval": 17882}, {"eventtype": "focus", "value": "on", "timestamp": 1693835526658, "interval": 6007}, {"eventtype": "focus", "value": "off", "timestamp": 1693835530020, "interval": 3362}, {"eventtype": "focus", "value": "on", "timestamp": 1693835539875, "interval": 9855}, {"eventtype": "focus", "value": "off", "timestamp": 1693835684662, "interval": 144787}, {"eventtype": "focus", "value": "on", "timestamp": 1693835695195, "interval": 10533}, {"eventtype": "focus", "value": "off", "timestamp": 1693835711813, "interval": 16618}, {"eventtype": "focus", "value": "on", "timestamp": 1693835780512, "interval": 68699}, {"eventtype": "focus", "value": "off", "timestamp": 1693835786287, "interval": 5775}, {"eventtype": "focus", "value": "on", "timestamp": 1693835796254, "interval": 9967}, {"eventtype": "focus", "value": "off", "timestamp": 1693835817208, "interval": 20954}, {"eventtype": "focus", "value": "on", "timestamp": 1693835958117, "interval": 140909}, {"eventtype": "focus", "value": "off", "timestamp": 1693835966645, "interval": 8528}, {"eventtype": "focus", "value": "on", "timestamp": 1693836119622, "interval": 152977}, {"eventtype": "focus", "value": "off", "timestamp": 1693836125513, "interval": 5891}, {"eventtype": "focus", "value": "on", "timestamp": 1693836149701, "interval": 24188}, {"eventtype": "focus", "value": "off", "timestamp": 1693836221550, "interval": 71849}, {"eventtype": "focus", "value": "on", "timestamp": 1693836222139, "interval": 589}, {"eventtype": "focus", "value": "off", "timestamp": 1693836225562, "interval": 3423}, {"eventtype": "focus", "value": "on", "timestamp": 1693836228919, "interval": 3357}, {"eventtype": "focus", "value": "off", "timestamp": 1693836232636, "interval": 3717}, {"eventtype": "focus", "value": "on", "timestamp": 1693836237185, "interval": 4549}, {"eventtype": "window_resize", "value": [1920, 1051], "timestamp": 1693838245888, "interval": 2008703}], "useragent": "Mozilla/5.0 (X11; Linux x86_64) AppleWebKit/537.36 (KHTML, like Gecko) Chrome/116.0.0.0 Safari/537.36", "mode": "live", "id": "w21695759:a71090581", "status": "user data saved", "Beginhit": "2023-09-04 13:38:17.89985", "Beginexp": "2023-09-04 13:39:48.600925", "Endhit": "2023-09-04 14:37:27.424118", "psiturkStatus": 3, "browser": "<redacted>", "platform": "linux", "language": "en-GB"}