{"condition": 1, "counterbalance": 0, "assignmentId": "a18387473", "workerId": "w27945393", "hitId": "h39774621", "currenttrial": 56, "bonus": 0, "data": [{"uniqueid": "w27945393:a18387473", "current_trial": 0, "dateTime": 1693480765786, "trialdata": {"success": true, "trial_type": "fullscreen", "trial_index": 0, "time_elapsed": 6810, "internal_node_id": "0.0-0.0"}}, {"uniqueid": "w27945393:a18387473", "current_trial": 1, "dateTime": 1693480774716, "trialdata": {"view_history": [{"page_index": 0, "viewing_time": 8918}], "rt": 8918, "trial_id": "exp_instructions_misaligned", "trial_type": "instructions", "trial_index": 1, "time_elapsed": 15741, "internal_node_id": "0.0-1.0"}}, {"uniqueid": "w27945393:a18387473", "current_trial": 2, "dateTime": 1693480910261, "trialdata": {"view_history": [{"page_index": 0, "viewing_time": 20184}, {"page_index": 1, "viewing_time": 56324}, {"page_index": 0, "viewing_time": 432}, {"page_index": 1, "viewing_time": 727}, {"page_index": 2, "viewing_time": 400}, {"page_index": 1, "viewing_time": 8976}, {"page_index": 2, "viewing_time": 21951}, {"page_index": 3, "viewing_time": 26546}], "rt": 135541, "trial_id": "mouselab_instructions_1_misaligned", "trial_type": "instructions", "trial_index": 2, "time_elapsed": 151285, "internal_node_id": "0.0-2.0-1.0"}}, {"uniqueid": "w27945393:a18387473", "current_trial": 3, "dateTime": 1693480934405, "trialdata": {"revealed_states": [], "clicked_states": [], "num_clicks_accrued": [0, 0, 0, 0, 0, 0, 0, 0, 0, 0, 0, 0, 0], "stateRewards": ["", -10, -10, 10, 10, 10, 10, 10, 10, 10, 10, -10, 10, 10, -10, -10, 10, 10, -10, 10, 10, -10, -10, -10, -10, 10, -10, -10, -10, -10, -10, -10, 10, 10], "withholdReward": false, "trial_id": "practice_1", "block": "test", "trialIndex": 0, "score": -26.5, "costs": 0, "simulationMode": [null, null, null, null, null], "rewards": [-10, -10, 10, -10, -10], "path": ["0", "0", "23", "24", "25", "26", "27"], "rt": [1748, 4997, 325, 612, 4301], "actions": ["left", "left", "left", "up", "up"], "actionTimes": [4679, 10207, 11063, 12246, 17119], "queries": {"click": {"state": {"target": [], "time": []}, "edge": {"target": [], "time": []}}, "mouseover": {"state": {"target": [], "time": []}, "edge": {"target": [], "time": []}}, "mouseout": {"state": {"target": ["14", "17", "0", "1", "6", "12", "12", "28", "28", "23", "0", "1", "1", "12"], "time": [null, 501, 6305, 6331, 6723, 7725, 8940, 13772, 15154, 15467, 18629, 18716, 19166, 19945]}, "edge": {"target": [], "time": []}}}, "displayed_time": "17.71", "trialTime": 23216, "trial_type": "mouselab-mdp", "trial_index": 3, "time_elapsed": 175430, "internal_node_id": "0.0-2.0-2.0-0.0"}}, {"uniqueid": "w27945393:a18387473", "current_trial": 4, "dateTime": 1693480955124, "trialdata": {"revealed_states": [], "clicked_states": ["15", "16", "17"], "num_clicks_accrued": [0, 0, 0, 0, 0, 0, 0, 0, 0, 0, 0, 0, 0], "stateRewards": ["", 10, -10, 10, 10, -10, -10, -10, -10, 10, -10, -10, -10, 10, -10, 10, 10, -10, 10, 10, 10, -10, -10, -10, -10, 10, 10, 10, -10, -10, -10, -10, 10, -10], "withholdReward": false, "trial_id": "practice_2", "block": "test", "trialIndex": 1, "score": 12, "costs": -1.5, "simulationMode": [null, null, null, null, null], "rewards": [-10, 10, -10, 10, 10], "path": ["0", "0", "12", "13", "14", "15", "16"], "rt": [11171, 76, 60, 91, 901], "actions": ["right", "right", "right", "up", "up"], "actionTimes": [14264, 14918, 15494, 16109, 17576], "queries": {"click": {"state": {"target": ["15", "16", "17"], "time": [8097, 9247, 10965]}, "edge": {"target": [], "time": []}}, "mouseover": {"state": {"target": ["0", "21", "19", "15", "14", "16", "18", "17", "18", "15"], "time": [4088, 7556, 7598, 7749, 8813, 9146, 9951, 10832, 11662, 12469]}, "edge": {"target": [], "time": []}}, "mouseout": {"state": {"target": ["12", "0", "0", "0", "21", "19", "15", "14", "15", "16", "18", "15", "17", "15", "18", "15"], "time": [2337, 2398, 2665, 4140, 7594, 7633, 8542, 8950, 8997, 9641, 10431, 10597, 11262, 11526, 12196, 19691]}, "edge": {"target": [], "time": []}}}, "displayed_time": "18.09", "trialTime": 20384, "trial_type": "mouselab-mdp", "trial_index": 4, "time_elapsed": 196149, "internal_node_id": "0.0-2.0-2.0-1.0"}}, {"uniqueid": "w27945393:a18387473", "current_trial": 5, "dateTime": 1693480975218, "trialdata": {"view_history": [{"page_index": 0, "viewing_time": 13881}, {"page_index": 1, "viewing_time": 6208}], "rt": 20089, "trial_id": "mouselab_instructions_2_misaligned", "trial_type": "instructions", "trial_index": 5, "time_elapsed": 216243, "internal_node_id": "0.0-2.0-3.0"}}, {"uniqueid": "w27945393:a18387473", "current_trial": 6, "dateTime": 1693481003371, "trialdata": {"rt": 28150, "response": {"Q0": "The cost for clicking on nodes may vary between nodes.", "Q1": "The better I perform the higher my bonus will be.", "Q2": "No, the amount of cash at each node of the web may be different each time.", "Q3": "To get the highest total score.", "Q4": "Only before moving the spider.", "Q5": "3 seconds"}, "question_order": [0, 1, 2, 3, 4, 5], "correct": {"Q0": "The cost for clicking on nodes may vary between nodes.", "Q1": "The better I perform the higher my bonus will be.", "Q2": "No, the amount of cash at each node of the web may be different each time.", "Q3": "To get the highest total score.", "Q4": "Only before moving the spider.", "Q5": "3 seconds"}, "trial_id": "mouselab_quiz_misaligned", "trial_type": "survey-multi-choice", "trial_index": 6, "time_elapsed": 244396, "internal_node_id": "0.0-2.0-4.0"}}, {"uniqueid": "w27945393:a18387473", "current_trial": 7, "dateTime": 1693481015519, "trialdata": {"rt": 12141, "response": {"Q0": "No"}, "question_order": [0], "trial_id": "repeat_check", "trial_type": "survey-multi-choice", "trial_index": 7, "time_elapsed": 256543, "internal_node_id": "0.0-4.0-0.0"}}, {"uniqueid": "w27945393:a18387473", "current_trial": 8, "dateTime": 1693481028922, "trialdata": {"rt": 13400, "stimulus": "\n<h1> Get ready to start the game! </h1>\n\nThank you for reading the instructions. Get ready start with the 40 rounds of this game.\n<br><br>\nIf you need to take a break, feel free to take one after the end of a round, before continuing to the next one.\n<br><br>\nRemember, the more money the spider gets, the bigger your bonus will be!\n<br><br>\n<div style='text-align: center;'>Press <code>space</code> to begin.</div>\n\n<br><br>\n(If, at any point, the <code>space</code> key does not take you to the next page, click once on the text and try again.)", "response": " ", "trial_id": "mdp_ready", "trial_type": "html-keyboard-response", "trial_index": 8, "time_elapsed": 269947, "internal_node_id": "0.0-6.0-0.0"}}, {"uniqueid": "w27945393:a18387473", "current_trial": 9, "dateTime": 1693481059643, "trialdata": {"revealed_states": [], "clicked_states": ["15", "16", "21", "25", "26", "28"], "num_clicks_accrued": [0, 0, 0, 0, 0, 0, 0, 0, 0, 0, 0, 0, 0], "stateRewards": ["", 2, -1, 3, -12, -83, 6, -33, 9, 28, 24, -50, -2, -1, -2, -5, -87, 37, 82, 12, 80, -5, 10, -2, -3, -6, 9, 22, -1, 16, 9, 77, -62, 58], "withholdReward": false, "trial_id": "mdp_trial_1", "block": "test", "trialIndex": 2, "score": 9.5, "costs": -10.5, "simulationMode": [null, null, null, null, null, null], "rewards": [-2, -3, -6, 9, 22], "path": ["0", "0", "23", "24", "25", "26", "27"], "rt": [12176, 125, 210, 256, 60, 9373], "actions": ["left", "left", "left", "left", "up", "up"], "actionTimes": [15684, 15813, 16596, 17383, 18015, 27919], "queries": {"click": {"state": {"target": ["15", "16", "21", "25", "26", "28"], "time": [4806, 5927, 9811, 12708, 13309, 13886]}, "edge": {"target": [], "time": []}}, "mouseover": {"state": {"target": ["13", "15", "16", "4", "5", "17", "19", "21", "19", "22", "24", "25", "26", "28"], "time": [4080, 4690, 5850, 6603, 7045, 8461, 8840, 9584, 10829, 11036, 11772, 12367, 13035, 13730]}, "edge": {"target": [], "time": []}}, "mouseout": {"state": {"target": ["3", "1", "12", "0", "13", "15", "16", "4", "5", "16", "17", "19", "21", "19", "22", "24", "25", "26", "28", "26", "29", "29", "31", "24", "26", "26", "24", "27", "26", "26", "29"], "time": [null, 495, 2426, 4033, 4247, 5075, 6475, 6645, 8132, 8184, 8632, 9353, 10107, 10971, 11574, 11836, 12971, 13583, 14514, 19440, 19626, 19707, 20876, 20923, 21142, 21881, 24212, 24632, 24841, 25802, 27384]}, "edge": {"target": [], "time": []}}}, "displayed_time": "28.43", "trialTime": 30319, "trial_type": "mouselab-mdp", "trial_index": 9, "time_elapsed": 300668, "internal_node_id": "0.0-6.0-1.0-0.0"}}, {"uniqueid": "w27945393:a18387473", "current_trial": 10, "dateTime": 1693481087699, "trialdata": {"revealed_states": [], "clicked_states": ["9", "29", "22", "17", "18"], "num_clicks_accrued": [0, 0, 0, 0, 0, 0, 0, 0, 0, 0, 0, 0, 0], "stateRewards": ["", -2, -4, 2, 10, -17, 18, 73, 11, -32, 23, -13, -2, -4, 7, 12, -25, 66, -23, 15, 40, -76, -9, 1, 2, -7, -5, -20, 24, 3, -5, 16, -73, 70], "withholdReward": false, "trial_id": "mdp_trial_2", "block": "test", "trialIndex": 3, "score": 68.25, "costs": -10.75, "simulationMode": [null, null, null, null, null, null], "rewards": [-2, -4, 7, 12, 66], "path": ["0", "0", "12", "13", "14", "15", "17"], "rt": [16715, 191, 68, 204, 995, 687], "actions": ["right", "right", "right", "right", "up", "right"], "actionTimes": [20692, 20885, 21527, 22265, 23819, 25076], "queries": {"click": {"state": {"target": ["9", "29", "22", "17", "18"], "time": [5914, 9117, 11994, 15773, 18700]}, "edge": {"target": [], "time": []}}, "mouseover": {"state": {"target": ["12", "15", "7", "3", "8", "9", "27", "26", "25", "26", "29", "25", "30", "32", "22", "15", "17", "15", "18"], "time": [4401, 4674, 4875, 5172, 5583, 5756, 6882, 7958, 8349, 8551, 8924, 9616, 9675, 10090, 11789, 12849, 13446, 16521, 16800]}, "edge": {"target": [], "time": []}}, "mouseout": {"state": {"target": ["0", "12", "15", "7", "3", "8", "9", "27", "26", "25", "26", "29", "29", "25", "30", "32", "22", "15", "17", "15", "18", "16"], "time": [3061, 4442, 4758, 5081, 5205, 5675, 6331, 7912, 8010, 8503, 8711, 9205, 9615, 9673, 9823, 11329, 12713, 12915, 16456, 16663, 26701, 27046]}, "edge": {"target": [], "time": []}}}, "displayed_time": "25.65", "trialTime": 27691, "trial_type": "mouselab-mdp", "trial_index": 10, "time_elapsed": 328724, "internal_node_id": "0.0-6.0-1.0-1.0"}}, {"uniqueid": "w27945393:a18387473", "current_trial": 11, "dateTime": 1693481106300, "trialdata": {"revealed_states": [], "clicked_states": ["6"], "num_clicks_accrued": [0, 0, 0, 0, 0, 0, 0, 0, 0, 0, 0, 0, 0], "stateRewards": ["", 2, 4, -3, 16, -58, 30, -35, 11, -60, 47, 27, -2, -1, -7, -16, 23, -70, 68, -10, -65, -43, -34, -2, 1, 7, 9, -63, 34, -31, -8, -12, -86, 59], "withholdReward": false, "trial_id": "mdp_trial_3", "block": "test", "trialIndex": 4, "score": 46.85, "costs": -2.15, "simulationMode": [null, null, null, null, null], "rewards": [2, 4, -3, 16, 30], "path": ["0", "0", "1", "2", "3", "4", "6"], "rt": [5670, 181, 175, 423, 161], "actions": ["up", "up", "up", "right", "right"], "actionTimes": [7186, 7916, 8651, 9630, 10364], "queries": {"click": {"state": {"target": ["6"], "time": [2696]}, "edge": {"target": [], "time": []}}, "mouseover": {"state": {"target": ["16", "6", "6", "6", "16", "15", "20", "19", "22", "13", "12", "23", "31", "24", "28"], "time": [1796, 2050, 2318, 2540, 3177, 3255, 3511, 3655, 3733, 3854, 4081, 4276, 4544, 5781, 5856]}, "edge": {"target": [], "time": []}}, "mouseout": {"state": {"target": ["0", "16", "6", "6", "6", "6", "16", "15", "20", "19", "22", "13", "12", "23", "31", "24", "28", "32"], "time": [1636, 1941, 2159, 2349, 2805, 3143, 3214, 3296, 3653, 3689, 3773, 3891, 4118, 4312, 5715, 5831, 11691, 12235]}, "edge": {"target": [], "time": []}}}, "displayed_time": "16.37", "trialTime": 18268, "trial_type": "mouselab-mdp", "trial_index": 11, "time_elapsed": 347324, "internal_node_id": "0.0-6.0-1.0-2.0"}}, {"uniqueid": "w27945393:a18387473", "current_trial": 12, "dateTime": 1693481125884, "trialdata": {"revealed_states": [], "clicked_states": ["29"], "num_clicks_accrued": [0, 0, 0, 0, 0, 0, 0, 0, 0, 0, 0, 0, 0], "stateRewards": ["", -1, -2, -1, -10, -57, 73, -72, -16, 75, -14, -46, -2, -3, -7, -1, -61, -60, 76, -4, 50, 4, 14, 2, 2, -7, 12, -65, -32, 15, -8, -76, -25, -61], "withholdReward": false, "trial_id": "mdp_trial_4", "block": "test", "trialIndex": 5, "score": 21.85, "costs": -2.15, "simulationMode": [null, null, null, null, null], "rewards": [2, 2, -7, 12, 15], "path": ["0", "0", "23", "24", "25", "26", "29"], "rt": [7242, 141, 61, 74, 1798], "actions": ["left", "left", "left", "up", "left"], "actionTimes": [8510, 9183, 9795, 10406, 12713], "queries": {"click": {"state": {"target": ["29"], "time": [2540]}, "edge": {"target": [], "time": []}}, "mouseover": {"state": {"target": ["28", "27", "29", "30", "31"], "time": [1547, 1814, 2361, 3255, 3541]}, "edge": {"target": [], "time": []}}, "mouseout": {"state": {"target": ["0", "28", "27", "29", "29", "30", "31"], "time": [932, 1565, 2306, 2678, 3253, 3287, 17873]}, "edge": {"target": [], "time": []}}}, "displayed_time": "16.32", "trialTime": 19217, "trial_type": "mouselab-mdp", "trial_index": 12, "time_elapsed": 366908, "internal_node_id": "0.0-6.0-1.0-3.0"}}, {"uniqueid": "w27945393:a18387473", "current_trial": 13, "dateTime": 1693481156469, "trialdata": {"revealed_states": [], "clicked_states": ["32", "20", "22", "10", "28"], "num_clicks_accrued": [0, 0, 0, 0, 0, 0, 0, 0, 0, 0, 0, 0, 0], "stateRewards": ["", -2, -1, 3, -3, 71, -58, -21, 7, -10, -75, -37, 2, 4, -1, -12, -79, -29, -48, 3, -41, -10, -30, -1, -2, 1, -15, 13, 66, 22, -1, -42, -86, -55], "withholdReward": false, "trial_id": "mdp_trial_5", "block": "test", "trialIndex": 6, "score": 38.25, "costs": -10.75, "simulationMode": [null, null, null, null, null], "rewards": [-1, -2, 1, -15, 66], "path": ["0", "0", "23", "24", "25", "26", "28"], "rt": [23309, 449, 642, 667, 154], "actions": ["left", "left", "left", "up", "right"], "actionTimes": [24442, 25475, 26691, 27929, 28641], "queries": {"click": {"state": {"target": ["32", "20", "22", "10", "28"], "time": [2234, 7183, 10671, 15741, 21048]}, "edge": {"target": [], "time": []}}, "mouseover": {"state": {"target": ["1", "32", "21", "20", "19", "22", "13", "17", "4", "7", "2", "8", "10", "10", "2", "7", "7", "1", "26", "28"], "time": [1262, 2017, 2770, 3119, 7764, 8236, 11937, 12209, 14770, 14814, 14944, 15073, 15382, 15595, 16687, 19202, 19662, 19952, 20463, 20841]}, "edge": {"target": [], "time": []}}, "mouseout": {"state": {"target": ["0", "1", "32", "21", "20", "19", "22", "13", "17", "4", "7", "2", "8", "10", "10", "2", "7", "7", "1", "26", "28"], "time": [747, 1470, 2332, 2805, 7762, 7812, 10763, 12072, 14344, 14812, 14872, 15014, 15347, 15441, 16625, 17023, 19565, 19693, 20169, 20802, 21800]}, "edge": {"target": [], "time": []}}}, "displayed_time": "29.22", "trialTime": 30220, "trial_type": "mouselab-mdp", "trial_index": 13, "time_elapsed": 397494, "internal_node_id": "0.0-6.0-1.0-4.0"}}, {"uniqueid": "w27945393:a18387473", "current_trial": 14, "dateTime": 1693481183412, "trialdata": {"revealed_states": [], "clicked_states": ["7"], "num_clicks_accrued": [0, 0, 0, 0, 0, 0, 0, 0, 0, 0, 0, 0, 0], "stateRewards": ["", -1, -2, -8, 8, -27, -82, 19, -14, -62, 4, 1, -2, 2, 6, 10, 73, -51, -2, 2, 73, -48, 54, -1, 2, -4, 11, -25, 47, 86, 15, 33, 43, -42], "withholdReward": false, "trial_id": "mdp_trial_6", "block": "test", "trialIndex": 7, "score": 13.85, "costs": -2.15, "simulationMode": [null, null, null, null, null], "rewards": [-1, -2, -8, 8, 19], "path": ["0", "0", "1", "2", "3", "4", "7"], "rt": [5559, 144, 642, 1119, 155], "actions": ["up", "up", "up", "right", "down"], "actionTimes": [13674, 14346, 15554, 17242, 17954], "queries": {"click": {"state": {"target": ["7"], "time": [9712]}, "edge": {"target": [], "time": []}}, "mouseover": {"state": {"target": ["2", "2", "10", "2", "7", "2", "10", "27"], "time": [8791, 9016, 9100, 9301, 9562, 11253, 11357, 11920]}, "edge": {"target": [], "time": []}}, "mouseout": {"state": {"target": ["0", "2", "2", "10", "2", "7", "2", "10", "27", "24", "32"], "time": [8609, 8903, 9065, 9272, 9524, 11252, 11298, 11563, 25083, 25132, 25198]}, "edge": {"target": [], "time": []}}}, "displayed_time": "23.63", "trialTime": 26618, "trial_type": "mouselab-mdp", "trial_index": 14, "time_elapsed": 424436, "internal_node_id": "0.0-6.0-1.0-5.0"}}, {"uniqueid": "w27945393:a18387473", "current_trial": 15, "dateTime": 1693481212051, "trialdata": {"revealed_states": [], "clicked_states": ["11", "33", "20", "16", "27"], "num_clicks_accrued": [0, 0, 0, 0, 0, 0, 0, 0, 0, 0, 0, 0, 0], "stateRewards": ["", -2, 2, 2, -6, 9, 37, 50, -13, -7, -18, -75, -2, -4, 4, 7, 23, -57, -66, -7, -81, -48, -76, 1, 1, -8, 1, 51, -2, 70, 14, 59, 71, -37], "withholdReward": false, "trial_id": "mdp_trial_7", "block": "test", "trialIndex": 8, "score": 35.25, "costs": -10.75, "simulationMode": [null, null, null, null, null], "rewards": [1, 1, -8, 1, 51], "path": ["0", "0", "23", "24", "25", "26", "27"], "rt": [21706, 354, 238, 886, 61], "actions": ["left", "left", "left", "up", "up"], "actionTimes": [22300, 23242, 23986, 25443, 26024], "queries": {"click": {"state": {"target": ["11", "33", "20", "16", "27"], "time": [3098, 6823, 10142, 14386, 18933]}, "edge": {"target": [], "time": []}}, "mouseover": {"state": {"target": ["7", "11", "11", "10", "24", "33", "31", "22", "19", "20", "17", "15", "16", "15", "21", "26", "29", "26", "23", "28", "27", "27", "27", "24"], "time": [2371, 2667, 2902, 3675, 5142, 5550, 7473, 7651, 7885, 8314, 13550, 14147, 14252, 14816, 15156, 15430, 16285, 17765, 17832, 17997, 18097, 18340, 18566, 19364]}, "edge": {"target": [], "time": []}}, "mouseout": {"state": {"target": ["0", "7", "11", "11", "10", "24", "33", "31", "22", "19", "20", "17", "15", "16", "15", "21", "26", "29", "26", "23", "28", "27", "27", "27", "24"], "time": [135, 2435, 2699, 3674, 3753, 5232, 7420, 7533, 7704, 8004, 13456, 14094, 14191, 14815, 14880, 15221, 15492, 17740, 17830, 17896, 18031, 18162, 18373, 19299, 19436]}, "edge": {"target": [], "time": []}}}, "displayed_time": "26.55", "trialTime": 28258, "trial_type": "mouselab-mdp", "trial_index": 15, "time_elapsed": 453076, "internal_node_id": "0.0-6.0-1.0-6.0"}}, {"uniqueid": "w27945393:a18387473", "current_trial": 16, "dateTime": 1693481234436, "trialdata": {"revealed_states": [], "clicked_states": ["7", "27", "32"], "num_clicks_accrued": [0, 0, 0, 0, 0, 0, 0, 0, 0, 0, 0, 0, 0], "stateRewards": ["", 2, -1, -4, -13, 74, 77, 3, 2, -43, -2, -11, 2, 3, 7, 11, -26, -29, -33, -3, -3, -13, -3, 1, 3, -7, 14, -59, 33, 9, -5, 34, 79, 68], "withholdReward": false, "trial_id": "mdp_trial_8", "block": "test", "trialIndex": 9, "score": 64.55, "costs": -6.449999999999999, "simulationMode": [null, null, null, null, null], "rewards": [1, 3, -7, -5, 79], "path": ["0", "0", "23", "24", "25", "30", "32"], "rt": [14017, 117, 189, 323, 71], "actions": ["left", "left", "left", "down", "down"], "actionTimes": [17147, 17841, 18586, 19474, 20057], "queries": {"click": {"state": {"target": ["7", "27", "32"], "time": [4982, 8763, 12840]}, "edge": {"target": [], "time": []}}, "mouseover": {"state": {"target": ["0", "1", "7", "8", "10", "27", "27", "26", "31", "32", "19", "20"], "time": [3149, 3734, 4754, 5390, 5720, 6728, 6989, 12215, 12411, 12713, 14700, 15550]}, "edge": {"target": [], "time": []}}, "mouseout": {"state": {"target": ["12", "12", "0", "1", "7", "8", "10", "27", "27", "26", "31", "32", "19"], "time": [2234, 2513, 3421, 3929, 5075, 5538, 6642, 6772, 12102, 12314, 12443, 14308, 14835]}, "edge": {"target": [], "time": []}}}, "displayed_time": "20.57", "trialTime": 22074, "trial_type": "mouselab-mdp", "trial_index": 16, "time_elapsed": 475460, "internal_node_id": "0.0-6.0-1.0-7.0"}}, {"uniqueid": "w27945393:a18387473", "current_trial": 17, "dateTime": 1693481252739, "trialdata": {"revealed_states": [], "clicked_states": ["17", "22"], "num_clicks_accrued": [0, 0, 0, 0, 0, 0, 0, 0, 0, 0, 0, 0, 0], "stateRewards": ["", -2, -1, -6, -14, -55, 78, -13, 11, 14, -71, 59, 2, 2, 6, -6, 9, 38, 14, 7, 85, 11, 68, 1, -4, -1, -3, -63, -85, 9, -2, 63, -86, -10], "withholdReward": false, "trial_id": "mdp_trial_9", "block": "test", "trialIndex": 10, "score": 80.7, "costs": -4.3, "simulationMode": [null, null, null, null, null, null], "rewards": [2, 2, 6, 7, 68], "path": ["0", "0", "12", "13", "14", "19", "22"], "rt": [6443, 192, 551, 1377, 937, 61], "actions": ["right", "right", "right", "right", "down", "left"], "actionTimes": [7477, 7671, 8797, 10743, 12247, 12821], "queries": {"click": {"state": {"target": ["17", "22"], "time": [2459, 5676]}, "edge": {"target": [], "time": []}}, "mouseover": {"state": {"target": ["12", "12", "1", "15", "17", "17", "19", "21", "22"], "time": [1053, 1496, 1655, 1905, 2018, 2275, 2877, 3065, 3626]}, "edge": {"target": [], "time": []}}, "mouseout": {"state": {"target": ["20", "22", "12", "0", "12", "12", "1", "15", "17", "17", "19", "21", "22", "22"], "time": [361, 406, 659, 771, 1135, 1537, 1704, 1987, 2069, 2770, 2911, 3321, 5763, 6281]}, "edge": {"target": [], "time": []}}}, "displayed_time": "16.93", "trialTime": 17919, "trial_type": "mouselab-mdp", "trial_index": 17, "time_elapsed": 493764, "internal_node_id": "0.0-6.0-1.0-8.0"}}, {"uniqueid": "w27945393:a18387473", "current_trial": 18, "dateTime": 1693481270331, "trialdata": {"revealed_states": [], "clicked_states": ["17"], "num_clicks_accrued": [0, 0, 0, 0, 0, 0, 0, 0, 0, 0, 0, 0, 0], "stateRewards": ["", -2, 1, -7, 9, 8, 25, 61, -7, -17, 69, -81, 1, 4, -4, -11, 16, 67, 44, 3, 6, -45, -54, -2, 3, 6, -11, -15, 32, -47, 3, -39, -6, -88], "withholdReward": false, "trial_id": "mdp_trial_10", "block": "test", "trialIndex": 11, "score": 54.85, "costs": -2.15, "simulationMode": [null, null, null, null, null], "rewards": [1, 4, -4, -11, 67], "path": ["0", "0", "12", "13", "14", "15", "17"], "rt": [7539, 62, 62, 61, 60], "actions": ["right", "right", "right", "up", "right"], "actionTimes": [9334, 9919, 10510, 11100, 11689], "queries": {"click": {"state": {"target": ["17"], "time": [4883]}, "edge": {"target": [], "time": []}}, "mouseover": {"state": {"target": ["13", "17", "16", "15", "14", "19"], "time": [4453, 4763, 5421, 7507, 7878, 8199]}, "edge": {"target": [], "time": []}}, "mouseout": {"state": {"target": ["0", "13", "17", "16", "15", "14", "19"], "time": [2164, 4501, 5281, 7372, 7707, 8097, 8430]}, "edge": {"target": [], "time": []}}}, "displayed_time": "16.64", "trialTime": 17223, "trial_type": "mouselab-mdp", "trial_index": 18, "time_elapsed": 511356, "internal_node_id": "0.0-6.0-1.0-9.0"}}, {"uniqueid": "w27945393:a18387473", "current_trial": 19, "dateTime": 1693481287723, "trialdata": {"revealed_states": [], "clicked_states": ["32"], "num_clicks_accrued": [0, 0, 0, 0, 0, 0, 0, 0, 0, 0, 0, 0, 0], "stateRewards": ["", 2, -1, 5, 6, 10, 86, 55, 10, -45, 63, -71, 1, -2, 5, -8, -50, -72, 36, 15, 61, 12, 33, -1, -4, 6, 5, 79, -56, -21, -16, -87, 60, -81], "withholdReward": false, "trial_id": "mdp_trial_11", "block": "test", "trialIndex": 12, "score": 42.85, "costs": -2.15, "simulationMode": [null, null, null, null, null], "rewards": [-1, -4, 6, -16, 60], "path": ["0", "0", "23", "24", "25", "30", "32"], "rt": [7479, 210, 133, 173, 114], "actions": ["left", "left", "left", "down", "down"], "actionTimes": [8700, 9459, 10162, 10898, 11586], "queries": {"click": {"state": {"target": ["32"], "time": [3592]}, "edge": {"target": [], "time": []}}, "mouseover": {"state": {"target": ["0", "25", "26", "29", "32", "2", "3", "5", "2"], "time": [1411, 2279, 2547, 2963, 3393, 4092, 4210, 4442, 7426]}, "edge": {"target": [], "time": []}}, "mouseout": {"state": {"target": ["0", "0", "25", "26", "29", "32", "2", "3", "5", "2"], "time": [933, 1883, 2499, 2583, 3198, 3869, 4128, 4248, 7372, 7453]}, "edge": {"target": [], "time": []}}}, "displayed_time": "16.21", "trialTime": 17012, "trial_type": "mouselab-mdp", "trial_index": 19, "time_elapsed": 528747, "internal_node_id": "0.0-6.0-1.0-10.0"}}, {"uniqueid": "w27945393:a18387473", "current_trial": 20, "dateTime": 1693481310488, "trialdata": {"revealed_states": [], "clicked_states": ["18", "21", "27", "33"], "num_clicks_accrued": [0, 0, 0, 0, 0, 0, 0, 0, 0, 0, 0, 0, 0], "stateRewards": ["", -1, -4, -1, -5, -28, -23, -15, -15, -38, 59, -87, 2, 2, -5, 9, -55, -39, -71, -6, 85, -85, -11, -1, -2, 5, -10, 1, 25, 41, -4, 69, -35, 86], "withholdReward": false, "trial_id": "mdp_trial_12", "block": "test", "trialIndex": 13, "score": 75.4, "costs": -8.6, "simulationMode": [null, null, null, null, null], "rewards": [-1, -2, 5, -4, 86], "path": ["0", "0", "23", "24", "25", "30", "33"], "rt": [15766, 567, 347, 776, 62], "actions": ["left", "left", "left", "down", "left"], "actionTimes": [16750, 17839, 18694, 20054, 20623], "queries": {"click": {"state": {"target": ["18", "21", "27", "33"], "time": [2379, 5851, 9274, 12446]}, "edge": {"target": [], "time": []}}, "mouseover": {"state": {"target": ["15", "18", "28", "26", "27", "0", "22", "21", "0", "28", "27", "27", "29", "33", "30", "2", "6"], "time": [1684, 2182, 2680, 2753, 3098, 3662, 3923, 4336, 6118, 6271, 6709, 8559, 10294, 11082, 12993, 14570, 15168]}, "edge": {"target": [], "time": []}}, "mouseout": {"state": {"target": ["0", "15", "18", "28", "26", "27", "0", "22", "21", "0", "28", "27", "27", "29", "33", "30", "2", "6", "18"], "time": [697, 1966, 2577, 2716, 2792, 3515, 3737, 3958, 6075, 6169, 6317, 6757, 10029, 10754, 12991, 14241, 14635, 22122, 22344]}, "edge": {"target": [], "time": []}}}, "displayed_time": "21.15", "trialTime": 22428, "trial_type": "mouselab-mdp", "trial_index": 20, "time_elapsed": 551513, "internal_node_id": "0.0-6.0-1.0-11.0"}}, {"uniqueid": "w27945393:a18387473", "current_trial": 21, "dateTime": 1693481338955, "trialdata": {"revealed_states": [], "clicked_states": ["10", "7", "5", "9", "11", "29"], "num_clicks_accrued": [0, 0, 0, 0, 0, 0, 0, 0, 0, 0, 0, 0, 0], "stateRewards": ["", 2, -1, 8, -2, -16, 69, -39, -7, -13, -27, -86, 2, -2, 2, 13, -34, -16, -20, -5, 19, 81, 32, -2, -1, 2, -14, 20, 80, 58, 4, 70, 12, 73], "withholdReward": false, "trial_id": "mdp_trial_13", "block": "test", "trialIndex": 14, "score": 30.1, "costs": -12.9, "simulationMode": [null, null, null, null, null], "rewards": [-2, -1, 2, -14, 58], "path": ["0", "0", "23", "24", "25", "26", "29"], "rt": [21860, 58, 303, 1310, 221], "actions": ["left", "left", "left", "up", "left"], "actionTimes": [22545, 23155, 23978, 25841, 26610], "queries": {"click": {"state": {"target": ["10", "7", "5", "9", "11", "29"], "time": [2395, 5667, 8865, 12172, 15326, 18389]}, "edge": {"target": [], "time": []}}, "mouseover": {"state": {"target": ["12", "2", "3", "10", "2", "7", "7", "4", "5", "9", "8", "27", "11", "26", "29", "28"], "time": [1407, 1607, 2046, 2255, 2738, 2809, 3172, 6851, 7380, 10141, 12730, 12938, 13403, 16281, 16553, 19269]}, "edge": {"target": [], "time": []}}, "mouseout": {"state": {"target": ["0", "12", "2", "3", "10", "2", "7", "7", "4", "5", "9", "8", "27", "11", "26", "29"], "time": [1196, 1534, 1654, 2144, 2490, 2772, 2848, 6850, 6902, 10076, 12728, 12789, 13073, 16080, 16347, 19205]}, "edge": {"target": [], "time": []}}}, "displayed_time": "27.16", "trialTime": 28107, "trial_type": "mouselab-mdp", "trial_index": 21, "time_elapsed": 579980, "internal_node_id": "0.0-6.0-1.0-12.0"}}, {"uniqueid": "w27945393:a18387473", "current_trial": 22, "dateTime": 1693481357907, "trialdata": {"revealed_states": [], "clicked_states": ["17", "20", "22"], "num_clicks_accrued": [0, 0, 0, 0, 0, 0, 0, 0, 0, 0, 0, 0, 0], "stateRewards": ["", -1, 2, 6, 11, 21, -21, -21, -6, 48, -71, 88, -1, -3, 3, 7, 64, 2, 9, -4, 37, -67, 72, 2, 2, -8, -8, -10, 71, -40, -3, 73, 80, 47], "withholdReward": false, "trial_id": "mdp_trial_14", "block": "test", "trialIndex": 15, "score": 60.55, "costs": -6.449999999999999, "simulationMode": [null, null, null, null, null, null], "rewards": [-1, -3, 3, -4, 72], "path": ["0", "0", "12", "13", "14", "19", "22"], "rt": [10069, 322, 275, 157, 987, 61], "actions": ["right", "right", "right", "right", "down", "left"], "actionTimes": [10954, 11278, 12055, 12749, 14311, 14942], "queries": {"click": {"state": {"target": ["17", "20", "22"], "time": [1957, 6426, 9328]}, "edge": {"target": [], "time": []}}, "mouseover": {"state": {"target": ["1", "18", "17", "20", "21", "22"], "time": [1342, 1525, 1860, 2520, 7180, 7702]}, "edge": {"target": [], "time": []}}, "mouseout": {"state": {"target": ["28", "12", "12", "0", "1", "18", "17", "20", "21", "22", "19", "21"], "time": [122, 225, 379, 577, 1391, 1543, 2315, 6967, 7461, 16465, 16590, 16677]}, "edge": {"target": [], "time": []}}}, "displayed_time": "17.03", "trialTime": 18615, "trial_type": "mouselab-mdp", "trial_index": 22, "time_elapsed": 598932, "internal_node_id": "0.0-6.0-1.0-13.0"}}, {"uniqueid": "w27945393:a18387473", "current_trial": 23, "dateTime": 1693481375860, "trialdata": {"revealed_states": [], "clicked_states": ["7", "21"], "num_clicks_accrued": [0, 0, 0, 0, 0, 0, 0, 0, 0, 0, 0, 0, 0], "stateRewards": ["", 2, -4, -4, 13, -80, 62, 13, -11, 57, -13, -44, 1, 4, 3, -4, -29, -88, 15, 16, -58, 68, -45, -1, -3, -1, -9, -44, -86, -19, -7, -36, 59, 66], "withholdReward": false, "trial_id": "mdp_trial_15", "block": "test", "trialIndex": 16, "score": 87.7, "costs": -4.3, "simulationMode": [null, null, null, null, null], "rewards": [1, 4, 3, 16, 68], "path": ["0", "0", "12", "13", "14", "19", "21"], "rt": [9384, 61, 116, 204, 60], "actions": ["right", "right", "right", "down", "down"], "actionTimes": [9966, 10543, 11189, 11949, 12575], "queries": {"click": {"state": {"target": ["7", "21"], "time": [1619, 5634]}, "edge": {"target": [], "time": []}}, "mouseover": {"state": {"target": ["1", "7", "13", "19", "21", "33", "30"], "time": [1078, 1449, 1882, 1921, 2071, 6670, 9255]}, "edge": {"target": [], "time": []}}, "mouseout": {"state": {"target": ["0", "1", "7", "13", "19", "21", "33", "30", "21", "21"], "time": [59, 1114, 1848, 1918, 1997, 6034, 9248, 9293, 15444, 16701]}, "edge": {"target": [], "time": []}}}, "displayed_time": "15.98", "trialTime": 17534, "trial_type": "mouselab-mdp", "trial_index": 23, "time_elapsed": 616884, "internal_node_id": "0.0-6.0-1.0-14.0"}}, {"uniqueid": "w27945393:a18387473", "current_trial": 24, "dateTime": 1693481394464, "trialdata": {"revealed_states": [], "clicked_states": [], "num_clicks_accrued": [0, 0, 0, 0, 0, 0, 0, 0, 0, 0, 0, 0, 0], "stateRewards": ["", 1, -4, -6, 11, -20, 8, -30, 1, -38, 88, 42, 2, 3, 5, -12, -8, -74, 30, -8, 67, -19, 42, 2, -1, 4, 13, 50, -68, 2, -8, -15, 87, -46], "withholdReward": false, "trial_id": "mdp_trial_16", "block": "test", "trialIndex": 17, "score": 44, "costs": 0, "simulationMode": [null, null, null, null, null], "rewards": [2, 3, 5, -8, 42], "path": ["0", "0", "12", "13", "14", "19", "22"], "rt": [7836, 61, 114, 368, 313], "actions": ["right", "right", "right", "down", "left"], "actionTimes": [9092, 9688, 10330, 11253, 12148], "queries": {"click": {"state": {"target": [], "time": []}, "edge": {"target": [], "time": []}}, "mouseover": {"state": {"target": ["12", "22", "4", "3", "8", "9", "11", "7", "14"], "time": [1381, 1450, 3219, 3555, 4200, 5018, 6137, 8153, 8283]}, "edge": {"target": [], "time": []}}, "mouseout": {"state": {"target": ["0", "12", "22", "4", "3", "8", "9", "11", "7", "14", "22", "22", "20"], "time": [1343, 1417, 1552, 3257, 4040, 4876, 5939, 8109, 8203, 8310, 13624, 14674, 15508]}, "edge": {"target": [], "time": []}}}, "displayed_time": "16.12", "trialTime": 18250, "trial_type": "mouselab-mdp", "trial_index": 24, "time_elapsed": 635489, "internal_node_id": "0.0-6.0-1.0-15.0"}}, {"uniqueid": "w27945393:a18387473", "current_trial": 25, "dateTime": 1693481420332, "trialdata": {"revealed_states": [], "clicked_states": ["5", "9", "29", "33", "20"], "num_clicks_accrued": [0, 0, 0, 0, 0, 0, 0, 0, 0, 0, 0, 0, 0], "stateRewards": ["", -2, -3, -5, 8, 27, 11, 43, -6, -24, -87, 69, -2, 1, 1, 9, 19, 48, -37, 9, -14, 45, 62, 1, 2, 1, 16, -81, -41, 22, 4, -6, -63, 47], "withholdReward": false, "trial_id": "mdp_trial_17", "block": "test", "trialIndex": 18, "score": 44.25, "costs": -10.75, "simulationMode": [null, null, null, null, null], "rewards": [1, 2, 1, 4, 47], "path": ["0", "0", "23", "24", "25", "30", "33"], "rt": [18660, 184, 321, 61, 547], "actions": ["left", "left", "left", "down", "left"], "actionTimes": [19567, 20318, 21206, 21780, 22854], "queries": {"click": {"state": {"target": ["5", "9", "29", "33", "20"], "time": [3456, 6634, 9670, 13022, 16272]}, "edge": {"target": [], "time": []}}, "mouseover": {"state": {"target": ["18", "16", "5", "9", "9", "11", "27", "29", "29", "33", "31", "19", "20"], "time": [1441, 1505, 3424, 4630, 4903, 7134, 7345, 7617, 7953, 10495, 13517, 13792, 14061]}, "edge": {"target": [], "time": []}}, "mouseout": {"state": {"target": ["0", "18", "16", "5", "9", "9", "11", "27", "29", "29", "33", "31", "19", "20"], "time": [590, 1470, 2077, 4515, 4849, 7069, 7203, 7410, 7682, 10229, 13514, 13578, 13856, 16380]}, "edge": {"target": [], "time": []}}}, "displayed_time": "23.37", "trialTime": 25518, "trial_type": "mouselab-mdp", "trial_index": 25, "time_elapsed": 661355, "internal_node_id": "0.0-6.0-1.0-16.0"}}, {"uniqueid": "w27945393:a18387473", "current_trial": 26, "dateTime": 1693481449683, "trialdata": {"revealed_states": [], "clicked_states": ["17", "21", "32", "5", "27"], "num_clicks_accrued": [0, 0, 0, 0, 0, 0, 0, 0, 0, 0, 0, 0, 0], "stateRewards": ["", -2, 2, -5, -6, 10, -66, -58, -10, -11, -63, -70, -1, -4, -5, 7, 66, -64, -43, -3, 45, -37, 4, -2, -2, -6, -4, -30, 33, 43, 15, -32, -65, -59], "withholdReward": false, "trial_id": "mdp_trial_18", "block": "test", "trialIndex": 19, "score": 8.25, "costs": -10.75, "simulationMode": [null, null, null, null, null], "rewards": [-2, -2, -6, -4, 33], "path": ["0", "0", "23", "24", "25", "26", "28"], "rt": [21848, 244, 122, 1044, 63], "actions": ["left", "left", "left", "up", "right"], "actionTimes": [23119, 23886, 24573, 26175, 26815], "queries": {"click": {"state": {"target": ["17", "21", "32", "5", "27"], "time": [2313, 5446, 8759, 11935, 15474]}, "edge": {"target": [], "time": []}}, "mouseover": {"state": {"target": ["18", "15", "17", "21", "22", "23", "25", "32", "5", "9", "27", "29", "29", "15", "17", "16"], "time": [1960, 2036, 2245, 3046, 5998, 6123, 6265, 6671, 10025, 12496, 13738, 20384, 20609, 20756, 21158, 21424]}, "edge": {"target": [], "time": []}}, "mouseout": {"state": {"target": ["20", "14", "12", "18", "15", "17", "21", "22", "23", "25", "32", "5", "9", "27", "27", "29", "29", "15", "17", "16"], "time": [363, 496, 572, 1997, 2072, 2673, 5537, 6055, 6193, 6407, 9505, 12361, 13283, 16801, 20348, 20446, 20641, 20791, 21187, 21996]}, "edge": {"target": [], "time": []}}}, "displayed_time": "27.34", "trialTime": 28959, "trial_type": "mouselab-mdp", "trial_index": 26, "time_elapsed": 690708, "internal_node_id": "0.0-6.0-1.0-17.0"}}, {"uniqueid": "w27945393:a18387473", "current_trial": 27, "dateTime": 1693481470921, "trialdata": {"revealed_states": [], "clicked_states": ["20", "18", "10", "6"], "num_clicks_accrued": [0, 0, 0, 0, 0, 0, 0, 0, 0, 0, 0, 0, 0], "stateRewards": ["", 1, 2, 7, 13, 88, -71, 27, 3, 60, 5, -53, -2, 2, -6, -1, -30, 79, 47, -4, -14, 46, 68, 1, 1, 8, 10, -14, 86, 48, -11, -67, -44, 5], "withholdReward": false, "trial_id": "mdp_trial_19", "block": "test", "trialIndex": 20, "score": 31.4, "costs": -8.6, "simulationMode": [null, null, null, null, null, null], "rewards": [-2, 2, -6, -1, 47], "path": ["0", "0", "12", "13", "14", "15", "18"], "rt": [12389, 257, 208, 1498, 161, 56], "actions": ["right", "right", "right", "right", "up", "left"], "actionTimes": [14963, 15222, 16003, 18050, 18721, 19353], "queries": {"click": {"state": {"target": ["20", "18", "10", "6"], "time": [3744, 6912, 10079, 13429]}, "edge": {"target": [], "time": []}}, "mouseover": {"state": {"target": ["13", "14", "20", "19", "7", "18", "10", "6"], "time": [3027, 3170, 3569, 4170, 4426, 4787, 7800, 10648]}, "edge": {"target": [], "time": []}}, "mouseout": {"state": {"target": ["1", "0", "13", "14", "20", "19", "7", "18", "10", "6"], "time": [1988, 2682, 3078, 3460, 4128, 4257, 4513, 7279, 10511, 20678]}, "edge": {"target": [], "time": []}}}, "displayed_time": "19.88", "trialTime": 20897, "trial_type": "mouselab-mdp", "trial_index": 27, "time_elapsed": 711946, "internal_node_id": "0.0-6.0-1.0-18.0"}}, {"uniqueid": "w27945393:a18387473", "current_trial": 28, "dateTime": 1693481498440, "trialdata": {"revealed_states": [], "clicked_states": ["27", "21", "17", "9"], "num_clicks_accrued": [0, 0, 0, 0, 0, 0, 0, 0, 0, 0, 0, 0, 0], "stateRewards": ["", 2, -3, -5, 5, 11, -9, -33, 6, 67, 6, -30, -1, -2, -6, 13, 55, 13, 72, -14, 75, 21, -66, -2, -4, 6, 15, -1, -35, 60, 2, 51, -73, 12], "withholdReward": false, "trial_id": "mdp_trial_20", "block": "test", "trialIndex": 21, "score": 58.4, "costs": -8.6, "simulationMode": [null, null, null, null, null], "rewards": [2, -3, -5, 6, 67], "path": ["0", "0", "1", "2", "3", "8", "9"], "rt": [15522, 68, 110, 1131, 162], "actions": ["up", "up", "up", "left", "up"], "actionTimes": [16233, 16823, 17455, 19142, 19856], "queries": {"click": {"state": {"target": ["27", "21", "17", "9"], "time": [2271, 5437, 8635, 11959]}, "edge": {"target": [], "time": []}}, "mouseover": {"state": {"target": ["1", "10", "27", "27", "14", "20", "21", "20", "17", "15", "1", "27", "11", "9", "28", "23"], "time": [1403, 1616, 1886, 2101, 2634, 2703, 3059, 6050, 6461, 9135, 9271, 9485, 9887, 10352, 14911, 15006]}, "edge": {"target": [], "time": []}}, "mouseout": {"state": {"target": ["0", "1", "10", "27", "27", "14", "20", "21", "20", "17", "15", "1", "27", "11", "9", "9", "9", "28", "23", "31"], "time": [429, 1453, 1644, 1921, 2529, 2667, 2740, 5951, 6098, 9132, 9193, 9342, 9548, 10087, 13235, 13625, 14738, 14941, 15069, 20852]}, "edge": {"target": [], "time": []}}}, "displayed_time": "20.36", "trialTime": 27175, "trial_type": "mouselab-mdp", "trial_index": 28, "time_elapsed": 739465, "internal_node_id": "0.0-6.0-1.0-19.0"}}, {"uniqueid": "w27945393:a18387473", "current_trial": 29, "dateTime": 1693481521921, "trialdata": {"revealed_states": [], "clicked_states": ["29", "17", "32", "5"], "num_clicks_accrued": [0, 0, 0, 0, 0, 0, 0, 0, 0, 0, 0, 0, 0], "stateRewards": ["", -2, 3, -5, -7, 66, 43, -60, -4, -70, -75, 4, -1, 2, 2, -13, 54, 11, -40, -1, 77, 32, 15, -2, 3, -8, -9, -35, 83, -27, 6, -74, -34, 44], "withholdReward": false, "trial_id": "mdp_trial_21", "block": "test", "trialIndex": 22, "score": 46.4, "costs": -8.6, "simulationMode": [null, null, null, null, null], "rewards": [-2, 3, -5, -7, 66], "path": ["0", "0", "1", "2", "3", "4", "5"], "rt": [15159, 79, 121, 1550, 128], "actions": ["up", "up", "up", "right", "up"], "actionTimes": [17130, 17743, 18424, 20586, 21264], "queries": {"click": {"state": {"target": ["29", "17", "32", "5"], "time": [3371, 6453, 9634, 12887]}, "edge": {"target": [], "time": []}}, "mouseover": {"state": {"target": ["0", "28", "26", "29", "26", "12", "13", "17", "17", "22", "32", "6", "5", "6", "21", "22"], "time": [2574, 2886, 3051, 3185, 4114, 4276, 4314, 4714, 5035, 7447, 7797, 11418, 11773, 13347, 14196, 14775]}, "edge": {"target": [], "time": []}}, "mouseout": {"state": {"target": ["23", "0", "0", "28", "26", "29", "29", "26", "12", "13", "17", "17", "22", "32", "6", "5", "6", "21", "22"], "time": [1467, 2258, 2591, 2902, 3138, 3428, 4112, 4149, 4311, 4356, 4872, 7394, 7504, 10994, 11560, 13276, 13496, 14555, 22894]}, "edge": {"target": [], "time": []}}}, "displayed_time": "21.80", "trialTime": 23097, "trial_type": "mouselab-mdp", "trial_index": 29, "time_elapsed": 762946, "internal_node_id": "0.0-6.0-1.0-20.0"}}, {"uniqueid": "w27945393:a18387473", "current_trial": 30, "dateTime": 1693481540145, "trialdata": {"revealed_states": [], "clicked_states": ["17", "11", "31"], "num_clicks_accrued": [0, 0, 0, 0, 0, 0, 0, 0, 0, 0, 0, 0, 0], "stateRewards": ["", -2, 2, -5, 1, 42, -63, -58, -6, 2, 16, 81, -2, 4, 7, -10, 33, 3, -33, -2, -52, -84, -27, 2, -3, -3, 15, -74, -14, -5, -5, -84, 79, -31], "withholdReward": false, "trial_id": "mdp_trial_22", "block": "test", "trialIndex": 23, "score": 63.55, "costs": -6.449999999999999, "simulationMode": [null, null, null, null, null, null], "rewards": [-2, 2, -5, -6, 81], "path": ["0", "0", "1", "2", "3", "8", "11"], "rt": [8854, 203, 221, 154, 65, 190], "actions": ["up", "up", "up", "up", "left", "left"], "actionTimes": [10388, 10594, 11370, 12059, 12698, 13457], "queries": {"click": {"state": {"target": ["17", "11", "31"], "time": [2711, 6135, 9306]}, "edge": {"target": [], "time": []}}, "mouseover": {"state": {"target": ["14", "17", "15", "11", "28", "31"], "time": [2180, 2505, 3343, 4387, 6800, 7590]}, "edge": {"target": [], "time": []}}, "mouseout": {"state": {"target": ["28", "0", "0", "14", "17", "15", "11", "28", "31"], "time": [282, 478, 642, 2203, 3340, 3376, 6744, 6865, 15797]}, "edge": {"target": [], "time": []}}}, "displayed_time": "16.38", "trialTime": 17762, "trial_type": "mouselab-mdp", "trial_index": 30, "time_elapsed": 781170, "internal_node_id": "0.0-6.0-1.0-21.0"}}, {"uniqueid": "w27945393:a18387473", "current_trial": 31, "dateTime": 1693481559546, "trialdata": {"revealed_states": [], "clicked_states": ["17", "29", "6", "32"], "num_clicks_accrued": [0, 0, 0, 0, 0, 0, 0, 0, 0, 0, 0, 0, 0], "stateRewards": ["", 1, 1, -5, 10, -31, 73, 14, -8, -23, 63, -70, -1, 2, 8, 7, 25, -59, 27, -10, -40, -71, -15, -2, 3, -8, -5, -19, 77, -34, 7, 67, 63, 19], "withholdReward": false, "trial_id": "mdp_trial_23", "block": "test", "trialIndex": 24, "score": 71.4, "costs": -8.6, "simulationMode": [null, null, null, null, null, null], "rewards": [1, 1, -5, 10, 73], "path": ["0", "0", "1", "2", "3", "4", "6"], "rt": [12135, 206, 363, 1015, 620, 109], "actions": ["up", "up", "up", "up", "right", "right"], "actionTimes": [12960, 13168, 14073, 15705, 16873, 17528], "queries": {"click": {"state": {"target": ["17", "29", "6", "32"], "time": [1962, 5237, 8623, 11653]}, "edge": {"target": [], "time": []}}, "mouseover": {"state": {"target": ["12", "13", "14", "17", "29", "10", "6", "31", "32"], "time": [1373, 1490, 1559, 1861, 3301, 6161, 6549, 9439, 9801]}, "edge": {"target": [], "time": []}}, "mouseout": {"state": {"target": ["0", "12", "13", "14", "17", "29", "10", "6", "31", "32"], "time": [1344, 1472, 1525, 1593, 2582, 6043, 6223, 9087, 9505, 12178]}, "edge": {"target": [], "time": []}}}, "displayed_time": "18.05", "trialTime": 18994, "trial_type": "mouselab-mdp", "trial_index": 31, "time_elapsed": 800570, "internal_node_id": "0.0-6.0-1.0-22.0"}}, {"uniqueid": "w27945393:a18387473", "current_trial": 32, "dateTime": 1693481590041, "trialdata": {"revealed_states": [], "clicked_states": ["20", "27", "5", "32", "17", "29"], "num_clicks_accrued": [0, 0, 0, 0, 0, 0, 0, 0, 0, 0, 0, 0, 0], "stateRewards": ["", -1, -3, -7, -7, -76, 30, -49, 11, -70, 56, 2, 1, 4, -3, -14, -59, -83, -25, -9, -21, -67, -73, -2, 4, 4, -9, -11, -32, 60, 9, -87, 22, -64], "withholdReward": false, "trial_id": "mdp_trial_24", "block": "test", "trialIndex": 25, "score": 44.1, "costs": -12.9, "simulationMode": [null, null, null, null, null], "rewards": [-2, 4, 4, -9, 60], "path": ["0", "0", "23", "24", "25", "26", "29"], "rt": [22659, 175, 90, 979, 64], "actions": ["left", "left", "left", "up", "left"], "actionTimes": [23701, 24427, 25050, 26579, 27176], "queries": {"click": {"state": {"target": ["20", "27", "5", "32", "17", "29"], "time": [2471, 5711, 9476, 12658, 16192, 19654]}, "edge": {"target": [], "time": []}}, "mouseover": {"state": {"target": ["18", "20", "13", "28", "26", "27", "1", "4", "5", "6", "16", "32", "14", "17", "29", "29", "29", "19", "33"], "time": [1857, 2324, 3253, 3381, 3632, 4012, 6892, 7166, 7380, 9924, 9996, 10444, 13326, 13693, 17318, 18278, 19122, 20752, 21253]}, "edge": {"target": [], "time": []}}, "mouseout": {"state": {"target": ["0", "18", "20", "13", "28", "26", "27", "1", "4", "5", "6", "16", "32", "14", "17", "29", "29", "29", "19", "33", "30"], "time": [1525, 1876, 3170, 3294, 3419, 3837, 6233, 6953, 7310, 9922, 9995, 10078, 13112, 13544, 16636, 17861, 18347, 20327, 20968, 28607, 28671]}, "edge": {"target": [], "time": []}}}, "displayed_time": "27.76", "trialTime": 30091, "trial_type": "mouselab-mdp", "trial_index": 32, "time_elapsed": 831065, "internal_node_id": "0.0-6.0-1.0-23.0"}}, {"uniqueid": "w27945393:a18387473", "current_trial": 33, "dateTime": 1693481614417, "trialdata": {"revealed_states": [], "clicked_states": ["17", "6"], "num_clicks_accrued": [0, 0, 0, 0, 0, 0, 0, 0, 0, 0, 0, 0, 0], "stateRewards": ["", 1, 1, -2, 7, -31, -6, 76, 1, -36, -16, -53, 2, 1, 7, 13, -47, -10, 47, -7, 72, 46, -56, -2, -2, -2, 11, -80, 44, 38, 16, 67, 85, -78], "withholdReward": false, "trial_id": "mdp_trial_25", "block": "test", "trialIndex": 26, "score": 44.7, "costs": -4.3, "simulationMode": [null, null, null, null, null], "rewards": [-2, -2, -2, 11, 44], "path": ["0", "0", "23", "24", "25", "26", "28"], "rt": [15717, 159, 756, 152, 389], "actions": ["left", "left", "left", "up", "right"], "actionTimes": [17450, 18154, 19435, 20138, 21058], "queries": {"click": {"state": {"target": ["17", "6"], "time": [3906, 8149]}, "edge": {"target": [], "time": []}}, "mouseover": {"state": {"target": ["0", "12", "13", "14", "17", "14", "23", "24", "25", "33", "25", "24", "7", "6", "27", "29", "33", "30", "31"], "time": [2355, 3304, 3377, 3455, 3740, 4249, 4379, 4423, 4470, 4961, 7100, 7184, 7449, 7710, 8892, 9188, 12235, 16199, 16482]}, "edge": {"target": [], "time": []}}, "mouseout": {"state": {"target": ["0", "0", "12", "13", "14", "17", "14", "23", "24", "25", "33", "25", "24", "7", "6", "27", "29", "33", "30", "31"], "time": [1382, 2399, 3348, 3418, 3532, 4206, 4291, 4420, 4467, 4616, 6982, 7128, 7265, 7532, 8612, 8964, 11821, 16166, 16382, 16532]}, "edge": {"target": [], "time": []}}}, "displayed_time": "21.59", "trialTime": 23994, "trial_type": "mouselab-mdp", "trial_index": 33, "time_elapsed": 855442, "internal_node_id": "0.0-6.0-1.0-24.0"}}, {"uniqueid": "w27945393:a18387473", "current_trial": 34, "dateTime": 1693481631545, "trialdata": {"revealed_states": [], "clicked_states": ["2", "7"], "num_clicks_accrued": [0, 0, 0, 0, 0, 0, 0, 0, 0, 0, 0, 0, 0], "stateRewards": ["", 2, 3, -2, -8, -8, -41, 74, 15, -23, -80, 1, 1, 3, 3, -15, -63, -78, 67, 13, 75, -41, 86, 2, -2, 6, -3, -8, -49, 50, -6, 83, 74, 80], "withholdReward": false, "trial_id": "mdp_trial_26", "block": "test", "trialIndex": 27, "score": 66.5, "costs": -2.5, "simulationMode": [null, null, null, null, null], "rewards": [2, 3, -2, -8, 74], "path": ["0", "0", "1", "2", "3", "4", "7"], "rt": [7451, 102, 169, 127, 61], "actions": ["up", "up", "up", "right", "down"], "actionTimes": [8272, 8918, 9614, 10271, 10869], "queries": {"click": {"state": {"target": ["2", "7"], "time": [3166, 3989]}, "edge": {"target": [], "time": []}}, "mouseover": {"state": {"target": ["1", "2", "7", "7", "16", "6", "6", "4", "3", "8", "4", "6", "6"], "time": [2711, 2981, 3502, 3824, 4348, 4574, 5398, 5449, 5762, 5971, 6581, 6985, 7285]}, "edge": {"target": [], "time": []}}, "mouseout": {"state": {"target": ["0", "1", "2", "7", "7", "16", "6", "6", "4", "3", "8", "4", "6", "6", "15", "14", "22"], "time": [1012, 2765, 3462, 3541, 4076, 4388, 5016, 5445, 5558, 5918, 6522, 6644, 7044, 7512, 12196, 12243, 12447]}, "edge": {"target": [], "time": []}}}, "displayed_time": "15.65", "trialTime": 16736, "trial_type": "mouselab-mdp", "trial_index": 34, "time_elapsed": 872570, "internal_node_id": "0.0-6.0-1.0-25.0"}}, {"uniqueid": "w27945393:a18387473", "current_trial": 35, "dateTime": 1693481648762, "trialdata": {"revealed_states": [], "clicked_states": ["27", "20"], "num_clicks_accrued": [0, 0, 0, 0, 0, 0, 0, 0, 0, 0, 0, 0, 0], "stateRewards": ["", -1, 4, -6, -5, -22, -38, -38, -2, -56, 88, 14, -1, -1, -7, -6, 61, -60, 21, 11, 57, 31, -30, -2, -2, 6, -9, -44, -70, -44, -15, 34, 16, -78], "withholdReward": false, "trial_id": "mdp_trial_27", "block": "test", "trialIndex": 28, "score": 54.7, "costs": -4.3, "simulationMode": [null, null, null, null, null], "rewards": [-1, -1, -7, 11, 57], "path": ["0", "0", "12", "13", "14", "19", "20"], "rt": [8195, 85, 67, 326, 145], "actions": ["right", "right", "right", "down", "right"], "actionTimes": [9128, 9751, 10370, 11264, 11951], "queries": {"click": {"state": {"target": ["27", "20"], "time": [1746, 4745]}, "edge": {"target": [], "time": []}}, "mouseover": {"state": {"target": ["28", "26", "27", "17", "20", "20", "18", "4", "5", "6"], "time": [1259, 1347, 1643, 2138, 2357, 2651, 5744, 6013, 6134, 8402]}, "edge": {"target": [], "time": []}}, "mouseout": {"state": {"target": ["0", "28", "26", "27", "17", "20", "20", "18", "4", "5", "6", "22", "21", "21"], "time": [1114, 1327, 1427, 2051, 2169, 2437, 5582, 5790, 6074, 8367, 8471, 14244, 16227, 16497]}, "edge": {"target": [], "time": []}}}, "displayed_time": "16.00", "trialTime": 16801, "trial_type": "mouselab-mdp", "trial_index": 35, "time_elapsed": 889786, "internal_node_id": "0.0-6.0-1.0-26.0"}}, {"uniqueid": "w27945393:a18387473", "current_trial": 36, "dateTime": 1693481677447, "trialdata": {"revealed_states": [], "clicked_states": ["6", "11", "29", "20"], "num_clicks_accrued": [0, 0, 0, 0, 0, 0, 0, 0, 0, 0, 0, 0, 0], "stateRewards": ["", -2, -3, 1, -14, 48, -49, 67, -1, -35, -48, 3, -2, 1, -4, -5, 86, -84, 39, 1, 48, 41, -42, -1, -4, 2, -7, 18, -86, 17, 7, -9, 57, -69], "withholdReward": false, "trial_id": "mdp_trial_28", "block": "test", "trialIndex": 29, "score": 35.4, "costs": -8.6, "simulationMode": [null, null, null, null, null], "rewards": [-2, 1, -4, 1, 48], "path": ["0", "0", "12", "13", "14", "19", "20"], "rt": [18858, 68, 1268, 96, 316], "actions": ["right", "right", "right", "down", "right"], "actionTimes": [19888, 20509, 22351, 22974, 23832], "queries": {"click": {"state": {"target": ["6", "11", "29", "20"], "time": [3714, 6972, 10490, 14780]}, "edge": {"target": [], "time": []}}, "mouseover": {"state": {"target": ["0", "31", "24", "10", "3", "1", "10", "6", "4", "11", "26", "29", "20", "19"], "time": [1288, 2465, 2523, 2631, 2816, 3085, 3147, 3531, 4399, 4681, 7924, 8137, 11579, 18049]}, "edge": {"target": [], "time": []}}, "mouseout": {"state": {"target": ["0", "0", "31", "24", "10", "3", "1", "10", "6", "4", "11", "26", "29", "20", "19", "20", "14"], "time": [1050, 1714, 2485, 2556, 2651, 2835, 3106, 3320, 4303, 4446, 7081, 8068, 10950, 17690, 25504, 25550, 26666]}, "edge": {"target": [], "time": []}}}, "displayed_time": "24.39", "trialTime": 28310, "trial_type": "mouselab-mdp", "trial_index": 36, "time_elapsed": 918472, "internal_node_id": "0.0-6.0-1.0-27.0"}}, {"uniqueid": "w27945393:a18387473", "current_trial": 37, "dateTime": 1693481693960, "trialdata": {"revealed_states": [], "clicked_states": ["32"], "num_clicks_accrued": [0, 0, 0, 0, 0, 0, 0, 0, 0, 0, 0, 0, 0], "stateRewards": ["", -1, 3, -5, -2, -13, -9, -34, -7, -81, 32, 35, -2, -2, 1, -14, -32, 81, 7, 4, 82, 56, -8, -1, 3, -8, 6, -24, -24, -53, 2, 38, 61, 54], "withholdReward": false, "trial_id": "mdp_trial_29", "block": "test", "trialIndex": 30, "score": 54.85, "costs": -2.15, "simulationMode": [null, null, null, null, null], "rewards": [-1, 3, -8, 2, 61], "path": ["0", "0", "23", "24", "25", "30", "32"], "rt": [5606, 64, 636, 68, 603], "actions": ["left", "left", "left", "down", "down"], "actionTimes": [6482, 7110, 8314, 8920, 10090], "queries": {"click": {"state": {"target": ["32"], "time": [2615]}, "edge": {"target": [], "time": []}}, "mouseover": {"state": {"target": ["28", "32", "31", "20", "19", "22"], "time": [1544, 2120, 3165, 3685, 3857, 4081]}, "edge": {"target": [], "time": []}}, "mouseout": {"state": {"target": ["0", "2", "2", "1", "28", "32", "31", "20", "19", "22", "13", "14", "22"], "time": [62, 194, 330, 377, 1649, 3007, 3244, 3855, 3947, 11068, 11388, 11444, 11595]}, "edge": {"target": [], "time": []}}}, "displayed_time": "15.68", "trialTime": 16121, "trial_type": "mouselab-mdp", "trial_index": 37, "time_elapsed": 934985, "internal_node_id": "0.0-6.0-1.0-28.0"}}, {"uniqueid": "w27945393:a18387473", "current_trial": 38, "dateTime": 1693481710785, "trialdata": {"revealed_states": [], "clicked_states": ["5", "20"], "num_clicks_accrued": [0, 0, 0, 0, 0, 0, 0, 0, 0, 0, 0, 0, 0], "stateRewards": ["", 1, -2, 7, -14, 88, -56, -44, -14, 64, -51, -57, -2, 3, -4, -9, -11, 19, -77, -1, 68, 75, -67, -1, 1, -2, 5, -37, 70, -34, -10, -72, 63, -41], "withholdReward": false, "trial_id": "mdp_trial_30", "block": "test", "trialIndex": 31, "score": 75.7, "costs": -4.3, "simulationMode": [null, null, null, null, null, null], "rewards": [1, -2, 7, -14, 88], "path": ["0", "0", "1", "2", "3", "4", "5"], "rt": [5382, 204, 718, 608, 63, 121], "actions": ["up", "up", "up", "up", "right", "up"], "actionTimes": [6562, 6770, 8042, 9252, 9863, 10555], "queries": {"click": {"state": {"target": ["5", "20"], "time": [2081, 5688]}, "edge": {"target": [], "time": []}}, "mouseover": {"state": {"target": ["4", "5", "6", "16", "20"], "time": [1798, 1964, 2503, 2546, 3188]}, "edge": {"target": [], "time": []}}, "mouseout": {"state": {"target": ["0", "4", "5", "6", "16", "20", "12", "7", "12"], "time": [464, 1883, 2422, 2543, 2588, 12538, 15265, 15566, 15783]}, "edge": {"target": [], "time": []}}}, "displayed_time": "15.85", "trialTime": 16316, "trial_type": "mouselab-mdp", "trial_index": 38, "time_elapsed": 951810, "internal_node_id": "0.0-6.0-1.0-29.0"}}, {"uniqueid": "w27945393:a18387473", "current_trial": 39, "dateTime": 1693481727304, "trialdata": {"revealed_states": [], "clicked_states": ["17"], "num_clicks_accrued": [0, 0, 0, 0, 0, 0, 0, 0, 0, 0, 0, 0, 0], "stateRewards": ["", 1, 2, -5, 14, 54, -14, -25, 16, -5, -87, 78, -1, 1, 3, -3, 52, 53, 53, -10, 73, -69, -48, 2, 3, 1, 8, -62, -7, 85, 7, 82, 52, -28], "withholdReward": false, "trial_id": "mdp_trial_31", "block": "test", "trialIndex": 32, "score": 50.85, "costs": -2.15, "simulationMode": [null, null, null, null, null], "rewards": [-1, 1, 3, -3, 53], "path": ["0", "0", "12", "13", "14", "15", "17"], "rt": [5639, 247, 140, 71, 388], "actions": ["right", "right", "right", "up", "right"], "actionTimes": [6684, 7476, 8155, 8779, 9733], "queries": {"click": {"state": {"target": ["17"], "time": [2163]}, "edge": {"target": [], "time": []}}, "mouseover": {"state": {"target": ["12", "13", "14", "17", "14", "13", "28", "24", "23", "23", "24", "31", "22"], "time": [1749, 1836, 1863, 2024, 2547, 2594, 2730, 3457, 3502, 3884, 4121, 4378, 5653]}, "edge": {"target": [], "time": []}}, "mouseout": {"state": {"target": ["0", "12", "13", "14", "17", "14", "13", "28", "24", "23", "23", "24", "31", "22"], "time": [1708, 1791, 1862, 1897, 2507, 2590, 2637, 2771, 3499, 3546, 4074, 4171, 5588, 14793]}, "edge": {"target": [], "time": []}}}, "displayed_time": "15.86", "trialTime": 16108, "trial_type": "mouselab-mdp", "trial_index": 39, "time_elapsed": 968329, "internal_node_id": "0.0-6.0-1.0-30.0"}}, {"uniqueid": "w27945393:a18387473", "current_trial": 40, "dateTime": 1693481753841, "trialdata": {"revealed_states": [], "clicked_states": ["31", "18", "22", "28", "29", "27"], "num_clicks_accrued": [0, 0, 0, 0, 0, 0, 0, 0, 0, 0, 0, 0, 0], "stateRewards": ["", 1, -4, 6, -3, 40, 76, -51, 5, -24, -63, 44, -2, -2, 8, 1, 76, -85, -58, 10, 59, 20, 11, -2, 3, -3, 3, -82, -10, 54, -7, -57, -6, -32], "withholdReward": false, "trial_id": "mdp_trial_32", "block": "test", "trialIndex": 33, "score": 42.1, "costs": -12.9, "simulationMode": [null, null, null, null, null, null], "rewards": [-2, 3, -3, 3, 54], "path": ["0", "0", "23", "24", "25", "26", "29"], "rt": [19422, 142, 225, 156, 247, 68], "actions": ["left", "left", "left", "left", "up", "left"], "actionTimes": [20628, 20773, 21540, 22239, 23019, 23610], "queries": {"click": {"state": {"target": ["31", "18", "22", "28", "29", "27"], "time": [2397, 5689, 8929, 12301, 16484, 19896]}, "edge": {"target": [], "time": []}}, "mouseover": {"state": {"target": ["23", "24", "25", "30", "31", "14", "18", "20", "22", "2", "28", "26", "27", "29", "27"], "time": [1727, 1798, 1906, 2166, 2239, 2805, 3166, 6917, 7283, 9608, 10111, 15838, 15979, 16356, 18850]}, "edge": {"target": [], "time": []}}, "mouseout": {"state": {"target": ["0", "23", "24", "25", "30", "31", "14", "18", "20", "22", "2", "28", "26", "27", "29", "29", "27", "23"], "time": [822, 1757, 1888, 2057, 2200, 2725, 2843, 6352, 7062, 9109, 9755, 15804, 15908, 16104, 16599, 17586, 25008, 25109]}, "edge": {"target": [], "time": []}}}, "displayed_time": "24.18", "trialTime": 26131, "trial_type": "mouselab-mdp", "trial_index": 40, "time_elapsed": 994866, "internal_node_id": "0.0-6.0-1.0-31.0"}}, {"uniqueid": "w27945393:a18387473", "current_trial": 41, "dateTime": 1693481774072, "trialdata": {"revealed_states": [], "clicked_states": ["16", "9", "21", "29"], "num_clicks_accrued": [0, 0, 0, 0, 0, 0, 0, 0, 0, 0, 0, 0, 0], "stateRewards": ["", -2, -4, 4, -11, -63, -60, -7, 2, -14, 81, -43, -1, -1, -5, 7, 10, 69, 40, 8, -83, 52, 60, 1, 2, 5, -5, 16, 64, 14, -3, 29, 7, -51], "withholdReward": false, "trial_id": "mdp_trial_33", "block": "test", "trialIndex": 34, "score": 44.4, "costs": -8.6, "simulationMode": [null, null, null, null, null], "rewards": [-1, -1, -5, 8, 52], "path": ["0", "0", "12", "13", "14", "19", "21"], "rt": [14064, 128, 64, 415, 112], "actions": ["right", "right", "right", "down", "down"], "actionTimes": [15152, 15830, 16424, 17415, 18063], "queries": {"click": {"state": {"target": ["16", "9", "21", "29"], "time": [2114, 5547, 8543, 11863]}, "edge": {"target": [], "time": []}}, "mouseover": {"state": {"target": ["15", "15", "16", "5", "9", "4", "21", "31", "26", "29"], "time": [1658, 1735, 2059, 2878, 3041, 6146, 6651, 9213, 9497, 9861]}, "edge": {"target": [], "time": []}}, "mouseout": {"state": {"target": ["0", "1", "0", "15", "15", "16", "5", "9", "4", "21", "31", "26", "29", "31"], "time": [388, 538, 1303, 1702, 1785, 2427, 2988, 6079, 6223, 8724, 9426, 9714, 19622, 19718]}, "edge": {"target": [], "time": []}}}, "displayed_time": "18.59", "trialTime": 19759, "trial_type": "mouselab-mdp", "trial_index": 41, "time_elapsed": 1015097, "internal_node_id": "0.0-6.0-1.0-32.0"}}, {"uniqueid": "w27945393:a18387473", "current_trial": 42, "dateTime": 1693481794408, "trialdata": {"revealed_states": [], "clicked_states": ["6", "17", "18"], "num_clicks_accrued": [0, 0, 0, 0, 0, 0, 0, 0, 0, 0, 0, 0, 0], "stateRewards": ["", -1, -3, -5, -14, -13, -47, 79, 8, -60, -64, 41, -1, 2, 3, 13, -46, 61, -79, -11, -64, -65, 23, 1, -2, 6, -14, 46, 32, 21, 7, 75, -66, 15], "withholdReward": false, "trial_id": "mdp_trial_34", "block": "test", "trialIndex": 35, "score": 71.55, "costs": -6.449999999999999, "simulationMode": [null, null, null, null, null, null], "rewards": [-1, 2, 3, 13, 61], "path": ["0", "0", "12", "13", "14", "15", "17"], "rt": [9302, 834, 291, 196, 63, 870], "actions": ["right", "right", "right", "right", "up", "right"], "actionTimes": [10214, 11050, 11869, 12589, 13177, 14621], "queries": {"click": {"state": {"target": ["6", "17", "18"], "time": [2282, 5430, 8890]}, "edge": {"target": [], "time": []}}, "mouseover": {"state": {"target": ["1", "7", "4", "6", "5", "17", "17", "16", "15", "18", "15"], "time": [1507, 1658, 1841, 2110, 2720, 3114, 3400, 5971, 6098, 6285, 9281]}, "edge": {"target": [], "time": []}}, "mouseout": {"state": {"target": ["0", "1", "7", "4", "6", "5", "17", "17", "16", "15", "18", "15", "15", "1", "28", "24", "28", "10", "3", "5"], "time": [1393, 1573, 1675, 1863, 2417, 2955, 3197, 5789, 6035, 6225, 9280, 9347, 17886, 17954, 18120, 18689, 18877, 18955, 19173, 19541]}, "edge": {"target": [], "time": []}}}, "displayed_time": "15.96", "trialTime": 19933, "trial_type": "mouselab-mdp", "trial_index": 42, "time_elapsed": 1035433, "internal_node_id": "0.0-6.0-1.0-33.0"}}, {"uniqueid": "w27945393:a18387473", "current_trial": 43, "dateTime": 1693481812343, "trialdata": {"revealed_states": [], "clicked_states": ["6", "11"], "num_clicks_accrued": [0, 0, 0, 0, 0, 0, 0, 0, 0, 0, 0, 0, 0], "stateRewards": ["", 1, -3, 4, 13, -72, 52, 5, 5, -58, 5, 14, 2, 1, 3, -14, -86, -4, 73, 6, -58, -50, 49, 2, -3, -4, 2, 33, -41, 42, -11, 81, 45, 53], "withholdReward": false, "trial_id": "mdp_trial_35", "block": "test", "trialIndex": 36, "score": 62.7, "costs": -4.3, "simulationMode": [null, null, null, null, null, null], "rewards": [1, -3, 4, 13, 52], "path": ["0", "0", "1", "2", "3", "4", "6"], "rt": [5338, 700, 326, 100, 385, 215], "actions": ["up", "up", "up", "up", "right", "right"], "actionTimes": [6416, 7118, 7984, 8615, 9537, 10290], "queries": {"click": {"state": {"target": ["6", "11"], "time": [2008, 5000]}, "edge": {"target": [], "time": []}}, "mouseover": {"state": {"target": ["1", "2", "7", "6", "8", "11", "11", "8"], "time": [1214, 1418, 1697, 1937, 2421, 2691, 3019, 5423]}, "edge": {"target": [], "time": []}}, "mouseout": {"state": {"target": ["4", "12", "1", "2", "7", "6", "8", "11", "11", "8", "10", "1"], "time": [null, 114, 1263, 1637, 1720, 2245, 2459, 2736, 5422, 16018, 16113, 16246]}, "edge": {"target": [], "time": []}}}, "displayed_time": "16.15", "trialTime": 17496, "trial_type": "mouselab-mdp", "trial_index": 43, "time_elapsed": 1053368, "internal_node_id": "0.0-6.0-1.0-34.0"}}, {"uniqueid": "w27945393:a18387473", "current_trial": 44, "dateTime": 1693481837159, "trialdata": {"revealed_states": [], "clicked_states": ["20", "33", "28", "27"], "num_clicks_accrued": [0, 0, 0, 0, 0, 0, 0, 0, 0, 0, 0, 0, 0], "stateRewards": ["", -2, -3, -7, 7, -54, -69, -4, -14, -77, 22, 40, -2, -1, 5, 6, -35, 50, -60, 10, -28, 75, 57, 1, -4, -2, 2, 68, 34, -18, 12, 3, -21, -43], "withholdReward": false, "trial_id": "mdp_trial_36", "block": "test", "trialIndex": 37, "score": 56.4, "costs": -8.6, "simulationMode": [null, null, null, null, null, null], "rewards": [1, -4, -2, 2, 68], "path": ["0", "0", "23", "24", "25", "26", "27"], "rt": [14771, 767, 767, 372, 629, 257], "actions": ["left", "left", "left", "left", "up", "up"], "actionTimes": [15481, 16250, 17562, 18475, 19650, 20441], "queries": {"click": {"state": {"target": ["20", "33", "28", "27"], "time": [2041, 5540, 11287, 14476]}, "edge": {"target": [], "time": []}}, "mouseover": {"state": {"target": ["0", "13", "14", "20", "19", "24", "33", "29", "28", "27"], "time": [787, 1538, 1566, 1936, 2355, 2518, 2981, 6026, 9558, 12589]}, "edge": {"target": [], "time": []}}, "mouseout": {"state": {"target": ["0", "0", "13", "14", "20", "19", "24", "33", "29", "28"], "time": [358, 1504, 1564, 1596, 2318, 2436, 2559, 5681, 9245, 11885]}, "edge": {"target": [], "time": []}}}, "displayed_time": "20.97", "trialTime": 24401, "trial_type": "mouselab-mdp", "trial_index": 44, "time_elapsed": 1078184, "internal_node_id": "0.0-6.0-1.0-35.0"}}, {"uniqueid": "w27945393:a18387473", "current_trial": 45, "dateTime": 1693481859577, "trialdata": {"revealed_states": [], "clicked_states": ["10", "7", "5", "9"], "num_clicks_accrued": [0, 0, 0, 0, 0, 0, 0, 0, 0, 0, 0, 0, 0], "stateRewards": ["", -1, 1, -5, -6, -78, 47, -13, 12, 48, -88, 20, 2, -3, -2, 13, -20, 37, -57, 14, -38, 30, 31, -2, -2, 8, 2, -23, 78, 28, 12, -74, -88, 8], "withholdReward": false, "trial_id": "mdp_trial_37", "block": "test", "trialIndex": 38, "score": 46.4, "costs": -8.6, "simulationMode": [null, null, null, null, null], "rewards": [-1, 1, -5, 12, 48], "path": ["0", "0", "1", "2", "3", "8", "9"], "rt": [16527, 107, 191, 87, 66], "actions": ["up", "up", "up", "left", "up"], "actionTimes": [17821, 18461, 19182, 19805, 20428], "queries": {"click": {"state": {"target": ["10", "7", "5", "9"], "time": [3097, 6866, 10112, 13450]}, "edge": {"target": [], "time": []}}, "mouseover": {"state": {"target": ["12", "13", "15", "18", "1", "10", "7", "4", "5", "9", "11", "27", "10", "2", "2"], "time": [1571, 1806, 1955, 2223, 2504, 2859, 3638, 7933, 8077, 10928, 13983, 14203, 16756, 16876, 17126]}, "edge": {"target": [], "time": []}}, "mouseout": {"state": {"target": ["12", "0", "12", "13", "15", "18", "1", "10", "7", "7", "4", "5", "9", "11", "27", "10", "2", "2", "1"], "time": [137, 1489, 1787, 1891, 1988, 2359, 2605, 3404, 7574, 7791, 8003, 10428, 13982, 14136, 16706, 16808, 17056, 21939, 22003]}, "edge": {"target": [], "time": []}}}, "displayed_time": "21.00", "trialTime": 22039, "trial_type": "mouselab-mdp", "trial_index": 45, "time_elapsed": 1100602, "internal_node_id": "0.0-6.0-1.0-36.0"}}, {"uniqueid": "w27945393:a18387473", "current_trial": 46, "dateTime": 1693481876831, "trialdata": {"revealed_states": [], "clicked_states": ["17", "22", "16"], "num_clicks_accrued": [0, 0, 0, 0, 0, 0, 0, 0, 0, 0, 0, 0, 0], "stateRewards": ["", -2, 4, -7, -3, -76, 39, -28, 10, 14, 12, 60, 2, -3, 6, -10, 88, -34, -41, -3, 72, -13, -56, 1, 3, 2, 8, -51, 23, -57, 1, 14, -46, -16], "withholdReward": false, "trial_id": "mdp_trial_38", "block": "test", "trialIndex": 39, "score": 76.55, "costs": -6.449999999999999, "simulationMode": [null, null, null, null, null], "rewards": [2, -3, 6, -10, 88], "path": ["0", "0", "12", "13", "14", "15", "16"], "rt": [11878, 121, 142, 67, 116], "actions": ["right", "right", "right", "up", "up"], "actionTimes": [12657, 13320, 13992, 14580, 15264], "queries": {"click": {"state": {"target": ["17", "22", "16"], "time": [1943, 5262, 8769]}, "edge": {"target": [], "time": []}}, "mouseover": {"state": {"target": ["12", "13", "14", "17", "20", "19", "22", "13", "15", "16", "18"], "time": [1127, 1269, 1567, 1916, 2771, 3008, 3171, 5899, 6195, 6557, 9997]}, "edge": {"target": [], "time": []}}, "mouseout": {"state": {"target": ["0", "12", "13", "14", "17", "20", "19", "22", "13", "15", "16", "18", "15", "19"], "time": [458, 1248, 1304, 1712, 2315, 2889, 3168, 5728, 5954, 6432, 9432, 12045, 16592, 16759]}, "edge": {"target": [], "time": []}}}, "displayed_time": "15.79", "trialTime": 16831, "trial_type": "mouselab-mdp", "trial_index": 46, "time_elapsed": 1117856, "internal_node_id": "0.0-6.0-1.0-37.0"}}, {"uniqueid": "w27945393:a18387473", "current_trial": 47, "dateTime": 1693481893857, "trialdata": {"revealed_states": [], "clicked_states": ["31", "22"], "num_clicks_accrued": [0, 0, 0, 0, 0, 0, 0, 0, 0, 0, 0, 0, 0], "stateRewards": ["", -1, -3, 4, -10, -5, 79, -87, -2, 53, 29, -20, -2, -1, -5, 10, 27, 86, 46, -16, -29, 40, 3, 2, 4, -1, -6, 37, 79, -29, 7, 86, -62, 29], "withholdReward": false, "trial_id": "mdp_trial_39", "block": "test", "trialIndex": 40, "score": 93.7, "costs": -4.3, "simulationMode": [null, null, null, null, null, null], "rewards": [2, 4, -1, 7, 86], "path": ["0", "0", "23", "24", "25", "30", "31"], "rt": [5459, 157, 132, 779, 1062, 111], "actions": ["left", "left", "left", "left", "down", "right"], "actionTimes": [6273, 6433, 7084, 8447, 10039, 10679], "queries": {"click": {"state": {"target": ["31", "22"], "time": [2095, 5435]}, "edge": {"target": [], "time": []}}, "mouseover": {"state": {"target": ["23", "24", "25", "31", "20", "19", "22"], "time": [1427, 1541, 1711, 1992, 2859, 3052, 3302]}, "edge": {"target": [], "time": []}}, "mouseout": {"state": {"target": ["0", "23", "24", "25", "31", "20", "19", "22"], "time": [1380, 1460, 1644, 1897, 2522, 3016, 3214, 12325]}, "edge": {"target": [], "time": []}}}, "displayed_time": "16.00", "trialTime": 16640, "trial_type": "mouselab-mdp", "trial_index": 47, "time_elapsed": 1134881, "internal_node_id": "0.0-6.0-1.0-38.0"}}, {"uniqueid": "w27945393:a18387473", "current_trial": 48, "dateTime": 1693481910784, "trialdata": {"revealed_states": [], "clicked_states": ["21"], "num_clicks_accrued": [0, 0, 0, 0, 0, 0, 0, 0, 0, 0, 0, 0, 0], "stateRewards": ["", 1, -1, 8, -3, 38, 85, -20, -4, 8, 23, 73, 2, -4, 6, -13, 44, 7, -28, -11, -77, 45, -69, 1, -1, -7, -11, 75, -51, -87, 7, 36, -53, -26], "withholdReward": false, "trial_id": "mdp_trial_40", "block": "test", "trialIndex": 41, "score": 35.85, "costs": -2.15, "simulationMode": [null, null, null, null, null], "rewards": [2, -4, 6, -11, 45], "path": ["0", "0", "12", "13", "14", "19", "21"], "rt": [4766, 123, 144, 83, 147], "actions": ["right", "right", "right", "down", "down"], "actionTimes": [6142, 6813, 7485, 8099, 8796], "queries": {"click": {"state": {"target": ["21"], "time": [2406]}, "edge": {"target": [], "time": []}}, "mouseover": {"state": {"target": ["12", "21", "21", "32", "32"], "time": [1836, 1996, 2331, 2813, 3078]}, "edge": {"target": [], "time": []}}, "mouseout": {"state": {"target": ["0", "0", "12", "21", "21", "32", "32"], "time": [565, 1814, 1875, 2031, 2724, 2900, 14086]}, "edge": {"target": [], "time": []}}}, "displayed_time": "15.81", "trialTime": 16556, "trial_type": "mouselab-mdp", "trial_index": 48, "time_elapsed": 1151808, "internal_node_id": "0.0-6.0-1.0-39.0"}}, {"uniqueid": "w27945393:a18387473", "current_trial": 49, "dateTime": 1693481958946, "trialdata": {"rt": 48158, "response": {"Q0": "$-88 to $88", "Q1": "$-32 to $32", "Q2": "$-16 to $16", "Q3": "The cost for clicking on nodes varied between nodes.", "Q4": "Slightly motivated"}, "question_order": [0, 1, 2, 3, 4], "trial_id": "final_quiz_control", "trial_type": "survey-multi-choice", "trial_index": 49, "time_elapsed": 1199971, "internal_node_id": "0.0-6.0-2.0"}}, {"uniqueid": "w27945393:a18387473", "current_trial": 50, "dateTime": 1693482014802, "trialdata": {"rt": 55831, "response": {"Q0": "Click the nodes and which ever was more i chose them", "Q1": "not really just kept selecting numbers higher than the deficit", "Q2": "not difficult"}, "trial_id": "self_report_control", "trial_type": "survey-text", "trial_index": 50, "time_elapsed": 1255827, "internal_node_id": "0.0-6.0-3.0"}}, {"uniqueid": "w27945393:a18387473", "current_trial": 51, "dateTime": 1693482078838, "trialdata": {"rt": 64030, "response": {"Q0": "Disagree", "Q1": "Disagree", "Q2": "Agree", "Q3": "Agree", "Q4": "Disagree", "Q5": "Agree", "Q6": "Disagree"}, "question_order": [0, 1, 2, 3, 4, 5, 6], "trial_id": "self_report_2", "trial_type": "survey-multi-choice", "trial_index": 51, "time_elapsed": 1319863, "internal_node_id": "0.0-6.0-4.0"}}, {"uniqueid": "w27945393:a18387473", "current_trial": 52, "dateTime": 1693482102751, "trialdata": {"rt": 23898, "response": {"gender": "male", "age": "30", "colorblind": "0", "effort": "0"}, "trial_type": "survey-html-form", "trial_index": 52, "time_elapsed": 1343776, "internal_node_id": "0.0-6.0-5.0"}}, {"uniqueid": "w27945393:a18387473", "current_trial": 53, "dateTime": 1693482116075, "trialdata": {"rt": 13317, "response": {"Q0": "no", "Q1": "no", "Q2": "na"}, "trial_type": "survey-text", "trial_index": 53, "time_elapsed": 1357100, "internal_node_id": "0.0-6.0-6.0"}}, {"uniqueid": "w27945393:a18387473", "current_trial": 54, "dateTime": 1693482138510, "trialdata": {"rt": 22433, "stimulus": "<h1>Completion Code Instructions (1/2)</h1>\n<br><br><br><br>\nYou have reached the end of the experiment! The completion code consists of two parts: (1) a code with 2 characters (2) a code with 6 characters. On this page, you will receive the second part of the code. The first part of the completion code will be on the next page.\n<br><br>\nThe second part of your completion code is: <b>EWEK22</b>\n<br><br>\nPlease note this down. Then, press 'Finish HIT' in order to find the first part of your completion code. Once the data has been saved, you will receive this code either in this window or in the original browser window where you started the experiment.\n", "response": 0, "trial_type": "html-button-response", "trial_index": 54, "time_elapsed": 1379535, "internal_node_id": "0.0-6.0-7.0"}}, {"uniqueid": "w27945393:a18387473", "current_trial": 55, "dateTime": 1693482139550, "trialdata": {"success": true, "trial_type": "fullscreen", "trial_index": 55, "time_elapsed": 1380575, "internal_node_id": "0.0-7.0"}}], "questiondata": {"params": {"CODE": "C6DMOQA6", "MIN_TIME": 14, "inspectCost": 1, "startTime": "Thu Aug 31 2023 13:19:08 GMT+0200 (South Africa Standard Time)", "bonusRate": 0.002, "variance": "1_2_4_8_44", "branching": "31123"}, "final_score": 2054.6}, "eventdata": [{"eventtype": "initialized", "value": null, "timestamp": 1693480747881, "interval": 0}, {"eventtype": "window_resize", "value": [1024, 768], "timestamp": 1693480747881, "interval": 0}, {"eventtype": "window_resize", "value": [1024, 768], "timestamp": 1693480748383, "interval": 502}, {"eventtype": "window_resize", "value": [1920, 1080], "timestamp": 1693480765198, "interval": 16815}, {"eventtype": "focus", "value": "off", "timestamp": 1693480769333, "interval": 4135}, {"eventtype": "focus", "value": "on", "timestamp": 1693480774613, "interval": 5280}, {"eventtype": "focus", "value": "off", "timestamp": 1693480801497, "interval": 26884}, {"eventtype": "focus", "value": "on", "timestamp": 1693480846451, "interval": 44954}, {"eventtype": "focus", "value": "off", "timestamp": 1693481493702, "interval": 647251}, {"eventtype": "focus", "value": "on", "timestamp": 1693481495649, "interval": 1947}, {"eventtype": "focus", "value": "off", "timestamp": 1693481918117, "interval": 422468}, {"eventtype": "focus", "value": "on", "timestamp": 1693481929317, "interval": 11200}, {"eventtype": "focus", "value": "off", "timestamp": 1693482036672, "interval": 107355}, {"eventtype": "focus", "value": "on", "timestamp": 1693482042870, "interval": 6198}, {"eventtype": "focus", "value": "off", "timestamp": 1693482053974, "interval": 11104}, {"eventtype": "focus", "value": "on", "timestamp": 1693482055974, "interval": 2000}, {"eventtype": "window_resize", "value": [1024, 768], "timestamp": 1693482138999, "interval": 83025}], "useragent": "Mozilla/5.0 (Windows NT 10.0; Win64; x64; rv:109.0) Gecko/20100101 Firefox/116.0", "mode": "live", "id": "w27945393:a18387473", "status": "user data saved", "Beginhit": "2023-08-31 11:18:50.827387", "Beginexp": "2023-08-31 11:19:26.608321", "Endhit": "2023-08-31 11:42:21.933542", "psiturkStatus": 3, "browser": "<redacted>", "platform": "windows", "language": "en-US"}