{"condition": 0, "counterbalance": 0, "assignmentId": "a48944311", "workerId": "w27372122", "hitId": "h58088901", "currenttrial": 55, "bonus": 0, "data": [{"uniqueid": "w27372122:a48944311", "current_trial": 0, "dateTime": 1691142155169, "trialdata": {"success": true, "trial_type": "fullscreen", "trial_index": 0, "time_elapsed": 8724, "internal_node_id": "0.0-0.0"}}, {"uniqueid": "w27372122:a48944311", "current_trial": 1, "dateTime": 1691142187508, "trialdata": {"view_history": [{"page_index": 0, "viewing_time": 32308}], "rt": 32312, "trial_id": "exp_instructions_control", "trial_type": "instructions", "trial_index": 1, "time_elapsed": 41064, "internal_node_id": "0.0-1.0"}}, {"uniqueid": "w27372122:a48944311", "current_trial": 2, "dateTime": 1691142191849, "trialdata": {"success": true, "trial_type": "fullscreen", "trial_index": 2, "time_elapsed": 45406, "internal_node_id": "0.0-2.0-0.0"}}, {"uniqueid": "w27372122:a48944311", "current_trial": 3, "dateTime": 1691142641263, "trialdata": {"view_history": [{"page_index": 0, "viewing_time": 217381}, {"page_index": 1, "viewing_time": 140841}, {"page_index": 2, "viewing_time": 42789}, {"page_index": 3, "viewing_time": 48383}], "rt": 449399, "trial_id": "mouselab_instructions_1_control", "trial_type": "instructions", "trial_index": 3, "time_elapsed": 494817, "internal_node_id": "0.0-2.0-1.0"}}, {"uniqueid": "w27372122:a48944311", "current_trial": 4, "dateTime": 1691142700933, "trialdata": {"revealed_states": [], "clicked_states": ["23", "12"], "num_clicks_accrued": [0, 0, 0, 0, 0, 0, 0, 0, 0, 0, 0, 0, 0], "stateRewards": ["", -10, 10, 10, 10, 10, 10, 10, 10, 10, 10, 10, -10, -10, 10, 10, 10, 10, 10, 10, -10, -10, 10, 10, 10, 10, 10, 10, -10, 10, 10, -10, -10, -10], "withholdReward": false, "trial_id": "practice_1", "block": "test", "trialIndex": 0, "score": 52.5, "costs": -1, "simulationMode": [null, null, null, null, null], "rewards": [10, 10, 10, 10, 10], "path": ["0", "0", "23", "24", "25", "26", "27"], "rt": [36786, 5708, 887, 1395, 364], "actions": ["left", "left", "left", "up", "up"], "actionTimes": [40902, 47122, 48533, 50440, 51324], "queries": {"click": {"state": {"target": ["23", "12"], "time": [12845, 16653]}, "edge": {"target": [], "time": []}}, "mouseover": {"state": {"target": ["1", "1", "10", "2", "1", "23", "0", "12", "0", "12", "23", "23", "0", "23", "23", "0", "23", "23", "0", "23", "24", "23", "23", "18", "15"], "time": [4988, 8156, 8756, 10869, 10972, 11487, 14219, 14493, 15185, 16037, 18670, 20136, 22236, 23901, 25046, 26536, 28037, 28971, 33003, 35735, 35835, 36651, 38488, 40551, 40587]}, "edge": {"target": [], "time": []}}, "mouseout": {"state": {"target": ["0", "1", "1", "10", "2", "1", "23", "0", "12", "0", "12", "23", "23", "0", "23", "23", "0", "23", "23", "0", "23", "24", "23", "23", "18", "15", "0"], "time": [4704, 6619, 8421, 10769, 10904, 11303, 14168, 14243, 14985, 15318, 18053, 19387, 20887, 23871, 23922, 25803, 26636, 28252, 31287, 33816, 35785, 36334, 37603, 38568, 40575, 40616, 57185]}, "edge": {"target": [], "time": []}}}, "displayed_time": "51.84", "trialTime": 58021, "trial_type": "mouselab-mdp", "trial_index": 4, "time_elapsed": 554489, "internal_node_id": "0.0-2.0-2.0-0.0"}}, {"uniqueid": "w27372122:a48944311", "current_trial": 5, "dateTime": 1691142735072, "trialdata": {"revealed_states": [], "clicked_states": ["1"], "num_clicks_accrued": [0, 0, 0, 0, 0, 0, 0, 0, 0, 0, 0, 0, 0], "stateRewards": ["", 10, -10, -10, 10, -10, -10, -10, 10, 10, 10, 10, 10, 10, -10, 10, -10, -10, -10, -10, 10, 10, -10, -10, 10, 10, -10, 10, -10, -10, 10, -10, 10, 10], "withholdReward": false, "trial_id": "practice_2", "block": "test", "trialIndex": 1, "score": 13, "costs": -0.5, "simulationMode": [null, null, null, null, null], "rewards": [10, -10, -10, 10, 10], "path": ["0", "0", "1", "2", "3", "8", "9"], "rt": [6812, 1990, 13341, 960, 496], "actions": ["up", "up", "up", "left", "up"], "actionTimes": [10298, 12850, 26724, 28201, 29215], "queries": {"click": {"state": {"target": ["1"], "time": [8137]}, "edge": {"target": [], "time": []}}, "mouseover": {"state": {"target": ["1", "2", "12", "1"], "time": [5710, 6544, 7393, 7776]}, "edge": {"target": [], "time": []}}, "mouseout": {"state": {"target": ["0", "1", "2", "12", "1", "2", "8", "10", "3", "8", "10", "3", "1", "0", "21"], "time": [4709, 6359, 7010, 7693, 14393, 14793, 16534, 16825, 18209, 18909, 21277, 22176, 22242, 22270, 31459]}, "edge": {"target": [], "time": []}}}, "displayed_time": "29.74", "trialTime": 33032, "trial_type": "mouselab-mdp", "trial_index": 5, "time_elapsed": 588626, "internal_node_id": "0.0-2.0-2.0-1.0"}}, {"uniqueid": "w27372122:a48944311", "current_trial": 6, "dateTime": 1691142806452, "trialdata": {"view_history": [{"page_index": 0, "viewing_time": 62026}, {"page_index": 1, "viewing_time": 9335}], "rt": 71363, "trial_id": "mouselab_instructions_2_control", "trial_type": "instructions", "trial_index": 6, "time_elapsed": 660009, "internal_node_id": "0.0-2.0-3.0"}}, {"uniqueid": "w27372122:a48944311", "current_trial": 7, "dateTime": 1691142858627, "trialdata": {"rt": 52143, "response": {"Q0": "The cost for clicking on nodes may vary between nodes.", "Q1": "The better I perform the higher my bonus will be.", "Q2": "No, the amount of cash at each node of the web may be different each time.", "Q3": "To get the highest total score.", "Q4": "Only before moving the spider.", "Q5": "3 seconds"}, "question_order": [0, 1, 2, 3, 4, 5], "correct": {"Q0": "The cost for clicking on nodes may vary between nodes.", "Q1": "The better I perform the higher my bonus will be.", "Q2": "No, the amount of cash at each node of the web may be different each time.", "Q3": "To get the highest total score.", "Q4": "Only before moving the spider.", "Q5": "3 seconds"}, "trial_id": "mouselab_quiz_control", "trial_type": "survey-multi-choice", "trial_index": 7, "time_elapsed": 712183, "internal_node_id": "0.0-2.0-4.0"}}, {"uniqueid": "w27372122:a48944311", "current_trial": 8, "dateTime": 1691142886644, "trialdata": {"rt": 27977, "stimulus": "\n<h1> Get ready to start the game! </h1>\n\nThank you for reading the instructions. Get ready start with the 40 rounds of this game.\n<br><br>\nIf you need to take a break, feel free to take one after the end of a round, before continuing to the next one.\n<br><br>\nRemember, the more money the spider gets, the bigger your bonus will be!\n<br><br>\n<div style='text-align: center;'>Press <code>space</code> to begin.</div>\n\n<br><br>\n(If, at any point, the <code>space</code> key does not take you to the next page, click once on the text and try again.)", "response": " ", "trial_id": "mdp_ready", "trial_type": "html-keyboard-response", "trial_index": 8, "time_elapsed": 740200, "internal_node_id": "0.0-4.0-0.0"}}, {"uniqueid": "w27372122:a48944311", "current_trial": 9, "dateTime": 1691142907174, "trialdata": {"revealed_states": [], "clicked_states": [], "num_clicks_accrued": [0, 0, 0, 0, 0, 0, 0, 0, 0, 0, 0, 0, 0], "stateRewards": ["", -1, 2, -2, 5, 80, -61, -27, 12, 44, -26, -75, -2, -4, 1, -16, 42, -49, -50, 4, -44, 2, 80, -2, -2, 5, -2, 59, 10, 24, 7, -48, -86, -44], "withholdReward": false, "trial_id": "mdp_trial_1", "block": "test", "trialIndex": 2, "score": 84, "costs": 0, "simulationMode": [null, null, null, null, null], "rewards": [-1, 2, -2, 5, 80], "path": ["0", "0", "1", "2", "3", "4", "5"], "rt": [5241, 641, 1687, 822, 304], "actions": ["up", "up", "up", "right", "up"], "actionTimes": [8239, 9417, 11640, 12975, 13790], "queries": {"click": {"state": {"target": [], "time": []}, "edge": {"target": [], "time": []}}, "mouseover": {"state": {"target": ["1"], "time": [5559]}, "edge": {"target": [], "time": []}}, "mouseout": {"state": {"target": ["3", "2", "1", "0", "0", "1", "13"], "time": [1325, 1374, 1425, 1557, 5160, 16277, 16304]}, "edge": {"target": [], "time": []}}}, "displayed_time": "17.00", "trialTime": 19359, "trial_type": "mouselab-mdp", "trial_index": 9, "time_elapsed": 760727, "internal_node_id": "0.0-4.0-1.0-0.0"}}, {"uniqueid": "w27372122:a48944311", "current_trial": 10, "dateTime": 1691142929157, "trialdata": {"revealed_states": [], "clicked_states": ["23", "12"], "num_clicks_accrued": [0, 0, 0, 0, 0, 0, 0, 0, 0, 0, 0, 0, 0], "stateRewards": ["", -2, 2, -5, 1, 42, -63, -58, -6, 2, 16, 81, -2, 4, 7, -10, 33, 3, -33, -2, -52, -84, -27, 2, -3, -3, 15, -74, -14, -5, -5, -84, 79, -31], "withholdReward": false, "trial_id": "mdp_trial_2", "block": "test", "trialIndex": 3, "score": 67.2, "costs": -2.8, "simulationMode": [null, null, null, null, null], "rewards": [2, -3, -3, -5, 79], "path": ["0", "0", "23", "24", "25", "30", "32"], "rt": [7526, 1034, 698, 719, 29], "actions": ["left", "left", "left", "down", "down"], "actionTimes": [11889, 13440, 14653, 15906, 16469], "queries": {"click": {"state": {"target": ["23", "12"], "time": [5733, 8775]}, "edge": {"target": [], "time": []}}, "mouseover": {"state": {"target": ["23", "23", "12", "0", "12", "13", "13", "12", "0", "23"], "time": [4996, 5497, 6824, 7044, 7929, 8096, 8312, 8429, 10863, 11061]}, "edge": {"target": [], "time": []}}, "mouseout": {"state": {"target": ["18", "16", "17", "12", "0", "0", "23", "23", "12", "0", "12", "13", "13", "12", "0", "23", "13"], "time": [2376, 2429, 2611, 2659, 2680, 4402, 5029, 6737, 6978, 7079, 7979, 8149, 8379, 10829, 10961, 18963, 19046]}, "edge": {"target": [], "time": []}}}, "displayed_time": "18.37", "trialTime": 20811, "trial_type": "mouselab-mdp", "trial_index": 10, "time_elapsed": 782711, "internal_node_id": "0.0-4.0-1.0-1.0"}}, {"uniqueid": "w27372122:a48944311", "current_trial": 11, "dateTime": 1691142953607, "trialdata": {"revealed_states": [], "clicked_states": ["1", "12", "23"], "num_clicks_accrued": [0, 0, 0, 0, 0, 0, 0, 0, 0, 0, 0, 0, 0], "stateRewards": ["", -1, -2, 4, 9, 10, -75, 39, 16, -43, 88, -19, -1, 1, 2, 4, -31, 10, 73, 12, 41, -64, -81, -2, 2, -6, 1, -81, -1, -26, 3, -59, -3, -20], "withholdReward": false, "trial_id": "mdp_trial_3", "block": "test", "trialIndex": 4, "score": -90.2, "costs": -4.199999999999999, "simulationMode": [null, null, null, null, null], "rewards": [-2, 2, -6, 1, -81], "path": ["0", "0", "23", "24", "25", "26", "27"], "rt": [9508, 461, 2282, 571, 334], "actions": ["left", "left", "left", "up", "up"], "actionTimes": [13516, 14557, 17355, 18444, 19292], "queries": {"click": {"state": {"target": ["1", "12", "23"], "time": [4993, 7911, 10882]}, "edge": {"target": [], "time": []}}, "mouseover": {"state": {"target": ["1", "12", "23", "0"], "time": [4699, 7581, 8931, 11886]}, "edge": {"target": [], "time": []}}, "mouseout": {"state": {"target": ["23", "18", "17", "19", "22", "12", "0", "1", "12", "23", "0", "12", "14", "20", "12", "0"], "time": [1646, 1759, 1913, 2113, 2161, 2463, 2620, 7382, 8572, 11850, 11924, 20202, 20236, 22296, 22363, 22393]}, "edge": {"target": [], "time": []}}}, "displayed_time": "19.80", "trialTime": 23280, "trial_type": "mouselab-mdp", "trial_index": 11, "time_elapsed": 807162, "internal_node_id": "0.0-4.0-1.0-2.0"}}, {"uniqueid": "w27372122:a48944311", "current_trial": 12, "dateTime": 1691142973199, "trialdata": {"revealed_states": [], "clicked_states": ["1"], "num_clicks_accrued": [0, 0, 0, 0, 0, 0, 0, 0, 0, 0, 0, 0, 0], "stateRewards": ["", -2, -2, -7, -13, -10, 49, -68, -1, 84, 70, 88, 1, 4, 4, 12, -57, 25, 30, 8, -1, -77, 57, 2, 3, 2, 3, -18, -80, 23, -15, -41, 70, 11], "withholdReward": false, "trial_id": "mdp_trial_4", "block": "test", "trialIndex": 5, "score": 44.6, "costs": -1.4, "simulationMode": [null, null, null, null, null], "rewards": [1, 4, 4, 12, 25], "path": ["0", "0", "12", "13", "14", "15", "17"], "rt": [7162, 790, 532, 783, 234], "actions": ["right", "right", "right", "up", "right"], "actionTimes": [10143, 11465, 12533, 13827, 14574], "queries": {"click": {"state": {"target": ["1"], "time": [4197]}, "edge": {"target": [], "time": []}}, "mouseover": {"state": {"target": ["0", "1", "22", "12"], "time": [3109, 3865, 5608, 9216]}, "edge": {"target": [], "time": []}}, "mouseout": {"state": {"target": ["1", "0", "0", "1", "1", "22", "12"], "time": [1461, 1796, 3832, 4398, 5295, 5643, 17079]}, "edge": {"target": [], "time": []}}}, "displayed_time": "16.98", "trialTime": 18308, "trial_type": "mouselab-mdp", "trial_index": 12, "time_elapsed": 826754, "internal_node_id": "0.0-4.0-1.0-3.0"}}, {"uniqueid": "w27372122:a48944311", "current_trial": 13, "dateTime": 1691142992550, "trialdata": {"revealed_states": [], "clicked_states": ["1", "12"], "num_clicks_accrued": [0, 0, 0, 0, 0, 0, 0, 0, 0, 0, 0, 0, 0], "stateRewards": ["", -2, -1, -6, -14, -55, 78, -13, 11, 14, -71, 59, 2, 2, 6, -6, 9, 38, 14, 7, 85, 11, 68, 1, -4, -1, -3, -63, -85, 9, -2, 63, -86, -10], "withholdReward": false, "trial_id": "mdp_trial_5", "block": "test", "trialIndex": 6, "score": 82.2, "costs": -2.8, "simulationMode": [null, null, null, null, null], "rewards": [2, 2, 6, 7, 68], "path": ["0", "0", "12", "13", "14", "19", "22"], "rt": [7299, 323, 608, 851, 409], "actions": ["right", "right", "right", "down", "left"], "actionTimes": [9960, 10804, 11919, 13279, 14204], "queries": {"click": {"state": {"target": ["1", "12"], "time": [3593, 8029]}, "edge": {"target": [], "time": []}}, "mouseover": {"state": {"target": ["1", "12"], "time": [3236, 7620]}, "edge": {"target": [], "time": []}}, "mouseout": {"state": {"target": ["1", "1", "12", "13"], "time": [3802, 7302, 16718, 16785]}, "edge": {"target": [], "time": []}}}, "displayed_time": "16.66", "trialTime": 18036, "trial_type": "mouselab-mdp", "trial_index": 13, "time_elapsed": 846106, "internal_node_id": "0.0-4.0-1.0-4.0"}}, {"uniqueid": "w27372122:a48944311", "current_trial": 14, "dateTime": 1691143012189, "trialdata": {"revealed_states": [], "clicked_states": ["1"], "num_clicks_accrued": [0, 0, 0, 0, 0, 0, 0, 0, 0, 0, 0, 0, 0], "stateRewards": ["", 1, 2, 3, 16, 63, -25, 16, -4, -14, 82, -66, -1, -3, -3, -11, -14, 19, 46, 3, -34, -82, 66, -2, -3, 4, -5, -63, 77, -37, -1, -45, -41, 84], "withholdReward": false, "trial_id": "mdp_trial_6", "block": "test", "trialIndex": 7, "score": 36.6, "costs": -1.4, "simulationMode": [null, null, null, null, null], "rewards": [1, 2, 3, 16, 16], "path": ["0", "0", "1", "2", "3", "4", "7"], "rt": [3787, 92, 307, 929, 320], "actions": ["up", "up", "up", "right", "down"], "actionTimes": [6287, 6950, 7777, 9226, 10055], "queries": {"click": {"state": {"target": ["1"], "time": [3737]}, "edge": {"target": [], "time": []}}, "mouseover": {"state": {"target": ["1"], "time": [3293]}, "edge": {"target": [], "time": []}}, "mouseout": {"state": {"target": ["0", "1", "0", "12", "13", "14", "20", "21", "0", "12", "13", "14", "19", "19", "22"], "time": [1172, 4360, 12125, 12192, 12241, 12374, 12877, 13125, 13657, 13725, 13774, 13827, 14510, 17891, 17941]}, "edge": {"target": [], "time": []}}}, "displayed_time": "16.50", "trialTime": 18266, "trial_type": "mouselab-mdp", "trial_index": 14, "time_elapsed": 865745, "internal_node_id": "0.0-4.0-1.0-5.0"}}, {"uniqueid": "w27372122:a48944311", "current_trial": 15, "dateTime": 1691143031880, "trialdata": {"revealed_states": [], "clicked_states": [], "num_clicks_accrued": [0, 0, 0, 0, 0, 0, 0, 0, 0, 0, 0, 0, 0], "stateRewards": ["", -2, 1, -5, 2, -68, 80, 33, 10, 67, -59, 20, -1, -3, 3, 14, 74, -2, 24, -16, 63, 80, 46, -1, 4, 6, 12, 83, -38, -43, -4, 43, 14, -79], "withholdReward": false, "trial_id": "mdp_trial_7", "block": "test", "trialIndex": 8, "score": 24, "costs": 0, "simulationMode": [null, null, null, null, null], "rewards": [-2, 1, -5, 10, 20], "path": ["0", "0", "1", "2", "3", "8", "11"], "rt": [1474, 107, 4805, 449, 312], "actions": ["up", "up", "up", "left", "left"], "actionTimes": [3533, 4203, 9530, 10535, 11378], "queries": {"click": {"state": {"target": [], "time": []}, "edge": {"target": [], "time": []}}, "mouseover": {"state": {"target": ["1"], "time": [2886]}, "edge": {"target": [], "time": []}}, "mouseout": {"state": {"target": ["12", "0", "1", "2", "3", "2", "3", "5", "14"], "time": [636, 752, 7655, 7706, 8154, 8404, 13328, 13388, 17038]}, "edge": {"target": [], "time": []}}}, "displayed_time": "16.06", "trialTime": 18301, "trial_type": "mouselab-mdp", "trial_index": 15, "time_elapsed": 885435, "internal_node_id": "0.0-4.0-1.0-6.0"}}, {"uniqueid": "w27372122:a48944311", "current_trial": 16, "dateTime": 1691143051487, "trialdata": {"revealed_states": [], "clicked_states": [], "num_clicks_accrued": [0, 0, 0, 0, 0, 0, 0, 0, 0, 0, 0, 0, 0], "stateRewards": ["", -1, -3, 1, 13, -64, -29, 12, -4, -33, 50, 56, 2, -3, 4, 11, -64, -58, -55, 12, 47, 38, -25, -2, 2, 5, -15, 85, 7, 84, 10, 8, 57, 26], "withholdReward": false, "trial_id": "mdp_trial_8", "block": "test", "trialIndex": 9, "score": -19, "costs": 0, "simulationMode": [null, null, null, null, null], "rewards": [-1, -3, 1, 13, -29], "path": ["0", "0", "1", "2", "3", "4", "6"], "rt": [1669, 68, 35, 437, 1042], "actions": ["up", "up", "up", "right", "right"], "actionTimes": [4018, 4629, 5212, 6187, 7756], "queries": {"click": {"state": {"target": [], "time": []}, "edge": {"target": [], "time": []}}, "mouseover": {"state": {"target": ["1", "7"], "time": [3054, 3202]}, "edge": {"target": [], "time": []}}, "mouseout": {"state": {"target": ["0", "1", "7", "21"], "time": [810, 3119, 3235, 17302]}, "edge": {"target": [], "time": []}}}, "displayed_time": "16.35", "trialTime": 18056, "trial_type": "mouselab-mdp", "trial_index": 16, "time_elapsed": 905042, "internal_node_id": "0.0-4.0-1.0-7.0"}}, {"uniqueid": "w27372122:a48944311", "current_trial": 17, "dateTime": 1691143076206, "trialdata": {"revealed_states": [], "clicked_states": ["12", "23", "1"], "num_clicks_accrued": [0, 0, 0, 0, 0, 0, 0, 0, 0, 0, 0, 0, 0], "stateRewards": ["", -2, 2, -5, -6, 10, -66, -58, -10, -11, -63, -70, -1, -4, -5, 7, 66, -64, -43, -3, 45, -37, 4, -2, -2, -6, -4, -30, 33, 43, 15, -32, -65, -59], "withholdReward": false, "trial_id": "mdp_trial_9", "block": "test", "trialIndex": 10, "score": -54.2, "costs": -4.199999999999999, "simulationMode": [null, null, null, null, null], "rewards": [-1, -4, -5, -3, -37], "path": ["0", "0", "12", "13", "14", "19", "21"], "rt": [11471, 469, 3148, 1198, 113], "actions": ["right", "right", "right", "down", "down"], "actionTimes": [13539, 14532, 18206, 19922, 20577], "queries": {"click": {"state": {"target": ["12", "23", "1"], "time": [4494, 7734, 10284]}, "edge": {"target": [], "time": []}}, "mouseover": {"state": {"target": ["12", "13", "18", "7", "12", "23", "1"], "time": [2168, 2228, 2427, 2650, 4166, 7435, 9982]}, "edge": {"target": [], "time": []}}, "mouseout": {"state": {"target": ["0", "12", "13", "18", "7", "12", "23", "1", "18", "15", "14", "17"], "time": [729, 2201, 2370, 2466, 2701, 5431, 9849, 15750, 15883, 15981, 17515, 17599]}, "edge": {"target": [], "time": []}}}, "displayed_time": "21.14", "trialTime": 22973, "trial_type": "mouselab-mdp", "trial_index": 17, "time_elapsed": 929761, "internal_node_id": "0.0-4.0-1.0-8.0"}}, {"uniqueid": "w27372122:a48944311", "current_trial": 18, "dateTime": 1691143095096, "trialdata": {"revealed_states": [], "clicked_states": ["1"], "num_clicks_accrued": [0, 0, 0, 0, 0, 0, 0, 0, 0, 0, 0, 0, 0], "stateRewards": ["", 1, 1, -5, 10, -31, 73, 14, -8, -23, 63, -70, -1, 2, 8, 7, 25, -59, 27, -10, -40, -71, -15, -2, 3, -8, -5, -19, 77, -34, 7, 67, 63, 19], "withholdReward": false, "trial_id": "mdp_trial_10", "block": "test", "trialIndex": 11, "score": -25.4, "costs": -1.4, "simulationMode": [null, null, null, null, null], "rewards": [1, 1, -5, 10, -31], "path": ["0", "0", "1", "2", "3", "4", "5"], "rt": [2998, 15, 45, 296, 868], "actions": ["up", "up", "up", "right", "up"], "actionTimes": [4815, 5361, 5949, 6805, 8190], "queries": {"click": {"state": {"target": ["1"], "time": [2870]}, "edge": {"target": [], "time": []}}, "mouseover": {"state": {"target": ["1"], "time": [2417]}, "edge": {"target": [], "time": []}}, "mouseout": {"state": {"target": ["1", "1", "21"], "time": [148, 3634, 16802]}, "edge": {"target": [], "time": []}}}, "displayed_time": "15.82", "trialTime": 17131, "trial_type": "mouselab-mdp", "trial_index": 18, "time_elapsed": 948650, "internal_node_id": "0.0-4.0-1.0-9.0"}}, {"uniqueid": "w27372122:a48944311", "current_trial": 19, "dateTime": 1691143116940, "trialdata": {"revealed_states": [], "clicked_states": ["23", "12", "1"], "num_clicks_accrued": [0, 0, 0, 0, 0, 0, 0, 0, 0, 0, 0, 0, 0], "stateRewards": ["", 2, -2, -8, 9, -20, 55, -58, 14, 42, 2, 36, 1, -3, -5, 5, -58, 57, 60, 16, 57, 30, -70, -2, 1, 3, 10, 59, 23, 77, -13, -26, 88, -72], "withholdReward": false, "trial_id": "mdp_trial_11", "block": "test", "trialIndex": 12, "score": -61.2, "costs": -4.199999999999999, "simulationMode": [null, null, null, null, null], "rewards": [2, -2, -8, 9, -58], "path": ["0", "0", "1", "2", "3", "4", "7"], "rt": [9054, 782, 296, 2059, 891], "actions": ["up", "up", "up", "right", "down"], "actionTimes": [11054, 12371, 13192, 15765, 17181], "queries": {"click": {"state": {"target": ["23", "12", "1"], "time": [3529, 6266, 8275]}, "edge": {"target": [], "time": []}}, "mouseover": {"state": {"target": ["23", "24", "23", "0", "12", "1"], "time": [2692, 2759, 3177, 5845, 5910, 7806]}, "edge": {"target": [], "time": []}}, "mouseout": {"state": {"target": ["8", "1", "0", "23", "24", "23", "23", "0", "12", "1", "1"], "time": [257, 608, 2168, 2727, 3126, 4602, 5810, 5873, 7021, 9117, 19515]}, "edge": {"target": [], "time": []}}}, "displayed_time": "17.73", "trialTime": 19901, "trial_type": "mouselab-mdp", "trial_index": 19, "time_elapsed": 970495, "internal_node_id": "0.0-4.0-1.0-10.0"}}, {"uniqueid": "w27372122:a48944311", "current_trial": 20, "dateTime": 1691143137563, "trialdata": {"revealed_states": [], "clicked_states": ["1", "23", "12"], "num_clicks_accrued": [0, 0, 0, 0, 0, 0, 0, 0, 0, 0, 0, 0, 0], "stateRewards": ["", -1, 2, -6, 6, -82, -19, -39, -16, -83, 11, -33, -2, -2, 4, -6, -82, -1, -19, -6, -10, -67, -41, -2, 1, -7, 16, -23, -78, -52, 14, 31, -71, 74], "withholdReward": false, "trial_id": "mdp_trial_12", "block": "test", "trialIndex": 13, "score": -58.2, "costs": -4.199999999999999, "simulationMode": [null, null, null, null, null], "rewards": [-1, 2, -6, -16, -33], "path": ["0", "0", "1", "2", "3", "8", "11"], "rt": [7871, 820, 303, 729, 1177], "actions": ["up", "up", "up", "left", "left"], "actionTimes": [10104, 11476, 12299, 13541, 15260], "queries": {"click": {"state": {"target": ["1", "23", "12"], "time": [3438, 6033, 7612]}, "edge": {"target": [], "time": []}}, "mouseover": {"state": {"target": ["1", "1", "12", "0", "23", "0", "12"], "time": [2717, 3018, 4402, 5169, 5390, 6451, 6708]}, "edge": {"target": [], "time": []}}, "mouseout": {"state": {"target": ["2", "15", "17", "15", "12", "0", "1", "1", "12", "0", "23", "0", "12"], "time": [34, 116, 145, 579, 731, 1008, 2935, 4193, 5133, 5272, 6412, 6558, 9716]}, "edge": {"target": [], "time": []}}}, "displayed_time": "16.23", "trialTime": 18747, "trial_type": "mouselab-mdp", "trial_index": 20, "time_elapsed": 991117, "internal_node_id": "0.0-4.0-1.0-11.0"}}, {"uniqueid": "w27372122:a48944311", "current_trial": 21, "dateTime": 1691143158370, "trialdata": {"revealed_states": [], "clicked_states": ["1"], "num_clicks_accrued": [0, 0, 0, 0, 0, 0, 0, 0, 0, 0, 0, 0, 0], "stateRewards": ["", 2, 3, -2, -8, -8, -41, 74, 15, -23, -80, 1, 1, 3, 3, -15, -63, -78, 67, 13, 75, -41, 86, 2, -2, 6, -3, -8, -49, 50, -6, 83, 74, 80], "withholdReward": false, "trial_id": "mdp_trial_13", "block": "test", "trialIndex": 14, "score": -14.4, "costs": -1.4, "simulationMode": [null, null, null, null, null], "rewards": [2, 3, -2, -8, -8], "path": ["0", "0", "1", "2", "3", "4", "5"], "rt": [4119, 245, 704, 666, 145], "actions": ["up", "up", "up", "right", "up"], "actionTimes": [6150, 6910, 8151, 9361, 10040], "queries": {"click": {"state": {"target": ["1"], "time": [3549]}, "edge": {"target": [], "time": []}}, "mouseover": {"state": {"target": ["1", "23"], "time": [3235, 4542]}, "edge": {"target": [], "time": []}}, "mouseout": {"state": {"target": ["13", "12", "0", "1", "23", "1", "1", "0", "0", "1", "7"], "time": [415, 436, 3080, 4325, 5131, 5750, 17416, 17483, 18052, 18299, 18416]}, "edge": {"target": [], "time": []}}}, "displayed_time": "16.04", "trialTime": 18842, "trial_type": "mouselab-mdp", "trial_index": 21, "time_elapsed": 1011925, "internal_node_id": "0.0-4.0-1.0-12.0"}}, {"uniqueid": "w27372122:a48944311", "current_trial": 22, "dateTime": 1691143178259, "trialdata": {"revealed_states": [], "clicked_states": ["23"], "num_clicks_accrued": [0, 0, 0, 0, 0, 0, 0, 0, 0, 0, 0, 0, 0], "stateRewards": ["", -1, 3, -4, -14, 78, 67, 2, 13, -32, 28, 39, -2, 1, -4, -4, -4, -42, -86, 11, 64, -29, -32, -1, -4, 2, -7, 5, 68, -61, 2, -21, 85, 50], "withholdReward": false, "trial_id": "mdp_trial_14", "block": "test", "trialIndex": 15, "score": 82.6, "costs": -1.4, "simulationMode": [null, null, null, null, null], "rewards": [-1, -4, 2, 2, 85], "path": ["0", "0", "23", "24", "25", "30", "32"], "rt": [4245, 960, 340, 770, 204], "actions": ["left", "left", "left", "down", "down"], "actionTimes": [6826, 8343, 9220, 10522, 11237], "queries": {"click": {"state": {"target": ["23"], "time": [4076]}, "edge": {"target": [], "time": []}}, "mouseover": {"state": {"target": ["23", "24"], "time": [3844, 5095]}, "edge": {"target": [], "time": []}}, "mouseout": {"state": {"target": ["13", "0", "0", "23", "24", "18", "15", "20"], "time": [24, 216, 3789, 4975, 12698, 12769, 12809, 17503]}, "edge": {"target": [], "time": []}}}, "displayed_time": "16.58", "trialTime": 18032, "trial_type": "mouselab-mdp", "trial_index": 22, "time_elapsed": 1031812, "internal_node_id": "0.0-4.0-1.0-13.0"}}, {"uniqueid": "w27372122:a48944311", "current_trial": 23, "dateTime": 1691143206085, "trialdata": {"revealed_states": [], "clicked_states": ["23"], "num_clicks_accrued": [0, 0, 0, 0, 0, 0, 0, 0, 0, 0, 0, 0, 0], "stateRewards": ["", 1, -2, -8, -3, 31, -84, -55, -14, 15, -58, 17, -2, -3, 7, 7, -12, 48, 67, 4, -44, -68, 46, 2, 3, -5, -7, 76, 27, 5, 11, 57, 52, 59], "withholdReward": false, "trial_id": "mdp_trial_15", "block": "test", "trialIndex": 16, "score": 67.6, "costs": -1.4, "simulationMode": [null, null, null, null, null, null], "rewards": [2, 3, -5, -7, 76], "path": ["0", "0", "23", "24", "25", "26", "27"], "rt": [2709, 412, 193, 245, 327, 870], "actions": ["left", "left", "left", "left", "up", "up"], "actionTimes": [4867, 5293, 6012, 6786, 7673, 9066], "queries": {"click": {"state": {"target": ["23"], "time": [3626]}, "edge": {"target": [], "time": []}}, "mouseover": {"state": {"target": ["0", "23", "0"], "time": [3163, 3386, 4420]}, "edge": {"target": [], "time": []}}, "mouseout": {"state": {"target": ["22", "12", "0", "23", "23", "0", "13", "17"], "time": [587, 650, 3253, 3804, 4407, 4454, 10110, 10156]}, "edge": {"target": [], "time": []}}}, "displayed_time": "16.16", "trialTime": 25657, "trial_type": "mouselab-mdp", "trial_index": 23, "time_elapsed": 1059638, "internal_node_id": "0.0-4.0-1.0-14.0"}}, {"uniqueid": "w27372122:a48944311", "current_trial": 24, "dateTime": 1691143237828, "trialdata": {"revealed_states": [], "clicked_states": ["23"], "num_clicks_accrued": [0, 0, 0, 0, 0, 0, 0, 0, 0, 0, 0, 0, 0], "stateRewards": ["", -2, 1, 6, -2, -10, -78, -69, 14, -15, 7, -1, 1, -1, -2, 13, 77, 32, 87, 5, -74, 30, -26, 1, 3, 4, 12, 39, 54, -43, 2, 10, 23, 13], "withholdReward": false, "trial_id": "mdp_trial_16", "block": "test", "trialIndex": 17, "score": 18.6, "costs": -1.4, "simulationMode": [null, null, null, null, null], "rewards": [1, 3, 4, 2, 10], "path": ["0", "0", "23", "24", "25", "30", "31"], "rt": [3755, 390, 299, 515, 154], "actions": ["left", "left", "left", "down", "right"], "actionTimes": [18576, 19486, 20366, 21409, 22131], "queries": {"click": {"state": {"target": ["23"], "time": [16828]}, "edge": {"target": [], "time": []}}, "mouseover": {"state": {"target": ["0", "1", "2", "1", "23", "24"], "time": [14956, 15652, 15723, 15897, 16267, 17596]}, "edge": {"target": [], "time": []}}, "mouseout": {"state": {"target": ["0", "0", "1", "2", "1", "23", "24"], "time": [13431, 15619, 15695, 15857, 16199, 17553, 23428]}, "edge": {"target": [], "time": []}}}, "displayed_time": "28.83", "trialTime": 29884, "trial_type": "mouselab-mdp", "trial_index": 24, "time_elapsed": 1091383, "internal_node_id": "0.0-4.0-1.0-15.0"}}, {"uniqueid": "w27372122:a48944311", "current_trial": 25, "dateTime": 1691143257097, "trialdata": {"revealed_states": [], "clicked_states": ["23"], "num_clicks_accrued": [0, 0, 0, 0, 0, 0, 0, 0, 0, 0, 0, 0, 0], "stateRewards": ["", -1, 1, -2, 5, 73, 15, 61, 8, 7, 38, 76, 2, 2, -4, -6, -6, -26, 43, -5, -45, -85, -35, -2, 1, -4, 15, -10, 69, 72, -11, 84, -49, -38], "withholdReward": false, "trial_id": "mdp_trial_17", "block": "test", "trialIndex": 18, "score": 66.6, "costs": -1.4, "simulationMode": [null, null, null, null, null, null], "rewards": [-2, 1, -4, -11, 84], "path": ["0", "0", "23", "24", "25", "30", "31"], "rt": [3235, 1523, 239, 4996, 430, 207], "actions": ["left", "left", "left", "left", "down", "right"], "actionTimes": [5148, 6683, 7456, 12977, 14040, 14783], "queries": {"click": {"state": {"target": ["23"], "time": [3655]}, "edge": {"target": [], "time": []}}, "mouseover": {"state": {"target": ["23"], "time": [3285]}, "edge": {"target": [], "time": []}}, "mouseout": {"state": {"target": ["20", "0", "23", "24", "25", "25", "23"], "time": [50, 2602, 12145, 12174, 12207, 16079, 16134]}, "edge": {"target": [], "time": []}}}, "displayed_time": "15.92", "trialTime": 17245, "trial_type": "mouselab-mdp", "trial_index": 25, "time_elapsed": 1110653, "internal_node_id": "0.0-4.0-1.0-16.0"}}, {"uniqueid": "w27372122:a48944311", "current_trial": 26, "dateTime": 1691143278078, "trialdata": {"revealed_states": [], "clicked_states": [], "num_clicks_accrued": [0, 0, 0, 0, 0, 0, 0, 0, 0, 0, 0, 0, 0], "stateRewards": ["", -2, -1, -4, -15, -14, -67, 32, -3, -59, 63, 31, 2, -1, -7, -15, 71, -66, -27, -3, -54, -39, 72, 2, 1, 1, -13, 77, -40, 35, -9, 35, 75, 57], "withholdReward": false, "trial_id": "mdp_trial_18", "block": "test", "trialIndex": 19, "score": 30, "costs": 0, "simulationMode": [null, null, null, null, null], "rewards": [2, 1, 1, -9, 35], "path": ["0", "0", "23", "24", "25", "30", "31"], "rt": [1651, 833, 232, 625, 265], "actions": ["left", "left", "left", "down", "right"], "actionTimes": [4244, 5593, 6338, 7496, 8286], "queries": {"click": {"state": {"target": [], "time": []}, "edge": {"target": [], "time": []}}, "mouseover": {"state": {"target": ["23", "24", "12"], "time": [3228, 3295, 3628]}, "edge": {"target": [], "time": []}}, "mouseout": {"state": {"target": ["2", "1", "0", "23", "24", "12", "18", "17"], "time": [809, 841, 3193, 3258, 3593, 9209, 9325, 9394]}, "edge": {"target": [], "time": []}}}, "displayed_time": "16.60", "trialTime": 19113, "trial_type": "mouselab-mdp", "trial_index": 26, "time_elapsed": 1131633, "internal_node_id": "0.0-4.0-1.0-17.0"}}, {"uniqueid": "w27372122:a48944311", "current_trial": 27, "dateTime": 1691143298362, "trialdata": {"revealed_states": [], "clicked_states": [], "num_clicks_accrued": [0, 0, 0, 0, 0, 0, 0, 0, 0, 0, 0, 0, 0], "stateRewards": ["", -1, 1, -1, 2, 19, 85, -18, 2, -3, -26, 36, 2, 4, 7, -9, -18, 70, 72, -5, 35, -20, -28, 1, -2, -4, -3, -59, -11, -63, -2, -72, 59, -69], "withholdReward": false, "trial_id": "mdp_trial_19", "block": "test", "trialIndex": 20, "score": -79, "costs": 0, "simulationMode": [null, null, null, null, null], "rewards": [1, -2, -4, -2, -72], "path": ["0", "0", "23", "24", "25", "30", "31"], "rt": [1377, 479, 236, 469, 326], "actions": ["left", "left", "left", "down", "right"], "actionTimes": [3484, 4497, 5264, 6285, 7129], "queries": {"click": {"state": {"target": [], "time": []}, "edge": {"target": [], "time": []}}, "mouseover": {"state": {"target": ["23"], "time": [2691]}, "edge": {"target": [], "time": []}}, "mouseout": {"state": {"target": ["0", "23", "23", "15"], "time": [2647, 2742, 8351, 8427]}, "edge": {"target": [], "time": []}}}, "displayed_time": "16.11", "trialTime": 18197, "trial_type": "mouselab-mdp", "trial_index": 27, "time_elapsed": 1151917, "internal_node_id": "0.0-4.0-1.0-18.0"}}, {"uniqueid": "w27372122:a48944311", "current_trial": 28, "dateTime": 1691143317797, "trialdata": {"revealed_states": [], "clicked_states": [], "num_clicks_accrued": [0, 0, 0, 0, 0, 0, 0, 0, 0, 0, 0, 0, 0], "stateRewards": ["", 1, 2, 7, 13, 88, -71, 27, 3, 60, 5, -53, -2, 2, -6, -1, -30, 79, 47, -4, -14, 46, 68, 1, 1, 8, 10, -14, 86, 48, -11, -67, -44, 5], "withholdReward": false, "trial_id": "mdp_trial_20", "block": "test", "trialIndex": 21, "score": -45, "costs": 0, "simulationMode": [null, null, null, null, null], "rewards": [1, 1, 8, -11, -44], "path": ["0", "0", "23", "24", "25", "30", "32"], "rt": [1212, 432, 300, 366, 49], "actions": ["left", "left", "left", "down", "down"], "actionTimes": [3110, 4079, 4902, 5798, 6365], "queries": {"click": {"state": {"target": [], "time": []}, "edge": {"target": [], "time": []}}, "mouseover": {"state": {"target": ["23"], "time": [2504]}, "edge": {"target": [], "time": []}}, "mouseout": {"state": {"target": ["0", "0", "0", "23", "0", "21"], "time": [27, 199, 466, 8092, 8128, 16787]}, "edge": {"target": [], "time": []}}}, "displayed_time": "15.90", "trialTime": 17213, "trial_type": "mouselab-mdp", "trial_index": 28, "time_elapsed": 1171352, "internal_node_id": "0.0-4.0-1.0-19.0"}}, {"uniqueid": "w27372122:a48944311", "current_trial": 29, "dateTime": 1691143337583, "trialdata": {"revealed_states": [], "clicked_states": ["12", "1", "23"], "num_clicks_accrued": [0, 0, 0, 0, 0, 0, 0, 0, 0, 0, 0, 0, 0], "stateRewards": ["", 2, -4, -4, 13, -80, 62, 13, -11, 57, -13, -44, 1, 4, 3, -4, -29, -88, 15, 16, -58, 68, -45, -1, -3, -1, -9, -44, -86, -19, -7, -36, 59, 66], "withholdReward": false, "trial_id": "mdp_trial_21", "block": "test", "trialIndex": 22, "score": -34.2, "costs": -4.199999999999999, "simulationMode": [null, null, null, null, null], "rewards": [2, -4, -4, -11, -13], "path": ["0", "0", "1", "2", "3", "8", "10"], "rt": [8099, 143, 134, 586, 251], "actions": ["up", "up", "up", "left", "down"], "actionTimes": [10020, 10693, 11359, 12471, 13307], "queries": {"click": {"state": {"target": ["12", "1", "23"], "time": [4059, 5827, 8143]}, "edge": {"target": [], "time": []}}, "mouseover": {"state": {"target": ["0", "12", "12", "1", "23"], "time": [2513, 2648, 3713, 4837, 6605]}, "edge": {"target": [], "time": []}}, "mouseout": {"state": {"target": ["0", "0", "12", "12", "1", "1", "23"], "time": [2083, 2565, 3397, 4714, 6022, 6262, 8693]}, "edge": {"target": [], "time": []}}}, "displayed_time": "15.92", "trialTime": 17389, "trial_type": "mouselab-mdp", "trial_index": 29, "time_elapsed": 1191137, "internal_node_id": "0.0-4.0-1.0-20.0"}}, {"uniqueid": "w27372122:a48944311", "current_trial": 30, "dateTime": 1691143356945, "trialdata": {"revealed_states": [], "clicked_states": [], "num_clicks_accrued": [0, 0, 0, 0, 0, 0, 0, 0, 0, 0, 0, 0, 0], "stateRewards": ["", 2, 4, 4, -8, -36, -33, 38, 16, -51, 57, 57, 1, 3, 4, -6, 45, 68, 87, 1, 63, 24, -55, -2, 2, -6, -13, -63, -50, 8, 2, 80, 6, 60], "withholdReward": false, "trial_id": "mdp_trial_22", "block": "test", "trialIndex": 23, "score": -34, "costs": 0, "simulationMode": [null, null, null, null, null], "rewards": [2, 4, 4, -8, -36], "path": ["0", "0", "1", "2", "3", "4", "5"], "rt": [1172, 418, 131, 1017, 249], "actions": ["up", "up", "up", "right", "up"], "actionTimes": [3222, 4184, 4939, 6491, 7277], "queries": {"click": {"state": {"target": [], "time": []}, "edge": {"target": [], "time": []}}, "mouseover": {"state": {"target": [], "time": []}, "edge": {"target": [], "time": []}}, "mouseout": {"state": {"target": ["0", "18", "15"], "time": [2501, 10383, 10414]}, "edge": {"target": [], "time": []}}}, "displayed_time": "16.05", "trialTime": 17312, "trial_type": "mouselab-mdp", "trial_index": 30, "time_elapsed": 1210500, "internal_node_id": "0.0-4.0-1.0-21.0"}}, {"uniqueid": "w27372122:a48944311", "current_trial": 31, "dateTime": 1691143377747, "trialdata": {"revealed_states": [], "clicked_states": ["12"], "num_clicks_accrued": [0, 0, 0, 0, 0, 0, 0, 0, 0, 0, 0, 0, 0], "stateRewards": ["", 2, 3, 8, 14, 69, -27, 17, 2, -71, -65, -10, 2, -3, 7, 8, 65, -10, 65, -12, 73, -12, 13, -2, -2, 6, 10, -79, -69, -18, 10, -85, 67, 74], "withholdReward": false, "trial_id": "mdp_trial_23", "block": "test", "trialIndex": 24, "score": 5.6, "costs": -1.4, "simulationMode": [null, null, null, null, null], "rewards": [2, -3, 7, -12, 13], "path": ["0", "0", "12", "13", "14", "19", "22"], "rt": [4069, 162, 130, 665, 3371], "actions": ["right", "right", "right", "down", "left"], "actionTimes": [7031, 7725, 8365, 9700, 13609], "queries": {"click": {"state": {"target": ["12"], "time": [4294]}, "edge": {"target": [], "time": []}}, "mouseover": {"state": {"target": ["0", "12", "13"], "time": [3227, 3974, 4894]}, "edge": {"target": [], "time": []}}, "mouseout": {"state": {"target": ["12", "0", "0", "12", "13", "17", "14", "13"], "time": [105, 3010, 3806, 4819, 14370, 14426, 17812, 17849]}, "edge": {"target": [], "time": []}}}, "displayed_time": "16.97", "trialTime": 18249, "trial_type": "mouselab-mdp", "trial_index": 31, "time_elapsed": 1231301, "internal_node_id": "0.0-4.0-1.0-22.0"}}, {"uniqueid": "w27372122:a48944311", "current_trial": 32, "dateTime": 1691143403956, "trialdata": {"revealed_states": [], "clicked_states": ["12"], "num_clicks_accrued": [0, 0, 0, 0, 0, 0, 0, 0, 0, 0, 0, 0, 0], "stateRewards": ["", -1, -3, 1, -4, -48, -63, -49, -2, -84, -19, 65, 2, -2, -2, -12, -4, 59, 9, 6, 75, 69, -13, -1, -3, -3, -2, -37, -68, -36, 13, 32, 18, -14], "withholdReward": false, "trial_id": "mdp_trial_24", "block": "test", "trialIndex": 25, "score": -19.4, "costs": -1.4, "simulationMode": [null, null, null, null, null], "rewards": [2, -2, -2, -12, -4], "path": ["0", "0", "12", "13", "14", "15", "16"], "rt": [3891, 10, 220, 343, 1409], "actions": ["right", "right", "right", "up", "up"], "actionTimes": [5874, 6442, 7192, 8071, 10007], "queries": {"click": {"state": {"target": ["12"], "time": [3306]}, "edge": {"target": [], "time": []}}, "mouseover": {"state": {"target": ["12", "14"], "time": [2966, 5419]}, "edge": {"target": [], "time": []}}, "mouseout": {"state": {"target": ["0", "12", "14"], "time": [528, 4627, 5457]}, "edge": {"target": [], "time": []}}}, "displayed_time": "15.98", "trialTime": 23969, "trial_type": "mouselab-mdp", "trial_index": 32, "time_elapsed": 1257510, "internal_node_id": "0.0-4.0-1.0-23.0"}}, {"uniqueid": "w27372122:a48944311", "current_trial": 33, "dateTime": 1691143423966, "trialdata": {"revealed_states": [], "clicked_states": ["1"], "num_clicks_accrued": [0, 0, 0, 0, 0, 0, 0, 0, 0, 0, 0, 0, 0], "stateRewards": ["", 1, 1, -5, 8, -6, 45, 16, -6, -7, -22, -38, -1, -4, 8, -11, -16, 21, -45, -15, -59, -32, 42, -1, 3, 6, 11, -7, 34, -27, -8, 85, 43, -9], "withholdReward": false, "trial_id": "mdp_trial_25", "block": "test", "trialIndex": 26, "score": -32.4, "costs": -1.4, "simulationMode": [null, null, null, null, null], "rewards": [1, 1, -5, -6, -22], "path": ["0", "0", "1", "2", "3", "8", "10"], "rt": [4062, 728, 547, 1038, 705], "actions": ["up", "up", "up", "left", "down"], "actionTimes": [6323, 7600, 8692, 10257, 11553], "queries": {"click": {"state": {"target": ["1"], "time": [3569]}, "edge": {"target": [], "time": []}}, "mouseover": {"state": {"target": ["1"], "time": [2939]}, "edge": {"target": [], "time": []}}, "mouseout": {"state": {"target": ["2", "2", "1", "0", "1", "2", "7"], "time": [216, 400, 484, 2898, 4113, 14270, 14303]}, "edge": {"target": [], "time": []}}}, "displayed_time": "16.26", "trialTime": 17484, "trial_type": "mouselab-mdp", "trial_index": 33, "time_elapsed": 1277520, "internal_node_id": "0.0-4.0-1.0-24.0"}}, {"uniqueid": "w27372122:a48944311", "current_trial": 34, "dateTime": 1691143445159, "trialdata": {"revealed_states": [], "clicked_states": [], "num_clicks_accrued": [0, 0, 0, 0, 0, 0, 0, 0, 0, 0, 0, 0, 0], "stateRewards": ["", -1, -3, -7, -4, -85, -70, 79, 8, 84, -66, 42, 2, -2, -3, -16, -54, -66, 68, -3, 21, -14, 7, -2, -1, -3, -8, 75, 80, 86, -7, -84, 73, -16], "withholdReward": false, "trial_id": "mdp_trial_26", "block": "test", "trialIndex": 27, "score": -85, "costs": 0, "simulationMode": [null, null, null, null, null], "rewards": [2, -2, -3, -16, -66], "path": ["0", "0", "12", "13", "14", "15", "17"], "rt": [1274, 703, 385, 557, 442], "actions": ["right", "right", "right", "up", "right"], "actionTimes": [3174, 4456, 5401, 6489, 7479], "queries": {"click": {"state": {"target": [], "time": []}, "edge": {"target": [], "time": []}}, "mouseover": {"state": {"target": [], "time": []}, "edge": {"target": [], "time": []}}, "mouseout": {"state": {"target": ["0"], "time": [100]}, "edge": {"target": [], "time": []}}}, "displayed_time": "15.90", "trialTime": 18445, "trial_type": "mouselab-mdp", "trial_index": 34, "time_elapsed": 1298714, "internal_node_id": "0.0-4.0-1.0-25.0"}}, {"uniqueid": "w27372122:a48944311", "current_trial": 35, "dateTime": 1691143465125, "trialdata": {"revealed_states": [], "clicked_states": [], "num_clicks_accrued": [0, 0, 0, 0, 0, 0, 0, 0, 0, 0, 0, 0, 0], "stateRewards": ["", 2, -3, 5, -14, -63, -9, -24, -11, -54, -43, 68, 2, -2, -4, 7, -64, 30, 47, 12, -74, 11, 86, 1, -3, 3, 10, -71, -42, -52, -1, -29, -16, 69], "withholdReward": false, "trial_id": "mdp_trial_27", "block": "test", "trialIndex": 28, "score": -16, "costs": 0, "simulationMode": [null, null, null, null, null], "rewards": [1, -3, 3, -1, -16], "path": ["0", "0", "23", "24", "25", "30", "32"], "rt": [4011, 143, 377, 596, 103], "actions": ["left", "left", "left", "down", "down"], "actionTimes": [6044, 6725, 7661, 8793, 9422], "queries": {"click": {"state": {"target": [], "time": []}, "edge": {"target": [], "time": []}}, "mouseover": {"state": {"target": ["12", "13", "14"], "time": [2919, 3087, 3148]}, "edge": {"target": [], "time": []}}, "mouseout": {"state": {"target": ["0", "0", "12", "13", "14"], "time": [29, 2468, 3018, 3118, 11719]}, "edge": {"target": [], "time": []}}}, "displayed_time": "16.04", "trialTime": 17314, "trial_type": "mouselab-mdp", "trial_index": 35, "time_elapsed": 1318680, "internal_node_id": "0.0-4.0-1.0-26.0"}}, {"uniqueid": "w27372122:a48944311", "current_trial": 36, "dateTime": 1691143485361, "trialdata": {"revealed_states": [], "clicked_states": [], "num_clicks_accrued": [0, 0, 0, 0, 0, 0, 0, 0, 0, 0, 0, 0, 0], "stateRewards": ["", 1, 2, -3, -5, 66, -50, -47, -5, 1, 28, -27, 1, 1, -1, -6, 37, -25, 56, 1, -82, -66, -40, -1, -4, -7, 15, -61, -23, 26, 10, 14, -56, 29], "withholdReward": false, "trial_id": "mdp_trial_28", "block": "test", "trialIndex": 29, "score": -58, "costs": 0, "simulationMode": [null, null, null, null, null], "rewards": [-1, -4, -7, 15, -61], "path": ["0", "0", "23", "24", "25", "26", "27"], "rt": [1630, 632, 631, 945, 884], "actions": ["left", "left", "left", "up", "up"], "actionTimes": [3761, 4928, 6094, 7573, 8980], "queries": {"click": {"state": {"target": [], "time": []}, "edge": {"target": [], "time": []}}, "mouseover": {"state": {"target": [], "time": []}, "edge": {"target": [], "time": []}}, "mouseout": {"state": {"target": ["0", "12", "13", "13"], "time": [13318, 13699, 13735, 17350]}, "edge": {"target": [], "time": []}}}, "displayed_time": "16.13", "trialTime": 17700, "trial_type": "mouselab-mdp", "trial_index": 36, "time_elapsed": 1338917, "internal_node_id": "0.0-4.0-1.0-27.0"}}, {"uniqueid": "w27372122:a48944311", "current_trial": 37, "dateTime": 1691143511666, "trialdata": {"revealed_states": [], "clicked_states": ["1", "23", "12"], "num_clicks_accrued": [0, 0, 0, 0, 0, 0, 0, 0, 0, 0, 0, 0, 0], "stateRewards": ["", -2, -3, -3, 9, 79, 67, 22, -15, -56, 27, -85, -2, 4, -4, -15, -20, -32, 60, 15, 71, 57, 17, 1, 2, -8, 15, -37, -81, 82, 15, 21, -3, 2], "withholdReward": false, "trial_id": "mdp_trial_29", "block": "test", "trialIndex": 30, "score": 87.8, "costs": -4.199999999999999, "simulationMode": [null, null, null, null, null], "rewards": [1, 2, -8, 15, 82], "path": ["0", "0", "23", "24", "25", "26", "29"], "rt": [9424, 558, 1616, 767, 638], "actions": ["left", "left", "left", "up", "left"], "actionTimes": [13223, 14316, 16586, 17894, 19062], "queries": {"click": {"state": {"target": ["1", "23", "12"], "time": [4745, 7335, 10072]}, "edge": {"target": [], "time": []}}, "mouseover": {"state": {"target": ["1", "23", "23", "12", "0", "23"], "time": [4407, 5354, 6008, 8226, 12521, 12571]}, "edge": {"target": [], "time": []}}, "mouseout": {"state": {"target": ["0", "1", "23", "23", "12", "0", "23", "10", "27", "24"], "time": [2019, 5269, 5568, 8043, 12486, 12558, 21065, 21156, 22818, 22894]}, "edge": {"target": [], "time": []}}}, "displayed_time": "19.80", "trialTime": 23357, "trial_type": "mouselab-mdp", "trial_index": 37, "time_elapsed": 1365220, "internal_node_id": "0.0-4.0-1.0-28.0"}}, {"uniqueid": "w27372122:a48944311", "current_trial": 38, "dateTime": 1691143533096, "trialdata": {"revealed_states": [], "clicked_states": ["8", "29", "17"], "num_clicks_accrued": [0, 0, 0, 0, 0, 0, 0, 0, 0, 0, 0, 0, 0], "stateRewards": ["", 2, -1, -2, -5, -47, -57, -33, -11, 31, -18, -72, -2, 1, -4, -8, -46, -53, -50, 15, -85, -9, 39, -2, -2, 1, 14, -1, -8, 53, -12, -41, -74, 62], "withholdReward": false, "trial_id": "mdp_trial_30", "block": "test", "trialIndex": 31, "score": 59.8, "costs": -4.199999999999999, "simulationMode": [null, null, null, null, null], "rewards": [-2, -2, 1, 14, 53], "path": ["0", "0", "23", "24", "25", "26", "29"], "rt": [11500, 121, 260, 453, 60], "actions": ["left", "left", "left", "up", "left"], "actionTimes": [13948, 14591, 15438, 16422, 17012], "queries": {"click": {"state": {"target": ["8", "29", "17"], "time": [4190, 7151, 10663]}, "edge": {"target": [], "time": []}}, "mouseover": {"state": {"target": ["1", "10", "8", "29", "28", "13", "14", "17", "14", "19", "21"], "time": [3305, 3488, 3837, 6838, 9490, 9587, 9635, 10353, 13253, 13329, 13381]}, "edge": {"target": [], "time": []}}, "mouseout": {"state": {"target": ["14", "13", "12", "1", "10", "8", "29", "28", "13", "14", "17", "17", "14", "19", "21"], "time": [586, 684, 751, 3338, 3704, 6431, 9459, 9524, 9623, 9674, 10878, 13187, 13293, 13370, 13420]}, "edge": {"target": [], "time": []}}}, "displayed_time": "17.55", "trialTime": 19322, "trial_type": "mouselab-mdp", "trial_index": 38, "time_elapsed": 1386651, "internal_node_id": "0.0-4.0-1.0-29.0"}}, {"uniqueid": "w27372122:a48944311", "current_trial": 39, "dateTime": 1691143555384, "trialdata": {"revealed_states": [], "clicked_states": ["32", "5", "9"], "num_clicks_accrued": [0, 0, 0, 0, 0, 0, 0, 0, 0, 0, 0, 0, 0], "stateRewards": ["", -1, -2, -1, -10, -57, 73, -72, -16, 75, -14, -46, -2, -3, -7, -1, -61, -60, 76, -4, 50, 4, 14, 2, 2, -7, 12, -65, -32, 15, -8, -76, -25, -61], "withholdReward": false, "trial_id": "mdp_trial_31", "block": "test", "trialIndex": 32, "score": 50.8, "costs": -4.199999999999999, "simulationMode": [null, null, null, null, null], "rewards": [-1, -2, -1, -16, 75], "path": ["0", "0", "1", "2", "3", "8", "9"], "rt": [8890, 166, 348, 628, 1035], "actions": ["up", "up", "up", "left", "up"], "actionTimes": [12552, 13295, 14164, 15321, 16882], "queries": {"click": {"state": {"target": ["32", "5", "9"], "time": [4910, 7191, 9136]}, "edge": {"target": [], "time": []}}, "mouseover": {"state": {"target": ["31", "32", "2", "4", "5", "5", "4", "18", "13", "22", "22", "2", "8", "9", "2", "12", "12"], "time": [4247, 4512, 5662, 5752, 6066, 6917, 7944, 8074, 8131, 8191, 8409, 8540, 8636, 8755, 11131, 11265, 11536]}, "edge": {"target": [], "time": []}}, "mouseout": {"state": {"target": ["19", "13", "12", "0", "0", "31", "32", "2", "4", "5", "5", "4", "18", "13", "22", "22", "2", "8", "9", "9", "2", "12", "12", "18"], "time": [1028, 1080, 1109, 1495, 4164, 4300, 5399, 5706, 5861, 6212, 7896, 7993, 8121, 8178, 8242, 8455, 8586, 8681, 9351, 10814, 11176, 11314, 11684, 17897]}, "edge": {"target": [], "time": []}}}, "displayed_time": "17.66", "trialTime": 20438, "trial_type": "mouselab-mdp", "trial_index": 39, "time_elapsed": 1408939, "internal_node_id": "0.0-4.0-1.0-30.0"}}, {"uniqueid": "w27372122:a48944311", "current_trial": 40, "dateTime": 1691143577836, "trialdata": {"revealed_states": [], "clicked_states": ["17", "29", "6"], "num_clicks_accrued": [0, 0, 0, 0, 0, 0, 0, 0, 0, 0, 0, 0, 0], "stateRewards": ["", -2, 2, -1, -6, 22, 6, 6, -5, 70, -42, 65, 1, 3, 5, -6, -67, -9, 3, 14, 7, -62, -13, -2, 4, 1, 16, 42, -21, -52, -8, 32, 53, 81], "withholdReward": false, "trial_id": "mdp_trial_32", "block": "test", "trialIndex": 33, "score": -10.2, "costs": -4.199999999999999, "simulationMode": [null, null, null, null, null], "rewards": [1, 3, 5, -6, -9], "path": ["0", "0", "12", "13", "14", "15", "17"], "rt": [10020, 820, 857, 1275, 751], "actions": ["right", "right", "right", "up", "right"], "actionTimes": [12415, 13782, 15178, 16979, 18255], "queries": {"click": {"state": {"target": ["17", "29", "6"], "time": [4226, 6188, 8212]}, "edge": {"target": [], "time": []}}, "mouseover": {"state": {"target": ["12", "17", "19", "29", "8", "3", "4", "6", "13"], "time": [3021, 3500, 5255, 5969, 7336, 7474, 7619, 7746, 10653]}, "edge": {"target": [], "time": []}}, "mouseout": {"state": {"target": ["8", "10", "1", "0", "12", "17", "19", "29", "8", "3", "4", "6", "13"], "time": [805, 850, 933, 2980, 3060, 5139, 5299, 7250, 7419, 7597, 7735, 10611, 10689]}, "edge": {"target": [], "time": []}}}, "displayed_time": "18.78", "trialTime": 20542, "trial_type": "mouselab-mdp", "trial_index": 40, "time_elapsed": 1431390, "internal_node_id": "0.0-4.0-1.0-31.0"}}, {"uniqueid": "w27372122:a48944311", "current_trial": 41, "dateTime": 1691143601916, "trialdata": {"revealed_states": [], "clicked_states": ["21", "32", "33"], "num_clicks_accrued": [0, 0, 0, 0, 0, 0, 0, 0, 0, 0, 0, 0, 0], "stateRewards": ["", -2, -3, -5, 8, 27, 11, 43, -6, -24, -87, 69, -2, 1, 1, 9, 19, 48, -37, 9, -14, 45, 62, 1, 2, 1, 16, -81, -41, 22, 4, -6, -63, 47], "withholdReward": false, "trial_id": "mdp_trial_33", "block": "test", "trialIndex": 34, "score": 50.8, "costs": -4.199999999999999, "simulationMode": [null, null, null, null, null], "rewards": [1, 2, 1, 4, 47], "path": ["0", "0", "23", "24", "25", "30", "33"], "rt": [11002, 419, 121, 680, 1385], "actions": ["left", "left", "left", "down", "left"], "actionTimes": [14513, 15460, 16196, 17409, 19331], "queries": {"click": {"state": {"target": ["21", "32", "33"], "time": [5954, 8380, 10752]}, "edge": {"target": [], "time": []}}, "mouseover": {"state": {"target": ["0", "22", "21", "21", "32", "30", "25", "25", "33", "24", "12", "0", "23"], "time": [5203, 5280, 5544, 5725, 7694, 9419, 9602, 10061, 10412, 13013, 13412, 13638, 13719]}, "edge": {"target": [], "time": []}}, "mouseout": {"state": {"target": ["0", "0", "22", "21", "21", "32", "30", "25", "25", "33", "24", "12", "0"], "time": [3555, 5238, 5316, 5579, 6149, 9320, 9553, 9796, 10129, 12985, 13156, 13624, 13682]}, "edge": {"target": [], "time": []}}}, "displayed_time": "20.14", "trialTime": 21902, "trial_type": "mouselab-mdp", "trial_index": 41, "time_elapsed": 1455471, "internal_node_id": "0.0-4.0-1.0-32.0"}}, {"uniqueid": "w27372122:a48944311", "current_trial": 42, "dateTime": 1691143628100, "trialdata": {"revealed_states": [], "clicked_states": [], "num_clicks_accrued": [0, 0, 0, 0, 0, 0, 0, 0, 0, 0, 0, 0, 0], "stateRewards": ["", -1, 4, 3, 12, -27, 34, -33, 3, -63, 1, 6, 2, 2, -6, -11, -77, -85, 68, -6, 51, 81, -60, -2, -2, 1, 15, 20, 15, 68, -10, -14, 6, -4], "withholdReward": false, "trial_id": "mdp_trial_34", "block": "test", "trialIndex": 35, "score": 52, "costs": 0, "simulationMode": [null, null, null, null, null], "rewards": [-1, 4, 3, 12, 34], "path": ["0", "0", "1", "2", "3", "4", "6"], "rt": [5198, 563, 13, 816, 215], "actions": ["up", "up", "up", "right", "right"], "actionTimes": [10269, 11394, 12144, 13537, 14285], "queries": {"click": {"state": {"target": [], "time": []}, "edge": {"target": [], "time": []}}, "mouseover": {"state": {"target": ["0", "12", "13", "15", "17", "14"], "time": [6880, 7786, 7861, 8055, 8267, 9415]}, "edge": {"target": [], "time": []}}, "mouseout": {"state": {"target": ["20", "0", "0", "12", "13", "15", "17", "14"], "time": [3334, 3751, 6986, 7823, 7902, 8091, 9405, 9461]}, "edge": {"target": [], "time": []}}}, "displayed_time": "19.07", "trialTime": 23796, "trial_type": "mouselab-mdp", "trial_index": 42, "time_elapsed": 1481655, "internal_node_id": "0.0-4.0-1.0-33.0"}}, {"uniqueid": "w27372122:a48944311", "current_trial": 43, "dateTime": 1691143653940, "trialdata": {"revealed_states": [], "clicked_states": ["21", "6"], "num_clicks_accrued": [0, 0, 0, 0, 0, 0, 0, 0, 0, 0, 0, 0, 0], "stateRewards": ["", 2, 4, -3, 16, -58, 30, -35, 11, -60, 47, 27, -2, -1, -7, -16, 23, -70, 68, -10, -65, -43, -34, -2, 1, 7, 9, -63, 34, -31, -8, -12, -86, 59], "withholdReward": false, "trial_id": "mdp_trial_35", "block": "test", "trialIndex": 36, "score": 46.2, "costs": -2.8, "simulationMode": [null, null, null, null, null], "rewards": [2, 4, -3, 16, 30], "path": ["0", "0", "1", "2", "3", "4", "6"], "rt": [12763, 14, 25, 550, 1610], "actions": ["up", "up", "up", "right", "right"], "actionTimes": [16327, 17046, 17724, 18808, 21126], "queries": {"click": {"state": {"target": ["21", "6"], "time": [4588, 7269]}, "edge": {"target": [], "time": []}}, "mouseover": {"state": {"target": ["19", "21", "31", "33", "24", "16", "6", "2", "24", "33", "0", "12", "13"], "time": [3614, 4240, 5215, 5643, 6479, 6740, 6940, 10707, 10809, 12647, 14210, 14264, 14313]}, "edge": {"target": [], "time": []}}, "mouseout": {"state": {"target": ["0", "19", "21", "31", "33", "24", "16", "6", "2", "24", "33", "0", "12"], "time": [1570, 3884, 5093, 5267, 6442, 6547, 6873, 10669, 10742, 10848, 14108, 14253, 14300]}, "edge": {"target": [], "time": []}}}, "displayed_time": "21.70", "trialTime": 22956, "trial_type": "mouselab-mdp", "trial_index": 43, "time_elapsed": 1507495, "internal_node_id": "0.0-4.0-1.0-34.0"}}, {"uniqueid": "w27372122:a48944311", "current_trial": 44, "dateTime": 1691143676824, "trialdata": {"revealed_states": [], "clicked_states": ["1", "5", "9"], "num_clicks_accrued": [0, 0, 0, 0, 0, 0, 0, 0, 0, 0, 0, 0, 0], "stateRewards": ["", -2, 2, 2, -6, 9, 37, 50, -13, -7, -18, -75, -2, -4, 4, 7, 23, -57, -66, -7, -81, -48, -76, 1, 1, -8, 1, 51, -2, 70, 14, 59, 71, -37], "withholdReward": false, "trial_id": "mdp_trial_36", "block": "test", "trialIndex": 37, "score": 0.8000000000000007, "costs": -4.199999999999999, "simulationMode": [null, null, null, null, null], "rewards": [-2, 2, 2, -6, 9], "path": ["0", "0", "1", "2", "3", "4", "5"], "rt": [8343, 331, 1715, 245, 126], "actions": ["up", "up", "up", "right", "up"], "actionTimes": [13351, 14221, 16644, 17473, 18173], "queries": {"click": {"state": {"target": ["1", "5", "9"], "time": [6387, 7962, 10173]}, "edge": {"target": [], "time": []}}, "mouseover": {"state": {"target": ["1", "1", "4", "5", "9"], "time": [5714, 5965, 7383, 7631, 8558]}, "edge": {"target": [], "time": []}}, "mouseout": {"state": {"target": ["0", "1", "1", "4", "5", "9"], "time": [5598, 5866, 7275, 7430, 8545, 20428]}, "edge": {"target": [], "time": []}}}, "displayed_time": "19.01", "trialTime": 20537, "trial_type": "mouselab-mdp", "trial_index": 44, "time_elapsed": 1530380, "internal_node_id": "0.0-4.0-1.0-35.0"}}, {"uniqueid": "w27372122:a48944311", "current_trial": 45, "dateTime": 1691143708210, "trialdata": {"revealed_states": [], "clicked_states": [], "num_clicks_accrued": [0, 0, 0, 0, 0, 0, 0, 0, 0, 0, 0, 0, 0], "stateRewards": ["", 1, 4, -8, -5, -15, -7, 21, 13, -30, 40, -65, 1, 1, 5, -14, 35, 27, -38, -11, 36, -58, -47, -2, 4, -3, 13, -16, -49, 22, 15, -56, -44, -10], "withholdReward": false, "trial_id": "mdp_trial_37", "block": "test", "trialIndex": 38, "score": -55, "costs": 0, "simulationMode": [null, null, null, null, null], "rewards": [1, 4, -8, 13, -65], "path": ["0", "0", "1", "2", "3", "8", "11"], "rt": [5263, 97, 150, 325, 92], "actions": ["up", "up", "up", "left", "left"], "actionTimes": [18499, 19229, 19926, 20818, 21428], "queries": {"click": {"state": {"target": [], "time": []}, "edge": {"target": [], "time": []}}, "mouseover": {"state": {"target": ["18"], "time": [17892]}, "edge": {"target": [], "time": []}}, "mouseout": {"state": {"target": ["20", "18"], "time": [10857, 17942]}, "edge": {"target": [], "time": []}}}, "displayed_time": "27.24", "trialTime": 29198, "trial_type": "mouselab-mdp", "trial_index": 45, "time_elapsed": 1561765, "internal_node_id": "0.0-4.0-1.0-36.0"}}, {"uniqueid": "w27372122:a48944311", "current_trial": 46, "dateTime": 1691143738493, "trialdata": {"revealed_states": [], "clicked_states": [], "num_clicks_accrued": [0, 0, 0, 0, 0, 0, 0, 0, 0, 0, 0, 0, 0], "stateRewards": ["", -2, -4, -2, 10, -8, -15, -47, 7, -84, 53, 5, -1, 2, -7, 3, 83, 31, 47, -1, 30, -8, 69, 2, -4, -1, 8, -7, 12, -8, -8, -13, 30, -84], "withholdReward": false, "trial_id": "mdp_trial_38", "block": "test", "trialIndex": 39, "score": 19, "costs": 0, "simulationMode": [null, null, null, null, null], "rewards": [2, -4, -1, -8, 30], "path": ["0", "0", "23", "24", "25", "30", "32"], "rt": [7027, 688, 425, 524, 1280], "actions": ["left", "left", "left", "down", "down"], "actionTimes": [16413, 19205, 20198, 23039, 25624], "queries": {"click": {"state": {"target": [], "time": []}, "edge": {"target": [], "time": []}}, "mouseover": {"state": {"target": ["0", "25"], "time": [9584, 13926]}, "edge": {"target": [], "time": []}}, "mouseout": {"state": {"target": ["11", "28", "0", "25"], "time": [6195, 6997, 11268, 16400]}, "edge": {"target": [], "time": []}}}, "displayed_time": "26.16", "trialTime": 27722, "trial_type": "mouselab-mdp", "trial_index": 46, "time_elapsed": 1592047, "internal_node_id": "0.0-4.0-1.0-37.0"}}, {"uniqueid": "w27372122:a48944311", "current_trial": 47, "dateTime": 1691143771241, "trialdata": {"revealed_states": [], "clicked_states": ["17", "21", "29"], "num_clicks_accrued": [0, 0, 0, 0, 0, 0, 0, 0, 0, 0, 0, 0, 0], "stateRewards": ["", -1, 3, 1, -7, 56, 76, 57, 3, 11, -9, 14, 1, -2, 2, 8, -77, -3, 79, -5, 88, 24, -66, -2, -1, 7, -7, -30, 14, -76, 11, -36, 28, -6], "withholdReward": false, "trial_id": "mdp_trial_39", "block": "test", "trialIndex": 40, "score": 15.8, "costs": -4.199999999999999, "simulationMode": [null, null, null, null, null], "rewards": [1, -2, 2, -5, 24], "path": ["0", "0", "12", "13", "14", "19", "21"], "rt": [11946, 1710, 623, 1086, 700], "actions": ["right", "right", "right", "down", "down"], "actionTimes": [19621, 22877, 24306, 26964, 28289], "queries": {"click": {"state": {"target": ["17", "21", "29"], "time": [9444, 12690, 14398]}, "edge": {"target": [], "time": []}}, "mouseover": {"state": {"target": ["14", "17", "29", "21", "29"], "time": [8436, 9162, 10162, 11747, 14073]}, "edge": {"target": [], "time": []}}, "mouseout": {"state": {"target": ["14", "17", "29", "21", "29"], "time": [9153, 9475, 11708, 13822, 18304]}, "edge": {"target": [], "time": []}}}, "displayed_time": "28.87", "trialTime": 30216, "trial_type": "mouselab-mdp", "trial_index": 47, "time_elapsed": 1624796, "internal_node_id": "0.0-4.0-1.0-38.0"}}, {"uniqueid": "w27372122:a48944311", "current_trial": 48, "dateTime": 1691143793825, "trialdata": {"revealed_states": [], "clicked_states": ["5", "29", "9"], "num_clicks_accrued": [0, 0, 0, 0, 0, 0, 0, 0, 0, 0, 0, 0, 0], "stateRewards": ["", 2, -1, -1, -9, -81, -30, 55, -6, 78, 25, 62, 2, 4, -1, 9, -85, 1, -19, 1, -60, 12, -34, 1, 4, -1, -13, -24, -16, -83, -8, 16, 43, 9], "withholdReward": false, "trial_id": "mdp_trial_40", "block": "test", "trialIndex": 41, "score": 67.8, "costs": -4.199999999999999, "simulationMode": [null, null, null, null, null], "rewards": [2, -1, -1, -6, 78], "path": ["0", "0", "1", "2", "3", "8", "9"], "rt": [9603, 323, 440, 614, 314], "actions": ["up", "up", "up", "left", "up"], "actionTimes": [12533, 13413, 14386, 15534, 16385], "queries": {"click": {"state": {"target": ["5", "29", "9"], "time": [4656, 7325, 9697]}, "edge": {"target": [], "time": []}}, "mouseover": {"state": {"target": ["1", "4", "5", "9", "11", "27", "29", "9"], "time": [3945, 4094, 4209, 5352, 6345, 6594, 6810, 8262]}, "edge": {"target": [], "time": []}}, "mouseout": {"state": {"target": ["17", "15", "18", "1", "1", "4", "5", "9", "11", "27", "29", "9", "6"], "time": [659, 693, 739, 924, 3987, 4141, 5256, 6244, 6384, 6645, 7778, 18858, 18911]}, "edge": {"target": [], "time": []}}}, "displayed_time": "16.93", "trialTime": 20150, "trial_type": "mouselab-mdp", "trial_index": 48, "time_elapsed": 1647379, "internal_node_id": "0.0-4.0-1.0-39.0"}}, {"uniqueid": "w27372122:a48944311", "current_trial": 49, "dateTime": 1691143884617, "trialdata": {"rt": 90120, "response": {"Q0": "$-2 to $2", "Q1": "$-32 to $32", "Q2": "$-88 to $88", "Q3": "The cost was always $1.4.", "Q4": "Slightly motivated"}, "question_order": [0, 1, 2, 3, 4], "trial_id": "final_quiz_control", "trial_type": "survey-multi-choice", "trial_index": 49, "time_elapsed": 1738173, "internal_node_id": "0.0-4.0-2.0"}}, {"uniqueid": "w27372122:a48944311", "current_trial": 50, "dateTime": 1691144025955, "trialdata": {"rt": 137904, "response": {"Q0": "My strategy was to first reveal at least three nodes.", "Q1": "Yeah. I improved my strategy by revealing the furthest nodes before starting the game to determine the direction in which I'd go.", "Q2": "No it was not difficult."}, "trial_id": "self_report_control", "trial_type": "survey-text", "trial_index": 50, "time_elapsed": 1879512, "internal_node_id": "0.0-4.0-3.0"}}, {"uniqueid": "w27372122:a48944311", "current_trial": 51, "dateTime": 1691144084173, "trialdata": {"rt": 57751, "response": {"gender": "female", "age": "22", "colorblind": "0", "effort": "0"}, "trial_type": "survey-html-form", "trial_index": 51, "time_elapsed": 1937729, "internal_node_id": "0.0-4.0-4.0"}}, {"uniqueid": "w27372122:a48944311", "current_trial": 52, "dateTime": 1691144150952, "trialdata": {"rt": 66742, "response": {"Q0": "Not at all", "Q1": "No.", "Q2": "I enjoyed playing the game."}, "trial_type": "survey-text", "trial_index": 52, "time_elapsed": 2004509, "internal_node_id": "0.0-4.0-5.0"}}, {"uniqueid": "w27372122:a48944311", "current_trial": 53, "dateTime": 1691144162315, "trialdata": {"rt": 11321, "stimulus": "Press 'Finish HIT' in order to reach the completion code. Once the data has been saved, you will receive the code either in this window or in the original browser window where you started the experiment.\n", "response": 0, "trial_type": "html-button-response", "trial_index": 53, "time_elapsed": 2015872, "internal_node_id": "0.0-5.0"}}, {"uniqueid": "w27372122:a48944311", "current_trial": 54, "dateTime": 1691144163417, "trialdata": {"success": true, "trial_type": "fullscreen", "trial_index": 54, "time_elapsed": 2016974, "internal_node_id": "0.0-6.0"}}], "questiondata": {"params": {"CODE": "C6DMOQA6", "MIN_TIME": 14, "inspectCost": 1, "startTime": "Fri Aug 04 2023 11:42:23 GMT+0200 (South Africa Standard Time)", "bonusRate": 0.002, "variance": "1_2_4_8_44", "branching": "31123"}, "final_score": 269.6}, "eventdata": [{"eventtype": "initialized", "value": null, "timestamp": 1691142142164, "interval": 0}, {"eventtype": "window_resize", "value": [1024, 654], "timestamp": 1691142142164, "interval": 0}, {"eventtype": "window_resize", "value": [1024, 654], "timestamp": 1691142142784, "interval": 620}, {"eventtype": "window_resize", "value": [1366, 768], "timestamp": 1691142154555, "interval": 11771}], "useragent": "Mozilla/5.0 (Windows NT 10.0; Win64; x64) AppleWebKit/537.36 (KHTML, like Gecko) Chrome/115.0.0.0 Safari/537.36", "mode": "live", "id": "w27372122:a48944311", "status": "user data saved", "Beginhit": "2023-08-04 09:42:18.304929", "Beginexp": "2023-08-04 09:42:36.130399", "Endhit": "2023-08-04 10:16:09.99979", "psiturkStatus": 3, "browser": "<redacted>", "platform": "windows", "language": "en-US"}