{"condition": 0, "counterbalance": 0, "assignmentId": "a29184560", "workerId": "w88457403", "hitId": "h11469413", "currenttrial": 61, "bonus": 0, "data": [{"uniqueid": "w88457403:a29184560", "current_trial": 0, "dateTime": 1693660437196, "trialdata": {"success": true, "trial_type": "fullscreen", "trial_index": 0, "time_elapsed": 20972, "internal_node_id": "0.0-0.0"}}, {"uniqueid": "w88457403:a29184560", "current_trial": 1, "dateTime": 1693660469634, "trialdata": {"view_history": [{"page_index": 0, "viewing_time": 32419}], "rt": 32421, "trial_id": "exp_instructions_control", "trial_type": "instructions", "trial_index": 1, "time_elapsed": 53409, "internal_node_id": "0.0-1.0"}}, {"uniqueid": "w88457403:a29184560", "current_trial": 2, "dateTime": 1693660802784, "trialdata": {"view_history": [{"page_index": 0, "viewing_time": 72231}, {"page_index": 1, "viewing_time": 165287}, {"page_index": 2, "viewing_time": 25345}, {"page_index": 3, "viewing_time": 70280}], "rt": 333144, "trial_id": "mouselab_instructions_1_control", "trial_type": "instructions", "trial_index": 2, "time_elapsed": 386560, "internal_node_id": "0.0-2.0-1.0"}}, {"uniqueid": "w88457403:a29184560", "current_trial": 3, "dateTime": 1693660840064, "trialdata": {"revealed_states": [], "clicked_states": [], "num_clicks_accrued": [0, 0, 0, 0, 0, 0, 0, 0, 0, 0, 0, 0, 0], "stateRewards": ["", 10, 10, -10, -10, -10, -10, -10, 10, -10, 10, -10, 10, 10, 10, -10, -10, 10, 10, 10, -10, -10, 10, -10, -10, 10, -10, -10, 10, 10, 10, 10, 10, 10], "withholdReward": false, "trial_id": "practice_1", "block": "test", "trialIndex": 0, "score": -26.5, "costs": 0, "simulationMode": [null, null, null, null, null], "rewards": [-10, -10, 10, -10, -10], "path": ["0", "0", "23", "24", "25", "26", "27"], "rt": [3249, 901, 6142, 1278, 5980], "actions": ["left", "left", "left", "up", "up"], "actionTimes": [13125, 14610, 21315, 23163, 29715], "queries": {"click": {"state": {"target": [], "time": []}, "edge": {"target": [], "time": []}}, "mouseover": {"state": {"target": [], "time": []}, "edge": {"target": [], "time": []}}, "mouseout": {"state": {"target": ["19", "12", "0", "25", "25", "26"], "time": [8275, 8557, 10110, 16540, 18194, 18641]}, "edge": {"target": [], "time": []}}}, "displayed_time": "30.28", "trialTime": 36251, "trial_type": "mouselab-mdp", "trial_index": 3, "time_elapsed": 423839, "internal_node_id": "0.0-2.0-2.0-0.0"}}, {"uniqueid": "w88457403:a29184560", "current_trial": 4, "dateTime": 1693660879014, "trialdata": {"revealed_states": [], "clicked_states": ["3", "25"], "num_clicks_accrued": [0, 0, 0, 0, 0, 0, 0, 0, 0, 0, 0, 0, 0], "stateRewards": ["", -10, -10, -10, 10, -10, -10, -10, 10, -10, 10, 10, -10, -10, 10, -10, 10, 10, -10, 10, 10, -10, 10, -10, 10, 10, 10, 10, -10, 10, -10, -10, 10, 10], "withholdReward": false, "trial_id": "practice_2", "block": "test", "trialIndex": 1, "score": 12.5, "costs": -1, "simulationMode": [null, null, null, null, null], "rewards": [-10, 10, 10, -10, 10], "path": ["0", "0", "23", "24", "25", "30", "32"], "rt": [12237, 67, 675, 4842, 552], "actions": ["left", "left", "left", "down", "down"], "actionTimes": [20312, 20918, 22175, 27622, 28759], "queries": {"click": {"state": {"target": ["3", "25"], "time": [13465, 17379]}, "edge": {"target": [], "time": []}}, "mouseover": {"state": {"target": ["0", "3", "14", "24", "25", "31"], "time": [8148, 10504, 15954, 16889, 17015, 19323]}, "edge": {"target": [], "time": []}}, "mouseout": {"state": {"target": ["27", "28", "0", "0", "0", "3", "14", "24", "25", "31", "32"], "time": [6569, 6868, 6952, 7438, 8737, 15472, 16016, 16953, 19221, 19415, 26138]}, "edge": {"target": [], "time": []}}}, "displayed_time": "29.34", "trialTime": 38165, "trial_type": "mouselab-mdp", "trial_index": 4, "time_elapsed": 462789, "internal_node_id": "0.0-2.0-2.0-1.0"}}, {"uniqueid": "w88457403:a29184560", "current_trial": 5, "dateTime": 1693660993800, "trialdata": {"view_history": [{"page_index": 0, "viewing_time": 95754}, {"page_index": 1, "viewing_time": 19023}], "rt": 114778, "trial_id": "mouselab_instructions_2_control", "trial_type": "instructions", "trial_index": 5, "time_elapsed": 577575, "internal_node_id": "0.0-2.0-3.0"}}, {"uniqueid": "w88457403:a29184560", "current_trial": 6, "dateTime": 1693661176178, "trialdata": {"rt": 182368, "response": {"Q0": "The cost for clicking on nodes may vary between nodes.", "Q1": "The better I perform the higher my bonus will be.", "Q2": "No, the amount of cash at each node of the web may be different each time.", "Q3": "To get the highest total score.", "Q4": "Any time during the round.", "Q5": "3 seconds"}, "question_order": [0, 1, 2, 3, 4, 5], "correct": {"Q0": "The cost for clicking on nodes may vary between nodes.", "Q1": "The better I perform the higher my bonus will be.", "Q2": "No, the amount of cash at each node of the web may be different each time.", "Q3": "To get the highest total score.", "Q4": "Only before moving the spider.", "Q5": "3 seconds"}, "trial_id": "mouselab_quiz_control", "trial_type": "survey-multi-choice", "trial_index": 6, "time_elapsed": 759954, "internal_node_id": "0.0-2.0-4.0"}}, {"uniqueid": "w88457403:a29184560", "current_trial": 7, "dateTime": 1693661186732, "trialdata": {"success": true, "trial_type": "fullscreen", "trial_index": 7, "time_elapsed": 770508, "internal_node_id": "0.0-2.1-0.1-0.1"}}, {"uniqueid": "w88457403:a29184560", "current_trial": 8, "dateTime": 1693661370519, "trialdata": {"view_history": [{"page_index": 0, "viewing_time": 156790}, {"page_index": 1, "viewing_time": 23008}, {"page_index": 2, "viewing_time": 2424}, {"page_index": 3, "viewing_time": 1560}], "rt": 183783, "trial_id": "mouselab_instructions_1_control", "trial_type": "instructions", "trial_index": 8, "time_elapsed": 954295, "internal_node_id": "0.0-2.1-1.1"}}, {"uniqueid": "w88457403:a29184560", "current_trial": 9, "dateTime": 1693661401528, "trialdata": {"revealed_states": [], "clicked_states": ["9", "5", "16", "27", "32"], "num_clicks_accrued": [0, 0, 0, 0, 0, 0, 0, 0, 0, 0, 0, 0, 0], "stateRewards": ["", 10, 10, -10, -10, -10, -10, -10, 10, -10, 10, -10, 10, 10, 10, -10, -10, 10, 10, 10, -10, -10, 10, -10, -10, 10, -10, -10, 10, 10, 10, 10, 10, 10], "withholdReward": false, "trial_id": "practice_1", "block": "test", "trialIndex": 2, "score": 11, "costs": -2.5, "simulationMode": [null, null, null, null, null], "rewards": [-10, -10, 10, 10, 10], "path": ["0", "0", "23", "24", "25", "30", "32"], "rt": [18952, 45, 43, 443, 45], "actions": ["left", "left", "left", "down", "down"], "actionTimes": [23332, 23940, 24528, 25505, 26102], "queries": {"click": {"state": {"target": ["9", "5", "16", "27", "32"], "time": [9650, 11982, 14477, 17198, 19622]}, "edge": {"target": [], "time": []}}, "mouseover": {"state": {"target": ["0", "1", "9", "5", "5", "6", "16", "12", "24", "26", "27", "25", "32", "23", "0"], "time": [7340, 8540, 9041, 10570, 10774, 13789, 13953, 16272, 16430, 16589, 16825, 18908, 19191, 21874, 22492]}, "edge": {"target": [], "time": []}}, "mouseout": {"state": {"target": ["0", "0", "1", "9", "5", "5", "6", "16", "12", "24", "26", "27", "25", "32", "23", "0"], "time": [5025, 7624, 8740, 9819, 10643, 13781, 13891, 16208, 16350, 16501, 16739, 18841, 18979, 21441, 21938, 22554]}, "edge": {"target": [], "time": []}}}, "displayed_time": "26.68", "trialTime": 30169, "trial_type": "mouselab-mdp", "trial_index": 9, "time_elapsed": 985303, "internal_node_id": "0.0-2.1-2.1-0.1"}}, {"uniqueid": "w88457403:a29184560", "current_trial": 10, "dateTime": 1693661418431, "trialdata": {"revealed_states": [], "clicked_states": ["32"], "num_clicks_accrued": [0, 0, 0, 0, 0, 0, 0, 0, 0, 0, 0, 0, 0], "stateRewards": ["", -10, -10, -10, 10, -10, -10, -10, 10, -10, 10, 10, -10, -10, 10, -10, 10, 10, -10, 10, 10, -10, 10, -10, 10, 10, 10, 10, -10, 10, -10, -10, 10, 10], "withholdReward": false, "trial_id": "practice_2", "block": "test", "trialIndex": 3, "score": 13, "costs": -0.5, "simulationMode": [null, null, null, null, null], "rewards": [-10, 10, 10, -10, 10], "path": ["0", "0", "23", "24", "25", "30", "32"], "rt": [4802, 45, 62, 862, 64], "actions": ["left", "left", "left", "down", "down"], "actionTimes": [8605, 9211, 9812, 11235, 11867], "queries": {"click": {"state": {"target": ["32"], "time": [5945]}, "edge": {"target": [], "time": []}}, "mouseover": {"state": {"target": ["32"], "time": [5557]}, "edge": {"target": [], "time": []}}, "mouseout": {"state": {"target": ["0", "32"], "time": [5042, 6574]}, "edge": {"target": [], "time": []}}}, "displayed_time": "12.44", "trialTime": 16075, "trial_type": "mouselab-mdp", "trial_index": 10, "time_elapsed": 1002207, "internal_node_id": "0.0-2.1-2.1-1.1"}}, {"uniqueid": "w88457403:a29184560", "current_trial": 11, "dateTime": 1693661434952, "trialdata": {"view_history": [{"page_index": 0, "viewing_time": 13906}, {"page_index": 1, "viewing_time": 2608}], "rt": 16515, "trial_id": "mouselab_instructions_2_control", "trial_type": "instructions", "trial_index": 11, "time_elapsed": 1018728, "internal_node_id": "0.0-2.1-3.1"}}, {"uniqueid": "w88457403:a29184560", "current_trial": 12, "dateTime": 1693661471890, "trialdata": {"rt": 36930, "response": {"Q0": "The cost for clicking on nodes may vary between nodes.", "Q1": "The better I perform the higher my bonus will be.", "Q2": "No, the amount of cash at each node of the web may be different each time.", "Q3": "To get the highest total score.", "Q4": "Only before moving the spider.", "Q5": "3 seconds"}, "question_order": [0, 1, 2, 3, 4, 5], "correct": {"Q0": "The cost for clicking on nodes may vary between nodes.", "Q1": "The better I perform the higher my bonus will be.", "Q2": "No, the amount of cash at each node of the web may be different each time.", "Q3": "To get the highest total score.", "Q4": "Only before moving the spider.", "Q5": "3 seconds"}, "trial_id": "mouselab_quiz_control", "trial_type": "survey-multi-choice", "trial_index": 12, "time_elapsed": 1055666, "internal_node_id": "0.0-2.1-4.1"}}, {"uniqueid": "w88457403:a29184560", "current_trial": 13, "dateTime": 1693661476753, "trialdata": {"rt": 4847, "response": {"Q0": "No"}, "question_order": [0], "trial_id": "repeat_check", "trial_type": "survey-multi-choice", "trial_index": 13, "time_elapsed": 1060528, "internal_node_id": "0.0-4.0-0.0"}}, {"uniqueid": "w88457403:a29184560", "current_trial": 14, "dateTime": 1693661479246, "trialdata": {"rt": 2483, "stimulus": "\n<h1> Get ready to start the game! </h1>\n\nThank you for reading the instructions. Get ready start with the 40 rounds of this game.\n<br><br>\nIf you need to take a break, feel free to take one after the end of a round, before continuing to the next one.\n<br><br>\nRemember, the more money the spider gets, the bigger your bonus will be!\n<br><br>\n<div style='text-align: center;'>Press <code>space</code> to begin.</div>\n\n<br><br>\n(If, at any point, the <code>space</code> key does not take you to the next page, click once on the text and try again.)", "response": " ", "trial_id": "mdp_ready", "trial_type": "html-keyboard-response", "trial_index": 14, "time_elapsed": 1063022, "internal_node_id": "0.0-6.0-0.0"}}, {"uniqueid": "w88457403:a29184560", "current_trial": 15, "dateTime": 1693661501367, "trialdata": {"revealed_states": [], "clicked_states": ["21", "16"], "num_clicks_accrued": [0, 0, 0, 0, 0, 0, 0, 0, 0, 0, 0, 0, 0], "stateRewards": ["", 1, -2, -3, 14, -42, -87, -37, -11, -50, 33, -44, -2, 4, -7, 13, 48, -75, -66, 12, 23, -2, 82, 1, -4, 3, 12, 51, -15, -26, -11, -52, -29, 82], "withholdReward": false, "trial_id": "mdp_trial_1", "block": "test", "trialIndex": 4, "score": 53.2, "costs": -2.8, "simulationMode": [null, null, null, null, null], "rewards": [-2, 4, -7, 13, 48], "path": ["0", "0", "12", "13", "14", "15", "16"], "rt": [9334, 43, 406, 1002, 49], "actions": ["right", "right", "right", "up", "up"], "actionTimes": [13067, 13675, 14658, 16226, 16837], "queries": {"click": {"state": {"target": ["21", "16"], "time": [5975, 8853]}, "edge": {"target": [], "time": []}}, "mouseover": {"state": {"target": ["0", "21", "14", "16", "18"], "time": [5019, 5459, 8275, 8348, 11358]}, "edge": {"target": [], "time": []}}, "mouseout": {"state": {"target": ["0", "0", "21", "14", "16", "18", "15", "15", "14"], "time": [2573, 5086, 7653, 8339, 11275, 11491, 19341, 19959, 20060]}, "edge": {"target": [], "time": []}}}, "displayed_time": "17.73", "trialTime": 21265, "trial_type": "mouselab-mdp", "trial_index": 15, "time_elapsed": 1085142, "internal_node_id": "0.0-6.0-1.0-0.0"}}, {"uniqueid": "w88457403:a29184560", "current_trial": 16, "dateTime": 1693661520768, "trialdata": {"revealed_states": [], "clicked_states": ["5"], "num_clicks_accrued": [0, 0, 0, 0, 0, 0, 0, 0, 0, 0, 0, 0, 0], "stateRewards": ["", -1, -2, 4, 9, 10, -75, 39, 16, -43, 88, -19, -1, 1, 2, 4, -31, 10, 73, 12, 41, -64, -81, -2, 2, -6, 1, -81, -1, -26, 3, -59, -3, -20], "withholdReward": false, "trial_id": "mdp_trial_2", "block": "test", "trialIndex": 5, "score": 18.6, "costs": -1.4, "simulationMode": [null, null, null, null, null], "rewards": [-1, -2, 4, 9, 10], "path": ["0", "0", "1", "2", "3", "4", "5"], "rt": [5471, 199, 74, 895, 781], "actions": ["up", "up", "up", "right", "up"], "actionTimes": [7385, 8111, 8768, 10231, 11591], "queries": {"click": {"state": {"target": ["5"], "time": [4244]}, "edge": {"target": [], "time": []}}, "mouseover": {"state": {"target": ["3", "5"], "time": [3159, 3403]}, "edge": {"target": [], "time": []}}, "mouseout": {"state": {"target": ["0", "3", "5", "5", "5"], "time": [3088, 3226, 4411, 6487, 14505]}, "edge": {"target": [], "time": []}}}, "displayed_time": "15.92", "trialTime": 18528, "trial_type": "mouselab-mdp", "trial_index": 16, "time_elapsed": 1104543, "internal_node_id": "0.0-6.0-1.0-1.0"}}, {"uniqueid": "w88457403:a29184560", "current_trial": 17, "dateTime": 1693661547129, "trialdata": {"revealed_states": [], "clicked_states": [], "num_clicks_accrued": [0, 0, 0, 0, 0, 0, 0, 0, 0, 0, 0, 0, 0], "stateRewards": ["", 2, -4, 7, 3, 23, -42, 4, 7, -81, -33, 7, -2, -4, 5, -1, 50, -57, -14, -13, -14, 44, 55, -2, -2, 5, -2, 33, 1, 57, -13, -7, 58, 87], "withholdReward": false, "trial_id": "mdp_trial_3", "block": "test", "trialIndex": 6, "score": -69, "costs": 0, "simulationMode": [null, null, null, null, null], "rewards": [2, -4, 7, 7, -81], "path": ["0", "0", "1", "2", "3", "8", "9"], "rt": [13483, 44, 474, 693, 477], "actions": ["up", "up", "up", "left", "up"], "actionTimes": [18185, 18781, 19792, 21064, 22080], "queries": {"click": {"state": {"target": [], "time": []}, "edge": {"target": [], "time": []}}, "mouseover": {"state": {"target": ["12", "13", "18", "7", "3", "9"], "time": [7487, 7647, 7809, 8082, 8215, 8308]}, "edge": {"target": [], "time": []}}, "mouseout": {"state": {"target": ["0", "0", "12", "13", "18", "7", "3"], "time": [3663, 7416, 7583, 7721, 7966, 8148, 8299]}, "edge": {"target": [], "time": []}}}, "displayed_time": "22.63", "trialTime": 25401, "trial_type": "mouselab-mdp", "trial_index": 17, "time_elapsed": 1130904, "internal_node_id": "0.0-6.0-1.0-2.0"}}, {"uniqueid": "w88457403:a29184560", "current_trial": 18, "dateTime": 1693661567688, "trialdata": {"revealed_states": [], "clicked_states": ["5", "16", "21"], "num_clicks_accrued": [0, 0, 0, 0, 0, 0, 0, 0, 0, 0, 0, 0, 0], "stateRewards": ["", 2, -1, -1, -9, -81, -30, 55, -6, 78, 25, 62, 2, 4, -1, 9, -85, 1, -19, 1, -60, 12, -34, 1, 4, -1, -13, -24, -16, -83, -8, 16, 43, 9], "withholdReward": false, "trial_id": "mdp_trial_4", "block": "test", "trialIndex": 7, "score": 13.8, "costs": -4.199999999999999, "simulationMode": [null, null, null, null, null], "rewards": [2, 4, -1, 1, 12], "path": ["0", "0", "12", "13", "14", "19", "21"], "rt": [10887, 106, 346, 970, 584], "actions": ["right", "right", "right", "down", "down"], "actionTimes": [12530, 13176, 14144, 15680, 16800], "queries": {"click": {"state": {"target": ["5", "16", "21"], "time": [3229, 6148, 9277]}, "edge": {"target": [], "time": []}}, "mouseover": {"state": {"target": ["10", "8", "5", "16", "18", "21", "32"], "time": [2253, 2386, 2819, 5756, 8533, 8970, 10493]}, "edge": {"target": [], "time": []}}, "mouseout": {"state": {"target": ["2", "12", "0", "10", "8", "5", "16", "16", "18", "21", "21"], "time": [101, 216, 2169, 2319, 2486, 5626, 6372, 8470, 8606, 9338, 10032]}, "edge": {"target": [], "time": []}}}, "displayed_time": "17.41", "trialTime": 19448, "trial_type": "mouselab-mdp", "trial_index": 18, "time_elapsed": 1151463, "internal_node_id": "0.0-6.0-1.0-3.0"}}, {"uniqueid": "w88457403:a29184560", "current_trial": 19, "dateTime": 1693661590609, "trialdata": {"revealed_states": [], "clicked_states": ["9", "27", "32"], "num_clicks_accrued": [0, 0, 0, 0, 0, 0, 0, 0, 0, 0, 0, 0, 0], "stateRewards": ["", 1, 4, 7, -16, -84, -6, -46, -12, -7, -49, -26, -1, 2, -4, 2, 22, 37, -64, 1, 88, -13, -10, 1, -4, -2, 5, 2, -10, -34, 9, 66, 55, 38], "withholdReward": false, "trial_id": "mdp_trial_5", "block": "test", "trialIndex": 8, "score": 54.8, "costs": -4.199999999999999, "simulationMode": [null, null, null, null, null], "rewards": [1, -4, -2, 9, 55], "path": ["0", "0", "23", "24", "25", "30", "32"], "rt": [11477, 285, 273, 322, 438], "actions": ["left", "left", "left", "down", "down"], "actionTimes": [14976, 15852, 16645, 17542, 18546], "queries": {"click": {"state": {"target": ["9", "27", "32"], "time": [5778, 8761, 11234]}, "edge": {"target": [], "time": []}}, "mouseover": {"state": {"target": ["8", "9", "11", "27", "27", "32", "16"], "time": [5377, 5539, 8189, 8361, 8506, 10524, 12939]}, "edge": {"target": [], "time": []}}, "mouseout": {"state": {"target": ["30", "31", "0", "0", "8", "9", "11", "27", "27", "32", "16"], "time": [505, 837, 2204, 4657, 5474, 8124, 8253, 8425, 10114, 12683, 21847]}, "edge": {"target": [], "time": []}}}, "displayed_time": "19.11", "trialTime": 21973, "trial_type": "mouselab-mdp", "trial_index": 19, "time_elapsed": 1174384, "internal_node_id": "0.0-6.0-1.0-4.0"}}, {"uniqueid": "w88457403:a29184560", "current_trial": 20, "dateTime": 1693661613784, "trialdata": {"revealed_states": [], "clicked_states": [], "num_clicks_accrued": [0, 0, 0, 0, 0, 0, 0, 0, 0, 0, 0, 0, 0], "stateRewards": ["", -2, 3, -1, -9, 44, 48, -37, -3, 71, -39, 87, -1, 3, -4, 4, -21, 59, -15, -8, -1, 28, -38, 2, 4, 4, 8, -85, -72, -63, 14, 58, 63, -46], "withholdReward": false, "trial_id": "mdp_trial_6", "block": "test", "trialIndex": 9, "score": 87, "costs": 0, "simulationMode": [null, null, null, null, null], "rewards": [2, 4, 4, 14, 63], "path": ["0", "0", "23", "24", "25", "30", "32"], "rt": [8721, 229, 354, 303, 379], "actions": ["left", "left", "left", "down", "down"], "actionTimes": [12179, 12952, 13848, 14728, 15688], "queries": {"click": {"state": {"target": [], "time": []}, "edge": {"target": [], "time": []}}, "mouseover": {"state": {"target": ["12", "18", "16"], "time": [5722, 5862, 6039]}, "edge": {"target": [], "time": []}}, "mouseout": {"state": {"target": ["16", "0", "12", "18", "16"], "time": [653, 5656, 5789, 5927, 19571]}, "edge": {"target": [], "time": []}}}, "displayed_time": "17.46", "trialTime": 22232, "trial_type": "mouselab-mdp", "trial_index": 20, "time_elapsed": 1197559, "internal_node_id": "0.0-6.0-1.0-5.0"}}, {"uniqueid": "w88457403:a29184560", "current_trial": 21, "dateTime": 1693661633056, "trialdata": {"revealed_states": [], "clicked_states": ["16", "21", "32"], "num_clicks_accrued": [0, 0, 0, 0, 0, 0, 0, 0, 0, 0, 0, 0, 0], "stateRewards": ["", -1, -3, -7, -7, -76, 30, -49, 11, -70, 56, 2, 1, 4, -3, -14, -59, -83, -25, -9, -21, -67, -73, -2, 4, 4, -9, -11, -32, 60, 9, -87, 22, -64], "withholdReward": false, "trial_id": "mdp_trial_7", "block": "test", "trialIndex": 10, "score": 32.8, "costs": -4.199999999999999, "simulationMode": [null, null, null, null, null], "rewards": [-2, 4, 4, 9, 22], "path": ["0", "0", "23", "24", "25", "30", "32"], "rt": [9974, 333, 356, 330, 488], "actions": ["left", "left", "left", "down", "down"], "actionTimes": [12582, 13446, 14374, 15287, 16310], "queries": {"click": {"state": {"target": ["16", "21", "32"], "time": [4107, 7234, 9507]}, "edge": {"target": [], "time": []}}, "mouseover": {"state": {"target": ["2", "16", "21", "21", "32"], "time": [3504, 3736, 6705, 6986, 8498]}, "edge": {"target": [], "time": []}}, "mouseout": {"state": {"target": ["16", "0", "0", "2", "16", "21", "21", "32"], "time": [977, 1441, 3203, 3569, 6336, 6770, 7999, 11804]}, "edge": {"target": [], "time": []}}}, "displayed_time": "16.84", "trialTime": 18486, "trial_type": "mouselab-mdp", "trial_index": 21, "time_elapsed": 1216831, "internal_node_id": "0.0-6.0-1.0-6.0"}}, {"uniqueid": "w88457403:a29184560", "current_trial": 22, "dateTime": 1693661651493, "trialdata": {"revealed_states": [], "clicked_states": ["27", "9", "5"], "num_clicks_accrued": [0, 0, 0, 0, 0, 0, 0, 0, 0, 0, 0, 0, 0], "stateRewards": ["", 1, 2, -3, -6, 50, -7, 7, -7, -80, 21, -1, 2, 2, 4, -1, 33, 84, 1, 14, -53, 81, 6, -2, -2, -3, -9, -87, -38, -59, -5, -74, -3, -71], "withholdReward": false, "trial_id": "mdp_trial_8", "block": "test", "trialIndex": 11, "score": 39.8, "costs": -4.199999999999999, "simulationMode": [null, null, null, null, null], "rewards": [1, 2, -3, -6, 50], "path": ["0", "0", "1", "2", "3", "4", "5"], "rt": [10010, 49, 283, 314, 484], "actions": ["up", "up", "up", "right", "up"], "actionTimes": [11662, 12294, 13158, 14046, 15102], "queries": {"click": {"state": {"target": ["27", "9", "5"], "time": [2875, 5981, 8467]}, "edge": {"target": [], "time": []}}, "mouseover": {"state": {"target": ["28", "27", "11", "9", "5", "16", "16"], "time": [2361, 2496, 5309, 5629, 7961, 9074, 9412]}, "edge": {"target": [], "time": []}}, "mouseout": {"state": {"target": ["0", "28", "27", "11", "9", "9", "5", "16", "16"], "time": [2280, 2432, 5244, 5374, 6063, 7760, 9065, 9141, 17377]}, "edge": {"target": [], "time": []}}}, "displayed_time": "15.69", "trialTime": 17518, "trial_type": "mouselab-mdp", "trial_index": 22, "time_elapsed": 1235269, "internal_node_id": "0.0-6.0-1.0-7.0"}}, {"uniqueid": "w88457403:a29184560", "current_trial": 23, "dateTime": 1693661670080, "trialdata": {"revealed_states": [], "clicked_states": ["5", "16", "21"], "num_clicks_accrued": [0, 0, 0, 0, 0, 0, 0, 0, 0, 0, 0, 0, 0], "stateRewards": ["", -1, 4, 3, 12, -27, 34, -33, 3, -63, 1, 6, 2, 2, -6, -11, -77, -85, 68, -6, 51, 81, -60, -2, -2, 1, 15, 20, 15, 68, -10, -14, 6, -4], "withholdReward": false, "trial_id": "mdp_trial_9", "block": "test", "trialIndex": 12, "score": 68.8, "costs": -4.199999999999999, "simulationMode": [null, null, null, null, null], "rewards": [2, 2, -6, -6, 81], "path": ["0", "0", "12", "13", "14", "19", "21"], "rt": [9786, 185, 362, 548, 406], "actions": ["right", "right", "right", "down", "down"], "actionTimes": [11572, 12340, 13284, 14372, 15356], "queries": {"click": {"state": {"target": ["5", "16", "21"], "time": [3050, 6161, 8424]}, "edge": {"target": [], "time": []}}, "mouseover": {"state": {"target": ["1", "5", "6", "16", "21"], "time": [2230, 2743, 5598, 5673, 7128]}, "edge": {"target": [], "time": []}}, "mouseout": {"state": {"target": ["12", "0", "1", "5", "6", "16", "21", "21"], "time": [844, 995, 2297, 5446, 5665, 6736, 8645, 10830]}, "edge": {"target": [], "time": []}}}, "displayed_time": "15.94", "trialTime": 17772, "trial_type": "mouselab-mdp", "trial_index": 23, "time_elapsed": 1253855, "internal_node_id": "0.0-6.0-1.0-8.0"}}, {"uniqueid": "w88457403:a29184560", "current_trial": 24, "dateTime": 1693661691909, "trialdata": {"revealed_states": [], "clicked_states": ["21"], "num_clicks_accrued": [0, 0, 0, 0, 0, 0, 0, 0, 0, 0, 0, 0, 0], "stateRewards": ["", 1, -4, -6, -1, -21, 17, -72, 10, 77, 67, -46, -1, 4, -2, 14, -66, -49, -45, -15, -52, 23, -67, 2, -2, -2, 15, -3, 45, -64, 5, -44, 83, 61], "withholdReward": false, "trial_id": "mdp_trial_10", "block": "test", "trialIndex": 13, "score": 7.6, "costs": -1.4, "simulationMode": [null, null, null, null, null], "rewards": [-1, 4, -2, -15, 23], "path": ["0", "0", "12", "13", "14", "19", "21"], "rt": [4128, 273, 363, 2014, 406], "actions": ["right", "right", "right", "down", "down"], "actionTimes": [6930, 7730, 8618, 11202, 12178], "queries": {"click": {"state": {"target": ["21"], "time": [3927]}, "edge": {"target": [], "time": []}}, "mouseover": {"state": {"target": ["21"], "time": [3597]}, "edge": {"target": [], "time": []}}, "mouseout": {"state": {"target": ["21", "0", "21"], "time": [1578, 3248, 6212]}, "edge": {"target": [], "time": []}}}, "displayed_time": "16.80", "trialTime": 20938, "trial_type": "mouselab-mdp", "trial_index": 24, "time_elapsed": 1275685, "internal_node_id": "0.0-6.0-1.0-9.0"}}, {"uniqueid": "w88457403:a29184560", "current_trial": 25, "dateTime": 1693661709812, "trialdata": {"revealed_states": [], "clicked_states": ["21", "27"], "num_clicks_accrued": [0, 0, 0, 0, 0, 0, 0, 0, 0, 0, 0, 0, 0], "stateRewards": ["", -1, 3, 1, -11, -22, -36, 19, -5, -70, -52, 50, -2, -4, 4, -2, -41, -83, 29, -2, 22, 10, -6, -2, 3, -2, 14, 54, 44, 77, -9, -65, -37, -40], "withholdReward": false, "trial_id": "mdp_trial_11", "block": "test", "trialIndex": 14, "score": 64.2, "costs": -2.8, "simulationMode": [null, null, null, null, null], "rewards": [-2, 3, -2, 14, 54], "path": ["0", "0", "23", "24", "25", "26", "27"], "rt": [7800, 222, 293, 390, 428], "actions": ["left", "left", "left", "up", "up"], "actionTimes": [9657, 10457, 11377, 12337, 13337], "queries": {"click": {"state": {"target": ["21", "27"], "time": [3110, 6373]}, "edge": {"target": [], "time": []}}, "mouseover": {"state": {"target": ["21", "21", "28", "27"], "time": [2622, 2838, 5771, 6123]}, "edge": {"target": [], "time": []}}, "mouseout": {"state": {"target": ["21", "22", "0", "0", "21", "21", "28", "27", "28", "31"], "time": [671, 753, 869, 2489, 2686, 5405, 5836, 8856, 15524, 15724]}, "edge": {"target": [], "time": []}}}, "displayed_time": "15.86", "trialTime": 16985, "trial_type": "mouselab-mdp", "trial_index": 25, "time_elapsed": 1293588, "internal_node_id": "0.0-6.0-1.0-10.0"}}, {"uniqueid": "w88457403:a29184560", "current_trial": 26, "dateTime": 1693661730609, "trialdata": {"revealed_states": [], "clicked_states": ["9", "5", "27"], "num_clicks_accrued": [0, 0, 0, 0, 0, 0, 0, 0, 0, 0, 0, 0, 0], "stateRewards": ["", 1, -2, 4, 7, -43, -83, -60, -5, -86, -80, 83, -1, -2, 6, 11, -15, 21, 13, 9, 29, -49, 11, -1, 4, -6, -11, 87, 40, 63, -8, -39, -11, 62], "withholdReward": false, "trial_id": "mdp_trial_12", "block": "test", "trialIndex": 15, "score": 68.8, "costs": -4.199999999999999, "simulationMode": [null, null, null, null, null], "rewards": [-1, 4, -6, -11, 87], "path": ["0", "0", "23", "24", "25", "26", "27"], "rt": [11259, 274, 365, 337, 498], "actions": ["left", "left", "left", "up", "up"], "actionTimes": [13219, 14027, 14979, 15899, 16979], "queries": {"click": {"state": {"target": ["9", "5", "27"], "time": [4487, 7262, 10303]}, "edge": {"target": [], "time": []}}, "mouseover": {"state": {"target": ["0", "4", "5", "9", "5", "8", "27", "27", "10", "16"], "time": [3274, 3441, 3567, 4108, 6990, 9560, 9757, 10057, 11215, 11581]}, "edge": {"target": [], "time": []}}, "mouseout": {"state": {"target": ["0", "0", "4", "5", "9", "5", "8", "27", "27", "10", "16", "15"], "time": [3037, 3339, 3505, 3958, 6674, 9474, 9641, 9822, 11138, 11291, 19524, 19874]}, "edge": {"target": [], "time": []}}}, "displayed_time": "17.56", "trialTime": 19983, "trial_type": "mouselab-mdp", "trial_index": 26, "time_elapsed": 1314385, "internal_node_id": "0.0-6.0-1.0-11.0"}}, {"uniqueid": "w88457403:a29184560", "current_trial": 27, "dateTime": 1693661748909, "trialdata": {"revealed_states": [], "clicked_states": ["32"], "num_clicks_accrued": [0, 0, 0, 0, 0, 0, 0, 0, 0, 0, 0, 0, 0], "stateRewards": ["", 2, -2, -3, 10, -4, -1, -11, -8, -9, -36, -78, 2, 1, 7, -7, 44, -1, -31, -1, 26, 47, 83, 2, -4, -4, -6, -52, -76, -81, -1, -59, 45, 67], "withholdReward": false, "trial_id": "mdp_trial_13", "block": "test", "trialIndex": 16, "score": 36.6, "costs": -1.4, "simulationMode": [null, null, null, null, null], "rewards": [2, -4, -4, -1, 45], "path": ["0", "0", "23", "24", "25", "30", "32"], "rt": [4934, 291, 385, 318, 421], "actions": ["left", "left", "left", "down", "down"], "actionTimes": [6588, 7452, 8420, 9324, 10324], "queries": {"click": {"state": {"target": ["32"], "time": [3377]}, "edge": {"target": [], "time": []}}, "mouseover": {"state": {"target": ["23", "32"], "time": [2300, 2719]}, "edge": {"target": [], "time": []}}, "mouseout": {"state": {"target": ["0", "23", "32"], "time": [2167, 2400, 5816]}, "edge": {"target": [], "time": []}}}, "displayed_time": "15.65", "trialTime": 17444, "trial_type": "mouselab-mdp", "trial_index": 27, "time_elapsed": 1332684, "internal_node_id": "0.0-6.0-1.0-12.0"}}, {"uniqueid": "w88457403:a29184560", "current_trial": 28, "dateTime": 1693661773364, "trialdata": {"revealed_states": [], "clicked_states": ["21", "16", "5", "17"], "num_clicks_accrued": [0, 0, 0, 0, 0, 0, 0, 0, 0, 0, 0, 0, 0], "stateRewards": ["", 2, -3, -8, 14, -7, -51, 73, 2, 36, 36, -43, -1, 3, -4, 1, 6, 87, -65, 15, 61, -42, -83, -1, 3, -2, -7, 30, -48, 35, 13, 26, 60, 78], "withholdReward": false, "trial_id": "mdp_trial_14", "block": "test", "trialIndex": 17, "score": 80.4, "costs": -5.6, "simulationMode": [null, null, null, null, null], "rewards": [-1, 3, -4, 1, 87], "path": ["0", "0", "12", "13", "14", "15", "17"], "rt": [13416, 44, 476, 668, 478], "actions": ["right", "right", "right", "up", "right"], "actionTimes": [15744, 16364, 17384, 18616, 19672], "queries": {"click": {"state": {"target": ["21", "16", "5", "17"], "time": [3486, 6293, 9740, 12596]}, "edge": {"target": [], "time": []}}, "mouseover": {"state": {"target": ["21", "14", "16", "16", "6", "5", "6", "17"], "time": [3123, 5739, 5828, 6056, 9202, 9370, 11938, 12125]}, "edge": {"target": [], "time": []}}, "mouseout": {"state": {"target": ["32", "12", "0", "21", "14", "16", "16", "16", "6", "5", "6", "17"], "time": [49, 1087, 2806, 5672, 5816, 5895, 8822, 9138, 9269, 11872, 12006, 14706]}, "edge": {"target": [], "time": []}}}, "displayed_time": "20.20", "trialTime": 23469, "trial_type": "mouselab-mdp", "trial_index": 28, "time_elapsed": 1357139, "internal_node_id": "0.0-6.0-1.0-13.0"}}, {"uniqueid": "w88457403:a29184560", "current_trial": 29, "dateTime": 1693661794325, "trialdata": {"revealed_states": [], "clicked_states": ["18", "17", "21"], "num_clicks_accrued": [0, 0, 0, 0, 0, 0, 0, 0, 0, 0, 0, 0, 0], "stateRewards": ["", -1, -4, -1, -11, 43, 69, 39, 4, 17, -20, -82, -2, -1, 4, 8, -79, 24, -79, 11, 36, 64, 41, 2, 4, -1, 11, -79, -47, 75, -3, 63, -36, -19], "withholdReward": false, "trial_id": "mdp_trial_15", "block": "test", "trialIndex": 18, "score": 71.8, "costs": -4.199999999999999, "simulationMode": [null, null, null, null, null], "rewards": [-2, -1, 4, 11, 64], "path": ["0", "0", "12", "13", "14", "19", "21"], "rt": [11187, 151, 413, 603, 431], "actions": ["right", "right", "right", "down", "down"], "actionTimes": [13031, 13767, 14751, 15927, 16935], "queries": {"click": {"state": {"target": ["18", "17", "21"], "time": [4244, 7419, 9907]}, "edge": {"target": [], "time": []}}, "mouseover": {"state": {"target": ["0", "18", "17", "19", "21"], "time": [3535, 3890, 7113, 7962, 8044]}, "edge": {"target": [], "time": []}}, "mouseout": {"state": {"target": ["0", "0", "18", "17", "19", "21"], "time": [2630, 3611, 6649, 7884, 8036, 19218]}, "edge": {"target": [], "time": []}}}, "displayed_time": "17.51", "trialTime": 19895, "trial_type": "mouselab-mdp", "trial_index": 29, "time_elapsed": 1378101, "internal_node_id": "0.0-6.0-1.0-14.0"}}, {"uniqueid": "w88457403:a29184560", "current_trial": 30, "dateTime": 1693661812013, "trialdata": {"revealed_states": [], "clicked_states": ["27", "29"], "num_clicks_accrued": [0, 0, 0, 0, 0, 0, 0, 0, 0, 0, 0, 0, 0], "stateRewards": ["", 1, 2, -6, -13, -51, 22, -4, -12, -44, -12, 6, -2, -2, -2, -14, -46, -4, -77, -2, 36, -79, 41, 2, -4, 2, -6, -55, 59, 70, -5, 39, -19, 24], "withholdReward": false, "trial_id": "mdp_trial_16", "block": "test", "trialIndex": 19, "score": 61.2, "costs": -2.8, "simulationMode": [null, null, null, null, null], "rewards": [2, -4, 2, -6, 70], "path": ["0", "0", "23", "24", "25", "26", "29"], "rt": [7461, 333, 451, 312, 646], "actions": ["left", "left", "left", "up", "left"], "actionTimes": [9453, 10373, 11397, 12285, 13509], "queries": {"click": {"state": {"target": ["27", "29"], "time": [3290, 6048]}, "edge": {"target": [], "time": []}}, "mouseover": {"state": {"target": ["26", "27", "29"], "time": [2518, 2912, 5512]}, "edge": {"target": [], "time": []}}, "mouseout": {"state": {"target": ["0", "0", "26", "27", "29"], "time": [877, 2448, 2591, 5447, 8180]}, "edge": {"target": [], "time": []}}}, "displayed_time": "15.99", "trialTime": 16813, "trial_type": "mouselab-mdp", "trial_index": 30, "time_elapsed": 1395789, "internal_node_id": "0.0-6.0-1.0-15.0"}}, {"uniqueid": "w88457403:a29184560", "current_trial": 31, "dateTime": 1693661830767, "trialdata": {"revealed_states": [], "clicked_states": ["32", "31"], "num_clicks_accrued": [0, 0, 0, 0, 0, 0, 0, 0, 0, 0, 0, 0, 0], "stateRewards": ["", -1, 3, 2, 9, 41, 4, -46, -12, -54, -87, -25, 2, 3, -1, 11, -77, 12, -33, -9, -32, 35, 72, 1, 3, -7, 4, 37, 65, -73, 6, 77, -43, 8], "withholdReward": false, "trial_id": "mdp_trial_17", "block": "test", "trialIndex": 20, "score": 77.2, "costs": -2.8, "simulationMode": [null, null, null, null, null], "rewards": [1, 3, -7, 6, 77], "path": ["0", "0", "23", "24", "25", "30", "31"], "rt": [8694, 458, 445, 397, 259], "actions": ["left", "left", "left", "down", "right"], "actionTimes": [10517, 11517, 12493, 13453, 14285], "queries": {"click": {"state": {"target": ["32", "31"], "time": [4230, 7018]}, "edge": {"target": [], "time": []}}, "mouseover": {"state": {"target": ["31", "32", "24", "31"], "time": [3007, 3223, 6491, 6741]}, "edge": {"target": [], "time": []}}, "mouseout": {"state": {"target": ["12", "0", "31", "32", "24", "31"], "time": [589, 2876, 3073, 6357, 6556, 9557]}, "edge": {"target": [], "time": []}}}, "displayed_time": "15.82", "trialTime": 17677, "trial_type": "mouselab-mdp", "trial_index": 31, "time_elapsed": 1414542, "internal_node_id": "0.0-6.0-1.0-16.0"}}, {"uniqueid": "w88457403:a29184560", "current_trial": 32, "dateTime": 1693661849325, "trialdata": {"revealed_states": [], "clicked_states": ["5"], "num_clicks_accrued": [0, 0, 0, 0, 0, 0, 0, 0, 0, 0, 0, 0, 0], "stateRewards": ["", 1, -2, 7, -14, 88, -56, -44, -14, 64, -51, -57, -2, 3, -4, -9, -11, 19, -77, -1, 68, 75, -67, -1, 1, -2, 5, -37, 70, -34, -10, -72, 63, -41], "withholdReward": false, "trial_id": "mdp_trial_18", "block": "test", "trialIndex": 21, "score": 78.6, "costs": -1.4, "simulationMode": [null, null, null, null, null], "rewards": [1, -2, 7, -14, 88], "path": ["0", "0", "1", "2", "3", "4", "5"], "rt": [4458, 222, 317, 710, 477], "actions": ["up", "up", "up", "right", "up"], "actionTimes": [6744, 7496, 8376, 9664, 10712], "queries": {"click": {"state": {"target": ["5"], "time": [3373]}, "edge": {"target": [], "time": []}}, "mouseover": {"state": {"target": ["4", "5", "6"], "time": [2863, 2938, 3812]}, "edge": {"target": [], "time": []}}, "mouseout": {"state": {"target": ["7", "7", "0", "4", "5", "5", "6"], "time": [343, 894, 2731, 2928, 3600, 3735, 13896]}, "edge": {"target": [], "time": []}}}, "displayed_time": "16.29", "trialTime": 17560, "trial_type": "mouselab-mdp", "trial_index": 32, "time_elapsed": 1433100, "internal_node_id": "0.0-6.0-1.0-17.0"}}, {"uniqueid": "w88457403:a29184560", "current_trial": 33, "dateTime": 1693661869140, "trialdata": {"revealed_states": [], "clicked_states": ["9", "11"], "num_clicks_accrued": [0, 0, 0, 0, 0, 0, 0, 0, 0, 0, 0, 0, 0], "stateRewards": ["", -2, 2, 5, -14, -56, 64, 84, -5, 52, 39, 85, -2, 1, 7, 8, 21, 29, -78, -9, -10, -69, 10, -2, -1, -7, 15, 72, 20, 41, -2, 52, 80, 22], "withholdReward": false, "trial_id": "mdp_trial_19", "block": "test", "trialIndex": 22, "score": 82.2, "costs": -2.8, "simulationMode": [null, null, null, null, null], "rewards": [-2, 2, 5, -5, 85], "path": ["0", "0", "1", "2", "3", "8", "11"], "rt": [7483, 75, 246, 484, 431], "actions": ["up", "up", "up", "left", "left"], "actionTimes": [9972, 10628, 11444, 12517, 13524], "queries": {"click": {"state": {"target": ["9", "11"], "time": [3945, 6656]}, "edge": {"target": [], "time": []}}, "mouseover": {"state": {"target": ["9", "11", "10"], "time": [3507, 4303, 7070]}, "edge": {"target": [], "time": []}}, "mouseout": {"state": {"target": ["0", "0", "9", "11", "10"], "time": [870, 3022, 4294, 6995, 15622]}, "edge": {"target": [], "time": []}}}, "displayed_time": "16.49", "trialTime": 18652, "trial_type": "mouselab-mdp", "trial_index": 33, "time_elapsed": 1452916, "internal_node_id": "0.0-6.0-1.0-18.0"}}, {"uniqueid": "w88457403:a29184560", "current_trial": 34, "dateTime": 1693661888047, "trialdata": {"revealed_states": [], "clicked_states": ["28", "27"], "num_clicks_accrued": [0, 0, 0, 0, 0, 0, 0, 0, 0, 0, 0, 0, 0], "stateRewards": ["", -2, 1, -8, 12, -65, -79, 16, 7, -80, -17, -45, -2, 2, -5, -2, -85, 23, -4, -7, 48, 27, -76, 2, 3, 5, 2, 43, 71, -13, 7, -49, 59, -31], "withholdReward": false, "trial_id": "mdp_trial_20", "block": "test", "trialIndex": 23, "score": 80.2, "costs": -2.8, "simulationMode": [null, null, null, null, null], "rewards": [2, 3, 5, 2, 71], "path": ["0", "0", "23", "24", "25", "26", "28"], "rt": [6600, 343, 312, 446, 509], "actions": ["left", "left", "left", "up", "right"], "actionTimes": [8633, 9561, 10457, 11433, 12473], "queries": {"click": {"state": {"target": ["28", "27"], "time": [3470, 5613]}, "edge": {"target": [], "time": []}}, "mouseover": {"state": {"target": ["28", "27"], "time": [2840, 3981]}, "edge": {"target": [], "time": []}}, "mouseout": {"state": {"target": ["0", "28", "27", "27"], "time": [2707, 3896, 5787, 15987]}, "edge": {"target": [], "time": []}}}, "displayed_time": "16.04", "trialTime": 17809, "trial_type": "mouselab-mdp", "trial_index": 34, "time_elapsed": 1471822, "internal_node_id": "0.0-6.0-1.0-19.0"}}, {"uniqueid": "w88457403:a29184560", "current_trial": 35, "dateTime": 1693661911580, "trialdata": {"revealed_states": [], "clicked_states": ["33", "32", "31", "27"], "num_clicks_accrued": [0, 0, 0, 0, 0, 0, 0, 0, 0, 0, 0, 0, 0], "stateRewards": ["", -2, 2, 3, -7, 76, 63, 21, 15, 35, -8, -44, 1, 1, -2, -12, 23, 24, 76, -9, 46, 66, -49, -2, -1, 7, 12, 40, -71, -45, -6, 38, -49, 46], "withholdReward": false, "trial_id": "mdp_trial_21", "block": "test", "trialIndex": 24, "score": 38.4, "costs": -5.6, "simulationMode": [null, null, null, null, null], "rewards": [-2, -1, 7, -6, 46], "path": ["0", "0", "23", "24", "25", "30", "33"], "rt": [10651, 453, 352, 342, 424], "actions": ["left", "left", "left", "down", "left"], "actionTimes": [12789, 13766, 14694, 15614, 16622], "queries": {"click": {"state": {"target": ["33", "32", "31", "27"], "time": [3522, 5989, 8194, 10490]}, "edge": {"target": [], "time": []}}, "mouseover": {"state": {"target": ["31", "33", "32", "31", "26", "27"], "time": [2763, 3127, 3949, 7013, 9273, 9422]}, "edge": {"target": [], "time": []}}, "mouseout": {"state": {"target": ["28", "23", "0", "0", "31", "33", "32", "31", "26", "27", "28"], "time": [676, 846, 993, 2697, 2833, 3806, 6721, 9197, 9349, 21677, 21828]}, "edge": {"target": [], "time": []}}}, "displayed_time": "17.20", "trialTime": 22550, "trial_type": "mouselab-mdp", "trial_index": 35, "time_elapsed": 1495356, "internal_node_id": "0.0-6.0-1.0-20.0"}}, {"uniqueid": "w88457403:a29184560", "current_trial": 36, "dateTime": 1693661931998, "trialdata": {"revealed_states": [], "clicked_states": ["27", "29", "28"], "num_clicks_accrued": [0, 0, 0, 0, 0, 0, 0, 0, 0, 0, 0, 0, 0], "stateRewards": ["", 1, -3, -4, -11, -56, 61, -47, -16, -28, -9, 69, -2, -3, -4, -8, 40, -86, 59, -4, 80, 27, 54, -1, 3, -1, 8, 67, 23, 50, 6, 83, -43, -29], "withholdReward": false, "trial_id": "mdp_trial_22", "block": "test", "trialIndex": 25, "score": 71.8, "costs": -4.199999999999999, "simulationMode": [null, null, null, null, null], "rewards": [-1, 3, -1, 8, 67], "path": ["0", "0", "23", "24", "25", "26", "27"], "rt": [9825, 211, 352, 446, 361], "actions": ["left", "left", "left", "up", "up"], "actionTimes": [12074, 12866, 13746, 14770, 15714], "queries": {"click": {"state": {"target": ["27", "29", "28"], "time": [4230, 6766, 9062]}, "edge": {"target": [], "time": []}}, "mouseover": {"state": {"target": ["23", "28", "27", "29", "26", "28", "27"], "time": [3602, 3768, 3903, 4672, 7081, 7368, 9767]}, "edge": {"target": [], "time": []}}, "mouseout": {"state": {"target": ["0", "12", "0", "23", "0", "23", "28", "27", "29", "26", "28", "27"], "time": [933, 1090, 1183, 1300, 3536, 3702, 3836, 4599, 7073, 7156, 9690, 18852]}, "edge": {"target": [], "time": []}}}, "displayed_time": "16.29", "trialTime": 19274, "trial_type": "mouselab-mdp", "trial_index": 36, "time_elapsed": 1515774, "internal_node_id": "0.0-6.0-1.0-21.0"}}, {"uniqueid": "w88457403:a29184560", "current_trial": 37, "dateTime": 1693661955748, "trialdata": {"revealed_states": [], "clicked_states": ["7", "6", "5", "9"], "num_clicks_accrued": [0, 0, 0, 0, 0, 0, 0, 0, 0, 0, 0, 0, 0], "stateRewards": ["", -1, 3, 8, 9, -53, 20, -84, 2, -28, -62, -31, -1, -2, -7, 2, 51, 58, 45, -4, -17, -41, 36, 2, -2, -7, -15, 29, -54, -37, -16, -43, 65, -17], "withholdReward": false, "trial_id": "mdp_trial_23", "block": "test", "trialIndex": 26, "score": 33.4, "costs": -5.6, "simulationMode": [null, null, null, null, null], "rewards": [-1, 3, 8, 9, 20], "path": ["0", "0", "1", "2", "3", "4", "6"], "rt": [13454, 453, 279, 154, 362], "actions": ["up", "up", "up", "right", "right"], "actionTimes": [14952, 15944, 16752, 17480, 18408], "queries": {"click": {"state": {"target": ["7", "6", "5", "9"], "time": [4165, 6948, 9444, 12253]}, "edge": {"target": [], "time": []}}, "mouseover": {"state": {"target": ["0", "12", "13", "14", "17", "16", "7", "6", "6", "5", "9"], "time": [1578, 2499, 2636, 2714, 2883, 3466, 3650, 6398, 6699, 9110, 11850]}, "edge": {"target": [], "time": []}}, "mouseout": {"state": {"target": ["0", "0", "12", "13", "14", "17", "16", "7", "6", "6", "5", "5", "9", "10", "24"], "time": [630, 2252, 2566, 2705, 2783, 3099, 3533, 6331, 6464, 9032, 9663, 11749, 21866, 21998, 22665]}, "edge": {"target": [], "time": []}}}, "displayed_time": "18.97", "trialTime": 22824, "trial_type": "mouselab-mdp", "trial_index": 37, "time_elapsed": 1539524, "internal_node_id": "0.0-6.0-1.0-22.0"}}, {"uniqueid": "w88457403:a29184560", "current_trial": 38, "dateTime": 1693661973599, "trialdata": {"revealed_states": [], "clicked_states": ["22"], "num_clicks_accrued": [0, 0, 0, 0, 0, 0, 0, 0, 0, 0, 0, 0, 0], "stateRewards": ["", 2, -3, 5, -14, -63, -9, -24, -11, -54, -43, 68, 2, -2, -4, 7, -64, 30, 47, 12, -74, 11, 86, 1, -3, 3, 10, -71, -42, -52, -1, -29, -16, 69], "withholdReward": false, "trial_id": "mdp_trial_24", "block": "test", "trialIndex": 27, "score": 92.6, "costs": -1.4, "simulationMode": [null, null, null, null, null], "rewards": [2, -2, -4, 12, 86], "path": ["0", "0", "12", "13", "14", "19", "22"], "rt": [4985, 189, 372, 650, 409], "actions": ["right", "right", "right", "down", "left"], "actionTimes": [6953, 7681, 8633, 9817, 10753], "queries": {"click": {"state": {"target": ["22"], "time": [3325]}, "edge": {"target": [], "time": []}}, "mouseover": {"state": {"target": ["19", "22", "21"], "time": [2703, 2884, 3689]}, "edge": {"target": [], "time": []}}, "mouseout": {"state": {"target": ["0", "19", "22", "21"], "time": [2470, 2819, 3614, 13507]}, "edge": {"target": [], "time": []}}}, "displayed_time": "15.97", "trialTime": 16577, "trial_type": "mouselab-mdp", "trial_index": 38, "time_elapsed": 1557374, "internal_node_id": "0.0-6.0-1.0-23.0"}}, {"uniqueid": "w88457403:a29184560", "current_trial": 39, "dateTime": 1693662005701, "trialdata": {"revealed_states": [], "clicked_states": ["25", "27", "31", "14", "21", "22"], "num_clicks_accrued": [0, 0, 0, 0, 0, 0, 0, 0, 0, 0, 0, 0, 0], "stateRewards": ["", -2, 2, -5, -6, 10, -66, -58, -10, -11, -63, -70, -1, -4, -5, 7, 66, -64, -43, -3, 45, -37, 4, -2, -2, -6, -4, -30, 33, 43, 15, -32, -65, -59], "withholdReward": false, "trial_id": "mdp_trial_25", "block": "test", "trialIndex": 28, "score": -17.4, "costs": -8.4, "simulationMode": [null, null, null, null, null], "rewards": [-1, -4, -5, -3, 4], "path": ["0", "0", "12", "13", "14", "19", "22"], "rt": [15411, 201, 5132, 252, 778], "actions": ["right", "right", "right", "down", "left"], "actionTimes": [17254, 18030, 23742, 24542, 25902], "queries": {"click": {"state": {"target": ["25", "27", "31", "14", "21", "22"], "time": [4459, 6561, 8268, 10242, 12362, 14074]}, "edge": {"target": [], "time": []}}, "mouseover": {"state": {"target": ["25", "26", "27", "24", "31", "14", "21", "22"], "time": [4172, 5700, 6036, 7439, 7524, 9504, 11079, 13304]}, "edge": {"target": [], "time": []}}, "mouseout": {"state": {"target": ["0", "25", "26", "27", "24", "31", "14", "21", "22"], "time": [4054, 4683, 5779, 7362, 7516, 9359, 10702, 13082, 30438]}, "edge": {"target": [], "time": []}}}, "displayed_time": "26.43", "trialTime": 30966, "trial_type": "mouselab-mdp", "trial_index": 39, "time_elapsed": 1589476, "internal_node_id": "0.0-6.0-1.0-24.0"}}, {"uniqueid": "w88457403:a29184560", "current_trial": 40, "dateTime": 1693662027065, "trialdata": {"revealed_states": [], "clicked_states": [], "num_clicks_accrued": [0, 0, 0, 0, 0, 0, 0, 0, 0, 0, 0, 0, 0], "stateRewards": ["", -1, 1, 8, -8, -49, 62, -78, 16, 28, -81, 78, -2, -3, -1, -4, 67, 49, -2, -13, -16, -39, 83, 1, -4, 4, -5, -20, 7, 84, 7, -32, -59, 19], "withholdReward": false, "trial_id": "mdp_trial_26", "block": "test", "trialIndex": 29, "score": -51, "costs": 0, "simulationMode": [null, null, null, null, null], "rewards": [1, -4, 4, 7, -59], "path": ["0", "0", "23", "24", "25", "30", "32"], "rt": [8528, 90, 3224, 239, 587], "actions": ["left", "left", "left", "down", "down"], "actionTimes": [10523, 11202, 14962, 15786, 16946], "queries": {"click": {"state": {"target": [], "time": []}, "edge": {"target": [], "time": []}}, "mouseover": {"state": {"target": ["1", "9", "9", "4", "15", "17"], "time": [3222, 3439, 3722, 4039, 4205, 4525]}, "edge": {"target": [], "time": []}}, "mouseout": {"state": {"target": ["0", "0", "1", "9", "9", "4", "15", "17"], "time": [853, 2988, 3339, 3549, 3787, 4106, 4272, 20288]}, "edge": {"target": [], "time": []}}}, "displayed_time": "17.52", "trialTime": 20583, "trial_type": "mouselab-mdp", "trial_index": 40, "time_elapsed": 1610841, "internal_node_id": "0.0-6.0-1.0-25.0"}}, {"uniqueid": "w88457403:a29184560", "current_trial": 41, "dateTime": 1693662052165, "trialdata": {"revealed_states": [], "clicked_states": ["22", "21", "20", "14", "16"], "num_clicks_accrued": [0, 0, 0, 0, 0, 0, 0, 0, 0, 0, 0, 0, 0], "stateRewards": ["", 1, -2, -8, -3, 31, -84, -55, -14, 15, -58, 17, -2, -3, 7, 7, -12, 48, 67, 4, -44, -68, 46, 2, 3, -5, -7, 76, 27, 5, 11, 57, 52, 59], "withholdReward": false, "trial_id": "mdp_trial_27", "block": "test", "trialIndex": 30, "score": 45, "costs": -7, "simulationMode": [null, null, null, null, null], "rewards": [-2, -3, 7, 4, 46], "path": ["0", "0", "12", "13", "14", "19", "22"], "rt": [14532, 99, 293, 254, 361], "actions": ["right", "right", "right", "down", "left"], "actionTimes": [16678, 17350, 18174, 19006, 19934], "queries": {"click": {"state": {"target": ["22", "21", "20", "14", "16"], "time": [3411, 5906, 8562, 11698, 14186]}, "edge": {"target": [], "time": []}}, "mouseover": {"state": {"target": ["22", "21", "20", "14", "13", "16", "18", "12"], "time": [3067, 4260, 6501, 10917, 12687, 13429, 14789, 15007]}, "edge": {"target": [], "time": []}}, "mouseout": {"state": {"target": ["13", "0", "22", "21", "20", "14", "13", "16", "18", "12"], "time": [733, 2668, 3814, 6365, 10734, 12488, 13234, 14407, 14934, 15082]}, "edge": {"target": [], "time": []}}}, "displayed_time": "20.50", "trialTime": 23862, "trial_type": "mouselab-mdp", "trial_index": 41, "time_elapsed": 1635940, "internal_node_id": "0.0-6.0-1.0-26.0"}}, {"uniqueid": "w88457403:a29184560", "current_trial": 42, "dateTime": 1693662073851, "trialdata": {"revealed_states": [], "clicked_states": ["18", "16", "17", "6"], "num_clicks_accrued": [0, 0, 0, 0, 0, 0, 0, 0, 0, 0, 0, 0, 0], "stateRewards": ["", 1, 1, -5, 8, -6, 45, 16, -6, -7, -22, -38, -1, -4, 8, -11, -16, 21, -45, -15, -59, -32, 42, -1, 3, 6, 11, -7, 34, -27, -8, 85, 43, -9], "withholdReward": false, "trial_id": "mdp_trial_28", "block": "test", "trialIndex": 31, "score": 44.4, "costs": -5.6, "simulationMode": [null, null, null, null, null], "rewards": [1, 1, -5, 8, 45], "path": ["0", "0", "1", "2", "3", "4", "6"], "rt": [12110, 1106, 361, 292, 392], "actions": ["up", "up", "up", "right", "right"], "actionTimes": [14446, 16086, 17014, 17878, 18846], "queries": {"click": {"state": {"target": ["18", "16", "17", "6"], "time": [3530, 5658, 7907, 11034]}, "edge": {"target": [], "time": []}}, "mouseover": {"state": {"target": ["12", "14", "18", "16", "17", "4", "6"], "time": [2948, 3085, 3233, 4658, 6159, 10473, 10765]}, "edge": {"target": [], "time": []}}, "mouseout": {"state": {"target": ["0", "12", "14", "18", "16", "16", "17", "4", "6"], "time": [2883, 3018, 3165, 4208, 5824, 6076, 10400, 10540, 20904]}, "edge": {"target": [], "time": []}}}, "displayed_time": "19.42", "trialTime": 20964, "trial_type": "mouselab-mdp", "trial_index": 42, "time_elapsed": 1657626, "internal_node_id": "0.0-6.0-1.0-27.0"}}, {"uniqueid": "w88457403:a29184560", "current_trial": 43, "dateTime": 1693662094180, "trialdata": {"revealed_states": [], "clicked_states": ["10", "11", "9"], "num_clicks_accrued": [0, 0, 0, 0, 0, 0, 0, 0, 0, 0, 0, 0, 0], "stateRewards": ["", -2, -3, -5, 8, 27, 11, 43, -6, -24, -87, 69, -2, 1, 1, 9, 19, 48, -37, 9, -14, 45, 62, 1, 2, 1, 16, -81, -41, 22, 4, -6, -63, 47], "withholdReward": false, "trial_id": "mdp_trial_29", "block": "test", "trialIndex": 32, "score": 48.8, "costs": -4.199999999999999, "simulationMode": [null, null, null, null, null], "rewards": [-2, -3, -5, -6, 69], "path": ["0", "0", "1", "2", "3", "8", "11"], "rt": [9519, 392, 337, 525, 484], "actions": ["up", "up", "up", "left", "left"], "actionTimes": [11277, 12237, 13141, 14277, 15333], "queries": {"click": {"state": {"target": ["10", "11", "9"], "time": [3570, 6281, 9081]}, "edge": {"target": [], "time": []}}, "mouseover": {"state": {"target": ["10", "11", "9"], "time": [3054, 5765, 8637]}, "edge": {"target": [], "time": []}}, "mouseout": {"state": {"target": ["0", "0", "0", "10", "11", "11", "9", "11"], "time": [586, 786, 2538, 5688, 6504, 8371, 18304, 18471]}, "edge": {"target": [], "time": []}}}, "displayed_time": "15.90", "trialTime": 19117, "trial_type": "mouselab-mdp", "trial_index": 43, "time_elapsed": 1677956, "internal_node_id": "0.0-6.0-1.0-28.0"}}, {"uniqueid": "w88457403:a29184560", "current_trial": 44, "dateTime": 1693662125063, "trialdata": {"revealed_states": [], "clicked_states": ["11", "9", "5", "7", "10", "6", "18", "17"], "num_clicks_accrued": [0, 0, 0, 0, 0, 0, 0, 0, 0, 0, 0, 0, 0], "stateRewards": ["", -1, -1, 7, -15, -43, -21, -84, -9, -45, -66, 2, 1, -2, 2, 8, -27, 44, -52, -5, -84, 11, 53, 1, 4, -4, 16, 83, -82, -15, -16, 68, -43, 81], "withholdReward": false, "trial_id": "mdp_trial_30", "block": "test", "trialIndex": 33, "score": 41.8, "costs": -11.200000000000001, "simulationMode": [null, null, null, null, null], "rewards": [1, -2, 2, 8, 44], "path": ["0", "0", "12", "13", "14", "15", "17"], "rt": [20881, 292, 338, 599, 426], "actions": ["right", "right", "right", "up", "right"], "actionTimes": [22682, 23554, 24466, 25634, 26642], "queries": {"click": {"state": {"target": ["11", "9", "5", "7", "10", "6", "18", "17"], "time": [3079, 5847, 8430, 10894, 13054, 15214, 17501, 19710]}, "edge": {"target": [], "time": []}}, "mouseover": {"state": {"target": ["11", "9", "5", "7", "2", "10", "6", "18", "15", "17"], "time": [2664, 5413, 8096, 9353, 11360, 11452, 14000, 16980, 18706, 19138]}, "edge": {"target": [], "time": []}}, "mouseout": {"state": {"target": ["0", "11", "9", "5", "7", "2", "10", "6", "6", "18", "15", "17", "15", "12"], "time": [2329, 5297, 7864, 8883, 11351, 11443, 13905, 15378, 16130, 18442, 18943, 28782, 28996, 29073]}, "edge": {"target": [], "time": []}}}, "displayed_time": "27.21", "trialTime": 29906, "trial_type": "mouselab-mdp", "trial_index": 44, "time_elapsed": 1708838, "internal_node_id": "0.0-6.0-1.0-29.0"}}, {"uniqueid": "w88457403:a29184560", "current_trial": 45, "dateTime": 1693662146607, "trialdata": {"revealed_states": [], "clicked_states": ["28", "27", "29", "33"], "num_clicks_accrued": [0, 0, 0, 0, 0, 0, 0, 0, 0, 0, 0, 0, 0], "stateRewards": ["", 2, 3, 8, 14, 69, -27, 17, 2, -71, -65, -10, 2, -3, 7, 8, 65, -10, 65, -12, 73, -12, 13, -2, -2, 6, 10, -79, -69, -18, 10, -85, 67, 74], "withholdReward": false, "trial_id": "mdp_trial_31", "block": "test", "trialIndex": 34, "score": 80.4, "costs": -5.6, "simulationMode": [null, null, null, null, null], "rewards": [-2, -2, 6, 10, 74], "path": ["0", "0", "23", "24", "25", "30", "33"], "rt": [12565, 300, 259, 335, 470], "actions": ["left", "left", "left", "down", "left"], "actionTimes": [14820, 15660, 16556, 17468, 18516], "queries": {"click": {"state": {"target": ["28", "27", "29", "33"], "time": [3784, 6361, 9327, 11520]}, "edge": {"target": [], "time": []}}, "mouseover": {"state": {"target": ["23", "28", "27", "29", "29", "33", "32"], "time": [2911, 3210, 5998, 8598, 8954, 10344, 12991]}, "edge": {"target": [], "time": []}}, "mouseout": {"state": {"target": ["0", "23", "28", "27", "27", "29", "29", "29", "33"], "time": [2843, 2991, 5927, 6423, 8526, 8876, 9603, 10266, 12840]}, "edge": {"target": [], "time": []}}}, "displayed_time": "19.15", "trialTime": 20532, "trial_type": "mouselab-mdp", "trial_index": 45, "time_elapsed": 1730382, "internal_node_id": "0.0-6.0-1.0-30.0"}}, {"uniqueid": "w88457403:a29184560", "current_trial": 46, "dateTime": 1693662170200, "trialdata": {"revealed_states": [], "clicked_states": ["33", "32", "31", "28"], "num_clicks_accrued": [0, 0, 0, 0, 0, 0, 0, 0, 0, 0, 0, 0, 0], "stateRewards": ["", -1, -2, 8, -6, -79, -6, 87, 9, -5, -66, -38, 2, 2, 5, -6, -82, 74, 85, -8, 67, -30, -15, 1, -2, -2, -2, 87, 64, 49, 7, 2, -38, -9], "withholdReward": false, "trial_id": "mdp_trial_32", "block": "test", "trialIndex": 35, "score": 53.4, "costs": -5.6, "simulationMode": [null, null, null, null, null], "rewards": [1, -2, -2, -2, 64], "path": ["0", "0", "23", "24", "25", "26", "28"], "rt": [11086, 299, 356, 386, 441], "actions": ["left", "left", "left", "up", "right"], "actionTimes": [13123, 14003, 14931, 15883, 16899], "queries": {"click": {"state": {"target": ["33", "32", "31", "28"], "time": [3295, 5494, 7591, 9697]}, "edge": {"target": [], "time": []}}, "mouseover": {"state": {"target": ["31", "33", "32", "31", "28"], "time": [2568, 2866, 3831, 5930, 8375]}, "edge": {"target": [], "time": []}}, "mouseout": {"state": {"target": ["32", "12", "0", "31", "33", "32", "31", "28", "24", "31"], "time": [696, 1013, 2499, 2638, 3761, 5781, 8277, 20264, 20631, 20781]}, "edge": {"target": [], "time": []}}}, "displayed_time": "17.49", "trialTime": 22563, "trial_type": "mouselab-mdp", "trial_index": 46, "time_elapsed": 1753975, "internal_node_id": "0.0-6.0-1.0-31.0"}}, {"uniqueid": "w88457403:a29184560", "current_trial": 47, "dateTime": 1693662196303, "trialdata": {"revealed_states": [], "clicked_states": ["5", "6", "7", "18", "16", "17"], "num_clicks_accrued": [0, 0, 0, 0, 0, 0, 0, 0, 0, 0, 0, 0, 0], "stateRewards": ["", 2, 3, 6, -5, -74, -53, 17, -12, 46, 44, 18, -2, 4, 1, -8, 22, -23, -49, 9, -45, 55, 81, 1, -1, -7, -16, -83, -71, -45, 2, 51, 82, 61], "withholdReward": false, "trial_id": "mdp_trial_33", "block": "test", "trialIndex": 36, "score": 8.6, "costs": -8.4, "simulationMode": [null, null, null, null, null], "rewards": [-2, 4, 1, -8, 22], "path": ["0", "0", "12", "13", "14", "15", "16"], "rt": [15796, 268, 437, 681, 398], "actions": ["right", "right", "right", "up", "up"], "actionTimes": [17687, 18527, 19511, 20807, 21768], "queries": {"click": {"state": {"target": ["5", "6", "7", "18", "16", "17"], "time": [3195, 5691, 7819, 11122, 13178, 15483]}, "edge": {"target": [], "time": []}}, "mouseover": {"state": {"target": ["5", "6", "7", "2", "16", "18", "16", "15", "13", "17"], "time": [2777, 5361, 6247, 8234, 9331, 10523, 11778, 13786, 14170, 14402]}, "edge": {"target": [], "time": []}}, "mouseout": {"state": {"target": ["0", "5", "5", "6", "7", "2", "16", "18", "16", "15", "13", "17", "14", "22"], "time": [2687, 3264, 5261, 6046, 8163, 8599, 10461, 11287, 13629, 14044, 14250, 23809, 24026, 24159]}, "edge": {"target": [], "time": []}}}, "displayed_time": "22.34", "trialTime": 25063, "trial_type": "mouselab-mdp", "trial_index": 47, "time_elapsed": 1780078, "internal_node_id": "0.0-6.0-1.0-32.0"}}, {"uniqueid": "w88457403:a29184560", "current_trial": 48, "dateTime": 1693662224584, "trialdata": {"revealed_states": [], "clicked_states": ["17", "16", "18", "20", "21", "22"], "num_clicks_accrued": [0, 0, 0, 0, 0, 0, 0, 0, 0, 0, 0, 0, 0], "stateRewards": ["", -2, 1, -7, -8, -37, -76, -87, 11, 30, -63, 80, -1, 4, 2, -1, 42, 17, 52, -3, -75, -80, -68, 2, -3, -5, -15, -48, 82, 24, -7, 5, -22, -71], "withholdReward": false, "trial_id": "mdp_trial_34", "block": "test", "trialIndex": 37, "score": 47.6, "costs": -8.4, "simulationMode": [null, null, null, null, null], "rewards": [-1, 4, 2, -1, 52], "path": ["0", "0", "12", "13", "14", "15", "18"], "rt": [16676, 639, 421, 671, 450], "actions": ["right", "right", "right", "up", "left"], "actionTimes": [18716, 19925, 20932, 22156, 23188], "queries": {"click": {"state": {"target": ["17", "16", "18", "20", "21", "22"], "time": [3737, 6394, 9535, 12344, 14792, 16840]}, "edge": {"target": [], "time": []}}, "mouseover": {"state": {"target": ["17", "16", "18", "14", "20", "21", "22"], "time": [3311, 6051, 8789, 10134, 10288, 13817, 15336]}, "edge": {"target": [], "time": []}}, "mouseout": {"state": {"target": ["0", "17", "16", "18", "14", "20", "21"], "time": [2111, 5947, 8711, 10124, 10210, 13473, 15123]}, "edge": {"target": [], "time": []}}}, "displayed_time": "23.77", "trialTime": 27212, "trial_type": "mouselab-mdp", "trial_index": 48, "time_elapsed": 1808359, "internal_node_id": "0.0-6.0-1.0-33.0"}}, {"uniqueid": "w88457403:a29184560", "current_trial": 49, "dateTime": 1693662248916, "trialdata": {"revealed_states": [], "clicked_states": [], "num_clicks_accrued": [0, 0, 0, 0, 0, 0, 0, 0, 0, 0, 0, 0, 0], "stateRewards": ["", 1, 2, 7, 13, 88, -71, 27, 3, 60, 5, -53, -2, 2, -6, -1, -30, 79, 47, -4, -14, 46, 68, 1, 1, 8, 10, -14, 86, 48, -11, -67, -44, 5], "withholdReward": false, "trial_id": "mdp_trial_35", "block": "test", "trialIndex": 38, "score": 6, "costs": 0, "simulationMode": [null, null, null, null, null], "rewards": [1, 1, 8, 10, -14], "path": ["0", "0", "23", "24", "25", "26", "27"], "rt": [11354, 44, 285, 862, 380], "actions": ["left", "left", "left", "up", "up"], "actionTimes": [15213, 15814, 16629, 18061, 18973], "queries": {"click": {"state": {"target": [], "time": []}, "edge": {"target": [], "time": []}}, "mouseover": {"state": {"target": ["0", "25", "29", "30"], "time": [6151, 7294, 8436, 9368]}, "edge": {"target": [], "time": []}}, "mouseout": {"state": {"target": ["22", "0", "0", "25", "29", "30"], "time": [1650, 4552, 7219, 8319, 9119, 9469]}, "edge": {"target": [], "time": []}}}, "displayed_time": "19.56", "trialTime": 23172, "trial_type": "mouselab-mdp", "trial_index": 49, "time_elapsed": 1832692, "internal_node_id": "0.0-6.0-1.0-34.0"}}, {"uniqueid": "w88457403:a29184560", "current_trial": 50, "dateTime": 1693662267021, "trialdata": {"revealed_states": [], "clicked_states": ["27"], "num_clicks_accrued": [0, 0, 0, 0, 0, 0, 0, 0, 0, 0, 0, 0, 0], "stateRewards": ["", -1, 2, -6, 6, 43, 78, 78, -2, 55, -29, -17, -2, -4, 1, -15, 13, 7, -79, 8, -28, -68, 36, -1, -3, 3, -16, 84, -18, 87, 10, 32, 13, -81], "withholdReward": false, "trial_id": "mdp_trial_36", "block": "test", "trialIndex": 39, "score": 65.6, "costs": -1.4, "simulationMode": [null, null, null, null, null], "rewards": [-1, -3, 3, -16, 84], "path": ["0", "0", "23", "24", "25", "26", "27"], "rt": [4267, 198, 282, 350, 388], "actions": ["left", "left", "left", "up", "up"], "actionTimes": [5817, 6601, 7521, 8433, 9393], "queries": {"click": {"state": {"target": ["27"], "time": [2597]}, "edge": {"target": [], "time": []}}, "mouseover": {"state": {"target": ["28", "27", "29"], "time": [2115, 2331, 3205]}, "edge": {"target": [], "time": []}}, "mouseout": {"state": {"target": ["0", "28", "27"], "time": [1997, 2180, 3066]}, "edge": {"target": [], "time": []}}}, "displayed_time": "15.55", "trialTime": 16857, "trial_type": "mouselab-mdp", "trial_index": 50, "time_elapsed": 1850796, "internal_node_id": "0.0-6.0-1.0-35.0"}}, {"uniqueid": "w88457403:a29184560", "current_trial": 51, "dateTime": 1693662289542, "trialdata": {"revealed_states": [], "clicked_states": ["33", "32", "31", "10"], "num_clicks_accrued": [0, 0, 0, 0, 0, 0, 0, 0, 0, 0, 0, 0, 0], "stateRewards": ["", 1, 3, 1, -13, 52, -28, 67, -14, 3, 63, -70, -1, -4, 7, -11, -10, 47, -18, 6, 69, -9, -61, 2, 3, -6, 10, 63, -34, 40, -6, -79, -35, -32], "withholdReward": false, "trial_id": "mdp_trial_37", "block": "test", "trialIndex": 40, "score": 48.4, "costs": -5.6, "simulationMode": [null, null, null, null, null], "rewards": [1, 3, 1, -14, 63], "path": ["0", "0", "1", "2", "3", "8", "10"], "rt": [12063, 91, 258, 540, 443], "actions": ["up", "up", "up", "left", "down"], "actionTimes": [14398, 15014, 15838, 17006, 18022], "queries": {"click": {"state": {"target": ["33", "32", "31", "10"], "time": [3891, 6130, 8642, 11234]}, "edge": {"target": [], "time": []}}, "mouseover": {"state": {"target": ["33", "33", "32", "31", "10", "11"], "time": [3232, 3500, 4486, 6495, 10464, 11872]}, "edge": {"target": [], "time": []}}, "mouseout": {"state": {"target": ["29", "25", "30", "31", "12", "0", "33", "33", "32", "31", "10", "11"], "time": [97, 380, 530, 847, 913, 2849, 3295, 4408, 6423, 9989, 11402, 21016]}, "edge": {"target": [], "time": []}}}, "displayed_time": "18.59", "trialTime": 21244, "trial_type": "mouselab-mdp", "trial_index": 51, "time_elapsed": 1873316, "internal_node_id": "0.0-6.0-1.0-36.0"}}, {"uniqueid": "w88457403:a29184560", "current_trial": 52, "dateTime": 1693662315679, "trialdata": {"revealed_states": [], "clicked_states": ["18", "16", "17", "20", "21", "22"], "num_clicks_accrued": [0, 0, 0, 0, 0, 0, 0, 0, 0, 0, 0, 0, 0], "stateRewards": ["", 2, -1, -1, 7, 11, -40, -22, -2, 69, 37, 8, -2, 4, -8, -12, -2, -72, -3, -12, 17, 63, 12, 1, 3, -7, 6, 25, 61, 61, -9, 28, -17, 27], "withholdReward": false, "trial_id": "mdp_trial_38", "block": "test", "trialIndex": 41, "score": 36.6, "costs": -8.4, "simulationMode": [null, null, null, null, null], "rewards": [-2, 4, -8, -12, 63], "path": ["0", "0", "12", "13", "14", "19", "21"], "rt": [15996, 157, 401, 320, 491], "actions": ["right", "right", "right", "down", "down"], "actionTimes": [17924, 18668, 19644, 20588, 21644], "queries": {"click": {"state": {"target": ["18", "16", "17", "20", "21", "22"], "time": [4328, 6479, 8600, 10736, 12968, 15282]}, "edge": {"target": [], "time": []}}, "mouseover": {"state": {"target": ["12", "13", "18", "16", "17", "20", "21", "22"], "time": [3123, 3323, 3539, 5150, 6866, 9524, 11262, 13589]}, "edge": {"target": [], "time": []}}, "mouseout": {"state": {"target": ["12", "0", "12", "13", "18", "16", "16", "17", "20", "21", "22"], "time": [905, 3057, 3224, 3423, 5073, 6648, 6782, 9194, 11167, 13380, 15494]}, "edge": {"target": [], "time": []}}}, "displayed_time": "22.21", "trialTime": 24940, "trial_type": "mouselab-mdp", "trial_index": 52, "time_elapsed": 1899454, "internal_node_id": "0.0-6.0-1.0-37.0"}}, {"uniqueid": "w88457403:a29184560", "current_trial": 53, "dateTime": 1693662341320, "trialdata": {"revealed_states": [], "clicked_states": ["20", "21", "22", "16", "18", "17"], "num_clicks_accrued": [0, 0, 0, 0, 0, 0, 0, 0, 0, 0, 0, 0, 0], "stateRewards": ["", 2, -4, 4, 9, 69, 9, -75, 12, -86, 66, 25, -1, 3, 2, -13, -88, -3, 1, 4, -69, 49, -84, 2, -1, 4, 2, -18, -81, -52, -15, -69, -54, 25], "withholdReward": false, "trial_id": "mdp_trial_39", "block": "test", "trialIndex": 42, "score": 48.6, "costs": -8.4, "simulationMode": [null, null, null, null, null], "rewards": [-1, 3, 2, 4, 49], "path": ["0", "0", "12", "13", "14", "19", "21"], "rt": [16080, 420, 412, 347, 428], "actions": ["right", "right", "right", "down", "down"], "actionTimes": [17909, 18853, 19837, 20749, 21757], "queries": {"click": {"state": {"target": ["20", "21", "22", "16", "18", "17"], "time": [3497, 5617, 8281, 11057, 13121, 15644]}, "edge": {"target": [], "time": []}}, "mouseover": {"state": {"target": ["22", "19", "20", "21", "22", "15", "16", "18", "15", "17", "17"], "time": [2677, 2814, 3158, 3926, 6053, 10591, 10726, 11641, 13478, 13563, 13972]}, "edge": {"target": [], "time": []}}, "mouseout": {"state": {"target": ["0", "0", "22", "19", "20", "21", "22", "15", "16", "18", "15", "17"], "time": [807, 2610, 2747, 2959, 3848, 5908, 10426, 10658, 11434, 13290, 13555, 13640]}, "edge": {"target": [], "time": []}}}, "displayed_time": "22.28", "trialTime": 24517, "trial_type": "mouselab-mdp", "trial_index": 53, "time_elapsed": 1925094, "internal_node_id": "0.0-6.0-1.0-38.0"}}, {"uniqueid": "w88457403:a29184560", "current_trial": 54, "dateTime": 1693662368183, "trialdata": {"revealed_states": [], "clicked_states": ["22", "21", "20", "17", "16", "18"], "num_clicks_accrued": [0, 0, 0, 0, 0, 0, 0, 0, 0, 0, 0, 0, 0], "stateRewards": ["", 1, 3, -2, 15, 51, 15, -19, 11, 67, -45, -73, 2, 4, -2, -13, 36, 9, -28, 10, -30, 31, 16, 1, 2, -1, -16, 14, -22, 36, -1, 88, -5, 45], "withholdReward": false, "trial_id": "mdp_trial_40", "block": "test", "trialIndex": 43, "score": 18.6, "costs": -8.4, "simulationMode": [null, null, null, null, null], "rewards": [2, 4, -2, -13, 36], "path": ["0", "0", "12", "13", "14", "15", "16"], "rt": [16317, 233, 268, 416, 409], "actions": ["right", "right", "right", "up", "up"], "actionTimes": [18586, 19386, 20290, 21282, 22266], "queries": {"click": {"state": {"target": ["22", "21", "20", "17", "16", "18"], "time": [3967, 6166, 8357, 10606, 13206, 15526]}, "edge": {"target": [], "time": []}}, "mouseover": {"state": {"target": ["22", "21", "22", "21", "20", "17", "16", "18"], "time": [2918, 3125, 3681, 4347, 6673, 10053, 10969, 13797]}, "edge": {"target": [], "time": []}}, "mouseout": {"state": {"target": ["17", "15", "31", "23", "0", "22", "21", "22", "21", "20", "17", "16", "16", "18"], "time": [807, 866, 942, 1241, 2844, 3010, 3610, 4030, 6447, 8590, 10960, 13269, 13519, 15750]}, "edge": {"target": [], "time": []}}}, "displayed_time": "22.84", "trialTime": 25666, "trial_type": "mouselab-mdp", "trial_index": 54, "time_elapsed": 1951958, "internal_node_id": "0.0-6.0-1.0-39.0"}}, {"uniqueid": "w88457403:a29184560", "current_trial": 55, "dateTime": 1693662432850, "trialdata": {"rt": 64654, "response": {"Q0": "$-16 to 16", "Q1": "$-32 to $32", "Q2": "$-88 to $88", "Q3": "The cost for clicking on nodes varied between nodes.", "Q4": "Very motivated"}, "question_order": [0, 1, 2, 3, 4], "trial_id": "final_quiz_control", "trial_type": "survey-multi-choice", "trial_index": 55, "time_elapsed": 2016625, "internal_node_id": "0.0-6.0-2.0"}}, {"uniqueid": "w88457403:a29184560", "current_trial": 56, "dateTime": 1693662504289, "trialdata": {"rt": 71411, "response": {"Q0": "I clicked the enighbouring ends and headed for the highest", "Q1": "Less clicking", "Q2": "Somewhat difficult"}, "trial_id": "self_report_control", "trial_type": "survey-text", "trial_index": 56, "time_elapsed": 2088064, "internal_node_id": "0.0-6.0-3.0"}}, {"uniqueid": "w88457403:a29184560", "current_trial": 57, "dateTime": 1693662529617, "trialdata": {"rt": 25313, "response": {"gender": "male", "age": "66", "colorblind": "0", "effort": "0"}, "trial_type": "survey-html-form", "trial_index": 57, "time_elapsed": 2113393, "internal_node_id": "0.0-6.0-4.0"}}, {"uniqueid": "w88457403:a29184560", "current_trial": 58, "dateTime": 1693662584104, "trialdata": {"rt": 54461, "response": {"Q0": "Initial explanations", "Q1": "No, that was the first time", "Q2": "None thanks"}, "trial_type": "survey-text", "trial_index": 58, "time_elapsed": 2167880, "internal_node_id": "0.0-6.0-5.0"}}, {"uniqueid": "w88457403:a29184560", "current_trial": 59, "dateTime": 1693662643682, "trialdata": {"rt": 59560, "stimulus": "<h1>Completion Code Instructions (1/2)</h1>\n<br><br><br><br>\nYou have reached the end of the experiment! The completion code consists of two parts: (1) a code with 2 characters (2) a code with 6 characters. On this page, you will receive the second part of the code. The first part of the completion code will be on the next page.\n<br><br>\nThe second part of your completion code is: <b>EWEK22</b>\n<br><br>\nPlease note this down. Then, press 'Next' in order to find the first part of your completion code. Once the data has been saved, you will receive this code either in this window or in the original browser window where you started the experiment.\n <br><br>\n<h2 style='color: red;'>Note: this is <strong>NOT</strong> the full completion code. Copy this down and click 'Next' to get the full completion code on the next page.</h2>", "response": 0, "trial_type": "html-button-response", "trial_index": 59, "time_elapsed": 2227457, "internal_node_id": "0.0-6.0-6.0"}}, {"uniqueid": "w88457403:a29184560", "current_trial": 60, "dateTime": 1693662644691, "trialdata": {"success": true, "trial_type": "fullscreen", "trial_index": 60, "time_elapsed": 2228467, "internal_node_id": "0.0-7.0"}}], "questiondata": {"params": {"CODE": "C6DMOQA6", "MIN_TIME": 14, "inspectCost": 1, "startTime": "Sat Sep 02 2023 14:13:35 GMT+0100 (British Summer Time)", "bonusRate": 0.002, "variance": "1_2_4_8_44", "branching": "31123"}, "final_score": 1770.2}, "eventdata": [{"eventtype": "initialized", "interval": 0, "timestamp": 1693660287607, "value": null}, {"eventtype": "window_resize", "interval": 1, "timestamp": 1693660287608, "value": [1024, 767]}, {"eventtype": "window_resize", "interval": 323, "timestamp": 1693660287931, "value": [1024, 767]}, {"eventtype": "window_resize", "value": [1024, 767], "timestamp": 1693660415580, "interval": 127649}, {"eventtype": "window_resize", "value": [1680, 1050], "timestamp": 1693660436496, "interval": 20916}, {"eventtype": "window_resize", "value": [1024, 767], "timestamp": 1693660579942, "interval": 143446}, {"eventtype": "focus", "value": "off", "timestamp": 1693660581262, "interval": 1320}, {"eventtype": "focus", "value": "on", "timestamp": 1693660591190, "interval": 9928}, {"eventtype": "window_resize", "value": [1680, 952], "timestamp": 1693660594955, "interval": 3765}, {"eventtype": "focus", "value": "off", "timestamp": 1693661180814, "interval": 585859}, {"eventtype": "focus", "value": "on", "timestamp": 1693661180815, "interval": 1}, {"eventtype": "window_resize", "value": [1680, 1050], "timestamp": 1693661185973, "interval": 5158}, {"eventtype": "window_resize", "value": [1680, 952], "timestamp": 1693662644058, "interval": 1458085}], "useragent": "Mozilla/5.0 (Windows NT 10.0; Win64; x64) AppleWebKit/537.36 (KHTML, like Gecko) Chrome/116.0.0.0 Safari/537.36", "mode": "live", "id": "w88457403:a29184560", "status": "user data saved", "Beginhit": "2023-09-02 13:11:26.882939", "Beginexp": "2023-09-02 13:13:57.870922", "Endhit": "2023-09-02 13:50:45.829846", "psiturkStatus": 3, "browser": "<redacted>", "platform": "windows", "language": "en-US"}