{"condition": 0, "counterbalance": 0, "assignmentId": "a66210437", "workerId": "w57145962", "hitId": "h17048084", "currenttrial": 55, "bonus": 0, "data": [{"uniqueid": "w57145962:a66210437", "current_trial": 0, "dateTime": 1691071062341, "trialdata": {"success": true, "trial_type": "fullscreen", "trial_index": 0, "time_elapsed": 116278, "internal_node_id": "0.0-0.0"}}, {"uniqueid": "w57145962:a66210437", "current_trial": 1, "dateTime": 1691071078260, "trialdata": {"view_history": [{"page_index": 0, "viewing_time": 15916}], "rt": 15917, "trial_id": "exp_instructions_control", "trial_type": "instructions", "trial_index": 1, "time_elapsed": 132197, "internal_node_id": "0.0-1.0"}}, {"uniqueid": "w57145962:a66210437", "current_trial": 2, "dateTime": 1691071082391, "trialdata": {"success": true, "trial_type": "fullscreen", "trial_index": 2, "time_elapsed": 136328, "internal_node_id": "0.0-2.0-0.0"}}, {"uniqueid": "w57145962:a66210437", "current_trial": 3, "dateTime": 1691071280703, "trialdata": {"view_history": [{"page_index": 0, "viewing_time": 59555}, {"page_index": 1, "viewing_time": 78033}, {"page_index": 2, "viewing_time": 24613}, {"page_index": 3, "viewing_time": 36110}], "rt": 198311, "trial_id": "mouselab_instructions_1_control", "trial_type": "instructions", "trial_index": 3, "time_elapsed": 334640, "internal_node_id": "0.0-2.0-1.0"}}, {"uniqueid": "w57145962:a66210437", "current_trial": 4, "dateTime": 1691071327355, "trialdata": {"revealed_states": [], "clicked_states": ["23", "24", "25", "30", "32", "31", "26", "28", "1", "2", "3", "4", "8", "12", "13", "14", "15", "19", "16", "17", "18"], "num_clicks_accrued": [0, 0, 0, 0, 0, 0, 0, 0, 0, 0, 0, 0, 0], "stateRewards": ["", 10, 10, -10, -10, -10, 10, 10, 10, -10, 10, 10, 10, -10, 10, 10, -10, 10, 10, -10, -10, -10, -10, 10, 10, 10, -10, -10, 10, 10, -10, 10, 10, 10], "withholdReward": false, "trial_id": "practice_1", "block": "test", "trialIndex": 0, "score": 23, "costs": -10.5, "simulationMode": [null, null, null, null, null], "rewards": [10, -10, 10, 10, 10], "path": ["0", "0", "12", "13", "14", "15", "17"], "rt": [37063, 260, 154, 110, 60], "actions": ["right", "right", "right", "up", "right"], "actionTimes": [40372, 41129, 41773, 42380, 42930], "queries": {"click": {"state": {"target": ["23", "24", "25", "30", "32", "31", "26", "28", "1", "2", "3", "4", "8", "12", "13", "14", "15", "19", "16", "17", "18"], "time": [5893, 8474, 10163, 11708, 12935, 14246, 15642, 17070, 19941, 21508, 22858, 24403, 26067, 28220, 29421, 30739, 32007, 33304, 35775, 37263, 38681]}, "edge": {"target": [], "time": []}}, "mouseover": {"state": {"target": ["23", "24", "25", "30", "32", "31", "26", "28", "28", "27", "10", "2", "3", "8", "2", "2", "1", "2", "2", "3", "4", "6", "4", "6", "16", "7", "8", "15", "14", "13", "12", "13", "14", "15", "19", "20", "20", "16", "17", "18", "15"], "time": [3921, 6673, 9909, 11560, 12245, 13295, 15464, 16048, 16514, 17415, 18316, 18366, 18649, 19200, 19534, 19700, 19834, 20201, 21418, 21819, 23137, 23204, 24121, 24821, 24905, 25238, 25722, 27507, 27624, 27907, 28124, 28541, 30292, 31277, 32511, 33713, 35396, 35647, 36214, 37749, 39117]}, "edge": {"target": [], "time": []}}, "mouseout": {"state": {"target": ["0", "23", "23", "24", "25", "30", "32", "31", "26", "28", "28", "27", "10", "2", "3", "8", "2", "2", "1", "2", "2", "3", "4", "6", "4", "6", "16", "7", "8", "3", "15", "14", "13", "12", "13", "14", "15", "15", "14", "19", "20", "20", "15", "16", "17", "17", "18", "15"], "time": [2086, 2586, 6656, 9609, 11110, 12127, 13195, 14580, 16031, 16064, 17365, 18266, 18349, 18383, 19166, 19484, 19584, 19801, 20134, 20935, 21719, 23103, 23170, 23887, 24805, 24838, 25172, 25288, 26473, 26506, 27557, 27690, 28074, 28508, 30109, 31060, 32103, 32344, 32461, 33695, 33729, 35497, 35580, 36147, 37372, 37548, 39100, 39133]}, "edge": {"target": [], "time": []}}}, "displayed_time": "43.44", "trialTime": 46167, "trial_type": "mouselab-mdp", "trial_index": 4, "time_elapsed": 381292, "internal_node_id": "0.0-2.0-2.0-0.0"}}, {"uniqueid": "w57145962:a66210437", "current_trial": 5, "dateTime": 1691071336661, "trialdata": {"revealed_states": [], "clicked_states": [], "num_clicks_accrued": [0, 0, 0, 0, 0, 0, 0, 0, 0, 0, 0, 0, 0], "stateRewards": ["", -10, -10, 10, 10, 10, 10, 10, 10, 10, 10, 10, 10, 10, -10, 10, 10, -10, 10, 10, -10, -10, -10, -10, 10, 10, 10, 10, -10, -10, 10, 10, -10, -10], "withholdReward": false, "trial_id": "practice_2", "block": "test", "trialIndex": 1, "score": 13.5, "costs": 0, "simulationMode": [null, null, null, null, null], "rewards": [-10, -10, 10, 10, 10], "path": ["0", "0", "1", "2", "3", "8", "9"], "rt": [870, 297, 103, 612, 168], "actions": ["up", "up", "up", "left", "up"], "actionTimes": [3176, 3964, 4570, 5681, 6338], "queries": {"click": {"state": {"target": [], "time": []}, "edge": {"target": [], "time": []}}, "mouseover": {"state": {"target": [], "time": []}, "edge": {"target": [], "time": []}}, "mouseout": {"state": {"target": ["14", "13", "12", "0"], "time": [1564, 1731, 1864, 8036]}, "edge": {"target": [], "time": []}}}, "displayed_time": "6.84", "trialTime": 9147, "trial_type": "mouselab-mdp", "trial_index": 5, "time_elapsed": 390598, "internal_node_id": "0.0-2.0-2.0-1.0"}}, {"uniqueid": "w57145962:a66210437", "current_trial": 6, "dateTime": 1691071362065, "trialdata": {"view_history": [{"page_index": 0, "viewing_time": 18088}, {"page_index": 1, "viewing_time": 7315}], "rt": 25403, "trial_id": "mouselab_instructions_2_control", "trial_type": "instructions", "trial_index": 6, "time_elapsed": 416002, "internal_node_id": "0.0-2.0-3.0"}}, {"uniqueid": "w57145962:a66210437", "current_trial": 7, "dateTime": 1691071402347, "trialdata": {"rt": 40278, "response": {"Q0": "The cost for clicking on nodes may vary between nodes.", "Q1": "The better I perform the higher my bonus will be.", "Q2": "No, the amount of cash at each node of the web may be different each time.", "Q3": "To get the highest total score.", "Q4": "Only before moving the spider.", "Q5": "3 seconds"}, "question_order": [0, 1, 2, 3, 4, 5], "correct": {"Q0": "The cost for clicking on nodes may vary between nodes.", "Q1": "The better I perform the higher my bonus will be.", "Q2": "No, the amount of cash at each node of the web may be different each time.", "Q3": "To get the highest total score.", "Q4": "Only before moving the spider.", "Q5": "3 seconds"}, "trial_id": "mouselab_quiz_control", "trial_type": "survey-multi-choice", "trial_index": 7, "time_elapsed": 456284, "internal_node_id": "0.0-2.0-4.0"}}, {"uniqueid": "w57145962:a66210437", "current_trial": 8, "dateTime": 1691071411118, "trialdata": {"rt": 8767, "stimulus": "\n<h1> Get ready to start the game! </h1>\n\nThank you for reading the instructions. Get ready start with the 40 rounds of this game.\n<br><br>\nIf you need to take a break, feel free to take one after the end of a round, before continuing to the next one.\n<br><br>\nRemember, the more money the spider gets, the bigger your bonus will be!\n<br><br>\n<div style='text-align: center;'>Press <code>space</code> to begin.</div>\n\n<br><br>\n(If, at any point, the <code>space</code> key does not take you to the next page, click once on the text and try again.)", "response": " ", "trial_id": "mdp_ready", "trial_type": "html-keyboard-response", "trial_index": 8, "time_elapsed": 465055, "internal_node_id": "0.0-4.0-0.0"}}, {"uniqueid": "w57145962:a66210437", "current_trial": 9, "dateTime": 1691071435323, "trialdata": {"revealed_states": [], "clicked_states": ["1", "2"], "num_clicks_accrued": [0, 0, 0, 0, 0, 0, 0, 0, 0, 0, 0, 0, 0], "stateRewards": ["", 1, -2, 4, 7, -43, -83, -60, -5, -86, -80, 83, -1, -2, 6, 11, -15, 21, 13, 9, 29, -49, 11, -1, 4, -6, -11, 87, 40, 63, -8, -39, -11, 62], "withholdReward": false, "trial_id": "mdp_trial_1", "block": "test", "trialIndex": 2, "score": 38.2, "costs": -2.8, "simulationMode": [null, null, null, null, null], "rewards": [-1, -2, 6, 9, 29], "path": ["0", "0", "12", "13", "14", "19", "20"], "rt": [7451, 1266, 348, 47, 70], "actions": ["right", "right", "right", "down", "right"], "actionTimes": [10177, 11940, 12790, 13340, 13913], "queries": {"click": {"state": {"target": ["1", "2"], "time": [3410, 6124]}, "edge": {"target": [], "time": []}}, "mouseover": {"state": {"target": ["1", "2", "4", "7", "13", "12"], "time": [3050, 5569, 6870, 8555, 8788, 9822]}, "edge": {"target": [], "time": []}}, "mouseout": {"state": {"target": ["0", "0", "1", "2", "4", "7", "13", "12"], "time": [715, 2934, 5385, 6370, 8471, 8638, 9772, 10857]}, "edge": {"target": [], "time": []}}}, "displayed_time": "16.73", "trialTime": 24025, "trial_type": "mouselab-mdp", "trial_index": 9, "time_elapsed": 489259, "internal_node_id": "0.0-4.0-1.0-0.0"}}, {"uniqueid": "w57145962:a66210437", "current_trial": 10, "dateTime": 1691071464171, "trialdata": {"revealed_states": [], "clicked_states": ["1", "12", "23", "24", "25", "26", "30", "14", "15"], "num_clicks_accrued": [0, 0, 0, 0, 0, 0, 0, 0, 0, 0, 0, 0, 0], "stateRewards": ["", -1, 3, 1, -11, -22, -36, 19, -5, -70, -52, 50, -2, -4, 4, -2, -41, -83, 29, -2, 22, 10, -6, -2, 3, -2, 14, 54, 44, 77, -9, -65, -37, -40], "withholdReward": false, "trial_id": "mdp_trial_2", "block": "test", "trialIndex": 3, "score": 77.4, "costs": -12.600000000000001, "simulationMode": [null, null, null, null, null], "rewards": [-2, 3, -2, 14, 77], "path": ["0", "0", "23", "24", "25", "26", "29"], "rt": [18733, 73, 12, 15, 5], "actions": ["left", "left", "left", "up", "left"], "actionTimes": [20361, 20927, 21449, 21969, 22477], "queries": {"click": {"state": {"target": ["1", "12", "23", "24", "25", "26", "30", "14", "15"], "time": [2442, 4344, 6323, 8156, 9930, 11725, 13710, 16337, 18296]}, "edge": {"target": [], "time": []}}, "mouseover": {"state": {"target": ["1", "12", "23", "24", "24", "25", "28", "26", "31", "30", "31", "13", "14", "17", "15", "15", "17"], "time": [1903, 3922, 5556, 6641, 6891, 9009, 10577, 10878, 12295, 12396, 13980, 16015, 16215, 16766, 16999, 17283, 18617]}, "edge": {"target": [], "time": []}}, "mouseout": {"state": {"target": ["12", "1", "1", "12", "23", "24", "24", "25", "24", "28", "26", "24", "31", "30", "31", "13", "14", "17", "15", "15", "17", "22"], "time": [1253, 2540, 3471, 4639, 6624, 6691, 8460, 10327, 10377, 10829, 12029, 12112, 12312, 13963, 13997, 16149, 16699, 16966, 17033, 18601, 18635, 24272]}, "edge": {"target": [], "time": []}}}, "displayed_time": "22.99", "trialTime": 28674, "trial_type": "mouselab-mdp", "trial_index": 10, "time_elapsed": 518108, "internal_node_id": "0.0-4.0-1.0-1.0"}}, {"uniqueid": "w57145962:a66210437", "current_trial": 11, "dateTime": 1691071482384, "trialdata": {"revealed_states": [], "clicked_states": ["4", "8", "26", "30", "19", "15"], "num_clicks_accrued": [0, 0, 0, 0, 0, 0, 0, 0, 0, 0, 0, 0, 0], "stateRewards": ["", -2, -3, 1, -14, 48, -49, 67, -1, -35, -48, 3, -2, 1, -4, -5, 86, -84, 39, 1, 48, 41, -42, -1, -4, 2, -7, 18, -86, 17, 7, -9, 57, -69], "withholdReward": false, "trial_id": "mdp_trial_3", "block": "test", "trialIndex": 4, "score": -13.4, "costs": -8.4, "simulationMode": [null, null, null, null, null], "rewards": [-1, -4, 2, 7, -9], "path": ["0", "0", "23", "24", "25", "30", "31"], "rt": [12212, 30, 8, 1, 96], "actions": ["left", "left", "left", "down", "right"], "actionTimes": [13805, 14327, 14822, 15331, 15944], "queries": {"click": {"state": {"target": ["4", "8", "26", "30", "19", "15"], "time": [2398, 3939, 5702, 7461, 9305, 11211]}, "edge": {"target": [], "time": []}}, "mouseover": {"state": {"target": ["1", "7", "4", "3", "8", "28", "25", "26", "25", "30", "31", "22", "14", "19", "14", "15", "17", "14", "13", "12", "0", "23"], "time": [1735, 1852, 2102, 3153, 3220, 4437, 5054, 5121, 6005, 6439, 7757, 7857, 8107, 8474, 9808, 9909, 11493, 13194, 13228, 13278, 13328, 13378]}, "edge": {"target": [], "time": []}}, "mouseout": {"state": {"target": ["0", "0", "1", "7", "4", "3", "8", "28", "25", "26", "25", "30", "31", "22", "14", "19", "14", "15", "17", "14", "13", "12", "0", "23"], "time": [367, 1685, 1752, 1935, 3120, 3203, 4354, 4471, 5071, 5989, 6039, 7723, 7773, 7957, 8390, 9759, 9858, 11460, 11510, 13211, 13244, 13311, 13361, 13445]}, "edge": {"target": [], "time": []}}}, "displayed_time": "16.43", "trialTime": 18045, "trial_type": "mouselab-mdp", "trial_index": 11, "time_elapsed": 536321, "internal_node_id": "0.0-4.0-1.0-2.0"}}, {"uniqueid": "w57145962:a66210437", "current_trial": 12, "dateTime": 1691071505012, "trialdata": {"revealed_states": [], "clicked_states": ["23", "25", "14", "3", "15", "19"], "num_clicks_accrued": [0, 0, 0, 0, 0, 0, 0, 0, 0, 0, 0, 0, 0], "stateRewards": ["", -2, -2, -3, -6, -15, -11, 41, -12, -63, -76, 2, -2, -3, 8, 9, -36, -2, -18, -16, -32, -85, -17, -2, 1, 5, -16, 82, 35, -88, -1, 80, -82, -20], "withholdReward": false, "trial_id": "mdp_trial_4", "block": "test", "trialIndex": 5, "score": -32.4, "costs": -8.4, "simulationMode": [null, null, null, null, null], "rewards": [-2, -3, 8, 9, -36], "path": ["0", "0", "12", "13", "14", "15", "16"], "rt": [14369, 440, 152, 122, 379], "actions": ["right", "right", "right", "up", "up"], "actionTimes": [16363, 17293, 17938, 18559, 19433], "queries": {"click": {"state": {"target": ["23", "25", "14", "3", "15", "19"], "time": [3734, 5507, 7324, 9568, 12059, 14089]}, "edge": {"target": [], "time": []}}, "mouseover": {"state": {"target": ["23", "24", "25", "24", "13", "14", "15", "3", "7", "15", "14", "19"], "time": [3158, 4124, 4675, 5777, 6160, 6343, 7761, 9429, 11581, 11964, 12381, 12798]}, "edge": {"target": [], "time": []}}, "mouseout": {"state": {"target": ["23", "23", "24", "25", "24", "13", "14", "15", "3", "7", "15", "14", "19", "15", "16", "16"], "time": [1238, 4074, 4625, 5776, 5793, 6276, 7694, 7795, 11564, 11614, 12348, 12415, 14466, 21372, 21639, 22106]}, "edge": {"target": [], "time": []}}}, "displayed_time": "19.92", "trialTime": 22462, "trial_type": "mouselab-mdp", "trial_index": 12, "time_elapsed": 558948, "internal_node_id": "0.0-4.0-1.0-3.0"}}, {"uniqueid": "w57145962:a66210437", "current_trial": 13, "dateTime": 1691071534631, "trialdata": {"revealed_states": [], "clicked_states": ["12", "13", "14", "25", "3", "2", "1", "4", "8", "11"], "num_clicks_accrued": [0, 0, 0, 0, 0, 0, 0, 0, 0, 0, 0, 0, 0], "stateRewards": ["", 1, 3, 3, -10, 52, 68, 59, 12, 7, 49, 21, -2, -3, -4, -2, -2, 63, 63, -4, 44, 43, -76, -2, -3, -6, 13, 48, 36, 12, -5, -36, -33, -11], "withholdReward": false, "trial_id": "mdp_trial_5", "block": "test", "trialIndex": 6, "score": 26, "costs": -14.000000000000002, "simulationMode": [null, null, null, null, null], "rewards": [1, 3, 3, 12, 21], "path": ["0", "0", "1", "2", "3", "8", "11"], "rt": [21508, 66, 437, 428, 132], "actions": ["up", "up", "up", "left", "left"], "actionTimes": [24844, 25406, 26344, 27269, 27891], "queries": {"click": {"state": {"target": ["12", "13", "14", "25", "3", "2", "1", "4", "8", "11"], "time": [4059, 5593, 7461, 10085, 11936, 14483, 16601, 18361, 20599, 22708]}, "edge": {"target": [], "time": []}}, "mouseover": {"state": {"target": ["0", "12", "13", "14", "15", "18", "23", "24", "25", "2", "3", "2", "4", "2", "1", "4", "7", "8", "8", "11", "10"], "time": [3520, 3620, 4438, 6006, 7807, 9125, 9342, 9458, 9976, 10826, 10977, 13779, 14129, 14363, 14880, 16932, 19183, 20318, 20518, 22586, 24021]}, "edge": {"target": [], "time": []}}, "mouseout": {"state": {"target": ["15", "13", "12", "0", "0", "12", "13", "14", "15", "18", "23", "24", "25", "2", "3", "2", "4", "2", "1", "4", "7", "8", "8", "11", "10", "23"], "time": [334, 1252, 3003, 3186, 3570, 4355, 5972, 7724, 9108, 9142, 9358, 9809, 10409, 10893, 13729, 14079, 14313, 14830, 16798, 18783, 20267, 20339, 22384, 23070, 28925, 28992]}, "edge": {"target": [], "time": []}}}, "displayed_time": "28.39", "trialTime": 29459, "trial_type": "mouselab-mdp", "trial_index": 13, "time_elapsed": 588567, "internal_node_id": "0.0-4.0-1.0-4.0"}}, {"uniqueid": "w57145962:a66210437", "current_trial": 14, "dateTime": 1691071565171, "trialdata": {"revealed_states": [], "clicked_states": ["1", "12", "3", "14", "25", "24", "26", "23", "30", "32", "31", "33"], "num_clicks_accrued": [0, 0, 0, 0, 0, 0, 0, 0, 0, 0, 0, 0, 0], "stateRewards": ["", -1, 2, -2, 13, -56, -28, 10, 14, 53, -80, -29, 1, -3, -3, -14, 14, 9, -40, -9, 18, 18, 48, 1, 1, 1, -9, 64, -39, -9, 7, -52, -78, 7], "withholdReward": false, "trial_id": "mdp_trial_6", "block": "test", "trialIndex": 7, "score": 0.1999999999999993, "costs": -16.8, "simulationMode": [null, null, null, null, null], "rewards": [1, 1, 1, 7, 7], "path": ["0", "0", "23", "24", "25", "30", "33"], "rt": [23926, 244, 37, 113, 331], "actions": ["left", "left", "left", "down", "left"], "actionTimes": [26127, 26868, 27395, 28004, 28823], "queries": {"click": {"state": {"target": ["1", "12", "3", "14", "25", "24", "26", "23", "30", "32", "31", "33"], "time": [2768, 4616, 6385, 8184, 10993, 13106, 14903, 16686, 18507, 20465, 22231, 24055]}, "edge": {"target": [], "time": []}}, "mouseover": {"state": {"target": ["1", "2", "3", "2", "12", "12", "0", "3", "18", "13", "14", "15", "23", "24", "25", "24", "26", "23", "30", "32", "31", "33", "30"], "time": [2603, 3137, 3437, 4187, 4274, 4521, 4938, 5672, 6973, 7107, 7424, 9709, 10292, 10493, 10743, 13028, 13562, 15747, 17148, 20401, 21318, 22803, 24454]}, "edge": {"target": [], "time": []}}, "mouseout": {"state": {"target": ["0", "1", "2", "3", "2", "12", "12", "0", "1", "3", "18", "13", "14", "15", "23", "24", "25", "24", "26", "24", "23", "30", "32", "31", "30", "33", "30", "31"], "time": [2486, 3053, 3287, 4154, 4204, 4304, 4907, 4955, 5222, 6823, 6990, 7140, 9659, 10176, 10459, 10560, 13011, 13478, 15197, 15313, 17031, 20351, 20801, 22553, 22636, 24438, 24471, 24537]}, "edge": {"target": [], "time": []}}}, "displayed_time": "29.33", "trialTime": 30374, "trial_type": "mouselab-mdp", "trial_index": 14, "time_elapsed": 619108, "internal_node_id": "0.0-4.0-1.0-5.0"}}, {"uniqueid": "w57145962:a66210437", "current_trial": 15, "dateTime": 1691071602548, "trialdata": {"revealed_states": [], "clicked_states": ["14", "3", "25", "8", "4", "15", "19", "30", "26", "24", "23", "6", "7"], "num_clicks_accrued": [0, 0, 0, 0, 0, 0, 0, 0, 0, 0, 0, 0, 0], "stateRewards": ["", -1, -1, 4, -16, -75, 81, -51, -7, -84, 73, -30, -2, 1, -3, -16, -77, 33, 14, 1, 45, 87, -66, 2, 2, -5, -7, -19, -17, 79, -3, 8, 49, 47], "withholdReward": false, "trial_id": "mdp_trial_7", "block": "test", "trialIndex": 8, "score": 48.8, "costs": -18.2, "simulationMode": [null, null, null, null, null, null], "rewards": [-1, -1, 4, -16, 81], "path": ["0", "0", "1", "2", "3", "4", "6"], "rt": [26653, 514, 91, 59, 391, 189], "actions": ["up", "up", "up", "up", "right", "right"], "actionTimes": [30573, 31089, 31673, 32224, 33124, 33806], "queries": {"click": {"state": {"target": ["14", "3", "25", "8", "4", "15", "19", "30", "26", "24", "23", "6", "7"], "time": [5066, 7585, 9564, 11439, 13245, 15835, 17627, 19471, 21154, 22865, 24858, 27570, 29330]}, "edge": {"target": [], "time": []}}, "mouseover": {"state": {"target": ["12", "13", "14", "3", "10", "28", "26", "25", "28", "10", "2", "10", "8", "4", "2", "18", "15", "15", "14", "19", "22", "24", "30", "25", "26", "24", "23", "1", "7", "4", "7", "6", "7"], "time": [4075, 4125, 4175, 7477, 8078, 8145, 8197, 8378, 10363, 10630, 10747, 11214, 11347, 12315, 14817, 15567, 15601, 15734, 16268, 16568, 18186, 18336, 18720, 19857, 19954, 22606, 23190, 25276, 26443, 26660, 27344, 27495, 28028]}, "edge": {"target": [], "time": []}}, "mouseout": {"state": {"target": ["12", "13", "13", "12", "0", "12", "13", "14", "3", "10", "28", "26", "25", "28", "10", "2", "10", "8", "8", "4", "2", "18", "15", "15", "15", "14", "19", "22", "24", "30", "25", "26", "26", "24", "23", "1", "7", "4", "7", "6", "7"], "time": [1155, 3007, 3557, 3607, 4041, 4108, 4158, 7160, 8045, 8111, 8161, 8211, 10330, 10396, 10697, 11147, 11230, 11766, 11798, 14617, 15517, 15584, 15617, 15943, 16201, 16335, 18170, 18203, 18370, 19771, 19871, 21321, 22557, 23140, 25175, 25325, 26560, 27294, 27427, 27961, 29996]}, "edge": {"target": [], "time": []}}}, "displayed_time": "34.30", "trialTime": 37213, "trial_type": "mouselab-mdp", "trial_index": 15, "time_elapsed": 656485, "internal_node_id": "0.0-4.0-1.0-6.0"}}, {"uniqueid": "w57145962:a66210437", "current_trial": 16, "dateTime": 1691071621644, "trialdata": {"revealed_states": [], "clicked_states": ["15", "16", "17", "18"], "num_clicks_accrued": [0, 0, 0, 0, 0, 0, 0, 0, 0, 0, 0, 0, 0], "stateRewards": ["", 1, -2, -8, -3, 31, -84, -55, -14, 15, -58, 17, -2, -3, 7, 7, -12, 48, 67, 4, -44, -68, 46, 2, 3, -5, -7, 76, 27, 5, 11, 57, 52, 59], "withholdReward": false, "trial_id": "mdp_trial_8", "block": "test", "trialIndex": 9, "score": 70.4, "costs": -5.6, "simulationMode": [null, null, null, null, null], "rewards": [-2, -3, 7, 7, 67], "path": ["0", "0", "12", "13", "14", "15", "18"], "rt": [8207, 11, 72, 435, 89], "actions": ["right", "right", "right", "up", "left"], "actionTimes": [11962, 12473, 13052, 13981, 14569], "queries": {"click": {"state": {"target": ["15", "16", "17", "18"], "time": [4422, 6225, 8034, 9840]}, "edge": {"target": [], "time": []}}, "mouseover": {"state": {"target": ["18", "16", "15", "16", "17", "18", "18"], "time": [3970, 4070, 4287, 5021, 6656, 8391, 9325]}, "edge": {"target": [], "time": []}}, "mouseout": {"state": {"target": ["1", "18", "16", "15", "16", "17", "15", "18", "18"], "time": [3336, 4004, 4254, 4921, 6590, 8324, 8374, 8408, 10242]}, "edge": {"target": [], "time": []}}}, "displayed_time": "17.76", "trialTime": 18924, "trial_type": "mouselab-mdp", "trial_index": 16, "time_elapsed": 675581, "internal_node_id": "0.0-4.0-1.0-7.0"}}, {"uniqueid": "w57145962:a66210437", "current_trial": 17, "dateTime": 1691071663544, "trialdata": {"revealed_states": [], "clicked_states": ["30", "26", "8", "4", "15", "19", "17", "21", "20", "22", "16", "18"], "num_clicks_accrued": [0, 0, 0, 0, 0, 0, 0, 0, 0, 0, 0, 0, 0], "stateRewards": ["", -2, -4, 4, -11, -63, -60, -7, 2, -14, 81, -43, -1, -1, -5, 7, 10, 69, 40, 8, -83, 52, 60, 1, 2, 5, -5, 16, 64, 14, -3, 29, 7, -51], "withholdReward": false, "trial_id": "mdp_trial_9", "block": "test", "trialIndex": 10, "score": 44.2, "costs": -16.8, "simulationMode": [null, null, null, null, null], "rewards": [-1, -1, -5, 8, 60], "path": ["0", "0", "12", "13", "14", "19", "22"], "rt": [23344, 310, 167, 110, 100], "actions": ["right", "right", "right", "down", "left"], "actionTimes": [26245, 27058, 27715, 28326, 28916], "queries": {"click": {"state": {"target": ["30", "26", "8", "4", "15", "19", "17", "21", "20", "22", "16", "18"], "time": [3629, 5747, 7621, 9457, 11372, 13145, 14912, 16656, 18328, 20081, 21987, 24201]}, "edge": {"target": [], "time": []}}, "mouseover": {"state": {"target": ["23", "24", "30", "31", "26", "28", "10", "8", "3", "4", "7", "18", "14", "15", "14", "19", "19", "17", "20", "21", "20", "19", "22", "15", "16", "15", "14", "18", "14"], "time": [3061, 3143, 3377, 5362, 5612, 6329, 6379, 6646, 7897, 7982, 9816, 9882, 9999, 10466, 11684, 11767, 12534, 14036, 15587, 16188, 17105, 18873, 18906, 20508, 21792, 22776, 22860, 24077, 24628]}, "edge": {"target": [], "time": []}}, "mouseout": {"state": {"target": ["13", "12", "23", "23", "0", "23", "24", "30", "31", "26", "28", "10", "8", "3", "4", "7", "18", "14", "15", "14", "19", "19", "17", "20", "21", "20", "19", "22", "15", "16", "16", "15", "14", "18", "14", "19"], "time": [2126, 2175, 2292, 2643, 3027, 3110, 3194, 5329, 5379, 6313, 6363, 6413, 7881, 7947, 9799, 9832, 9899, 10416, 11667, 11734, 12351, 13936, 15470, 16104, 16988, 18840, 18890, 20189, 21709, 22096, 22726, 22810, 24027, 24595, 24661, 30432]}, "edge": {"target": [], "time": []}}}, "displayed_time": "29.42", "trialTime": 41732, "trial_type": "mouselab-mdp", "trial_index": 17, "time_elapsed": 717481, "internal_node_id": "0.0-4.0-1.0-8.0"}}, {"uniqueid": "w57145962:a66210437", "current_trial": 18, "dateTime": 1691071689254, "trialdata": {"revealed_states": [], "clicked_states": ["15", "16", "17", "18", "20", "21", "22", "32", "33", "31"], "num_clicks_accrued": [0, 0, 0, 0, 0, 0, 0, 0, 0, 0, 0, 0, 0], "stateRewards": ["", -2, 2, -1, -6, 22, 6, 6, -5, 70, -42, 65, 1, 3, 5, -6, -67, -9, 3, 14, 7, -62, -13, -2, 4, 1, 16, 42, -21, -52, -8, 32, 53, 81], "withholdReward": false, "trial_id": "mdp_trial_10", "block": "test", "trialIndex": 11, "score": 62, "costs": -14.000000000000002, "simulationMode": [null, null, null, null, null], "rewards": [-2, 4, 1, -8, 81], "path": ["0", "0", "23", "24", "25", "30", "33"], "rt": [19948, 51, 6, 24, 37], "actions": ["left", "left", "left", "down", "left"], "actionTimes": [21447, 21988, 22510, 23045, 23576], "queries": {"click": {"state": {"target": ["15", "16", "17", "18", "20", "21", "22", "32", "33", "31"], "time": [2396, 4195, 6020, 7785, 9540, 11410, 13266, 15172, 17814, 19574]}, "edge": {"target": [], "time": []}}, "mouseover": {"state": {"target": ["12", "13", "14", "15", "14", "19", "14", "14", "16", "17", "20", "14", "18", "13", "20", "21", "22", "32", "30", "33", "30", "31"], "time": [1869, 1919, 1986, 2303, 2870, 2937, 3104, 3271, 3621, 4538, 6390, 6674, 6757, 8125, 8642, 10126, 12728, 14163, 16415, 17583, 18099, 18166]}, "edge": {"target": [], "time": []}}, "mouseout": {"state": {"target": ["0", "12", "13", "14", "15", "14", "19", "14", "14", "15", "16", "17", "20", "14", "18", "13", "20", "21", "22", "32", "30", "33", "30", "31"], "time": [1853, 1903, 1953, 2219, 2837, 2920, 3087, 3137, 3537, 3587, 4505, 6307, 6640, 6707, 8108, 8141, 9809, 11844, 13879, 15514, 17315, 18066, 18133, 19698]}, "edge": {"target": [], "time": []}}}, "displayed_time": "24.09", "trialTime": 25518, "trial_type": "mouselab-mdp", "trial_index": 18, "time_elapsed": 743191, "internal_node_id": "0.0-4.0-1.0-9.0"}}, {"uniqueid": "w57145962:a66210437", "current_trial": 19, "dateTime": 1691071705897, "trialdata": {"revealed_states": [], "clicked_states": ["30", "27", "33", "32", "31"], "num_clicks_accrued": [0, 0, 0, 0, 0, 0, 0, 0, 0, 0, 0, 0, 0], "stateRewards": ["", -1, 2, -6, 6, -82, -19, -39, -16, -83, 11, -33, -2, -2, 4, -6, -82, -1, -19, -6, -10, -67, -41, -2, 1, -7, 16, -23, -78, -52, 14, 31, -71, 74], "withholdReward": false, "trial_id": "mdp_trial_11", "block": "test", "trialIndex": 12, "score": 73, "costs": -7, "simulationMode": [null, null, null, null, null], "rewards": [-2, 1, -7, 14, 74], "path": ["0", "0", "23", "24", "25", "30", "33"], "rt": [10135, 13, 10, 479, 109], "actions": ["left", "left", "left", "down", "left"], "actionTimes": [11572, 12076, 12606, 13592, 14190], "queries": {"click": {"state": {"target": ["30", "27", "33", "32", "31"], "time": [2218, 4186, 6213, 7811, 9681]}, "edge": {"target": [], "time": []}}, "mouseover": {"state": {"target": ["23", "24", "30", "25", "26", "27", "26", "27", "26", "33", "32", "32", "31"], "time": [1686, 1736, 2053, 2603, 2653, 2753, 3020, 3387, 4572, 6123, 6556, 7057, 8291]}, "edge": {"target": [], "time": []}}, "mouseout": {"state": {"target": ["23", "24", "30", "25", "26", "27", "26", "27", "26", "33", "33", "32", "32", "31", "31"], "time": [1719, 1752, 2570, 2636, 2703, 2953, 3304, 4521, 6023, 6335, 6523, 6588, 8174, 10526, 15931]}, "edge": {"target": [], "time": []}}}, "displayed_time": "15.44", "trialTime": 16473, "trial_type": "mouselab-mdp", "trial_index": 19, "time_elapsed": 759834, "internal_node_id": "0.0-4.0-1.0-10.0"}}, {"uniqueid": "w57145962:a66210437", "current_trial": 20, "dateTime": 1691071731076, "trialdata": {"revealed_states": [], "clicked_states": ["23", "33", "30", "26", "8", "4", "9", "11", "10"], "num_clicks_accrued": [0, 0, 0, 0, 0, 0, 0, 0, 0, 0, 0, 0, 0], "stateRewards": ["", -1, -2, 4, 9, 10, -75, 39, 16, -43, 88, -19, -1, 1, 2, 4, -31, 10, 73, 12, 41, -64, -81, -2, 2, -6, 1, -81, -1, -26, 3, -59, -3, -20], "withholdReward": false, "trial_id": "mdp_trial_12", "block": "test", "trialIndex": 13, "score": 92.4, "costs": -12.600000000000001, "simulationMode": [null, null, null, null, null], "rewards": [-1, -2, 4, 16, 88], "path": ["0", "0", "1", "2", "3", "8", "10"], "rt": [18090, 463, 82, 464, 107], "actions": ["up", "up", "up", "left", "down"], "actionTimes": [20081, 21052, 21625, 22587, 23181], "queries": {"click": {"state": {"target": ["23", "33", "30", "26", "8", "4", "9", "11", "10"], "time": [2671, 4666, 6550, 8486, 10710, 12651, 14284, 16134, 17872]}, "edge": {"target": [], "time": []}}, "mouseover": {"state": {"target": ["23", "23", "31", "30", "33", "30", "29", "26", "28", "8", "2", "7", "4", "4", "3", "9", "10", "11", "10", "1", "13", "15", "18"], "time": [2273, 2506, 3073, 4408, 4608, 5492, 7126, 7793, 8928, 10546, 11080, 11563, 12030, 12297, 13215, 13698, 14883, 15533, 16567, 18886, 18936, 19220, 19853]}, "edge": {"target": [], "time": []}}, "mouseout": {"state": {"target": ["23", "0", "23", "23", "31", "30", "33", "30", "29", "26", "28", "8", "2", "7", "4", "4", "3", "9", "9", "8", "10", "11", "10", "1", "13", "15", "18", "10"], "time": [1622, 2239, 2323, 3007, 4357, 4458, 4991, 6976, 7627, 8895, 10446, 11046, 11113, 11663, 12047, 13181, 13265, 14372, 14747, 14833, 15366, 16517, 18869, 18903, 18969, 19837, 19870, 24240]}, "edge": {"target": [], "time": []}}}, "displayed_time": "23.67", "trialTime": 25008, "trial_type": "mouselab-mdp", "trial_index": 20, "time_elapsed": 785013, "internal_node_id": "0.0-4.0-1.0-11.0"}}, {"uniqueid": "w57145962:a66210437", "current_trial": 21, "dateTime": 1691071761028, "trialdata": {"revealed_states": [], "clicked_states": ["19", "15", "4", "8", "7", "6", "5", "9", "11", "10", "27", "26", "25"], "num_clicks_accrued": [0, 0, 0, 0, 0, 0, 0, 0, 0, 0, 0, 0, 0], "stateRewards": ["", 1, 2, -8, 9, 18, -83, -11, 6, -64, -48, 17, -2, -2, -5, -3, -24, -3, -86, -2, 48, -41, -22, -2, 4, 7, 8, 81, 13, -48, 10, 61, 19, 57], "withholdReward": false, "trial_id": "mdp_trial_13", "block": "test", "trialIndex": 14, "score": 79.8, "costs": -18.2, "simulationMode": [null, null, null, null, null], "rewards": [-2, 4, 7, 8, 81], "path": ["0", "0", "23", "24", "25", "26", "27"], "rt": [23149, 12, 187, 80, 161], "actions": ["left", "left", "left", "up", "up"], "actionTimes": [25854, 26361, 27052, 27629, 28277], "queries": {"click": {"state": {"target": ["19", "15", "4", "8", "7", "6", "5", "9", "11", "10", "27", "26", "25"], "time": [3510, 5066, 6696, 8444, 10009, 11658, 13255, 15083, 16613, 18263, 20565, 22365, 24115]}, "edge": {"target": [], "time": []}}, "mouseover": {"state": {"target": ["12", "13", "14", "19", "14", "15", "7", "3", "4", "3", "8", "7", "7", "6", "5", "4", "3", "9", "2", "10", "11", "10", "27", "27", "27", "26", "25", "24"], "time": [2845, 2878, 2928, 3345, 4363, 4463, 5831, 6014, 6398, 7566, 7649, 8967, 9150, 10651, 12153, 14288, 14354, 14554, 15506, 15805, 16039, 16973, 18925, 20393, 20493, 20993, 23478, 24446]}, "edge": {"target": [], "time": []}}, "mouseout": {"state": {"target": ["22", "22", "0", "12", "13", "14", "19", "14", "15", "7", "3", "4", "3", "8", "7", "7", "6", "5", "4", "3", "9", "2", "10", "11", "10", "27", "27", "27", "26", "26", "25", "25", "24"], "time": [1727, 2277, 2561, 2862, 2912, 2945, 4329, 4413, 5764, 5881, 6264, 7532, 7615, 8883, 8983, 10551, 12019, 13737, 14321, 14404, 15422, 15739, 15922, 16940, 18658, 19175, 20409, 20943, 22745, 23345, 24222, 24413, 29334]}, "edge": {"target": [], "time": []}}}, "displayed_time": "28.77", "trialTime": 29778, "trial_type": "mouselab-mdp", "trial_index": 21, "time_elapsed": 814965, "internal_node_id": "0.0-4.0-1.0-12.0"}}, {"uniqueid": "w57145962:a66210437", "current_trial": 22, "dateTime": 1691071779854, "trialdata": {"revealed_states": [], "clicked_states": ["29", "33", "26", "30", "25"], "num_clicks_accrued": [0, 0, 0, 0, 0, 0, 0, 0, 0, 0, 0, 0, 0], "stateRewards": ["", -1, 4, -8, 12, 14, 69, -8, 5, -72, -14, 56, -1, -1, -1, 9, 67, 19, 11, -9, -88, -58, 3, 2, -4, -8, 4, 62, 77, -74, 5, -31, 65, 88], "withholdReward": false, "trial_id": "mdp_trial_14", "block": "test", "trialIndex": 15, "score": 76, "costs": -7, "simulationMode": [null, null, null, null, null], "rewards": [2, -4, -8, 5, 88], "path": ["0", "0", "23", "24", "25", "30", "33"], "rt": [9578, 64, 68, 74, 82], "actions": ["left", "left", "left", "down", "left"], "actionTimes": [13163, 13722, 14293, 14866, 15441], "queries": {"click": {"state": {"target": ["29", "33", "26", "30", "25"], "time": [4414, 6144, 7806, 9438, 11390]}, "edge": {"target": [], "time": []}}, "mouseover": {"state": {"target": ["23", "24", "29", "26", "25", "33", "26", "27", "26", "25", "30", "25"], "time": [3848, 3898, 4315, 5032, 5399, 5649, 6600, 6833, 7467, 8335, 8685, 9836]}, "edge": {"target": [], "time": []}}, "mouseout": {"state": {"target": ["10", "28", "24", "24", "23", "24", "29", "26", "25", "33", "26", "27", "26", "25", "30"], "time": [1880, 1979, 2046, 2863, 3881, 3914, 4999, 5082, 5466, 6483, 6667, 7401, 8301, 8402, 9769]}, "edge": {"target": [], "time": []}}}, "displayed_time": "17.59", "trialTime": 18648, "trial_type": "mouselab-mdp", "trial_index": 22, "time_elapsed": 833791, "internal_node_id": "0.0-4.0-1.0-13.0"}}, {"uniqueid": "w57145962:a66210437", "current_trial": 23, "dateTime": 1691071797167, "trialdata": {"revealed_states": [], "clicked_states": ["19", "15", "20", "21", "22", "17"], "num_clicks_accrued": [0, 0, 0, 0, 0, 0, 0, 0, 0, 0, 0, 0, 0], "stateRewards": ["", 2, -1, -2, -5, -47, -57, -33, -11, 31, -18, -72, -2, 1, -4, -8, -46, -53, -50, 15, -85, -9, 39, -2, -2, 1, 14, -1, -8, 53, -12, -41, -74, 62], "withholdReward": false, "trial_id": "mdp_trial_15", "block": "test", "trialIndex": 16, "score": 40.6, "costs": -8.4, "simulationMode": [null, null, null, null, null], "rewards": [-2, 1, -4, 15, 39], "path": ["0", "0", "12", "13", "14", "19", "22"], "rt": [11661, 130, 54, 513, 119], "actions": ["right", "right", "right", "down", "left"], "actionTimes": [12845, 13463, 14004, 15030, 15638], "queries": {"click": {"state": {"target": ["19", "15", "20", "21", "22", "17"], "time": [2045, 3693, 5333, 7204, 8900, 10997]}, "edge": {"target": [], "time": []}}, "mouseover": {"state": {"target": ["12", "13", "14", "20", "19", "14", "15", "15", "14", "20", "21", "22", "14", "17", "18", "23", "0", "12", "13"], "time": [1339, 1374, 1406, 1722, 1973, 2723, 2807, 3157, 4308, 4525, 5826, 7578, 10129, 10496, 11414, 11781, 12164, 12198, 12232]}, "edge": {"target": [], "time": []}}, "mouseout": {"state": {"target": ["25", "24", "23", "0", "12", "14", "14", "13", "12", "12", "13", "14", "20", "19", "14", "15", "15", "14", "20", "21", "22", "14", "17", "18", "23", "0", "12", "13"], "time": [338, 354, 388, 404, 421, 488, 754, 788, 838, 1372, 1389, 1422, 1889, 2673, 2773, 2923, 4275, 4358, 5726, 7296, 10096, 10163, 11066, 11581, 12131, 12181, 12215, 12265]}, "edge": {"target": [], "time": []}}}, "displayed_time": "16.14", "trialTime": 17138, "trial_type": "mouselab-mdp", "trial_index": 23, "time_elapsed": 851103, "internal_node_id": "0.0-4.0-1.0-14.0"}}, {"uniqueid": "w57145962:a66210437", "current_trial": 24, "dateTime": 1691071825015, "trialdata": {"revealed_states": [], "clicked_states": ["30", "26", "8", "4", "15", "19", "17", "20", "21", "22", "18", "16"], "num_clicks_accrued": [0, 0, 0, 0, 0, 0, 0, 0, 0, 0, 0, 0, 0], "stateRewards": ["", 1, -2, -8, -13, 4, 34, -84, -4, -49, 88, -70, -1, 3, -4, 10, -77, 13, -34, 15, -21, -16, 27, 1, -2, 8, -8, -6, 38, -26, 6, -15, 66, -3], "withholdReward": false, "trial_id": "mdp_trial_16", "block": "test", "trialIndex": 17, "score": 23.2, "costs": -16.8, "simulationMode": [null, null, null, null, null], "rewards": [-1, 3, -4, 15, 27], "path": ["0", "0", "12", "13", "14", "19", "22"], "rt": [22225, 446, 125, 65, 53], "actions": ["right", "right", "right", "down", "left"], "actionTimes": [23369, 24307, 24919, 25477, 26031], "queries": {"click": {"state": {"target": ["30", "26", "8", "4", "15", "19", "17", "20", "21", "22", "18", "16"], "time": [1980, 3771, 5964, 7754, 9626, 11294, 13146, 14858, 16546, 18284, 19882, 21451]}, "edge": {"target": [], "time": []}}, "mouseover": {"state": {"target": ["23", "30", "30", "25", "26", "25", "25", "28", "8", "6", "4", "18", "15", "14", "19", "14", "17", "20", "21", "22", "22", "13", "18", "16", "15", "14"], "time": [1391, 1523, 1840, 2458, 2525, 4259, 5644, 5677, 5878, 6428, 6795, 8146, 8446, 9981, 10114, 12333, 12617, 13734, 15352, 17003, 17604, 18855, 18938, 20272, 21840, 22307]}, "edge": {"target": [], "time": []}}, "mouseout": {"state": {"target": ["13", "12", "0", "23", "30", "30", "25", "26", "25", "25", "28", "8", "6", "4", "18", "15", "14", "19", "14", "15", "17", "20", "21", "22", "22", "13", "18", "16", "16", "15", "14", "22"], "time": [706, 873, 1357, 1424, 1590, 2424, 2492, 4243, 4309, 5660, 5710, 6328, 6761, 8046, 8163, 9947, 10047, 12266, 12399, 12483, 13517, 15252, 16936, 17353, 18804, 18905, 19956, 21561, 21774, 22191, 27145, 27195]}, "edge": {"target": [], "time": []}}}, "displayed_time": "26.53", "trialTime": 27673, "trial_type": "mouselab-mdp", "trial_index": 24, "time_elapsed": 878952, "internal_node_id": "0.0-4.0-1.0-15.0"}}, {"uniqueid": "w57145962:a66210437", "current_trial": 25, "dateTime": 1691071846708, "trialdata": {"revealed_states": [], "clicked_states": ["30", "26", "8", "4", "9", "10", "11"], "num_clicks_accrued": [0, 0, 0, 0, 0, 0, 0, 0, 0, 0, 0, 0, 0], "stateRewards": ["", 1, 4, 5, 8, -55, -11, 8, 16, -37, 77, -22, -2, 3, -8, -10, 45, 87, -67, 4, 17, -33, -22, -1, -3, 7, 6, -39, -85, 75, -1, 7, -48, 45], "withholdReward": false, "trial_id": "mdp_trial_17", "block": "test", "trialIndex": 18, "score": 93.2, "costs": -9.8, "simulationMode": [null, null, null, null, null], "rewards": [1, 4, 5, 16, 77], "path": ["0", "0", "1", "2", "3", "8", "10"], "rt": [13071, 30, 57, 510, 91], "actions": ["up", "up", "up", "left", "down"], "actionTimes": [16755, 17284, 17861, 18865, 19446], "queries": {"click": {"state": {"target": ["30", "26", "8", "4", "9", "10", "11"], "time": [4250, 6127, 7920, 9691, 11429, 13174, 14853]}, "edge": {"target": [], "time": []}}, "mouseover": {"state": {"target": ["23", "24", "30", "25", "26", "10", "8", "3", "4", "3", "9", "10", "11", "5"], "time": [3891, 3958, 4075, 5126, 5159, 6677, 7178, 8545, 8628, 10180, 10330, 11834, 13799, 15301]}, "edge": {"target": [], "time": []}}, "mouseout": {"state": {"target": ["22", "24", "0", "23", "24", "30", "25", "26", "10", "8", "3", "4", "3", "9", "8", "10", "11", "5", "4", "1", "0"], "time": [405, 3290, 3474, 3942, 3992, 5093, 5143, 6229, 6694, 8512, 8595, 10163, 10197, 11698, 11781, 13549, 15201, 15951, 20655, 20722, 20755]}, "edge": {"target": [], "time": []}}}, "displayed_time": "19.94", "trialTime": 21509, "trial_type": "mouselab-mdp", "trial_index": 25, "time_elapsed": 900645, "internal_node_id": "0.0-4.0-1.0-16.0"}}, {"uniqueid": "w57145962:a66210437", "current_trial": 26, "dateTime": 1691071863919, "trialdata": {"revealed_states": [], "clicked_states": ["19", "15", "20", "21", "22"], "num_clicks_accrued": [0, 0, 0, 0, 0, 0, 0, 0, 0, 0, 0, 0, 0], "stateRewards": ["", -1, -4, -6, -15, 21, -67, -63, 9, 51, 69, -14, -1, 3, 8, -8, 39, 72, 63, 15, 19, 47, 15, 1, 4, 5, 16, -18, 34, 35, -14, -80, 40, 1], "withholdReward": false, "trial_id": "mdp_trial_18", "block": "test", "trialIndex": 19, "score": 65, "costs": -7, "simulationMode": [null, null, null, null, null], "rewards": [-1, 3, 8, 15, 47], "path": ["0", "0", "12", "13", "14", "19", "21"], "rt": [10492, 19, 73, 33, 49], "actions": ["right", "right", "right", "down", "down"], "actionTimes": [12592, 13116, 13687, 14214, 14780], "queries": {"click": {"state": {"target": ["19", "15", "20", "21", "22"], "time": [3536, 5628, 7219, 8956, 10675]}, "edge": {"target": [], "time": []}}, "mouseover": {"state": {"target": ["12", "13", "14", "19", "21", "19", "15", "14", "20", "21", "22", "19"], "time": [2586, 2670, 2720, 2854, 3154, 3371, 4088, 5956, 6590, 7624, 9376, 11160]}, "edge": {"target": [], "time": []}}, "mouseout": {"state": {"target": ["0", "12", "13", "14", "19", "21", "19", "15", "14", "20", "21", "22", "19", "20"], "time": [2503, 2653, 2687, 2770, 2937, 3320, 4004, 5940, 5990, 7574, 9120, 11144, 11194, 15831]}, "edge": {"target": [], "time": []}}}, "displayed_time": "16.10", "trialTime": 17032, "trial_type": "mouselab-mdp", "trial_index": 26, "time_elapsed": 917856, "internal_node_id": "0.0-4.0-1.0-17.0"}}, {"uniqueid": "w57145962:a66210437", "current_trial": 27, "dateTime": 1691071888718, "trialdata": {"revealed_states": [], "clicked_states": ["19", "15", "4", "8", "26", "30", "6", "7", "5"], "num_clicks_accrued": [0, 0, 0, 0, 0, 0, 0, 0, 0, 0, 0, 0, 0], "stateRewards": ["", -1, -3, 3, 5, 56, 39, 50, -1, -80, 33, -46, 1, -2, -6, -8, 87, 48, 54, -11, -20, -64, -54, -2, 3, -7, -3, 12, 88, 35, -16, -46, -70, -3], "withholdReward": false, "trial_id": "mdp_trial_19", "block": "test", "trialIndex": 20, "score": 47.4, "costs": -12.600000000000001, "simulationMode": [null, null, null, null, null], "rewards": [-1, -3, 3, 5, 56], "path": ["0", "0", "1", "2", "3", "4", "5"], "rt": [18092, 99, 97, 68, 29], "actions": ["up", "up", "up", "right", "up"], "actionTimes": [20712, 21301, 21899, 22470, 22998], "queries": {"click": {"state": {"target": ["19", "15", "4", "8", "26", "30", "6", "7", "5"], "time": [3349, 5986, 7868, 9523, 11499, 13302, 15197, 16995, 18868]}, "edge": {"target": [], "time": []}}, "mouseover": {"state": {"target": ["0", "12", "13", "19", "16", "16", "15", "7", "4", "3", "8", "28", "26", "25", "30", "24", "2", "7", "6", "7", "4", "5", "4"], "time": [2852, 2885, 2918, 3252, 5337, 5721, 5905, 6588, 6755, 8140, 8206, 11029, 11242, 11842, 11909, 13844, 13911, 13944, 14261, 15712, 17431, 17681, 19315]}, "edge": {"target": [], "time": []}}, "mouseout": {"state": {"target": ["19", "22", "0", "0", "12", "13", "19", "16", "16", "15", "7", "4", "3", "8", "8", "28", "26", "25", "30", "24", "2", "7", "6", "7", "4", "5", "4", "7", "12"], "time": [2101, 2134, 2484, 2868, 2902, 2935, 3637, 5387, 5837, 6100, 6622, 8106, 8173, 9629, 10308, 11042, 11809, 11876, 13794, 13861, 13928, 13961, 15596, 17380, 17464, 19282, 19349, 20200, 24019]}, "edge": {"target": [], "time": []}}}, "displayed_time": "23.49", "trialTime": 24615, "trial_type": "mouselab-mdp", "trial_index": 27, "time_elapsed": 942655, "internal_node_id": "0.0-4.0-1.0-18.0"}}, {"uniqueid": "w57145962:a66210437", "current_trial": 28, "dateTime": 1691071919138, "trialdata": {"revealed_states": [], "clicked_states": ["4", "8", "26", "11", "10", "9", "15", "19", "17", "21", "20", "22"], "num_clicks_accrued": [0, 0, 0, 0, 0, 0, 0, 0, 0, 0, 0, 0, 0], "stateRewards": ["", -2, -4, 2, 10, -17, 18, 73, 11, -32, 23, -13, -2, -4, 7, 12, -25, 66, -23, 15, 40, -76, -9, 1, 2, -7, -5, -20, 24, 3, -5, 16, -73, 70], "withholdReward": false, "trial_id": "mdp_trial_20", "block": "test", "trialIndex": 21, "score": 62.2, "costs": -16.8, "simulationMode": [null, null, null, null, null], "rewards": [-2, -4, 7, 12, 66], "path": ["0", "0", "12", "13", "14", "15", "17"], "rt": [23099, 109, 122, 154, 25], "actions": ["right", "right", "right", "up", "right"], "actionTimes": [26280, 26883, 27496, 28145, 28667], "queries": {"click": {"state": {"target": ["4", "8", "26", "11", "10", "9", "15", "19", "17", "21", "20", "22"], "time": [3980, 5891, 7940, 9751, 11502, 13405, 15703, 17418, 19227, 21149, 22741, 24338]}, "edge": {"target": [], "time": []}}, "mouseover": {"state": {"target": ["7", "4", "3", "8", "10", "28", "26", "28", "11", "10", "8", "9", "8", "2", "18", "15", "14", "19", "14", "17", "20", "21", "20", "19", "22"], "time": [3654, 3904, 4604, 4671, 6356, 6523, 7140, 8425, 9092, 10226, 11844, 11894, 13796, 15347, 15413, 15513, 16097, 16581, 18032, 18216, 20001, 20351, 21719, 23120, 23504]}, "edge": {"target": [], "time": []}}, "mouseout": {"state": {"target": ["12", "7", "4", "3", "8", "10", "28", "26", "28", "11", "10", "8", "9", "8", "2", "18", "15", "14", "19", "14", "17", "20", "21", "20", "19", "22", "14"], "time": [1484, 3687, 4588, 4638, 6323, 6373, 6990, 8291, 8474, 10143, 11794, 11860, 13762, 13812, 15363, 15430, 16064, 16164, 17932, 18082, 19801, 20101, 21230, 23103, 23153, 24888, 29759]}, "edge": {"target": [], "time": []}}}, "displayed_time": "29.16", "trialTime": 30231, "trial_type": "mouselab-mdp", "trial_index": 28, "time_elapsed": 973074, "internal_node_id": "0.0-4.0-1.0-19.0"}}, {"uniqueid": "w57145962:a66210437", "current_trial": 29, "dateTime": 1691071940379, "trialdata": {"revealed_states": [], "clicked_states": ["8", "4", "15", "19", "17", "16", "18", "26"], "num_clicks_accrued": [0, 0, 0, 0, 0, 0, 0, 0, 0, 0, 0, 0, 0], "stateRewards": ["", -1, 3, 1, -7, 56, 76, 57, 3, 11, -9, 14, 1, -2, 2, 8, -77, -3, 79, -5, 88, 24, -66, -2, -1, 7, -7, -30, 14, -76, 11, -36, 28, -6], "withholdReward": false, "trial_id": "mdp_trial_21", "block": "test", "trialIndex": 22, "score": 76.8, "costs": -11.200000000000001, "simulationMode": [null, null, null, null, null], "rewards": [1, -2, 2, 8, 79], "path": ["0", "0", "12", "13", "14", "15", "18"], "rt": [14837, 80, 104, 451, 122], "actions": ["right", "right", "right", "up", "left"], "actionTimes": [16661, 17236, 17843, 18791, 19412], "queries": {"click": {"state": {"target": ["8", "4", "15", "19", "17", "16", "18", "26"], "time": [2411, 4098, 5969, 7655, 9494, 11272, 13143, 15069]}, "edge": {"target": [], "time": []}}, "mouseover": {"state": {"target": ["10", "8", "3", "4", "4", "18", "15", "14", "19", "14", "17", "16", "18", "28", "26", "28", "0"], "time": [2125, 2275, 2775, 2809, 3676, 4860, 5178, 6478, 6712, 8700, 8814, 9965, 11700, 13735, 14018, 15503, 15586]}, "edge": {"target": [], "time": []}}, "mouseout": {"state": {"target": ["12", "1", "10", "8", "3", "4", "4", "18", "15", "14", "19", "14", "17", "16", "16", "18", "28", "26", "28", "0"], "time": [907, 1574, 2175, 2759, 2792, 2842, 4777, 4877, 6379, 6545, 7777, 8731, 9831, 11344, 11616, 13485, 13902, 15486, 15519, 15619]}, "edge": {"target": [], "time": []}}}, "displayed_time": "19.91", "trialTime": 21037, "trial_type": "mouselab-mdp", "trial_index": 29, "time_elapsed": 994316, "internal_node_id": "0.0-4.0-1.0-20.0"}}, {"uniqueid": "w57145962:a66210437", "current_trial": 30, "dateTime": 1691071961031, "trialdata": {"revealed_states": [], "clicked_states": ["26", "30", "19", "15", "4", "8", "27", "28"], "num_clicks_accrued": [0, 0, 0, 0, 0, 0, 0, 0, 0, 0, 0, 0, 0], "stateRewards": ["", 1, 4, 5, -5, 58, -80, 75, 6, 25, -39, 46, 2, -2, 4, 2, 59, 31, -22, -12, -61, 15, 72, 1, -2, -7, 8, 77, 76, -23, -7, 71, -15, -3], "withholdReward": false, "trial_id": "mdp_trial_22", "block": "test", "trialIndex": 23, "score": 65.8, "costs": -11.200000000000001, "simulationMode": [null, null, null, null, null, null], "rewards": [1, -2, -7, 8, 77], "path": ["0", "0", "23", "24", "25", "26", "27"], "rt": [14746, 502, 320, 288, 111, 111], "actions": ["left", "left", "left", "left", "up", "up"], "actionTimes": [15775, 16279, 17090, 17877, 18482, 19082], "queries": {"click": {"state": {"target": ["26", "30", "19", "15", "4", "8", "27", "28"], "time": [2074, 3879, 6064, 7626, 9351, 10908, 12664, 14466]}, "edge": {"target": [], "time": []}}, "mouseover": {"state": {"target": ["23", "24", "26", "25", "30", "31", "22", "19", "19", "13", "15", "4", "3", "8", "27", "28"], "time": [1590, 1690, 1973, 2423, 2774, 5443, 5543, 5997, 6026, 6710, 6960, 8612, 9763, 9829, 12115, 13199]}, "edge": {"target": [], "time": []}}, "mouseout": {"state": {"target": ["23", "24", "26", "25", "30", "31", "22", "19", "19", "13", "15", "4", "3", "8", "27", "28"], "time": [1657, 1757, 2407, 2474, 5426, 5459, 5576, 6010, 6560, 6760, 8528, 9746, 9796, 11514, 13115, 14950]}, "edge": {"target": [], "time": []}}}, "displayed_time": "19.57", "trialTime": 20303, "trial_type": "mouselab-mdp", "trial_index": 30, "time_elapsed": 1014968, "internal_node_id": "0.0-4.0-1.0-21.0"}}, {"uniqueid": "w57145962:a66210437", "current_trial": 31, "dateTime": 1691071981433, "trialdata": {"revealed_states": [], "clicked_states": ["26", "8", "4", "9", "11", "10"], "num_clicks_accrued": [0, 0, 0, 0, 0, 0, 0, 0, 0, 0, 0, 0, 0], "stateRewards": ["", -1, 2, -2, 5, 80, -61, -27, 12, 44, -26, -75, -2, -4, 1, -16, 42, -49, -50, 4, -44, 2, 80, -2, -2, 5, -2, 59, 10, 24, 7, -48, -86, -44], "withholdReward": false, "trial_id": "mdp_trial_23", "block": "test", "trialIndex": 24, "score": 46.6, "costs": -8.4, "simulationMode": [null, null, null, null, null], "rewards": [-1, 2, -2, 12, 44], "path": ["0", "0", "1", "2", "3", "8", "9"], "rt": [13088, 128, 48, 346, 148], "actions": ["up", "up", "up", "left", "up"], "actionTimes": [16011, 16627, 17164, 18029, 18665], "queries": {"click": {"state": {"target": ["26", "8", "4", "9", "11", "10"], "time": [4355, 6231, 8119, 10593, 12481, 14184]}, "edge": {"target": [], "time": []}}, "mouseover": {"state": {"target": ["28", "26", "8", "3", "4", "7", "15", "3", "9", "11", "10", "2"], "time": [3537, 4288, 4922, 6574, 6639, 8608, 9058, 10276, 10526, 11043, 12845, 15280]}, "edge": {"target": [], "time": []}}, "mouseout": {"state": {"target": ["24", "28", "28", "26", "8", "3", "4", "7", "15", "3", "9", "11", "10", "2", "7", "2", "1", "0"], "time": [1952, 2052, 3637, 4638, 6539, 6606, 8574, 8642, 10176, 10293, 10976, 12795, 14779, 15314, 19650, 19700, 19767, 19817]}, "edge": {"target": [], "time": []}}}, "displayed_time": "19.17", "trialTime": 20201, "trial_type": "mouselab-mdp", "trial_index": 31, "time_elapsed": 1035369, "internal_node_id": "0.0-4.0-1.0-22.0"}}, {"uniqueid": "w57145962:a66210437", "current_trial": 32, "dateTime": 1691072009908, "trialdata": {"revealed_states": [], "clicked_states": ["8", "4", "9", "11", "10", "15", "19", "30", "21", "20", "22"], "num_clicks_accrued": [0, 0, 0, 0, 0, 0, 0, 0, 0, 0, 0, 0, 0], "stateRewards": ["", 2, 3, -2, -8, -8, -41, 74, 15, -23, -80, 1, 1, 3, 3, -15, -63, -78, 67, 13, 75, -41, 86, 2, -2, 6, -3, -8, -49, 50, -6, 83, 74, 80], "withholdReward": false, "trial_id": "mdp_trial_24", "block": "test", "trialIndex": 25, "score": 90.6, "costs": -15.400000000000002, "simulationMode": [null, null, null, null, null, null], "rewards": [1, 3, 3, 13, 86], "path": ["0", "0", "12", "13", "14", "19", "22"], "rt": [19623, 382, 7, 230, 160, 111], "actions": ["right", "right", "right", "right", "down", "left"], "actionTimes": [23522, 23907, 24430, 25169, 25817, 26418], "queries": {"click": {"state": {"target": ["8", "4", "9", "11", "10", "15", "19", "30", "21", "20", "22"], "time": [4577, 6576, 8371, 10051, 11822, 13759, 15613, 17413, 19024, 20793, 22480]}, "edge": {"target": [], "time": []}}, "mouseover": {"state": {"target": ["10", "8", "10", "2", "4", "15", "18", "2", "9", "11", "10", "18", "15", "14", "19", "31", "30", "31", "21", "20", "19", "22", "22", "19"], "time": [4321, 4505, 5088, 6172, 6273, 7190, 7440, 7540, 7907, 9242, 10476, 12879, 12928, 14112, 14446, 16164, 16631, 17799, 18182, 19534, 21119, 21202, 21619, 22853]}, "edge": {"target": [], "time": []}}, "mouseout": {"state": {"target": ["0", "12", "1", "10", "10", "8", "10", "2", "4", "15", "18", "2", "8", "9", "11", "10", "18", "15", "14", "19", "31", "30", "31", "21", "20", "19", "22", "22", "19", "20", "19", "22"], "time": [1101, 1151, 1952, 3620, 4421, 5038, 5155, 6206, 6856, 7407, 7457, 7574, 7725, 8708, 10393, 12194, 12911, 14079, 14163, 15981, 16181, 17782, 17816, 19450, 21085, 21169, 21385, 22837, 22870, 27090, 27140, 27173]}, "edge": {"target": [], "time": []}}}, "displayed_time": "26.91", "trialTime": 28276, "trial_type": "mouselab-mdp", "trial_index": 32, "time_elapsed": 1063845, "internal_node_id": "0.0-4.0-1.0-23.0"}}, {"uniqueid": "w57145962:a66210437", "current_trial": 33, "dateTime": 1691072028996, "trialdata": {"revealed_states": [], "clicked_states": ["19", "30", "26", "8", "28", "27", "29"], "num_clicks_accrued": [0, 0, 0, 0, 0, 0, 0, 0, 0, 0, 0, 0, 0], "stateRewards": ["", 2, -3, -5, 5, 11, -9, -33, 6, 67, 6, -30, -1, -2, -6, 13, 55, 13, 72, -14, 75, 21, -66, -2, -4, 6, 15, -1, -35, 60, 2, 51, -73, 12], "withholdReward": false, "trial_id": "mdp_trial_25", "block": "test", "trialIndex": 26, "score": 65.2, "costs": -9.8, "simulationMode": [null, null, null, null, null], "rewards": [-2, -4, 6, 15, 60], "path": ["0", "0", "23", "24", "25", "26", "29"], "rt": [13385, 378, 141, 97, 3], "actions": ["left", "left", "left", "up", "left"], "actionTimes": [14923, 15796, 16442, 17033, 17539], "queries": {"click": {"state": {"target": ["19", "30", "26", "8", "28", "27", "29"], "time": [2317, 4166, 5971, 7737, 9369, 11256, 12906]}, "edge": {"target": [], "time": []}}, "mouseover": {"state": {"target": ["12", "13", "19", "12", "0", "23", "24", "30", "25", "26", "10", "3", "8", "10", "28", "28", "27", "29"], "time": [1855, 1905, 2234, 3073, 3108, 3140, 3190, 3373, 4891, 4991, 6543, 6659, 6776, 8344, 8477, 8928, 9712, 11797]}, "edge": {"target": [], "time": []}}, "mouseout": {"state": {"target": ["0", "12", "13", "19", "12", "0", "23", "24", "30", "25", "26", "10", "3", "8", "10", "28", "26", "28", "27", "29"], "time": [1304, 1888, 1939, 3006, 3106, 3123, 3174, 3239, 4294, 4941, 6476, 6559, 6709, 8311, 8361, 8511, 8827, 9645, 11647, 14382]}, "edge": {"target": [], "time": []}}}, "displayed_time": "18.05", "trialTime": 18894, "trial_type": "mouselab-mdp", "trial_index": 33, "time_elapsed": 1082933, "internal_node_id": "0.0-4.0-1.0-24.0"}}, {"uniqueid": "w57145962:a66210437", "current_trial": 34, "dateTime": 1691072058620, "trialdata": {"revealed_states": [], "clicked_states": ["26", "30", "19", "15", "4", "8", "9", "11", "10", "7", "6", "5"], "num_clicks_accrued": [0, 0, 0, 0, 0, 0, 0, 0, 0, 0, 0, 0, 0], "stateRewards": ["", -1, 1, -1, 2, 19, 85, -18, 2, -3, -26, 36, 2, 4, 7, -9, -18, 70, 72, -5, 35, -20, -28, 1, -2, -4, -3, -59, -11, -63, -2, -72, 59, -69], "withholdReward": false, "trial_id": "mdp_trial_26", "block": "test", "trialIndex": 27, "score": 69.2, "costs": -16.8, "simulationMode": [null, null, null, null, null, null], "rewards": [-1, 1, -1, 2, 85], "path": ["0", "0", "1", "2", "3", "4", "6"], "rt": [21130, 618, 87, 63, 371, 120], "actions": ["up", "up", "up", "up", "right", "right"], "actionTimes": [24887, 25508, 26091, 26651, 27509, 28126], "queries": {"click": {"state": {"target": ["26", "30", "19", "15", "4", "8", "9", "11", "10", "7", "6", "5"], "time": [4559, 6299, 8061, 9861, 11539, 13269, 15124, 16890, 18501, 20197, 21859, 23438]}, "edge": {"target": [], "time": []}}, "mouseover": {"state": {"target": ["28", "26", "30", "31", "21", "19", "14", "15", "7", "4", "3", "8", "8", "9", "11", "10", "4", "4", "7", "6", "5"], "time": [4084, 4385, 5336, 7004, 7087, 7237, 8655, 8772, 10357, 10540, 11992, 12063, 13176, 14343, 15628, 17563, 18880, 19297, 19481, 20682, 22217]}, "edge": {"target": [], "time": []}}, "mouseout": {"state": {"target": ["23", "0", "28", "26", "30", "31", "21", "19", "14", "15", "7", "4", "3", "8", "8", "9", "11", "10", "4", "4", "7", "6", "5", "6", "0"], "time": [2867, 3918, 4151, 4969, 6987, 7023, 7121, 8588, 8722, 10290, 10373, 11975, 12025, 12275, 14176, 15445, 17179, 18813, 18914, 19364, 20482, 22116, 24001, 28955, 29055]}, "edge": {"target": [], "time": []}}}, "displayed_time": "28.62", "trialTime": 29429, "trial_type": "mouselab-mdp", "trial_index": 34, "time_elapsed": 1112557, "internal_node_id": "0.0-4.0-1.0-25.0"}}, {"uniqueid": "w57145962:a66210437", "current_trial": 35, "dateTime": 1691072081150, "trialdata": {"revealed_states": [], "clicked_states": ["8", "4", "15", "19", "26", "30", "31", "32", "33"], "num_clicks_accrued": [0, 0, 0, 0, 0, 0, 0, 0, 0, 0, 0, 0, 0], "stateRewards": ["", -2, -3, -6, -7, 9, 16, 65, 5, -41, 20, -25, -1, -4, 1, -11, -49, -4, 71, 1, 39, -62, 52, -2, -3, 7, -9, -28, -70, 84, 8, 24, -58, 82], "withholdReward": false, "trial_id": "mdp_trial_27", "block": "test", "trialIndex": 28, "score": 79.4, "costs": -12.600000000000001, "simulationMode": [null, null, null, null, null], "rewards": [-2, -3, 7, 8, 82], "path": ["0", "0", "23", "24", "25", "30", "33"], "rt": [17606, 30, 99, 20, 78], "actions": ["left", "left", "left", "down", "left"], "actionTimes": [18785, 19325, 19911, 20433, 21008], "queries": {"click": {"state": {"target": ["8", "4", "15", "19", "26", "30", "31", "32", "33"], "time": [1871, 3720, 5391, 7108, 8915, 10554, 13188, 14868, 16657]}, "edge": {"target": [], "time": []}}, "mouseover": {"state": {"target": ["10", "8", "3", "4", "7", "18", "14", "15", "14", "19", "22", "24", "25", "25", "26", "25", "30", "11", "9", "8", "28", "24", "31", "32", "33", "25", "8", "9"], "time": [1563, 1763, 2314, 2364, 4116, 4182, 4399, 4666, 5750, 5834, 7502, 7585, 7603, 7885, 8102, 9270, 9470, 11155, 11655, 12773, 12823, 12841, 13156, 13606, 15307, 17109, 17459, 17609]}, "edge": {"target": [], "time": []}}, "mouseout": {"state": {"target": ["0", "10", "8", "3", "4", "7", "18", "14", "15", "14", "19", "22", "24", "25", "25", "26", "25", "30", "11", "9", "8", "28", "24", "31", "32", "33", "25", "8", "9", "11"], "time": [1453, 1680, 2247, 2347, 4082, 4132, 4282, 4583, 5717, 5800, 7485, 7518, 7602, 7635, 7969, 9236, 9353, 10904, 11188, 12756, 12790, 12839, 12856, 13557, 15241, 17076, 17126, 17493, 21546, 21646]}, "edge": {"target": [], "time": []}}}, "displayed_time": "21.50", "trialTime": 22332, "trial_type": "mouselab-mdp", "trial_index": 35, "time_elapsed": 1135087, "internal_node_id": "0.0-4.0-1.0-26.0"}}, {"uniqueid": "w57145962:a66210437", "current_trial": 36, "dateTime": 1691072106109, "trialdata": {"revealed_states": [], "clicked_states": ["26", "30", "8", "31", "32", "33", "5", "4", "6", "7"], "num_clicks_accrued": [0, 0, 0, 0, 0, 0, 0, 0, 0, 0, 0, 0, 0], "stateRewards": ["", -2, -3, 8, 14, -73, 73, 84, -12, -2, -50, -17, 2, 1, -2, -9, -44, -27, -33, 16, -63, -47, -66, -2, 1, 4, -5, -33, -11, 50, 9, 38, -79, 31], "withholdReward": false, "trial_id": "mdp_trial_28", "block": "test", "trialIndex": 29, "score": 87, "costs": -14.000000000000002, "simulationMode": [null, null, null, null, null], "rewards": [-2, -3, 8, 14, 84], "path": ["0", "0", "1", "2", "3", "4", "7"], "rt": [19528, 139, 74, 23, 36], "actions": ["up", "up", "up", "right", "down"], "actionTimes": [21123, 21756, 22325, 22841, 23371], "queries": {"click": {"state": {"target": ["26", "30", "8", "31", "32", "33", "5", "4", "6", "7"], "time": [2322, 4277, 6301, 7957, 9541, 11359, 14020, 15805, 17644, 19408]}, "edge": {"target": [], "time": []}}, "mouseover": {"state": {"target": ["26", "25", "30", "28", "8", "10", "24", "31", "31", "32", "33", "24", "1", "7", "6", "5", "6", "4", "6", "7"], "time": [2250, 3768, 3835, 5002, 5869, 6703, 6804, 6837, 7287, 8355, 9973, 12725, 12775, 12809, 12925, 13464, 14426, 14543, 17234, 17996]}, "edge": {"target": [], "time": []}}, "mouseout": {"state": {"target": ["27", "10", "2", "1", "26", "25", "30", "28", "8", "10", "24", "31", "31", "32", "33", "24", "1", "7", "6", "5", "6", "4", "6", "6", "7"], "time": [698, 798, 948, 1032, 3734, 3801, 4952, 5019, 6670, 6756, 6820, 6854, 8288, 9889, 12675, 12742, 12792, 12842, 12992, 14360, 14477, 17129, 17739, 17946, 19781]}, "edge": {"target": [], "time": []}}}, "displayed_time": "23.89", "trialTime": 24759, "trial_type": "mouselab-mdp", "trial_index": 36, "time_elapsed": 1160046, "internal_node_id": "0.0-4.0-1.0-27.0"}}, {"uniqueid": "w57145962:a66210437", "current_trial": 37, "dateTime": 1691072134528, "trialdata": {"revealed_states": [], "clicked_states": ["4", "15", "19", "30", "26", "8", "9", "16", "17", "18", "20", "21", "22"], "num_clicks_accrued": [0, 0, 0, 0, 0, 0, 0, 0, 0, 0, 0, 0, 0], "stateRewards": ["", 1, 1, 1, -3, -7, -1, -41, -10, 20, -72, -63, 1, -4, -2, 2, -66, 30, -84, -2, 49, 23, 71, -1, -4, 4, -12, 67, 5, 18, -16, 88, 56, -5], "withholdReward": false, "trial_id": "mdp_trial_29", "block": "test", "trialIndex": 30, "score": 45.8, "costs": -18.2, "simulationMode": [null, null, null, null, null], "rewards": [1, -4, -2, -2, 71], "path": ["0", "0", "12", "13", "14", "19", "22"], "rt": [23325, 190, 122, 124, 89], "actions": ["right", "right", "right", "down", "left"], "actionTimes": [24348, 25032, 25647, 26266, 26848], "queries": {"click": {"state": {"target": ["4", "15", "19", "30", "26", "8", "9", "16", "17", "18", "20", "21", "22"], "time": [1657, 3463, 5029, 7068, 8904, 10630, 12441, 14207, 15954, 17687, 19464, 21055, 22575]}, "edge": {"target": [], "time": []}}, "mouseover": {"state": {"target": ["7", "4", "18", "15", "14", "19", "22", "31", "30", "26", "8", "9", "11", "3", "16", "17", "15", "18", "13", "19", "20", "21", "22", "19"], "time": [1421, 1555, 2105, 2623, 3790, 3957, 6693, 6826, 6926, 7677, 9511, 11213, 12814, 13248, 13649, 14616, 16267, 16334, 18052, 18152, 18736, 19803, 21521, 22989]}, "edge": {"target": [], "time": []}}, "mouseout": {"state": {"target": ["7", "7", "4", "18", "15", "14", "19", "22", "31", "30", "26", "8", "9", "11", "8", "3", "16", "17", "15", "18", "13", "19", "20", "21", "22", "19", "20", "19"], "time": [620, 1488, 2055, 2122, 3757, 3823, 6676, 6709, 6876, 7460, 9019, 10733, 12731, 13181, 13231, 13265, 14516, 16250, 16301, 18035, 18085, 18202, 19737, 21388, 22973, 23023, 27493, 27676]}, "edge": {"target": [], "time": []}}}, "displayed_time": "27.34", "trialTime": 28213, "trial_type": "mouselab-mdp", "trial_index": 37, "time_elapsed": 1188464, "internal_node_id": "0.0-4.0-1.0-28.0"}}, {"uniqueid": "w57145962:a66210437", "current_trial": 38, "dateTime": 1691072153022, "trialdata": {"revealed_states": [], "clicked_states": ["19", "15", "4", "8", "5", "6", "7"], "num_clicks_accrued": [0, 0, 0, 0, 0, 0, 0, 0, 0, 0, 0, 0, 0], "stateRewards": ["", 1, 2, 3, 16, 63, -25, 16, -4, -14, 82, -66, -1, -3, -3, -11, -14, 19, 46, 3, -34, -82, 66, -2, -3, 4, -5, -63, 77, -37, -1, -45, -41, 84], "withholdReward": false, "trial_id": "mdp_trial_30", "block": "test", "trialIndex": 31, "score": 75.2, "costs": -9.8, "simulationMode": [null, null, null, null, null], "rewards": [1, 2, 3, 16, 63], "path": ["0", "0", "1", "2", "3", "4", "5"], "rt": [13059, 86, 76, 57, 55], "actions": ["up", "up", "up", "right", "up"], "actionTimes": [14470, 15054, 15630, 16177, 16742], "queries": {"click": {"state": {"target": ["19", "15", "4", "8", "5", "6", "7"], "time": [2245, 4002, 5801, 7496, 9268, 10841, 12646]}, "edge": {"target": [], "time": []}}, "mouseover": {"state": {"target": ["12", "13", "14", "19", "14", "15", "15", "18", "4", "3", "8", "3", "5", "6", "7"], "time": [1573, 1639, 1740, 2173, 2841, 2907, 3274, 4692, 4926, 6410, 6527, 8062, 8228, 10013, 11364]}, "edge": {"target": [], "time": []}}, "mouseout": {"state": {"target": ["12", "0", "12", "13", "14", "19", "14", "15", "15", "18", "4", "3", "8", "3", "5", "6", "7"], "time": [955, 1539, 1606, 1673, 2106, 2807, 2874, 3057, 4659, 4709, 6377, 6460, 8045, 8078, 9547, 11198, 14066]}, "edge": {"target": [], "time": []}}}, "displayed_time": "17.24", "trialTime": 18285, "trial_type": "mouselab-mdp", "trial_index": 38, "time_elapsed": 1206958, "internal_node_id": "0.0-4.0-1.0-29.0"}}, {"uniqueid": "w57145962:a66210437", "current_trial": 39, "dateTime": 1691072197748, "trialdata": {"revealed_states": [], "clicked_states": ["8", "4", "15", "19", "17", "16", "18", "6", "7", "5"], "num_clicks_accrued": [0, 0, 0, 0, 0, 0, 0, 0, 0, 0, 0, 0, 0], "stateRewards": ["", 2, 3, -1, 6, 44, -4, -59, -14, -3, 64, 16, 1, -3, 3, 6, 3, 49, 19, 3, -49, -14, -86, 1, 2, -3, -8, -33, 14, 32, -13, -77, -47, -67], "withholdReward": false, "trial_id": "mdp_trial_31", "block": "test", "trialIndex": 32, "score": 42, "costs": -14.000000000000002, "simulationMode": [null, null, null, null, null, null], "rewards": [1, -3, 3, 6, 49], "path": ["0", "0", "12", "13", "14", "15", "17"], "rt": [20265, 391, 90, 187, 112, 44], "actions": ["right", "right", "right", "right", "up", "right"], "actionTimes": [40162, 40555, 41136, 41816, 42425, 42958], "queries": {"click": {"state": {"target": ["8", "4", "15", "19", "17", "16", "18", "6", "7", "5"], "time": [21027, 22780, 24595, 26276, 28140, 29686, 31338, 33067, 34681, 38727]}, "edge": {"target": [], "time": []}}, "mouseover": {"state": {"target": ["1", "2", "8", "3", "4", "7", "18", "14", "15", "14", "19", "14", "17", "16", "18", "6", "7", "4", "5"], "time": [20677, 20727, 20928, 21678, 21895, 23180, 23263, 23363, 23513, 24931, 24998, 26783, 27517, 28601, 30669, 31953, 33705, 35156, 35356]}, "edge": {"target": [], "time": []}}, "mouseout": {"state": {"target": ["1", "0", "0", "1", "2", "8", "3", "4", "7", "18", "14", "15", "14", "19", "14", "17", "16", "18", "6", "7", "4", "5", "4"], "time": [977, 1394, 20621, 20711, 20744, 21395, 21712, 23146, 23196, 23296, 23480, 24898, 24965, 26732, 26816, 28232, 30102, 31670, 33555, 35106, 35190, 39043, 43646]}, "edge": {"target": [], "time": []}}}, "displayed_time": "43.45", "trialTime": 44518, "trial_type": "mouselab-mdp", "trial_index": 39, "time_elapsed": 1251685, "internal_node_id": "0.0-4.0-1.0-30.0"}}, {"uniqueid": "w57145962:a66210437", "current_trial": 40, "dateTime": 1691072216527, "trialdata": {"revealed_states": [], "clicked_states": ["15", "19", "4", "8", "5", "6", "7"], "num_clicks_accrued": [0, 0, 0, 0, 0, 0, 0, 0, 0, 0, 0, 0, 0], "stateRewards": ["", 1, 3, -2, 15, 51, 15, -19, 11, 67, -45, -73, 2, 4, -2, -13, 36, 9, -28, 10, -30, 31, 16, 1, 2, -1, -16, 14, -22, 36, -1, 88, -5, 45], "withholdReward": false, "trial_id": "mdp_trial_32", "block": "test", "trialIndex": 33, "score": 58.2, "costs": -9.8, "simulationMode": [null, null, null, null, null], "rewards": [1, 3, -2, 15, 51], "path": ["0", "0", "1", "2", "3", "4", "5"], "rt": [13272, 99, 55, 399, 65], "actions": ["up", "up", "up", "right", "up"], "actionTimes": [14447, 15038, 15594, 16489, 17055], "queries": {"click": {"state": {"target": ["15", "19", "4", "8", "5", "6", "7"], "time": [1809, 3739, 5576, 7415, 9136, 10816, 12621]}, "edge": {"target": [], "time": []}}, "mouseover": {"state": {"target": ["15", "14", "19", "19", "12", "10", "3", "4", "3", "8", "2", "13", "18", "5", "6", "7"], "time": [1661, 2078, 2128, 2761, 4012, 4196, 4296, 4546, 6064, 6264, 7749, 7815, 8049, 8616, 9467, 11202]}, "edge": {"target": [], "time": []}}, "mouseout": {"state": {"target": ["0", "15", "14", "19", "19", "12", "10", "3", "4", "3", "8", "2", "13", "18", "5", "6", "7", "6", "6", "7"], "time": [526, 2061, 2111, 2545, 3979, 4029, 4229, 4513, 6031, 6181, 7715, 7765, 7849, 8066, 9417, 11135, 13904, 14037, 17857, 17940]}, "edge": {"target": [], "time": []}}}, "displayed_time": "17.56", "trialTime": 18542, "trial_type": "mouselab-mdp", "trial_index": 40, "time_elapsed": 1270463, "internal_node_id": "0.0-4.0-1.0-31.0"}}, {"uniqueid": "w57145962:a66210437", "current_trial": 41, "dateTime": 1691072235478, "trialdata": {"revealed_states": [], "clicked_states": ["8", "26", "30", "10", "32", "31", "33"], "num_clicks_accrued": [0, 0, 0, 0, 0, 0, 0, 0, 0, 0, 0, 0, 0], "stateRewards": ["", 2, 4, -6, -13, -75, -81, 30, 7, 5, 59, -65, -1, -1, 7, 14, -38, 36, -41, 1, -54, -5, 64, 2, -1, 5, 6, -19, 79, 11, 16, -33, -50, 58], "withholdReward": false, "trial_id": "mdp_trial_33", "block": "test", "trialIndex": 34, "score": 56.2, "costs": -9.8, "simulationMode": [null, null, null, null, null], "rewards": [2, 4, -6, 7, 59], "path": ["0", "0", "1", "2", "3", "8", "10"], "rt": [13756, 129, 95, 16, 129], "actions": ["up", "up", "up", "left", "down"], "actionTimes": [14805, 15433, 16016, 16521, 17168], "queries": {"click": {"state": {"target": ["8", "26", "30", "10", "32", "31", "33"], "time": [1659, 3393, 5080, 6881, 8775, 10359, 12423]}, "edge": {"target": [], "time": []}}, "mouseover": {"state": {"target": ["10", "8", "26", "26", "25", "30", "24", "28", "10", "31", "32", "31", "30", "33", "25", "28"], "time": [1408, 1591, 2275, 2492, 3760, 3826, 6646, 6679, 6762, 7563, 7830, 9264, 10832, 11116, 12950, 13051]}, "edge": {"target": [], "time": []}}, "mouseout": {"state": {"target": ["1", "10", "8", "26", "26", "25", "30", "24", "28", "10", "10", "31", "32", "31", "30", "33", "25", "28"], "time": [590, 1474, 2159, 2292, 3726, 3793, 6596, 6662, 6695, 6988, 7446, 7631, 9181, 10784, 10882, 12867, 12984, 13067]}, "edge": {"target": [], "time": []}}}, "displayed_time": "17.66", "trialTime": 18725, "trial_type": "mouselab-mdp", "trial_index": 41, "time_elapsed": 1289414, "internal_node_id": "0.0-4.0-1.0-32.0"}}, {"uniqueid": "w57145962:a66210437", "current_trial": 42, "dateTime": 1691072268341, "trialdata": {"revealed_states": [], "clicked_states": ["30", "26", "15", "27", "16", "17", "18", "28", "29"], "num_clicks_accrued": [0, 0, 0, 0, 0, 0, 0, 0, 0, 0, 0, 0, 0], "stateRewards": ["", 1, -2, -3, 14, -42, -87, -37, -11, -50, 33, -44, -2, 4, -7, 13, 48, -75, -66, 12, 23, -2, 82, 1, -4, 3, 12, 51, -15, -26, -11, -52, -29, 82], "withholdReward": false, "trial_id": "mdp_trial_34", "block": "test", "trialIndex": 35, "score": 50.4, "costs": -12.600000000000001, "simulationMode": [null, null, null, null, null], "rewards": [1, -4, 3, 12, 51], "path": ["0", "0", "23", "24", "25", "26", "27"], "rt": [16994, 77, 74, 131, 158], "actions": ["left", "left", "left", "up", "up"], "actionTimes": [18681, 19250, 19814, 20438, 21098], "queries": {"click": {"state": {"target": ["30", "26", "15", "27", "16", "17", "18", "28", "29"], "time": [2337, 4129, 5882, 7722, 9265, 11346, 13189, 14864, 16724]}, "edge": {"target": [], "time": []}}, "mouseover": {"state": {"target": ["31", "30", "25", "26", "28", "1", "18", "15", "14", "13", "12", "27", "28", "1", "18", "16", "16", "17", "15", "17", "15", "18", "1", "28", "26", "29", "26"], "time": [2056, 2256, 2690, 2757, 4642, 4675, 4725, 5142, 6293, 6527, 6579, 7111, 8395, 8662, 8712, 8912, 9162, 9729, 11097, 11281, 11681, 11731, 13666, 14000, 15317, 15434, 17288]}, "edge": {"target": [], "time": []}}, "mouseout": {"state": {"target": ["0", "31", "30", "25", "26", "28", "1", "18", "15", "14", "13", "12", "27", "28", "1", "18", "16", "16", "17", "15", "17", "15", "18", "1", "28", "26", "29", "26", "28", "23", "30"], "time": [1973, 2190, 2657, 2724, 4238, 4659, 4692, 4742, 6260, 6377, 6560, 6595, 8111, 8512, 8679, 8729, 9046, 9680, 11064, 11264, 11648, 11714, 13616, 13699, 15284, 15384, 17286, 17320, 17336, 21089, 21306]}, "edge": {"target": [], "time": []}}}, "displayed_time": "21.61", "trialTime": 32654, "trial_type": "mouselab-mdp", "trial_index": 42, "time_elapsed": 1322278, "internal_node_id": "0.0-4.0-1.0-33.0"}}, {"uniqueid": "w57145962:a66210437", "current_trial": 43, "dateTime": 1691072298439, "trialdata": {"revealed_states": [], "clicked_states": ["8", "4", "15", "6", "7", "5", "16", "17", "18", "19", "20", "21", "22"], "num_clicks_accrued": [0, 0, 0, 0, 0, 0, 0, 0, 0, 0, 0, 0, 0], "stateRewards": ["", 1, -4, -6, 11, -20, 8, -30, 1, -38, 88, 42, 2, 3, 5, -12, -8, -74, 30, -8, 67, -19, 42, 2, -1, 4, 13, 50, -68, 2, -8, -15, 87, -46], "withholdReward": false, "trial_id": "mdp_trial_35", "block": "test", "trialIndex": 36, "score": 50.8, "costs": -18.2, "simulationMode": [null, null, null, null, null], "rewards": [2, 3, 5, -8, 67], "path": ["0", "0", "12", "13", "14", "19", "20"], "rt": [24725, 116, 100, 93, 80], "actions": ["right", "right", "right", "down", "right"], "actionTimes": [26283, 26909, 27510, 28104, 28675], "queries": {"click": {"state": {"target": ["8", "4", "15", "6", "7", "5", "16", "17", "18", "19", "20", "21", "22"], "time": [2409, 4219, 6031, 7812, 9557, 11421, 13660, 15489, 17162, 19163, 21022, 22823, 24435]}, "edge": {"target": [], "time": []}}, "mouseover": {"state": {"target": ["1", "2", "3", "8", "3", "4", "18", "15", "14", "19", "13", "7", "6", "7", "4", "5", "6", "16", "17", "15", "18", "13", "19", "20", "21", "22", "19"], "time": [1788, 2021, 2088, 2255, 2989, 3489, 4657, 4874, 6392, 6475, 6946, 7076, 7343, 8177, 9945, 10045, 13248, 13449, 14432, 15783, 15883, 17584, 17668, 19653, 21504, 23339, 26274]}, "edge": {"target": [], "time": []}}, "mouseout": {"state": {"target": ["0", "1", "2", "3", "8", "3", "4", "18", "15", "14", "19", "13", "7", "4", "6", "7", "4", "5", "5", "6", "16", "17", "15", "18", "13", "19", "20", "21", "22"], "time": [1671, 1838, 2071, 2205, 2511, 3123, 4574, 4690, 6358, 6425, 6926, 6992, 7092, 7259, 8093, 9844, 9978, 11523, 13114, 13264, 13931, 15749, 15833, 17551, 17601, 19586, 21387, 23139, 26174]}, "edge": {"target": [], "time": []}}}, "displayed_time": "29.18", "trialTime": 29856, "trial_type": "mouselab-mdp", "trial_index": 43, "time_elapsed": 1352375, "internal_node_id": "0.0-4.0-1.0-34.0"}}, {"uniqueid": "w57145962:a66210437", "current_trial": 44, "dateTime": 1691072314927, "trialdata": {"revealed_states": [], "clicked_states": ["26", "30", "19", "32", "31", "33"], "num_clicks_accrued": [0, 0, 0, 0, 0, 0, 0, 0, 0, 0, 0, 0, 0], "stateRewards": ["", -1, 2, 5, -6, 13, -64, -47, 8, -79, -80, -33, 1, 2, -2, -16, 56, -71, -10, 3, 29, 44, 85, -1, 4, 5, 4, -36, -56, 19, 8, 52, -13, -2], "withholdReward": false, "trial_id": "mdp_trial_36", "block": "test", "trialIndex": 37, "score": 59.6, "costs": -8.4, "simulationMode": [null, null, null, null, null], "rewards": [-1, 4, 5, 8, 52], "path": ["0", "0", "23", "24", "25", "30", "31"], "rt": [11887, 92, 44, 63, 77], "actions": ["left", "left", "left", "down", "right"], "actionTimes": [12825, 13409, 13944, 14513, 15078], "queries": {"click": {"state": {"target": ["26", "30", "19", "32", "31", "33"], "time": [1670, 3474, 5292, 7502, 9242, 11059]}, "edge": {"target": [], "time": []}}, "mouseover": {"state": {"target": ["23", "25", "26", "25", "30", "31", "22", "19", "21", "32", "31", "30", "33"], "time": [1290, 1372, 1589, 1989, 2206, 3774, 3891, 4175, 6943, 7394, 7861, 9579, 9679]}, "edge": {"target": [], "time": []}}, "mouseout": {"state": {"target": ["19", "22", "0", "23", "25", "26", "25", "30", "31", "22", "19", "21", "32", "31", "31", "30", "33"], "time": [71, 204, 1239, 1306, 1389, 1956, 2023, 3741, 3791, 3925, 6893, 7060, 7622, 9349, 9562, 9612, 11431]}, "edge": {"target": [], "time": []}}}, "displayed_time": "15.57", "trialTime": 16254, "trial_type": "mouselab-mdp", "trial_index": 44, "time_elapsed": 1368863, "internal_node_id": "0.0-4.0-1.0-35.0"}}, {"uniqueid": "w57145962:a66210437", "current_trial": 45, "dateTime": 1691072331840, "trialdata": {"revealed_states": [], "clicked_states": ["8", "4", "15", "6", "7", "5"], "num_clicks_accrued": [0, 0, 0, 0, 0, 0, 0, 0, 0, 0, 0, 0, 0], "stateRewards": ["", 1, 1, -5, 8, -6, 45, 16, -6, -7, -22, -38, -1, -4, 8, -11, -16, 21, -45, -15, -59, -32, 42, -1, 3, 6, 11, -7, 34, -27, -8, 85, 43, -9], "withholdReward": false, "trial_id": "mdp_trial_37", "block": "test", "trialIndex": 38, "score": 41.6, "costs": -8.4, "simulationMode": [null, null, null, null, null], "rewards": [1, 1, -5, 8, 45], "path": ["0", "0", "1", "2", "3", "4", "6"], "rt": [11901, 58, 38, 19, 81], "actions": ["up", "up", "up", "right", "right"], "actionTimes": [13037, 13599, 14129, 14660, 15239], "queries": {"click": {"state": {"target": ["8", "4", "15", "6", "7", "5"], "time": [1852, 4139, 5845, 7653, 9415, 11063]}, "edge": {"target": [], "time": []}}, "mouseover": {"state": {"target": ["8", "3", "4", "4", "18", "14", "15", "14", "18", "6", "7", "4", "5", "16"], "time": [1763, 3481, 3581, 4132, 4482, 4532, 4966, 6283, 6650, 7017, 8185, 9853, 9986, 11721]}, "edge": {"target": [], "time": []}}, "mouseout": {"state": {"target": ["23", "0", "8", "3", "4", "4", "18", "14", "15", "14", "18", "6", "7", "4", "5", "5", "6"], "time": [678, 1413, 2697, 3548, 3631, 4415, 4499, 4599, 6250, 6600, 6700, 8068, 9803, 9886, 11157, 11588, 11655]}, "edge": {"target": [], "time": []}}}, "displayed_time": "15.74", "trialTime": 16695, "trial_type": "mouselab-mdp", "trial_index": 45, "time_elapsed": 1385777, "internal_node_id": "0.0-4.0-1.0-36.0"}}, {"uniqueid": "w57145962:a66210437", "current_trial": 46, "dateTime": 1691072352908, "trialdata": {"revealed_states": [], "clicked_states": ["15", "19", "4", "20", "21", "22", "7", "6", "5"], "num_clicks_accrued": [0, 0, 0, 0, 0, 0, 0, 0, 0, 0, 0, 0, 0], "stateRewards": ["", 1, -1, 1, 13, 31, -56, 72, 2, 41, 5, 63, -2, -3, -2, 3, -71, -26, 52, 13, -31, 24, -67, 2, -2, 5, 4, 66, 43, 72, 9, 86, -26, 44], "withholdReward": false, "trial_id": "mdp_trial_38", "block": "test", "trialIndex": 39, "score": 73.4, "costs": -12.600000000000001, "simulationMode": [null, null, null, null, null], "rewards": [1, -1, 1, 13, 72], "path": ["0", "0", "1", "2", "3", "4", "7"], "rt": [16218, 69, 40, 53, 36], "actions": ["up", "up", "up", "right", "down"], "actionTimes": [17408, 17972, 18510, 19074, 19607], "queries": {"click": {"state": {"target": ["15", "19", "4", "20", "21", "22", "7", "6", "5"], "time": [1856, 3659, 5469, 7326, 8890, 10553, 12286, 13914, 15629]}, "edge": {"target": [], "time": []}}, "mouseover": {"state": {"target": ["12", "15", "15", "14", "19", "12", "1", "2", "3", "4", "18", "14", "20", "21", "22", "7", "7", "6", "5"], "time": [1438, 1505, 1739, 2222, 2289, 4307, 4358, 4441, 4491, 4541, 6176, 6209, 6526, 7860, 9312, 11080, 11330, 12798, 14382]}, "edge": {"target": [], "time": []}}, "mouseout": {"state": {"target": ["16", "12", "15", "15", "14", "19", "12", "1", "2", "3", "4", "18", "14", "20", "21", "22", "7", "7", "6", "5"], "time": [587, 1455, 1538, 2189, 2256, 4258, 4341, 4407, 4457, 4507, 6126, 6192, 6226, 7794, 9228, 10930, 11163, 12731, 14265, 16050]}, "edge": {"target": [], "time": []}}}, "displayed_time": "20.12", "trialTime": 20857, "trial_type": "mouselab-mdp", "trial_index": 46, "time_elapsed": 1406845, "internal_node_id": "0.0-4.0-1.0-37.0"}}, {"uniqueid": "w57145962:a66210437", "current_trial": 47, "dateTime": 1691072376667, "trialdata": {"revealed_states": [], "clicked_states": ["30", "26", "19", "15", "28", "17", "16", "18"], "num_clicks_accrued": [0, 0, 0, 0, 0, 0, 0, 0, 0, 0, 0, 0, 0], "stateRewards": ["", 1, -3, -2, 14, 49, -40, -39, 2, 26, -61, 73, 1, -4, -8, 12, 79, 29, -65, -13, 55, -26, 27, -1, 3, 3, 9, -17, -60, -18, -8, 35, -88, 69], "withholdReward": false, "trial_id": "mdp_trial_39", "block": "test", "trialIndex": 40, "score": 68.8, "costs": -11.200000000000001, "simulationMode": [null, null, null, null, null, null], "rewards": [1, -4, -8, 12, 79], "path": ["0", "0", "12", "13", "14", "15", "16"], "rt": [13781, 436, 127, 123, 72, 131], "actions": ["right", "right", "right", "right", "up", "up"], "actionTimes": [15571, 16008, 16623, 17236, 17819, 18445], "queries": {"click": {"state": {"target": ["30", "26", "19", "15", "28", "17", "16", "18"], "time": [2543, 4313, 6163, 7838, 9612, 11123, 12684, 14366]}, "edge": {"target": [], "time": []}}, "mouseover": {"state": {"target": ["23", "24", "25", "30", "25", "26", "12", "19", "14", "15", "18", "1", "28", "28", "1", "18", "17", "16", "18", "1"], "time": [2166, 2200, 2233, 2433, 2934, 3017, 4685, 5035, 6537, 6637, 8221, 8288, 8355, 8788, 10106, 10156, 10273, 11791, 13059, 14760]}, "edge": {"target": [], "time": []}}, "mouseout": {"state": {"target": ["0", "0", "23", "24", "25", "30", "25", "26", "12", "19", "14", "15", "18", "1", "28", "26", "26", "28", "1", "18", "15", "17", "16", "18", "1", "28", "0", "13", "22"], "time": [1015, 2150, 2183, 2216, 2400, 2900, 2984, 4585, 4702, 6486, 6587, 8205, 8255, 8305, 8371, 8421, 8638, 10057, 10123, 10173, 10223, 11641, 12992, 14694, 14777, 20098, 21549, 22216, 22333]}, "edge": {"target": [], "time": []}}}, "displayed_time": "18.95", "trialTime": 23525, "trial_type": "mouselab-mdp", "trial_index": 47, "time_elapsed": 1430603, "internal_node_id": "0.0-4.0-1.0-38.0"}}, {"uniqueid": "w57145962:a66210437", "current_trial": 48, "dateTime": 1691072409289, "trialdata": {"revealed_states": [], "clicked_states": ["19", "15", "4", "8", "21", "20", "22", "7", "6", "5", "30", "32", "31", "33", "26"], "num_clicks_accrued": [0, 0, 0, 0, 0, 0, 0, 0, 0, 0, 0, 0, 0], "stateRewards": ["", -2, 4, 3, 5, -61, 4, 30, 1, -47, 83, 10, 1, 4, 7, -14, 19, -74, -83, 6, -2, -2, -65, -1, -2, 4, -11, 12, -1, -68, 11, -38, -28, 66], "withholdReward": false, "trial_id": "mdp_trial_40", "block": "test", "trialIndex": 41, "score": 57, "costs": -20.999999999999996, "simulationMode": [null, null, null, null, null, null], "rewards": [-1, -2, 4, 11, 66], "path": ["0", "0", "23", "24", "25", "30", "33"], "rt": [26709, 543, 110, 57, 53, 60], "actions": ["left", "left", "left", "left", "down", "left"], "actionTimes": [27744, 28289, 28887, 29435, 29997, 30555], "queries": {"click": {"state": {"target": ["19", "15", "4", "8", "21", "20", "22", "7", "6", "5", "30", "32", "31", "33", "26"], "time": [1607, 3551, 5310, 7246, 9760, 11376, 12939, 14730, 16694, 18529, 20335, 21877, 23568, 25125, 26680]}, "edge": {"target": [], "time": []}}, "mouseover": {"state": {"target": ["12", "13", "14", "19", "14", "15", "18", "2", "2", "4", "3", "8", "8", "8", "2", "13", "19", "21", "22", "21", "21", "20", "19", "22", "1", "2", "7", "6", "5", "3", "10", "24", "30", "32", "31", "33", "26"], "time": [1287, 1320, 1353, 1537, 2204, 2312, 3972, 4039, 4139, 4406, 5640, 5710, 6057, 7191, 8209, 8276, 8326, 8459, 8542, 8876, 9543, 10527, 11812, 11895, 13663, 13730, 13847, 15231, 17066, 18868, 18918, 19018, 19251, 21136, 22321, 24289, 26057]}, "edge": {"target": [], "time": []}}, "mouseout": {"state": {"target": ["22", "0", "12", "13", "14", "19", "19", "14", "15", "18", "2", "2", "4", "3", "8", "8", "8", "2", "13", "19", "21", "22", "21", "21", "20", "19", "22", "1", "2", "7", "6", "5", "3", "10", "24", "30", "32", "31", "30", "33", "26", "26", "31"], "time": [585, 852, 1303, 1336, 1487, 1621, 2137, 2310, 3955, 3990, 4072, 4172, 5623, 5674, 5807, 6958, 8175, 8225, 8292, 8343, 8492, 8559, 8909, 10044, 11795, 11845, 13513, 13697, 13780, 15031, 16919, 18837, 18884, 18951, 19084, 20886, 22271, 23888, 24089, 25973, 26800, 27358, 31745]}, "edge": {"target": [], "time": []}}}, "displayed_time": "31.05", "trialTime": 32399, "trial_type": "mouselab-mdp", "trial_index": 48, "time_elapsed": 1463226, "internal_node_id": "0.0-4.0-1.0-39.0"}}, {"uniqueid": "w57145962:a66210437", "current_trial": 49, "dateTime": 1691072448576, "trialdata": {"rt": 39283, "response": {"Q0": "$-2 to $2", "Q1": "$-16 to $16", "Q2": "$-88 to $88", "Q3": "The cost was always $1.4.", "Q4": "Slightly motivated"}, "question_order": [0, 1, 2, 3, 4], "trial_id": "final_quiz_control", "trial_type": "survey-multi-choice", "trial_index": 49, "time_elapsed": 1502513, "internal_node_id": "0.0-4.0-2.0"}}, {"uniqueid": "w57145962:a66210437", "current_trial": 50, "dateTime": 1691072670911, "trialdata": {"rt": 222329, "response": {"Q0": "After randomly clicking some nodes and moving wihtout clicking in the initial round i found that it was easy to end up negative when going randomly while the outer most nodes had the highest rewards. so i later rounds i decided to use the inspector to find high reward nodes on the outside and go for one that was of sufficient size to give a good result (50+ on the outer node).", "Q1": "Yes noticing that the highest impact came from the outer node i quickly determined it's importance over other considerations.", "Q2": "Not very difficult once noticing the patterns everything remained pretty consistent and predictable throughout."}, "trial_id": "self_report_control", "trial_type": "survey-text", "trial_index": 50, "time_elapsed": 1724848, "internal_node_id": "0.0-4.0-3.0"}}, {"uniqueid": "w57145962:a66210437", "current_trial": 51, "dateTime": 1691072705424, "trialdata": {"rt": 34509, "response": {"gender": "male", "age": "32", "colorblind": "0", "effort": "1"}, "trial_type": "survey-html-form", "trial_index": 51, "time_elapsed": 1759361, "internal_node_id": "0.0-4.0-4.0"}}, {"uniqueid": "w57145962:a66210437", "current_trial": 52, "dateTime": 1691072754756, "trialdata": {"rt": 49328, "response": {"Q0": "No i am used to learning and palying games and this one was pretty easy to grasp.", "Q1": "No i had never played or seen this game before.", "Q2": "no"}, "trial_type": "survey-text", "trial_index": 52, "time_elapsed": 1808693, "internal_node_id": "0.0-4.0-5.0"}}, {"uniqueid": "w57145962:a66210437", "current_trial": 53, "dateTime": 1691072760492, "trialdata": {"rt": 5733, "stimulus": "Press 'Finish HIT' in order to reach the completion code. Once the data has been saved, you will receive the code either in this window or in the original browser window where you started the experiment.\n", "response": 0, "trial_type": "html-button-response", "trial_index": 53, "time_elapsed": 1814429, "internal_node_id": "0.0-5.0"}}, {"uniqueid": "w57145962:a66210437", "current_trial": 54, "dateTime": 1691072761495, "trialdata": {"success": true, "trial_type": "fullscreen", "trial_index": 54, "time_elapsed": 1815432, "internal_node_id": "0.0-6.0"}}], "questiondata": {"params": {"CODE": "C6DMOQA6", "MIN_TIME": 14, "inspectCost": 1, "startTime": "Thu Aug 03 2023 15:55:45 GMT+0200 (Midden-Europese zomertijd)", "bonusRate": 0.002, "variance": "1_2_4_8_44", "branching": "31123"}, "final_score": 2233.8}, "eventdata": [{"eventtype": "initialized", "value": null, "timestamp": 1691070945013, "interval": 0}, {"eventtype": "window_resize", "value": [1024, 767], "timestamp": 1691070945013, "interval": 0}, {"eventtype": "window_resize", "value": [1024, 767], "timestamp": 1691070945340, "interval": 327}, {"eventtype": "window_resize", "value": [1920, 1140], "timestamp": 1691070948549, "interval": 3209}, {"eventtype": "focus", "value": "off", "timestamp": 1691070951813, "interval": 3264}, {"eventtype": "focus", "value": "on", "timestamp": 1691071061234, "interval": 109421}, {"eventtype": "window_resize", "value": [1920, 1200], "timestamp": 1691071061555, "interval": 321}, {"eventtype": "focus", "value": "off", "timestamp": 1691071654855, "interval": 593300}, {"eventtype": "window_resize", "value": [1920, 1199], "timestamp": 1691071657495, "interval": 2640}, {"eventtype": "focus", "value": "on", "timestamp": 1691071662254, "interval": 4759}, {"eventtype": "window_resize", "value": [1920, 1200], "timestamp": 1691071662468, "interval": 214}, {"eventtype": "focus", "value": "off", "timestamp": 1691072156814, "interval": 494346}, {"eventtype": "focus", "value": "on", "timestamp": 1691072172677, "interval": 15863}, {"eventtype": "focus", "value": "off", "timestamp": 1691072260937, "interval": 88260}, {"eventtype": "focus", "value": "on", "timestamp": 1691072266674, "interval": 5737}, {"eventtype": "window_resize", "value": [1920, 1140], "timestamp": 1691072760708, "interval": 494034}], "useragent": "Mozilla/5.0 (Windows NT 10.0; Win64; x64) AppleWebKit/537.36 (KHTML, like Gecko) Chrome/115.0.0.0 Safari/537.36", "mode": "live", "id": "w57145962:a66210437", "status": "user data saved", "Beginhit": "2023-08-03 13:55:40.524497", "Beginexp": "2023-08-03 13:57:39.270555", "Endhit": "2023-08-03 14:25:58.888129", "psiturkStatus": 3, "browser": "<redacted>", "platform": "windows", "language": "nl-NL"}