{"condition": 1, "counterbalance": 0, "assignmentId": "a52109074", "workerId": "w51453763", "hitId": "h44739771", "currenttrial": 56, "bonus": 0, "data": [{"uniqueid": "w51453763:a52109074", "current_trial": 0, "dateTime": 1691070679679, "trialdata": {"success": true, "trial_type": "fullscreen", "trial_index": 0, "time_elapsed": 3812, "internal_node_id": "0.0-0.0"}}, {"uniqueid": "w51453763:a52109074", "current_trial": 1, "dateTime": 1691070692154, "trialdata": {"view_history": [{"page_index": 0, "viewing_time": 12469}], "rt": 12470, "trial_id": "exp_instructions_misaligned", "trial_type": "instructions", "trial_index": 1, "time_elapsed": 16288, "internal_node_id": "0.0-1.0"}}, {"uniqueid": "w51453763:a52109074", "current_trial": 2, "dateTime": 1691070697407, "trialdata": {"success": true, "trial_type": "fullscreen", "trial_index": 2, "time_elapsed": 21541, "internal_node_id": "0.0-2.0-0.0"}}, {"uniqueid": "w51453763:a52109074", "current_trial": 3, "dateTime": 1691071043942, "trialdata": {"view_history": [{"page_index": 0, "viewing_time": 85792}, {"page_index": 1, "viewing_time": 158381}, {"page_index": 2, "viewing_time": 24365}, {"page_index": 3, "viewing_time": 77993}], "rt": 346532, "trial_id": "mouselab_instructions_1_misaligned", "trial_type": "instructions", "trial_index": 3, "time_elapsed": 368075, "internal_node_id": "0.0-2.0-1.0"}}, {"uniqueid": "w51453763:a52109074", "current_trial": 4, "dateTime": 1691071158625, "trialdata": {"revealed_states": [], "clicked_states": ["23", "24", "1", "12", "13", "18", "15", "17", "16", "19", "25", "26", "3", "8", "10", "9", "4", "5", "27", "32", "30", "33", "29", "2", "6", "11", "14", "21", "22", "20"], "num_clicks_accrued": [0, 0, 0, 0, 0, 0, 0, 0, 0, 0, 0, 0, 0], "stateRewards": ["", 10, -10, 10, 10, -10, 10, -10, 10, 10, 10, 10, 10, 10, -10, 10, 10, 10, -10, 10, 10, 10, 10, 10, 10, -10, -10, 10, 10, -10, -10, -10, -10, -10], "withholdReward": false, "trial_id": "practice_1", "block": "test", "trialIndex": 0, "score": 18.5, "costs": -15, "simulationMode": [null, null, null, null, null], "rewards": [10, 10, -10, 10, 10], "path": ["0", "0", "12", "13", "14", "19", "22"], "rt": [60851, 303, 294, 87, 648], "actions": ["right", "right", "right", "down", "left"], "actionTimes": [63670, 64508, 65316, 65892, 67036], "queries": {"click": {"state": {"target": ["23", "24", "1", "12", "13", "18", "15", "17", "16", "19", "25", "26", "3", "8", "10", "9", "4", "5", "27", "32", "30", "33", "29", "2", "6", "11", "14", "21", "22", "20"], "time": [4011, 5513, 6778, 8010, 9151, 10226, 11298, 13439, 15599, 17163, 19751, 21330, 22585, 23860, 25078, 26333, 29985, 31267, 35435, 37243, 38299, 40021, 41223, 43404, 44422, 45555, 50648, 52091, 53145, 54601]}, "edge": {"target": [], "time": []}}, "mouseover": {"state": {"target": ["23", "24", "1", "12", "13", "18", "15", "14", "17", "16", "14", "16", "15", "14", "19", "22", "21", "22", "22", "12", "23", "24", "25", "30", "26", "10", "3", "8", "10", "9", "4", "3", "7", "1", "2", "3", "3", "4", "5", "3", "2", "28", "26", "25", "26", "27", "26", "25", "30", "32", "30", "33", "33", "29", "28", "10", "2", "2", "4", "6", "4", "11", "8", "4", "3", "7", "15", "14", "14", "19", "21", "22", "19", "20", "14"], "time": [3487, 4572, 6089, 7404, 8537, 9524, 10854, 11921, 13104, 13854, 14954, 15137, 15972, 16038, 16422, 17505, 18088, 18437, 18820, 18921, 19154, 19220, 19387, 20338, 21120, 21805, 22388, 22971, 24154, 25404, 27370, 28154, 28371, 29254, 29304, 29404, 29687, 29753, 30304, 32275, 32404, 33238, 33271, 33704, 34920, 35187, 36321, 36420, 36471, 36920, 37487, 38838, 39804, 40637, 41887, 42170, 42470, 43170, 43854, 44221, 44772, 45271, 46154, 47037, 47904, 48170, 49345, 49420, 50153, 50937, 50987, 52470, 53471, 53854, 61820]}, "edge": {"target": [], "time": []}}, "mouseout": {"state": {"target": ["0", "0", "23", "23", "24", "1", "12", "13", "18", "15", "14", "17", "16", "15", "15", "14", "15", "16", "15", "14", "19", "22", "21", "22", "22", "12", "23", "24", "25", "30", "25", "26", "10", "3", "8", "10", "8", "9", "4", "10", "10", "3", "7", "1", "2", "3", "3", "4", "5", "3", "2", "28", "26", "25", "26", "27", "26", "25", "30", "32", "30", "33", "33", "29", "28", "10", "2", "2", "4", "6", "4", "11", "8", "4", "3", "7", "15", "14", "14", "19", "21", "22", "19", "20", "14"], "time": [null, 970, 1020, 4038, 5772, 7221, 8354, 9405, 10704, 11771, 12721, 13637, 14521, 14704, 14921, 15087, 15121, 15921, 16005, 16138, 17405, 17972, 18404, 18537, 18887, 18987, 19187, 19287, 19988, 20837, 20887, 21739, 22138, 22751, 24054, 25190, 25340, 26788, 27787, 27921, 28104, 28287, 28388, 29270, 29371, 29470, 29704, 30110, 32121, 32304, 32454, 33254, 33337, 34771, 34970, 36204, 36354, 36454, 36620, 37387, 38672, 39421, 40404, 41316, 42121, 42370, 42570, 43672, 44121, 44531, 44788, 46104, 46175, 47121, 47987, 48787, 49387, 49604, 50887, 50954, 52193, 53455, 53521, 55204, 62337]}, "edge": {"target": [], "time": []}}}, "displayed_time": "67.54", "trialTime": 113686, "trial_type": "mouselab-mdp", "trial_index": 4, "time_elapsed": 482758, "internal_node_id": "0.0-2.0-2.0-0.0"}}, {"uniqueid": "w51453763:a52109074", "current_trial": 5, "dateTime": 1691071212320, "trialdata": {"revealed_states": [], "clicked_states": ["23", "12", "24", "25", "26", "27", "1", "2", "3", "4", "8", "13", "14", "15", "19", "21", "30", "32", "33"], "num_clicks_accrued": [0, 0, 0, 0, 0, 0, 0, 0, 0, 0, 0, 0, 0], "stateRewards": ["", -10, 10, -10, -10, -10, 10, 10, -10, -10, -10, 10, -10, -10, 10, -10, 10, 10, 10, 10, 10, -10, 10, 10, -10, -10, 10, -10, 10, -10, 10, 10, -10, 10], "withholdReward": false, "trial_id": "practice_2", "block": "test", "trialIndex": 1, "score": 4, "costs": -9.5, "simulationMode": [null, null, null, null, null], "rewards": [10, -10, -10, 10, 10], "path": ["0", "0", "23", "24", "25", "30", "33"], "rt": [40603, 612, 712, 599, 148], "actions": ["left", "left", "left", "down", "left"], "actionTimes": [42927, 44037, 45269, 46357, 47005], "queries": {"click": {"state": {"target": ["23", "12", "24", "25", "26", "27", "1", "2", "3", "4", "8", "13", "14", "15", "19", "21", "30", "32", "33"], "time": [3111, 5000, 7456, 9000, 11431, 12917, 15294, 16513, 18085, 20173, 22362, 24781, 26384, 28775, 31316, 32819, 36108, 37655, 40206]}, "edge": {"target": [], "time": []}}, "mouseover": {"state": {"target": ["23", "24", "25", "24", "12", "13", "24", "25", "1", "28", "28", "1", "28", "26", "27", "1", "1", "2", "3", "4", "6", "8", "2", "13", "14", "15", "18", "19", "21", "22", "12", "24", "30", "32", "33", "30", "31"], "time": [2839, 3307, 3823, 4173, 4673, 5723, 6923, 7840, 9991, 10356, 10589, 10656, 10823, 11106, 11940, 14589, 14972, 15756, 16956, 19822, 20772, 22156, 23889, 24355, 25290, 26723, 29356, 31173, 32057, 34356, 34956, 35339, 35805, 36722, 39955, 40457, 40791]}, "edge": {"target": [], "time": []}}, "mouseout": {"state": {"target": ["3", "29", "12", "13", "0", "23", "23", "24", "25", "24", "12", "13", "23", "24", "25", "1", "28", "28", "1", "28", "26", "27", "1", "1", "2", "3", "4", "6", "8", "2", "13", "14", "15", "18", "19", "19", "21", "22", "12", "24", "30", "30", "32", "30", "33", "30", "31"], "time": [622, 856, 1073, 1205, 2506, 3194, 3273, 3806, 4140, 4206, 5507, 6589, 6673, 7757, 9524, 10323, 10373, 10606, 10773, 10856, 11757, 13457, 14706, 15556, 16581, 19539, 20589, 21723, 23823, 23906, 24871, 26556, 29139, 30756, 31723, 31957, 33106, 34556, 35023, 35523, 36188, 36589, 38023, 38256, 40440, 40506, 48056]}, "edge": {"target": [], "time": []}}}, "displayed_time": "47.51", "trialTime": 53335, "trial_type": "mouselab-mdp", "trial_index": 5, "time_elapsed": 536454, "internal_node_id": "0.0-2.0-2.0-1.0"}}, {"uniqueid": "w51453763:a52109074", "current_trial": 6, "dateTime": 1691071262089, "trialdata": {"view_history": [{"page_index": 0, "viewing_time": 37689}, {"page_index": 1, "viewing_time": 12077}], "rt": 49767, "trial_id": "mouselab_instructions_2_misaligned", "trial_type": "instructions", "trial_index": 6, "time_elapsed": 586223, "internal_node_id": "0.0-2.0-3.0"}}, {"uniqueid": "w51453763:a52109074", "current_trial": 7, "dateTime": 1691071326420, "trialdata": {"rt": 64325, "response": {"Q0": "The cost for clicking on nodes may vary between nodes.", "Q1": "The better I perform the higher my bonus will be.", "Q2": "No, the amount of cash at each node of the web may be different each time.", "Q3": "To get the highest total score.", "Q4": "Only before moving the spider.", "Q5": "3 seconds"}, "question_order": [0, 1, 2, 3, 4, 5], "correct": {"Q0": "The cost for clicking on nodes may vary between nodes.", "Q1": "The better I perform the higher my bonus will be.", "Q2": "No, the amount of cash at each node of the web may be different each time.", "Q3": "To get the highest total score.", "Q4": "Only before moving the spider.", "Q5": "3 seconds"}, "trial_id": "mouselab_quiz_misaligned", "trial_type": "survey-multi-choice", "trial_index": 7, "time_elapsed": 650554, "internal_node_id": "0.0-2.0-4.0"}}, {"uniqueid": "w51453763:a52109074", "current_trial": 8, "dateTime": 1691071341199, "trialdata": {"rt": 14772, "stimulus": "\n<h1> Get ready to start the game! </h1>\n\nThank you for reading the instructions. Get ready start with the 40 rounds of this game.\n<br><br>\nIf you need to take a break, feel free to take one after the end of a round, before continuing to the next one.\n<br><br>\nRemember, the more money the spider gets, the bigger your bonus will be!\n<br><br>\n<div style='text-align: center;'>Press <code>space</code> to begin.</div>\n\n<br><br>\n(If, at any point, the <code>space</code> key does not take you to the next page, click once on the text and try again.)", "response": " ", "trial_id": "mdp_ready", "trial_type": "html-keyboard-response", "trial_index": 8, "time_elapsed": 665333, "internal_node_id": "0.0-4.0-0.0"}}, {"uniqueid": "w51453763:a52109074", "current_trial": 9, "dateTime": 1691071376406, "trialdata": {"revealed_states": [], "clicked_states": ["23", "24", "25", "26", "27", "30", "32"], "num_clicks_accrued": [0, 0, 0, 0, 0, 0, 0, 0, 0, 0, 0, 0, 0], "stateRewards": ["", -2, 4, -3, -13, 63, -36, 62, 11, 78, 34, -51, 2, -2, 8, -6, -40, -18, 31, 9, 64, 39, 79, 1, 4, -4, 15, -12, 76, 73, -10, -77, 86, -4], "withholdReward": false, "trial_id": "mdp_trial_1", "block": "test", "trialIndex": 2, "score": 68.55, "costs": -8.45, "simulationMode": [null, null, null, null, null], "rewards": [1, 4, -4, -10, 86], "path": ["0", "0", "23", "24", "25", "30", "32"], "rt": [23002, 496, 329, 271, 257], "actions": ["left", "left", "left", "down", "down"], "actionTimes": [26182, 27180, 28012, 28772, 29524], "queries": {"click": {"state": {"target": ["23", "24", "25", "26", "27", "30", "32"], "time": [4374, 6957, 9008, 10811, 12344, 17093, 19851]}, "edge": {"target": [], "time": []}}, "mouseover": {"state": {"target": ["23", "24", "25", "26", "27", "26", "25", "30", "32", "30", "32", "31", "24", "23", "23", "24", "24", "30"], "time": [4132, 5682, 8514, 10065, 11899, 13983, 14199, 14366, 15198, 15465, 18066, 20449, 20832, 21432, 22099, 22448, 22999, 23949]}, "edge": {"target": [], "time": []}}, "mouseout": {"state": {"target": ["10", "0", "23", "24", "25", "26", "27", "26", "25", "30", "32", "30", "32", "31", "24", "23", "23", "24", "24", "30"], "time": [548, 2398, 5316, 8316, 9799, 11516, 13600, 13999, 14282, 14802, 15388, 17882, 20232, 20515, 21332, 21482, 22249, 22549, 23415, 25049]}, "edge": {"target": [], "time": []}}}, "displayed_time": "30.02", "trialTime": 34932, "trial_type": "mouselab-mdp", "trial_index": 9, "time_elapsed": 700540, "internal_node_id": "0.0-4.0-1.0-0.0"}}, {"uniqueid": "w51453763:a52109074", "current_trial": 10, "dateTime": 1691071403024, "trialdata": {"revealed_states": [], "clicked_states": ["23", "24", "25", "30", "32"], "num_clicks_accrued": [0, 0, 0, 0, 0, 0, 0, 0, 0, 0, 0, 0, 0], "stateRewards": ["", 1, -2, -8, -13, 4, 34, -84, -4, -49, 88, -70, -1, 3, -4, 10, -77, 13, -34, 15, -21, -16, 27, 1, -2, 8, -8, -6, 38, -26, 6, -15, 66, -3], "withholdReward": false, "trial_id": "mdp_trial_2", "block": "test", "trialIndex": 3, "score": 74.25, "costs": -4.75, "simulationMode": [null, null, null, null, null], "rewards": [1, -2, 8, 6, 66], "path": ["0", "0", "23", "24", "25", "30", "32"], "rt": [11367, 178, 144, 5, 49], "actions": ["left", "left", "left", "down", "down"], "actionTimes": [13549, 14227, 14875, 15371, 15931], "queries": {"click": {"state": {"target": ["23", "24", "25", "30", "32"], "time": [3133, 4583, 6367, 7522, 9477]}, "edge": {"target": [], "time": []}}, "mouseover": {"state": {"target": ["23", "24", "25", "30", "32", "33"], "time": [2796, 3763, 5830, 7014, 8464, 12097]}, "edge": {"target": [], "time": []}}, "mouseout": {"state": {"target": ["0", "23", "23", "24", "25", "30", "32", "32", "33", "30", "25", "24", "31"], "time": [2319, 3223, 3580, 5580, 6763, 7897, 10831, 11681, 12980, 16730, 19846, 21347, 21513]}, "edge": {"target": [], "time": []}}}, "displayed_time": "16.46", "trialTime": 26364, "trial_type": "mouselab-mdp", "trial_index": 10, "time_elapsed": 727157, "internal_node_id": "0.0-4.0-1.0-1.0"}}, {"uniqueid": "w51453763:a52109074", "current_trial": 11, "dateTime": 1691071475910, "trialdata": {"revealed_states": [], "clicked_states": ["32", "33", "31", "29", "27", "28", "9", "5", "10", "11", "6", "16", "18", "17", "20", "22", "21"], "num_clicks_accrued": [0, 0, 0, 0, 0, 0, 0, 0, 0, 0, 0, 0, 0], "stateRewards": ["", 2, 3, 8, 14, 69, -27, 17, 2, -71, -65, -10, 2, -3, 7, 8, 65, -10, 65, -12, 73, -12, 13, -2, -2, 6, 10, -79, -69, -18, 10, -85, 67, 74], "withholdReward": false, "trial_id": "mdp_trial_3", "block": "test", "trialIndex": 4, "score": 49.45000000000001, "costs": -36.54999999999999, "simulationMode": [null, null, null, null, null], "rewards": [-2, -2, 6, 10, 74], "path": ["0", "0", "23", "24", "25", "30", "33"], "rt": [61866, 267, 11, 760, 342], "actions": ["left", "left", "left", "down", "left"], "actionTimes": [63723, 64498, 65026, 66290, 67123], "queries": {"click": {"state": {"target": ["32", "33", "31", "29", "27", "28", "9", "5", "10", "11", "6", "16", "18", "17", "20", "22", "21"], "time": [2713, 6054, 9787, 13017, 16281, 19462, 23423, 26636, 30402, 33565, 36760, 39964, 44178, 48174, 51574, 56568, 59840]}, "edge": {"target": [], "time": []}}, "mouseover": {"state": {"target": ["23", "31", "30", "32", "33", "30", "31", "26", "29", "27", "28", "10", "3", "9", "5", "5", "5", "11", "8", "5", "3", "10", "2", "8", "11", "8", "3", "4", "6", "7", "1", "18", "15", "16", "18", "15", "17", "14", "14", "20", "19", "22", "21", "31"], "time": [1946, 2029, 2129, 2346, 3447, 6880, 7180, 10480, 10747, 13529, 16929, 19997, 20830, 21397, 23880, 23997, 24280, 24663, 24930, 25214, 26996, 27379, 30813, 31096, 31763, 33813, 33846, 33879, 34047, 37114, 37663, 37897, 38147, 38213, 40346, 44496, 44663, 48663, 48847, 49297, 51797, 52230, 56896, 60613]}, "edge": {"target": [], "time": []}}, "mouseout": {"state": {"target": ["0", "23", "31", "30", "32", "33", "30", "31", "26", "29", "27", "27", "28", "10", "3", "9", "5", "5", "5", "11", "8", "5", "5", "3", "10", "2", "8", "11", "8", "3", "4", "6", "6", "7", "1", "18", "15", "16", "18", "15", "17", "14", "14", "20", "19", "22", "21", "22", "31"], "time": [1930, 1963, 2063, 2179, 3030, 6297, 7097, 10230, 10613, 13279, 16391, 16513, 19713, 20263, 20864, 23781, 23947, 24013, 24597, 24897, 25081, 26726, 26896, 27096, 30679, 31046, 31363, 33796, 33829, 33863, 33996, 36859, 37047, 37230, 37713, 37980, 38163, 40212, 44447, 44580, 48480, 48697, 49080, 51764, 51963, 56834, 60097, 60264, 60930]}, "edge": {"target": [], "time": []}}}, "displayed_time": "67.61", "trialTime": 72634, "trial_type": "mouselab-mdp", "trial_index": 11, "time_elapsed": 800044, "internal_node_id": "0.0-4.0-1.0-2.0"}}, {"uniqueid": "w51453763:a52109074", "current_trial": 12, "dateTime": 1691071495239, "trialdata": {"revealed_states": [], "clicked_states": ["32", "33", "31"], "num_clicks_accrued": [0, 0, 0, 0, 0, 0, 0, 0, 0, 0, 0, 0, 0], "stateRewards": ["", 1, -3, -4, -11, -56, 61, -47, -16, -28, -9, 69, -2, -3, -4, -8, 40, -86, 59, -4, 80, 27, 54, -1, 3, -1, 8, 67, 23, 50, 6, 83, -43, -29], "withholdReward": false, "trial_id": "mdp_trial_4", "block": "test", "trialIndex": 5, "score": 83.55, "costs": -6.449999999999999, "simulationMode": [null, null, null, null, null], "rewards": [-1, 3, -1, 6, 83], "path": ["0", "0", "23", "24", "25", "30", "31"], "rt": [12560, 178, 135, 86, 143], "actions": ["left", "left", "left", "down", "right"], "actionTimes": [14055, 14751, 15375, 15959, 16599], "queries": {"click": {"state": {"target": ["32", "33", "31"], "time": [3563, 6931, 10294]}, "edge": {"target": [], "time": []}}, "mouseover": {"state": {"target": ["0", "31", "32", "33", "30", "31", "29"], "time": [2555, 2621, 3137, 3971, 7472, 7705, 11021]}, "edge": {"target": [], "time": []}}, "mouseout": {"state": {"target": ["0", "0", "31", "32", "33", "30", "31", "29", "25", "24"], "time": [1137, 2572, 2738, 3696, 7405, 7589, 10554, 17705, 17771, 17838]}, "edge": {"target": [], "time": []}}}, "displayed_time": "17.09", "trialTime": 19072, "trial_type": "mouselab-mdp", "trial_index": 12, "time_elapsed": 819373, "internal_node_id": "0.0-4.0-1.0-3.0"}}, {"uniqueid": "w51453763:a52109074", "current_trial": 13, "dateTime": 1691071522056, "trialdata": {"revealed_states": [], "clicked_states": ["32", "31", "33"], "num_clicks_accrued": [0, 0, 0, 0, 0, 0, 0, 0, 0, 0, 0, 0, 0], "stateRewards": ["", 2, 3, 3, 10, 19, -21, 6, 9, 54, 68, 16, 2, 2, -6, -8, 40, -2, -75, -2, -42, 55, 59, -1, 2, 4, -14, 11, -34, -30, -6, 61, -53, 13], "withholdReward": false, "trial_id": "mdp_trial_5", "block": "test", "trialIndex": 6, "score": 53.55, "costs": -6.449999999999999, "simulationMode": [null, null, null, null, null], "rewards": [-1, 2, 4, -6, 61], "path": ["0", "0", "23", "24", "25", "30", "31"], "rt": [11480, 70, 15, 2, 52], "actions": ["left", "left", "left", "down", "right"], "actionTimes": [20066, 20633, 21161, 21681, 22265], "queries": {"click": {"state": {"target": ["32", "31", "33"], "time": [9460, 12797, 16230]}, "edge": {"target": [], "time": []}}, "mouseover": {"state": {"target": ["31", "32", "31", "31", "30", "33"], "time": [8894, 9144, 9895, 10378, 13098, 13294]}, "edge": {"target": [], "time": []}}, "mouseout": {"state": {"target": ["0", "23", "31", "0", "23", "0", "31", "32", "31", "31", "30", "33", "25", "31"], "time": [744, 1177, 2694, 4077, 4310, 8711, 8995, 9567, 9979, 13079, 13178, 16878, 23661, 23895]}, "edge": {"target": [], "time": []}}}, "displayed_time": "22.76", "trialTime": 26578, "trial_type": "mouselab-mdp", "trial_index": 13, "time_elapsed": 846189, "internal_node_id": "0.0-4.0-1.0-4.0"}}, {"uniqueid": "w51453763:a52109074", "current_trial": 14, "dateTime": 1691071544056, "trialdata": {"revealed_states": [], "clicked_states": ["21", "16", "32"], "num_clicks_accrued": [0, 0, 0, 0, 0, 0, 0, 0, 0, 0, 0, 0, 0], "stateRewards": ["", -2, 3, -1, -9, 44, 48, -37, -3, 71, -39, 87, -1, 3, -4, 4, -21, 59, -15, -8, -1, 28, -38, 2, 4, 4, 8, -85, -72, -63, 14, 58, 63, -46], "withholdReward": false, "trial_id": "mdp_trial_6", "block": "test", "trialIndex": 7, "score": 80.55, "costs": -6.449999999999999, "simulationMode": [null, null, null, null, null], "rewards": [2, 4, 4, 14, 63], "path": ["0", "0", "23", "24", "25", "30", "32"], "rt": [13121, 557, 195, 151, 118], "actions": ["left", "left", "left", "down", "down"], "actionTimes": [15236, 16307, 16995, 17635, 18251], "queries": {"click": {"state": {"target": ["21", "16", "32"], "time": [3548, 7999, 11265]}, "edge": {"target": [], "time": []}}, "mouseover": {"state": {"target": ["12", "14", "19", "21", "19", "20", "16", "18", "12", "32", "31", "22", "19", "20", "19", "22"], "time": [2665, 2898, 2999, 3265, 3815, 4898, 7815, 8299, 8349, 8898, 11733, 11816, 12100, 12449, 14699, 14732]}, "edge": {"target": [], "time": []}}, "mouseout": {"state": {"target": ["0", "12", "14", "19", "21", "19", "20", "16", "18", "12", "32", "31", "22", "19", "20", "19", "22"], "time": [2649, 2682, 2981, 3148, 3698, 3851, 7265, 8266, 8332, 8365, 11649, 11750, 11902, 12283, 14682, 14715, 14749]}, "edge": {"target": [], "time": []}}}, "displayed_time": "18.75", "trialTime": 21732, "trial_type": "mouselab-mdp", "trial_index": 14, "time_elapsed": 868189, "internal_node_id": "0.0-4.0-1.0-5.0"}}, {"uniqueid": "w51453763:a52109074", "current_trial": 15, "dateTime": 1691071586264, "trialdata": {"revealed_states": [], "clicked_states": ["32", "33", "31"], "num_clicks_accrued": [0, 0, 0, 0, 0, 0, 0, 0, 0, 0, 0, 0, 0], "stateRewards": ["", -1, -4, 8, 8, -68, 47, 24, -7, -61, 49, -69, -1, -1, 8, -7, 42, 1, -45, -11, 10, -63, -6, 1, 4, 6, -16, 79, -37, -58, -12, 81, 18, -53], "withholdReward": false, "trial_id": "mdp_trial_7", "block": "test", "trialIndex": 8, "score": 73.55, "costs": -6.449999999999999, "simulationMode": [null, null, null, null, null], "rewards": [1, 4, 6, -12, 81], "path": ["0", "0", "23", "24", "25", "30", "31"], "rt": [11346, 28, 23, 26, 100], "actions": ["left", "left", "left", "down", "right"], "actionTimes": [12901, 13427, 13939, 14491, 15099], "queries": {"click": {"state": {"target": ["32", "33", "31"], "time": [2356, 5919, 9205]}, "edge": {"target": [], "time": []}}, "mouseover": {"state": {"target": ["32", "33", "33", "30", "31"], "time": [2131, 3465, 3848, 6132, 6398]}, "edge": {"target": [], "time": []}}, "mouseout": {"state": {"target": ["0", "32", "33", "33", "30", "31", "31", "30", "30", "30", "25", "29", "26", "28", "27", "9", "8", "8", "5", "7", "7", "16", "17", "15", "18", "13", "22", "20", "21", "30", "32", "30", "25", "24", "23", "23", "0", "23", "30", "32", "32"], "time": [1815, 2398, 3532, 6116, 6265, 9632, 19547, 20597, 21114, 21581, 21631, 21714, 21931, 22114, 22414, 23298, 23364, 23764, 24180, 24531, 24814, 25264, 25498, 25614, 25864, 25914, 26164, 26514, 26548, 27597, 27814, 28098, 28364, 28431, 28747, 29347, 30164, 31114, 33981, 34997, 35580]}, "edge": {"target": [], "time": []}}}, "displayed_time": "15.60", "trialTime": 41956, "trial_type": "mouselab-mdp", "trial_index": 15, "time_elapsed": 910398, "internal_node_id": "0.0-4.0-1.0-6.0"}}, {"uniqueid": "w51453763:a52109074", "current_trial": 16, "dateTime": 1691071614822, "trialdata": {"revealed_states": [], "clicked_states": ["31", "32", "33", "29", "27", "28"], "num_clicks_accrued": [0, 0, 0, 0, 0, 0, 0, 0, 0, 0, 0, 0, 0], "stateRewards": ["", 1, 4, -8, -13, -13, -87, -77, -10, -44, 54, 42, 2, -3, -4, 12, -9, -80, 52, 9, 84, -2, -65, 1, -4, -5, -6, 8, 80, 32, 13, -59, -5, -13], "withholdReward": false, "trial_id": "mdp_trial_8", "block": "test", "trialIndex": 9, "score": 53.1, "costs": -12.9, "simulationMode": [null, null, null, null, null], "rewards": [1, -4, -5, -6, 80], "path": ["0", "0", "23", "24", "25", "26", "28"], "rt": [21142, 7, 649, 100, 67], "actions": ["left", "left", "left", "up", "right"], "actionTimes": [23221, 23731, 24907, 25507, 26075], "queries": {"click": {"state": {"target": ["31", "32", "33", "29", "27", "28"], "time": [3073, 6191, 9482, 12731, 16147, 19330]}, "edge": {"target": [], "time": []}}, "mouseover": {"state": {"target": ["31", "31", "32", "33", "32", "33", "33", "29", "27", "26", "28", "11", "9", "8", "10"], "time": [2473, 2823, 3591, 4107, 4808, 6406, 7040, 9957, 13141, 16457, 16740, 19624, 20057, 20608, 20958]}, "edge": {"target": [], "time": []}}, "mouseout": {"state": {"target": ["0", "31", "31", "31", "32", "33", "32", "33", "33", "29", "27", "26", "28", "11", "9", "8", "10", "23", "0"], "time": [2240, 2506, 3157, 3224, 4058, 4758, 6340, 6890, 9741, 12907, 16373, 16541, 19493, 19740, 20574, 20691, 26856, 27923, 28073]}, "edge": {"target": [], "time": []}}}, "displayed_time": "26.57", "trialTime": 28291, "trial_type": "mouselab-mdp", "trial_index": 16, "time_elapsed": 938956, "internal_node_id": "0.0-4.0-1.0-7.0"}}, {"uniqueid": "w51453763:a52109074", "current_trial": 17, "dateTime": 1691071640854, "trialdata": {"revealed_states": [], "clicked_states": ["32", "33", "31", "29", "27"], "num_clicks_accrued": [0, 0, 0, 0, 0, 0, 0, 0, 0, 0, 0, 0, 0], "stateRewards": ["", 1, 2, -8, 9, 18, -83, -11, 6, -64, -48, 17, -2, -2, -5, -3, -24, -3, -86, -2, 48, -41, -22, -2, 4, 7, 8, 81, 13, -48, 10, 61, 19, 57], "withholdReward": false, "trial_id": "mdp_trial_9", "block": "test", "trialIndex": 10, "score": 87.25, "costs": -10.75, "simulationMode": [null, null, null, null, null], "rewards": [-2, 4, 7, 8, 81], "path": ["0", "0", "23", "24", "25", "26", "27"], "rt": [19644, 547, 218, 149, 155], "actions": ["left", "left", "left", "up", "up"], "actionTimes": [20741, 21780, 22500, 23164, 23820], "queries": {"click": {"state": {"target": ["32", "33", "31", "29", "27"], "time": [2554, 6295, 9941, 13609, 16805]}, "edge": {"target": [], "time": []}}, "mouseover": {"state": {"target": ["23", "24", "30", "32", "33", "31", "24", "26", "29", "27", "28"], "time": [1564, 1998, 2030, 2247, 3098, 7081, 10182, 10248, 10749, 13998, 17397]}, "edge": {"target": [], "time": []}}, "mouseout": {"state": {"target": ["23", "24", "30", "32", "33", "31", "24", "26", "29", "27", "28", "1", "12"], "time": [1980, 2014, 2064, 2864, 6465, 10039, 10198, 10282, 13849, 17047, 23980, 25080, 25281]}, "edge": {"target": [], "time": []}}}, "displayed_time": "24.32", "trialTime": 25764, "trial_type": "mouselab-mdp", "trial_index": 17, "time_elapsed": 964988, "internal_node_id": "0.0-4.0-1.0-8.0"}}, {"uniqueid": "w51453763:a52109074", "current_trial": 18, "dateTime": 1691071807552, "trialdata": {"revealed_states": [], "clicked_states": ["32", "33", "31", "29", "27", "28", "10", "11", "9", "5", "6", "7", "18", "16", "17", "20", "21", "22"], "num_clicks_accrued": [0, 0, 0, 0, 0, 0, 0, 0, 0, 0, 0, 0, 0], "stateRewards": ["", -1, 1, -5, -6, -78, 47, -13, 12, 48, -88, 20, 2, -3, -2, 13, -20, 37, -57, 14, -38, 30, 31, -2, -2, 8, 2, -23, 78, 28, 12, -74, -88, 8], "withholdReward": false, "trial_id": "mdp_trial_10", "block": "test", "trialIndex": 11, "score": 45.30000000000001, "costs": -38.69999999999999, "simulationMode": [null, null, null, null, null], "rewards": [-2, -2, 8, 2, 78], "path": ["0", "0", "23", "24", "25", "26", "28"], "rt": [61430, 369, 189, 172, 193], "actions": ["left", "left", "left", "up", "right"], "actionTimes": [78975, 79838, 80526, 81190, 81878], "queries": {"click": {"state": {"target": ["32", "33", "31", "29", "27", "28", "10", "11", "9", "5", "6", "7", "18", "16", "17", "20", "21", "22"], "time": [18852, 21980, 25242, 28465, 31936, 35137, 40039, 43213, 46362, 49682, 52809, 55788, 58820, 61763, 65642, 69070, 72170, 74978]}, "edge": {"target": [], "time": []}}, "mouseover": {"state": {"target": ["23", "30", "32", "33", "31", "24", "28", "27", "29", "27", "28", "9", "8", "10", "10", "11", "9", "5", "6", "7", "15", "18", "16", "17", "20", "21", "22"], "time": [18317, 18367, 18617, 19400, 22901, 25635, 25718, 26468, 26918, 28851, 32567, 35651, 36100, 36450, 39467, 40568, 43701, 47084, 49951, 53101, 56700, 57200, 59283, 62317, 66301, 69502, 72783]}, "edge": {"target": [], "time": []}}, "mouseout": {"state": {"target": ["22", "14", "19", "12", "0", "14", "13", "12", "0", "23", "0", "23", "30", "32", "33", "31", "24", "28", "27", "29", "27", "27", "28", "9", "8", "10", "10", "11", "9", "5", "6", "7", "15", "18", "16", "17", "17", "20", "21", "22", "12", "0", "23", "24"], "time": [5950, 6016, 7616, 7950, 8183, 16333, 16383, 16616, 16683, 16916, 18300, 18334, 18450, 18868, 22335, 25567, 25685, 25768, 26718, 28476, 32047, 32217, 35317, 36084, 36184, 39234, 40201, 43468, 46701, 49885, 53018, 56200, 56917, 58876, 62034, 65731, 66051, 69267, 72283, 75684, 161950, 163666, 163766, 164300]}, "edge": {"target": [], "time": []}}}, "displayed_time": "82.37", "trialTime": 166431, "trial_type": "mouselab-mdp", "trial_index": 18, "time_elapsed": 1131686, "internal_node_id": "0.0-4.0-1.0-9.0"}}, {"uniqueid": "w51453763:a52109074", "current_trial": 19, "dateTime": 1691071961752, "trialdata": {"revealed_states": [], "clicked_states": ["32", "33", "31"], "num_clicks_accrued": [0, 0, 0, 0, 0, 0, 0, 0, 0, 0, 0, 0, 0], "stateRewards": ["", 1, 2, -5, 14, 54, -14, -25, 16, -5, -87, 78, -1, 1, 3, -3, 52, 53, 53, -10, 73, -69, -48, 2, 3, 1, 8, -62, -7, 85, 7, 82, 52, -28], "withholdReward": false, "trial_id": "mdp_trial_11", "block": "test", "trialIndex": 12, "score": 88.55, "costs": -6.449999999999999, "simulationMode": [null, null, null, null, null], "rewards": [2, 3, 1, 7, 82], "path": ["0", "0", "23", "24", "25", "30", "31"], "rt": [15168, 100, 124, 26, 101], "actions": ["left", "left", "left", "down", "right"], "actionTimes": [31589, 32179, 32819, 33355, 33979], "queries": {"click": {"state": {"target": ["32", "33", "31"], "time": [17950, 21881, 25185]}, "edge": {"target": [], "time": []}}, "mouseover": {"state": {"target": ["0", "32", "33", "30", "31", "25", "29", "25"], "time": [16994, 17693, 18628, 24377, 24726, 25730, 26261, 28777]}, "edge": {"target": [], "time": []}}, "mouseout": {"state": {"target": ["0", "0", "0", "0", "0", "0", "0", "0", "0", "0", "32", "33", "30", "31", "25", "29", "25", "31", "31", "0", "23", "23", "0", "23", "24", "25", "30", "25", "26", "27", "28", "2", "3", "8", "1", "0", "0", "0", "1", "0", "0", "1", "2", "5", "15", "13", "12", "0", "23", "1", "12", "13", "12", "0", "23", "24", "28", "9", "5", "16", "18", "31", "31", "33", "30", "30", "24", "1", "0", "23", "24", "23", "0", "26", "27", "11", "8", "3", "4", "7", "0", "23", "25", "24", "23", "0", "23", "24", "26", "25", "30", "31"], "time": [943, 5843, 6076, 6793, 9243, 9343, 9676, 9976, 13604, 17026, 18328, 24176, 24560, 25611, 26077, 28744, 28827, 29543, 35110, 37927, 38626, 39093, 39694, 39893, 40510, 40726, 40993, 41077, 41143, 41610, 41877, 42143, 42427, 42643, 42893, 43610, 44993, 50643, 50960, 51126, 51343, 51493, 51560, 52143, 52493, 52593, 52693, 52743, 57293, 57710, 58076, 58677, 58793, 58943, 59026, 59277, 59326, 59493, 59610, 60027, 60294, 60793, 61093, 62659, 63694, 63893, 63943, 64059, 64776, 64910, 76793, 76843, 77026, 77276, 77360, 77393, 77410, 77460, 77610, 77760, 78693, 78710, 79077, 79093, 79126, 79443, 79493, 79977, 80060, 80361, 81059, 81426]}, "edge": {"target": [], "time": []}}}, "displayed_time": "34.48", "trialTime": 153893, "trial_type": "mouselab-mdp", "trial_index": 19, "time_elapsed": 1285886, "internal_node_id": "0.0-4.0-1.0-10.0"}}, {"uniqueid": "w51453763:a52109074", "current_trial": 20, "dateTime": 1691072000752, "trialdata": {"revealed_states": [], "clicked_states": ["27", "29", "28", "32", "33", "31"], "num_clicks_accrued": [0, 0, 0, 0, 0, 0, 0, 0, 0, 0, 0, 0, 0], "stateRewards": ["", 1, 1, -5, 8, -6, 45, 16, -6, -7, -22, -38, -1, -4, 8, -11, -16, 21, -45, -15, -59, -32, 42, -1, 3, 6, 11, -7, 34, -27, -8, 85, 43, -9], "withholdReward": false, "trial_id": "mdp_trial_12", "block": "test", "trialIndex": 13, "score": 72.1, "costs": -12.9, "simulationMode": [null, null, null, null, null], "rewards": [-1, 3, 6, -8, 85], "path": ["0", "0", "23", "24", "25", "30", "31"], "rt": [28740, 2, 11, 598, 146], "actions": ["left", "left", "left", "down", "right"], "actionTimes": [30290, 30788, 31329, 32433, 33097], "queries": {"click": {"state": {"target": ["27", "29", "28", "32", "33", "31"], "time": [3118, 6322, 9470, 13283, 16554, 19700]}, "edge": {"target": [], "time": []}}, "mouseover": {"state": {"target": ["31", "32", "30", "25", "26", "27", "29", "26", "28", "24", "32", "32", "30", "10", "25", "33", "30", "31", "24", "3", "9", "28", "23", "23", "24", "25", "30"], "time": [1983, 2033, 2399, 2433, 2566, 2883, 3966, 6550, 6833, 9716, 9800, 10649, 13434, 13500, 14033, 14300, 16749, 17066, 20000, 20099, 20733, 23016, 25233, 28366, 29499, 29666, 29783]}, "edge": {"target": [], "time": []}}, "mouseout": {"state": {"target": ["0", "1", "0", "0", "31", "32", "30", "25", "26", "27", "27", "29", "26", "28", "24", "32", "32", "30", "10", "28", "25", "33", "30", "31", "24", "3", "9", "28", "31", "23", "23", "24", "25", "30", "16", "15"], "time": [566, 849, 915, 1933, 2000, 2199, 2416, 2482, 2649, 3204, 3433, 6516, 6733, 9700, 9733, 10399, 13417, 13450, 13751, 13951, 14168, 16700, 16866, 19983, 20017, 20483, 22966, 23033, 24283, 27816, 29299, 29616, 29750, 29882, 38050, 38150]}, "edge": {"target": [], "time": []}}}, "displayed_time": "33.60", "trialTime": 38666, "trial_type": "mouselab-mdp", "trial_index": 20, "time_elapsed": 1324885, "internal_node_id": "0.0-4.0-1.0-11.0"}}, {"uniqueid": "w51453763:a52109074", "current_trial": 21, "dateTime": 1691072019398, "trialdata": {"revealed_states": [], "clicked_states": ["32", "33"], "num_clicks_accrued": [0, 0, 0, 0, 0, 0, 0, 0, 0, 0, 0, 0, 0], "stateRewards": ["", 2, -4, 7, 3, 23, -42, 4, 7, -81, -33, 7, -2, -4, 5, -1, 50, -57, -14, -13, -14, 44, 55, -2, -2, 5, -2, 33, 1, 57, -13, -7, 58, 87], "withholdReward": false, "trial_id": "mdp_trial_13", "block": "test", "trialIndex": 14, "score": 70.7, "costs": -4.3, "simulationMode": [null, null, null, null, null], "rewards": [-2, -2, 5, -13, 87], "path": ["0", "0", "23", "24", "25", "30", "33"], "rt": [9127, 308, 12, 79, 40], "actions": ["left", "left", "left", "down", "left"], "actionTimes": [12194, 13016, 13520, 14104, 14648], "queries": {"click": {"state": {"target": ["32", "33"], "time": [4716, 8142]}, "edge": {"target": [], "time": []}}, "mouseover": {"state": {"target": ["23", "23", "31", "30", "32", "33", "30", "31", "32"], "time": [3589, 4089, 4239, 4356, 4456, 5157, 8440, 8806, 12056]}, "edge": {"target": [], "time": []}}, "mouseout": {"state": {"target": ["0", "23", "23", "31", "30", "32", "33", "30", "31", "32", "32", "33", "32"], "time": [3556, 3623, 4156, 4256, 4373, 4874, 8423, 8489, 8992, 9173, 9373, 11923, 12370]}, "edge": {"target": [], "time": []}}}, "displayed_time": "17.07", "trialTime": 18320, "trial_type": "mouselab-mdp", "trial_index": 21, "time_elapsed": 1343531, "internal_node_id": "0.0-4.0-1.0-12.0"}}, {"uniqueid": "w51453763:a52109074", "current_trial": 22, "dateTime": 1691072069574, "trialdata": {"revealed_states": [], "clicked_states": ["16", "17", "18", "20", "21", "22", "31", "33"], "num_clicks_accrued": [0, 0, 0, 0, 0, 0, 0, 0, 0, 0, 0, 0, 0], "stateRewards": ["", -1, 1, 8, -3, -24, 11, -65, -6, -77, 48, 44, -2, 1, -2, -7, -55, -35, 33, 8, -28, 19, -53, -1, -1, -5, -5, -70, 10, 44, 8, -58, -70, 51], "withholdReward": false, "trial_id": "mdp_trial_14", "block": "test", "trialIndex": 15, "score": 34.8, "costs": -17.2, "simulationMode": [null, null, null, null, null], "rewards": [-1, -1, -5, 8, 51], "path": ["0", "0", "23", "24", "25", "30", "33"], "rt": [37310, 93, 69, 39, 578], "actions": ["left", "left", "left", "down", "left"], "actionTimes": [39972, 40563, 41123, 41659, 42748], "queries": {"click": {"state": {"target": ["16", "17", "18", "20", "21", "22", "31", "33"], "time": [3961, 7142, 10321, 13688, 16856, 20180, 23391, 26602]}, "edge": {"target": [], "time": []}}, "mouseover": {"state": {"target": ["16", "17", "15", "15", "18", "14", "20", "21", "22", "31", "30", "32", "30", "31", "32", "33", "32", "12", "0", "32", "0", "0"], "time": [3502, 5120, 7320, 8303, 8353, 10668, 10768, 14419, 17109, 20853, 20886, 21219, 22169, 22519, 24036, 24836, 26885, 31018, 31768, 32301, 33168, 33785]}, "edge": {"target": [], "time": []}}, "mouseout": {"state": {"target": ["23", "24", "25", "24", "23", "0", "16", "16", "17", "15", "16", "15", "18", "14", "20", "20", "21", "22", "31", "30", "32", "30", "31", "31", "32", "33", "32", "12", "0", "32", "0", "0", "32", "0"], "time": [1701, 1718, 1851, 1901, 2191, 3152, 4040, 4370, 7303, 7436, 8120, 8336, 10585, 10719, 13708, 14019, 17002, 20469, 20869, 20903, 22052, 22236, 23403, 23769, 24686, 26802, 30851, 31152, 31785, 33002, 33268, 38935, 45368, 48677]}, "edge": {"target": [], "time": []}}}, "displayed_time": "43.24", "trialTime": 49875, "trial_type": "mouselab-mdp", "trial_index": 22, "time_elapsed": 1393708, "internal_node_id": "0.0-4.0-1.0-13.0"}}, {"uniqueid": "w51453763:a52109074", "current_trial": 23, "dateTime": 1691072122519, "trialdata": {"revealed_states": [], "clicked_states": ["23", "24", "12", "1", "25", "30", "31", "33", "32", "26"], "num_clicks_accrued": [0, 0, 0, 0, 0, 0, 0, 0, 0, 0, 0, 0, 0], "stateRewards": ["", -2, -1, -6, -14, -55, 78, -13, 11, 14, -71, 59, 2, 2, 6, -6, 9, 38, 14, 7, 85, 11, 68, 1, -4, -1, -3, -63, -85, 9, -2, 63, -86, -10], "withholdReward": false, "trial_id": "mdp_trial_15", "block": "test", "trialIndex": 16, "score": 46.9, "costs": -10.100000000000001, "simulationMode": [null, null, null, null, null], "rewards": [1, -4, -1, -2, 63], "path": ["0", "0", "23", "24", "25", "30", "31"], "rt": [26425, 365, 66, 36, 53], "actions": ["left", "left", "left", "down", "right"], "actionTimes": [27601, 28463, 29031, 29567, 30135], "queries": {"click": {"state": {"target": ["23", "24", "12", "1", "25", "30", "31", "33", "32", "26"], "time": [3874, 5474, 7340, 8370, 9675, 11078, 12055, 15256, 18235, 21368]}, "edge": {"target": [], "time": []}}, "mouseover": {"state": {"target": ["23", "23", "24", "12", "12", "1", "24", "25", "30", "31", "33", "32", "30", "25", "26", "28", "26", "29", "25"], "time": [2813, 3530, 4298, 6746, 7025, 7830, 9164, 9381, 10448, 11580, 12684, 16230, 18647, 18713, 19513, 21980, 25079, 25488, 26296]}, "edge": {"target": [], "time": []}}, "mouseout": {"state": {"target": ["0", "23", "23", "24", "23", "12", "12", "1", "1", "24", "25", "30", "31", "33", "31", "32", "30", "25", "26", "28", "26", "29", "25", "0", "13", "22"], "time": [2730, 3261, 4264, 6165, 6233, 6863, 7480, 8814, 9115, 9181, 9997, 11397, 12268, 15498, 15931, 18613, 18663, 19013, 21780, 24980, 25296, 25997, 26330, 45546, 50146, 50379]}, "edge": {"target": [], "time": []}}}, "displayed_time": "30.66", "trialTime": 52632, "trial_type": "mouselab-mdp", "trial_index": 23, "time_elapsed": 1446653, "internal_node_id": "0.0-4.0-1.0-14.0"}}, {"uniqueid": "w51453763:a52109074", "current_trial": 24, "dateTime": 1691072183766, "trialdata": {"revealed_states": [], "clicked_states": ["32", "33", "31", "27", "29", "28", "10", "11", "9", "5", "6", "7", "18", "16", "17"], "num_clicks_accrued": [0, 0, 0, 0, 0, 0, 0, 0, 0, 0, 0, 0, 0], "stateRewards": ["", -1, 3, -5, -2, -13, -9, -34, -7, -81, 32, 35, -2, -2, 1, -14, -32, 81, 7, 4, 82, 56, -8, -1, 3, -8, 6, -24, -24, -53, 2, 38, 61, 54], "withholdReward": false, "trial_id": "mdp_trial_16", "block": "test", "trialIndex": 17, "score": 31.750000000000007, "costs": -32.24999999999999, "simulationMode": [null, null, null, null, null], "rewards": [-2, -2, 1, -14, 81], "path": ["0", "0", "12", "13", "14", "15", "17"], "rt": [50775, 138, 113, 90, 136], "actions": ["right", "right", "right", "up", "right"], "actionTimes": [52450, 53081, 53721, 54314, 54945], "queries": {"click": {"state": {"target": ["32", "33", "31", "27", "29", "28", "10", "11", "9", "5", "6", "7", "18", "16", "17"], "time": [2773, 6690, 9972, 13212, 16407, 19541, 22709, 25876, 29792, 32990, 36202, 39295, 42432, 45630, 48592]}, "edge": {"target": [], "time": []}}, "mouseover": {"state": {"target": ["23", "31", "32", "33", "30", "31", "24", "26", "27", "26", "29", "26", "28", "11", "9", "11", "10", "11", "9", "5", "6", "7", "18", "16", "17", "20"], "time": [2090, 2274, 2490, 3257, 7007, 7307, 10724, 10841, 11207, 13740, 13874, 16741, 17024, 19907, 20307, 20640, 20990, 23123, 26690, 30723, 33424, 36857, 40473, 42991, 46090, 49307]}, "edge": {"target": [], "time": []}}, "mouseout": {"state": {"target": ["0", "23", "31", "32", "33", "30", "31", "24", "26", "27", "26", "29", "26", "28", "11", "9", "11", "10", "11", "9", "5", "5", "6", "7", "18", "16", "17", "20", "22"], "time": [406, 2223, 2423, 3040, 6940, 7174, 10657, 10741, 10874, 13540, 13790, 16707, 16841, 19650, 19974, 20357, 20740, 22907, 26173, 30307, 33067, 33258, 36541, 39673, 42548, 45947, 49107, 52207, 56306]}, "edge": {"target": [], "time": []}}}, "displayed_time": "55.44", "trialTime": 60873, "trial_type": "mouselab-mdp", "trial_index": 24, "time_elapsed": 1507899, "internal_node_id": "0.0-4.0-1.0-15.0"}}, {"uniqueid": "w51453763:a52109074", "current_trial": 25, "dateTime": 1691072247038, "trialdata": {"revealed_states": [], "clicked_states": ["32", "33", "31"], "num_clicks_accrued": [0, 0, 0, 0, 0, 0, 0, 0, 0, 0, 0, 0, 0], "stateRewards": ["", 1, -3, -2, 14, 49, -40, -39, 2, 26, -61, 73, 1, -4, -8, 12, 79, 29, -65, -13, 55, -26, 27, -1, 3, 3, 9, -17, -60, -18, -8, 35, -88, 69], "withholdReward": false, "trial_id": "mdp_trial_17", "block": "test", "trialIndex": 18, "score": 59.55, "costs": -6.449999999999999, "simulationMode": [null, null, null, null, null], "rewards": [-1, 3, 3, -8, 69], "path": ["0", "0", "23", "24", "25", "30", "33"], "rt": [11394, 484, 142, 12, 4], "actions": ["left", "left", "left", "down", "left"], "actionTimes": [57414, 58388, 59027, 59548, 60075], "queries": {"click": {"state": {"target": ["32", "33", "31"], "time": [47086, 50210, 53922]}, "edge": {"target": [], "time": []}}, "mouseover": {"state": {"target": ["23", "32", "33", "30", "31"], "time": [46435, 46868, 47518, 50452, 50685]}, "edge": {"target": [], "time": []}}, "mouseout": {"state": {"target": ["0", "0", "23", "32", "33", "30", "31"], "time": [1184, 13527, 46468, 47285, 50436, 50494, 55451]}, "edge": {"target": [], "time": []}}}, "displayed_time": "60.59", "trialTime": 62940, "trial_type": "mouselab-mdp", "trial_index": 25, "time_elapsed": 1571171, "internal_node_id": "0.0-4.0-1.0-16.0"}}, {"uniqueid": "w51453763:a52109074", "current_trial": 26, "dateTime": 1691072274943, "trialdata": {"revealed_states": [], "clicked_states": ["33", "32", "31", "29", "27", "28"], "num_clicks_accrued": [0, 0, 0, 0, 0, 0, 0, 0, 0, 0, 0, 0, 0], "stateRewards": ["", -1, 3, 1, -11, -22, -36, 19, -5, -70, -52, 50, -2, -4, 4, -2, -41, -83, 29, -2, 22, 10, -6, -2, 3, -2, 14, 54, 44, 77, -9, -65, -37, -40], "withholdReward": false, "trial_id": "mdp_trial_18", "block": "test", "trialIndex": 19, "score": 77.1, "costs": -12.9, "simulationMode": [null, null, null, null, null], "rewards": [-2, 3, -2, 14, 77], "path": ["0", "0", "23", "24", "25", "26", "29"], "rt": [20572, 206, 57, 155, 49], "actions": ["left", "left", "left", "up", "left"], "actionTimes": [22887, 23590, 24158, 24838, 25382], "queries": {"click": {"state": {"target": ["33", "32", "31", "29", "27", "28"], "time": [3100, 6297, 9429, 12604, 16303, 19620]}, "edge": {"target": [], "time": []}}, "mouseover": {"state": {"target": ["0", "31", "30", "33", "32", "31", "24", "26", "29", "27", "28"], "time": [2365, 2681, 2715, 2815, 3398, 6509, 9733, 9800, 10449, 12999, 17698]}, "edge": {"target": [], "time": []}}, "mouseout": {"state": {"target": ["0", "23", "0", "0", "31", "30", "33", "32", "31", "24", "26", "29", "27", "28", "27", "27", "26", "24"], "time": [1081, 1365, 2048, 2415, 2699, 2765, 3299, 6450, 9665, 9766, 9833, 12871, 16632, 20082, 20448, 26365, 26398, 26465]}, "edge": {"target": [], "time": []}}}, "displayed_time": "25.92", "trialTime": 27559, "trial_type": "mouselab-mdp", "trial_index": 26, "time_elapsed": 1599077, "internal_node_id": "0.0-4.0-1.0-17.0"}}, {"uniqueid": "w51453763:a52109074", "current_trial": 27, "dateTime": 1691072294432, "trialdata": {"revealed_states": [], "clicked_states": ["32"], "num_clicks_accrued": [0, 0, 0, 0, 0, 0, 0, 0, 0, 0, 0, 0, 0], "stateRewards": ["", 1, 1, 6, -14, -40, 37, 16, -13, 33, -68, 49, 2, 4, 3, 6, 55, 27, 32, 10, -65, 20, -87, 2, 1, -6, -5, -42, 12, 29, -8, 16, 76, -33], "withholdReward": false, "trial_id": "mdp_trial_19", "block": "test", "trialIndex": 20, "score": 62.85, "costs": -2.15, "simulationMode": [null, null, null, null, null], "rewards": [2, 1, -6, -8, 76], "path": ["0", "0", "23", "24", "25", "30", "32"], "rt": [4520, 61, 159, 101, 134], "actions": ["left", "left", "left", "down", "down"], "actionTimes": [5569, 6153, 6801, 7393, 8025], "queries": {"click": {"state": {"target": ["32"], "time": [1995]}, "edge": {"target": [], "time": []}}, "mouseover": {"state": {"target": ["32", "33"], "time": [1740, 3023]}, "edge": {"target": [], "time": []}}, "mouseout": {"state": {"target": ["0", "32", "33", "32"], "time": [1323, 2456, 9173, 16756]}, "edge": {"target": [], "time": []}}}, "displayed_time": "15.05", "trialTime": 19122, "trial_type": "mouselab-mdp", "trial_index": 27, "time_elapsed": 1618565, "internal_node_id": "0.0-4.0-1.0-18.0"}}, {"uniqueid": "w51453763:a52109074", "current_trial": 28, "dateTime": 1691072315951, "trialdata": {"revealed_states": [], "clicked_states": ["32", "33", "31", "29"], "num_clicks_accrued": [0, 0, 0, 0, 0, 0, 0, 0, 0, 0, 0, 0, 0], "stateRewards": ["", -1, -2, -8, 8, -27, -82, 19, -14, -62, 4, 1, -2, 2, 6, 10, 73, -51, -2, 2, 73, -48, 54, -1, 2, -4, 11, -25, 47, 86, 15, 33, 43, -42], "withholdReward": false, "trial_id": "mdp_trial_20", "block": "test", "trialIndex": 21, "score": 85.4, "costs": -8.6, "simulationMode": [null, null, null, null, null], "rewards": [-1, 2, -4, 11, 86], "path": ["0", "0", "23", "24", "25", "26", "29"], "rt": [15674, 48, 19, 68, 3], "actions": ["left", "left", "left", "up", "left"], "actionTimes": [17267, 17811, 18366, 18931, 19433], "queries": {"click": {"state": {"target": ["32", "33", "31", "29"], "time": [4132, 7201, 10337, 13615]}, "edge": {"target": [], "time": []}}, "mouseover": {"state": {"target": ["31", "32", "33", "30", "31", "24", "27", "29", "29", "27"], "time": [3511, 3844, 4728, 8311, 8611, 10612, 10778, 11329, 11745, 14161]}, "edge": {"target": [], "time": []}}, "mouseout": {"state": {"target": ["0", "31", "32", "33", "33", "30", "31", "24", "27", "29", "29", "27", "24"], "time": [3445, 3561, 4250, 7232, 8212, 8481, 10562, 10629, 11262, 11346, 13877, 20077, 20361]}, "edge": {"target": [], "time": []}}}, "displayed_time": "19.95", "trialTime": 21180, "trial_type": "mouselab-mdp", "trial_index": 28, "time_elapsed": 1640085, "internal_node_id": "0.0-4.0-1.0-19.0"}}, {"uniqueid": "w51453763:a52109074", "current_trial": 29, "dateTime": 1691072359246, "trialdata": {"revealed_states": [], "clicked_states": ["32", "33", "31", "29", "27", "28", "10", "11", "9"], "num_clicks_accrued": [0, 0, 0, 0, 0, 0, 0, 0, 0, 0, 0, 0, 0], "stateRewards": ["", 2, -1, -1, -9, -81, -30, 55, -6, 78, 25, 62, 2, 4, -1, 9, -85, 1, -19, 1, -60, 12, -34, 1, 4, -1, -13, -24, -16, -83, -8, 16, 43, 9], "withholdReward": false, "trial_id": "mdp_trial_21", "block": "test", "trialIndex": 22, "score": 52.650000000000006, "costs": -19.349999999999998, "simulationMode": [null, null, null, null, null], "rewards": [2, -1, -1, -6, 78], "path": ["0", "0", "1", "2", "3", "8", "9"], "rt": [30976, 162, 264, 113, 139], "actions": ["up", "up", "up", "left", "up"], "actionTimes": [32495, 33150, 33918, 34534, 35175], "queries": {"click": {"state": {"target": ["32", "33", "31", "29", "27", "28", "10", "11", "9"], "time": [2416, 5712, 8916, 12178, 15360, 18527, 21632, 24714, 28563]}, "edge": {"target": [], "time": []}}, "mouseover": {"state": {"target": ["0", "23", "31", "32", "30", "33", "30", "31", "25", "29", "27", "28", "11", "11", "10", "11", "11", "9", "5"], "time": [1636, 1719, 1919, 2202, 3086, 4303, 6036, 6269, 9154, 9636, 12637, 15719, 18886, 19420, 19986, 21986, 22636, 25153, 29170]}, "edge": {"target": [], "time": []}}, "mouseout": {"state": {"target": ["0", "0", "23", "31", "32", "30", "33", "30", "31", "25", "29", "27", "28", "11", "11", "10", "11", "11", "9", "5", "23", "31"], "time": [1218, 1686, 1736, 2002, 2703, 3136, 6002, 6119, 9087, 9170, 12325, 15603, 18754, 19153, 19736, 21820, 22219, 24953, 28870, 36369, 36419, 36453]}, "edge": {"target": [], "time": []}}}, "displayed_time": "35.67", "trialTime": 42950, "trial_type": "mouselab-mdp", "trial_index": 29, "time_elapsed": 1683380, "internal_node_id": "0.0-4.0-1.0-20.0"}}, {"uniqueid": "w51453763:a52109074", "current_trial": 30, "dateTime": 1691072497344, "trialdata": {"revealed_states": [], "clicked_states": ["32"], "num_clicks_accrued": [0, 0, 0, 0, 0, 0, 0, 0, 0, 0, 0, 0, 0], "stateRewards": ["", 1, 1, -5, 10, -31, 73, 14, -8, -23, 63, -70, -1, 2, 8, 7, 25, -59, 27, -10, -40, -71, -15, -2, 3, -8, -5, -19, 77, -34, 7, 67, 63, 19], "withholdReward": false, "trial_id": "mdp_trial_22", "block": "test", "trialIndex": 23, "score": 60.85, "costs": -2.15, "simulationMode": [null, null, null, null, null], "rewards": [-2, 3, -8, 7, 63], "path": ["0", "0", "23", "24", "25", "30", "32"], "rt": [5575, 566, 422, 322, 458], "actions": ["left", "left", "left", "down", "down"], "actionTimes": [7424, 8487, 9407, 10224, 11176], "queries": {"click": {"state": {"target": ["32"], "time": [2934]}, "edge": {"target": [], "time": []}}, "mouseover": {"state": {"target": ["31", "32", "31", "30"], "time": [2382, 2683, 3786, 6916]}, "edge": {"target": [], "time": []}}, "mouseout": {"state": {"target": ["15", "18", "0", "31", "32", "31", "30"], "time": [816, 1032, 1399, 2433, 3133, 6866, 7854]}, "edge": {"target": [], "time": []}}}, "displayed_time": "15.85", "trialTime": 137761, "trial_type": "mouselab-mdp", "trial_index": 30, "time_elapsed": 1821478, "internal_node_id": "0.0-4.0-1.0-21.0"}}, {"uniqueid": "w51453763:a52109074", "current_trial": 31, "dateTime": 1691072524510, "trialdata": {"revealed_states": [], "clicked_states": ["32", "33", "31", "29", "27", "28"], "num_clicks_accrued": [0, 0, 0, 0, 0, 0, 0, 0, 0, 0, 0, 0, 0], "stateRewards": ["", 2, -4, -8, -15, 71, -43, -41, 7, -17, 20, 67, -1, -1, -4, 6, 37, -24, -47, 9, 34, 57, 45, 1, 2, -4, -5, -23, 88, -5, 13, -40, 43, 44], "withholdReward": false, "trial_id": "mdp_trial_23", "block": "test", "trialIndex": 24, "score": 69.1, "costs": -12.9, "simulationMode": [null, null, null, null, null], "rewards": [1, 2, -4, -5, 88], "path": ["0", "0", "23", "24", "25", "26", "28"], "rt": [20482, 154, 159, 156, 210], "actions": ["left", "left", "left", "up", "right"], "actionTimes": [22138, 22786, 23457, 24105, 24809], "queries": {"click": {"state": {"target": ["32", "33", "31", "29", "27", "28"], "time": [2498, 5779, 9063, 12166, 15299, 18442]}, "edge": {"target": [], "time": []}}, "mouseover": {"state": {"target": ["23", "24", "30", "32", "33", "33", "30", "31", "25", "29", "29", "27", "28", "10", "8", "10"], "time": [1847, 1913, 2147, 2246, 2830, 3113, 6097, 6414, 9315, 9663, 10147, 12630, 15680, 19814, 20764, 21363]}, "edge": {"target": [], "time": []}}, "mouseout": {"state": {"target": ["31", "24", "0", "23", "24", "30", "32", "33", "33", "30", "31", "25", "29", "29", "27", "28", "10", "8", "10", "23"], "time": [680, 746, 1780, 1880, 2013, 2196, 2680, 2897, 6064, 6281, 9248, 9365, 9947, 12271, 15563, 18664, 20597, 20781, 25430, 25646]}, "edge": {"target": [], "time": []}}}, "displayed_time": "25.30", "trialTime": 26792, "trial_type": "mouselab-mdp", "trial_index": 31, "time_elapsed": 1848643, "internal_node_id": "0.0-4.0-1.0-22.0"}}, {"uniqueid": "w51453763:a52109074", "current_trial": 32, "dateTime": 1691072592278, "trialdata": {"revealed_states": [], "clicked_states": ["33", "28", "29", "31", "32", "27", "9", "11", "10", "5", "6", "7", "18", "17", "16", "20", "21", "22"], "num_clicks_accrued": [0, 0, 0, 0, 0, 0, 0, 0, 0, 0, 0, 0, 0], "stateRewards": ["", -1, -4, -6, -15, 21, -67, -63, 9, 51, 69, -14, -1, 3, 8, -8, 39, 72, 63, 15, 19, 47, 15, 1, 4, 5, 16, -18, 34, 35, -14, -80, 40, 1], "withholdReward": false, "trial_id": "mdp_trial_24", "block": "test", "trialIndex": 25, "score": 35.30000000000001, "costs": -38.69999999999999, "simulationMode": [null, null, null, null, null], "rewards": [-1, 3, 8, -8, 72], "path": ["0", "0", "12", "13", "14", "15", "17"], "rt": [61378, 45, 152, 38, 29], "actions": ["right", "right", "right", "up", "right"], "actionTimes": [62640, 63206, 63861, 64397, 64957], "queries": {"click": {"state": {"target": ["33", "28", "29", "31", "32", "27", "9", "11", "10", "5", "6", "7", "18", "17", "16", "20", "21", "22"], "time": [1980, 5242, 8521, 11852, 15202, 18799, 22233, 25900, 29110, 32982, 36195, 39402, 42616, 46230, 49437, 52717, 55992, 59371]}, "edge": {"target": [], "time": []}}, "mouseover": {"state": {"target": ["23", "31", "30", "33", "30", "31", "24", "28", "26", "29", "29", "25", "31", "32", "30", "27", "11", "8", "9", "11", "10", "3", "5", "6", "7", "18", "15", "17", "16", "20", "21", "22", "14"], "time": [1343, 1459, 1559, 1692, 2260, 2426, 3035, 3075, 5544, 5644, 6061, 8744, 9061, 12227, 15513, 15976, 19260, 19443, 20210, 23010, 26243, 29426, 29726, 33561, 36592, 40193, 42862, 42888, 46826, 50559, 53410, 56493, 59743]}, "edge": {"target": [], "time": []}}, "mouseout": {"state": {"target": ["23", "0", "23", "31", "30", "33", "30", "31", "24", "28", "26", "29", "29", "29", "25", "31", "31", "32", "30", "27", "11", "8", "9", "11", "10", "3", "5", "6", "7", "18", "15", "17", "16", "17", "20", "20", "21", "22", "14", "22"], "time": [625, 959, 1376, 1476, 1609, 2210, 2343, 3013, 3052, 5460, 5594, 5793, 8616, 8711, 8777, 11916, 12128, 15477, 15544, 18866, 19377, 19610, 22710, 26127, 29293, 29459, 33210, 36393, 39611, 42725, 42885, 46333, 49943, 50444, 52824, 53276, 56210, 59710, 59760, 66475]}, "edge": {"target": [], "time": []}}}, "displayed_time": "65.49", "trialTime": 67373, "trial_type": "mouselab-mdp", "trial_index": 32, "time_elapsed": 1916411, "internal_node_id": "0.0-4.0-1.0-23.0"}}, {"uniqueid": "w51453763:a52109074", "current_trial": 33, "dateTime": 1691072637110, "trialdata": {"revealed_states": [], "clicked_states": ["32", "33", "31", "29", "27", "28", "10", "11", "9", "7"], "num_clicks_accrued": [0, 0, 0, 0, 0, 0, 0, 0, 0, 0, 0, 0, 0], "stateRewards": ["", -1, 3, 1, -7, 56, 76, 57, 3, 11, -9, 14, 1, -2, 2, 8, -77, -3, 79, -5, 88, 24, -66, -2, -1, 7, -7, -30, 14, -76, 11, -36, 28, -6], "withholdReward": false, "trial_id": "mdp_trial_25", "block": "test", "trialIndex": 26, "score": 31.500000000000004, "costs": -21.499999999999996, "simulationMode": [null, null, null, null, null], "rewards": [-1, 3, 1, -7, 57], "path": ["0", "0", "1", "2", "3", "4", "7"], "rt": [37737, 546, 208, 189, 160], "actions": ["up", "up", "up", "right", "down"], "actionTimes": [39011, 40050, 40778, 41460, 42115], "queries": {"click": {"state": {"target": ["32", "33", "31", "29", "27", "28", "10", "11", "9", "7"], "time": [2729, 6247, 10042, 15189, 18476, 21706, 24986, 28197, 31381, 34637]}, "edge": {"target": [], "time": []}}, "mouseover": {"state": {"target": ["23", "31", "32", "32", "32", "33", "30", "31", "24", "25", "29", "27", "28", "11", "10", "11", "9", "4", "7", "6"], "time": [1669, 1769, 1936, 2136, 2519, 3436, 6487, 6720, 13536, 13736, 14186, 15519, 19003, 22402, 23469, 25285, 28836, 32236, 32703, 35119]}, "edge": {"target": [], "time": []}}, "mouseout": {"state": {"target": ["23", "0", "23", "31", "32", "32", "32", "33", "30", "31", "24", "25", "29", "27", "28", "11", "10", "11", "9", "4", "7", "6", "7", "1", "23", "31"], "time": [468, 1602, 1686, 1803, 1952, 2169, 3119, 6454, 6504, 10181, 13619, 13869, 15386, 18775, 21799, 23136, 25136, 28436, 31754, 32386, 34769, 43052, 43102, 43619, 43685, 43769]}, "edge": {"target": [], "time": []}}}, "displayed_time": "42.60", "trialTime": 44483, "trial_type": "mouselab-mdp", "trial_index": 33, "time_elapsed": 1961244, "internal_node_id": "0.0-4.0-1.0-24.0"}}, {"uniqueid": "w51453763:a52109074", "current_trial": 34, "dateTime": 1691072654802, "trialdata": {"revealed_states": [], "clicked_states": ["31"], "num_clicks_accrued": [0, 0, 0, 0, 0, 0, 0, 0, 0, 0, 0, 0, 0], "stateRewards": ["", -1, 1, -2, 5, 73, 15, 61, 8, 7, 38, 76, 2, 2, -4, -6, -6, -26, 43, -5, -45, -85, -35, -2, 1, -4, 15, -10, 69, 72, -11, 84, -49, -38], "withholdReward": false, "trial_id": "mdp_trial_26", "block": "test", "trialIndex": 27, "score": 65.85, "costs": -2.15, "simulationMode": [null, null, null, null, null], "rewards": [-2, 1, -4, -11, 84], "path": ["0", "0", "23", "24", "25", "30", "31"], "rt": [4560, 105, 193, 164, 178], "actions": ["left", "left", "left", "down", "right"], "actionTimes": [5805, 6413, 7102, 7757, 8437], "queries": {"click": {"state": {"target": ["31"], "time": [2299]}, "edge": {"target": [], "time": []}}, "mouseover": {"state": {"target": ["23", "30", "31", "31", "32"], "time": [1490, 1623, 1857, 2090, 2957]}, "edge": {"target": [], "time": []}}, "mouseout": {"state": {"target": ["23", "23", "30", "31", "31", "32", "31"], "time": [556, 1557, 1740, 1890, 2541, 9090, 17234]}, "edge": {"target": [], "time": []}}}, "displayed_time": "15.25", "trialTime": 17312, "trial_type": "mouselab-mdp", "trial_index": 34, "time_elapsed": 1978935, "internal_node_id": "0.0-4.0-1.0-25.0"}}, {"uniqueid": "w51453763:a52109074", "current_trial": 35, "dateTime": 1691072672414, "trialdata": {"revealed_states": [], "clicked_states": ["31", "32", "33"], "num_clicks_accrued": [0, 0, 0, 0, 0, 0, 0, 0, 0, 0, 0, 0, 0], "stateRewards": ["", 1, -2, -3, 14, -42, -87, -37, -11, -50, 33, -44, -2, 4, -7, 13, 48, -75, -66, 12, 23, -2, 82, 1, -4, 3, 12, 51, -15, -26, -11, -52, -29, 82], "withholdReward": false, "trial_id": "mdp_trial_27", "block": "test", "trialIndex": 28, "score": 64.55, "costs": -6.449999999999999, "simulationMode": [null, null, null, null, null], "rewards": [1, -4, 3, -11, 82], "path": ["0", "0", "23", "24", "25", "30", "33"], "rt": [11461, 216, 229, 176, 300], "actions": ["left", "left", "left", "down", "left"], "actionTimes": [12416, 13126, 13854, 14534, 15326], "queries": {"click": {"state": {"target": ["31", "32", "33"], "time": [2211, 5761, 8953]}, "edge": {"target": [], "time": []}}, "mouseover": {"state": {"target": ["23", "24", "30", "31", "32", "33", "33", "29"], "time": [1090, 1490, 1689, 1906, 2457, 6074, 6407, 9374]}, "edge": {"target": [], "time": []}}, "mouseout": {"state": {"target": ["23", "0", "23", "24", "30", "31", "32", "33", "33", "29", "26"], "time": [356, 967, 1289, 1590, 1773, 2407, 5974, 6174, 9208, 16073, 16239]}, "edge": {"target": [], "time": []}}}, "displayed_time": "15.82", "trialTime": 17158, "trial_type": "mouselab-mdp", "trial_index": 35, "time_elapsed": 1996547, "internal_node_id": "0.0-4.0-1.0-26.0"}}, {"uniqueid": "w51453763:a52109074", "current_trial": 36, "dateTime": 1691072690471, "trialdata": {"revealed_states": [], "clicked_states": ["32", "31", "33"], "num_clicks_accrued": [0, 0, 0, 0, 0, 0, 0, 0, 0, 0, 0, 0, 0], "stateRewards": ["", 1, -3, -1, 9, -34, -40, 22, -7, 45, 53, -11, 2, 4, 5, 15, 21, 37, -49, -3, 80, -28, -34, 1, -3, 1, 1, -40, -6, -5, -16, -85, -86, 59], "withholdReward": false, "trial_id": "mdp_trial_28", "block": "test", "trialIndex": 29, "score": 35.55, "costs": -6.449999999999999, "simulationMode": [null, null, null, null, null], "rewards": [1, -3, 1, -16, 59], "path": ["0", "0", "23", "24", "25", "30", "33"], "rt": [11286, 199, 203, 126, 244], "actions": ["left", "left", "left", "down", "left"], "actionTimes": [12348, 13052, 13756, 14396, 15164], "queries": {"click": {"state": {"target": ["32", "31", "33"], "time": [2125, 5352, 8621]}, "edge": {"target": [], "time": []}}, "mouseover": {"state": {"target": ["23", "31", "32", "31", "30", "33", "29"], "time": [1451, 1585, 1851, 2352, 5602, 5918, 9368]}, "edge": {"target": [], "time": []}}, "mouseout": {"state": {"target": ["23", "0", "23", "31", "32", "31", "30", "33"], "time": [385, 1385, 1468, 1651, 2285, 5569, 5685, 8902]}, "edge": {"target": [], "time": []}}}, "displayed_time": "15.65", "trialTime": 17677, "trial_type": "mouselab-mdp", "trial_index": 36, "time_elapsed": 2014605, "internal_node_id": "0.0-4.0-1.0-27.0"}}, {"uniqueid": "w51453763:a52109074", "current_trial": 37, "dateTime": 1691072707646, "trialdata": {"revealed_states": [], "clicked_states": ["31", "32"], "num_clicks_accrued": [0, 0, 0, 0, 0, 0, 0, 0, 0, 0, 0, 0, 0], "stateRewards": ["", -2, 2, -2, -7, -50, -62, -45, 7, 36, -24, -72, -1, -1, 8, -1, -67, 20, -52, 2, 35, -50, 80, -1, 1, 6, -6, -70, 6, 88, 8, -47, 74, -19], "withholdReward": false, "trial_id": "mdp_trial_29", "block": "test", "trialIndex": 30, "score": 83.7, "costs": -4.3, "simulationMode": [null, null, null, null, null], "rewards": [-1, 1, 6, 8, 74], "path": ["0", "0", "23", "24", "25", "30", "32"], "rt": [8235, 199, 170, 135, 254], "actions": ["left", "left", "left", "down", "down"], "actionTimes": [9481, 10177, 10847, 11487, 12231], "queries": {"click": {"state": {"target": ["31", "32"], "time": [1965, 5852]}, "edge": {"target": [], "time": []}}, "mouseover": {"state": {"target": ["31", "32", "33", "33"], "time": [1809, 2443, 6310, 6793]}, "edge": {"target": [], "time": []}}, "mouseout": {"state": {"target": ["28", "23", "0", "0", "31", "32", "33", "33", "30"], "time": [142, 492, 592, 1343, 2278, 6011, 6560, 13143, 13392]}, "edge": {"target": [], "time": []}}}, "displayed_time": "15.25", "trialTime": 16759, "trial_type": "mouselab-mdp", "trial_index": 37, "time_elapsed": 2031779, "internal_node_id": "0.0-4.0-1.0-28.0"}}, {"uniqueid": "w51453763:a52109074", "current_trial": 38, "dateTime": 1691072726718, "trialdata": {"revealed_states": [], "clicked_states": ["32"], "num_clicks_accrued": [0, 0, 0, 0, 0, 0, 0, 0, 0, 0, 0, 0, 0], "stateRewards": ["", 2, -2, -8, 9, -20, 55, -58, 14, 42, 2, 36, 1, -3, -5, 5, -58, 57, 60, 16, 57, 30, -70, -2, 1, 3, 10, 59, 23, 77, -13, -26, 88, -72], "withholdReward": false, "trial_id": "mdp_trial_30", "block": "test", "trialIndex": 31, "score": 74.85, "costs": -2.15, "simulationMode": [null, null, null, null, null], "rewards": [-2, 1, 3, -13, 88], "path": ["0", "0", "23", "24", "25", "30", "32"], "rt": [5133, 156, 225, 29, 97], "actions": ["left", "left", "left", "down", "down"], "actionTimes": [6370, 7031, 7751, 8272, 8871], "queries": {"click": {"state": {"target": ["32"], "time": [2336]}, "edge": {"target": [], "time": []}}, "mouseover": {"state": {"target": ["23", "31", "30", "32", "31"], "time": [1674, 1724, 1757, 2040, 2641]}, "edge": {"target": [], "time": []}}, "mouseout": {"state": {"target": ["0", "23", "31", "30", "32", "31", "31"], "time": [1658, 1691, 1741, 1791, 2558, 11241, 14274]}, "edge": {"target": [], "time": []}}}, "displayed_time": "15.24", "trialTime": 18679, "trial_type": "mouselab-mdp", "trial_index": 38, "time_elapsed": 2050852, "internal_node_id": "0.0-4.0-1.0-29.0"}}, {"uniqueid": "w51453763:a52109074", "current_trial": 39, "dateTime": 1691072771678, "trialdata": {"revealed_states": [], "clicked_states": ["32", "31", "33", "29", "27", "28", "10", "11", "9", "5", "6"], "num_clicks_accrued": [0, 0, 0, 0, 0, 0, 0, 0, 0, 0, 0, 0, 0], "stateRewards": ["", -1, 1, -1, 2, 19, 85, -18, 2, -3, -26, 36, 2, 4, 7, -9, -18, 70, 72, -5, 35, -20, -28, 1, -2, -4, -3, -59, -11, -63, -2, -72, 59, -69], "withholdReward": false, "trial_id": "mdp_trial_31", "block": "test", "trialIndex": 32, "score": 62.35000000000001, "costs": -23.649999999999995, "simulationMode": [null, null, null, null, null], "rewards": [-1, 1, -1, 2, 85], "path": ["0", "0", "1", "2", "3", "4", "6"], "rt": [38768, 199, 164, 154, 199], "actions": ["up", "up", "up", "right", "right"], "actionTimes": [39987, 40680, 41345, 42000, 42697], "queries": {"click": {"state": {"target": ["32", "31", "33", "29", "27", "28", "10", "11", "9", "5", "6"], "time": [2268, 6062, 9225, 13124, 16314, 19413, 23419, 26625, 29921, 33106, 36399]}, "edge": {"target": [], "time": []}}, "mouseover": {"state": {"target": ["0", "32", "31", "30", "33", "29", "29", "27", "28", "8", "10", "11", "9", "5", "6", "7"], "time": [1695, 2079, 2579, 6314, 6363, 12645, 12945, 14696, 17146, 20929, 22978, 23713, 26946, 30545, 33493, 37087]}, "edge": {"target": [], "time": []}}, "mouseout": {"state": {"target": ["0", "0", "32", "31", "30", "33", "33", "29", "29", "27", "28", "8", "10", "11", "9", "5", "6", "7", "0"], "time": [764, 1712, 2403, 6297, 6346, 9369, 12595, 12695, 13946, 16595, 20012, 21445, 23596, 26719, 30146, 33346, 36729, 43695, 43812]}, "edge": {"target": [], "time": []}}}, "displayed_time": "43.20", "trialTime": 44544, "trial_type": "mouselab-mdp", "trial_index": 39, "time_elapsed": 2095811, "internal_node_id": "0.0-4.0-1.0-30.0"}}, {"uniqueid": "w51453763:a52109074", "current_trial": 40, "dateTime": 1691072842879, "trialdata": {"revealed_states": [], "clicked_states": ["32", "31", "33", "29", "27", "28", "10", "11", "9", "5", "6"], "num_clicks_accrued": [0, 0, 0, 0, 0, 0, 0, 0, 0, 0, 0, 0, 0], "stateRewards": ["", 1, 3, 3, -10, 52, 68, 59, 12, 7, 49, 21, -2, -3, -4, -2, -2, 63, 63, -4, 44, 43, -76, -2, -3, -6, 13, 48, 36, 12, -5, -36, -33, -11], "withholdReward": false, "trial_id": "mdp_trial_32", "block": "test", "trialIndex": 33, "score": 41.35000000000001, "costs": -23.649999999999995, "simulationMode": [null, null, null, null, null], "rewards": [1, 3, 3, -10, 68], "path": ["0", "0", "1", "2", "3", "4", "6"], "rt": [38794, 453, 176, 292, 165], "actions": ["up", "up", "up", "right", "right"], "actionTimes": [65735, 66678, 67351, 68134, 68790], "queries": {"click": {"state": {"target": ["32", "31", "33", "29", "27", "28", "10", "11", "9", "5", "6"], "time": [28132, 31312, 34468, 37642, 41002, 44336, 47662, 51009, 54283, 57488, 60791]}, "edge": {"target": [], "time": []}}, "mouseover": {"state": {"target": ["0", "31", "32", "31", "30", "33", "33", "29", "27", "28", "11", "11", "10", "11", "9", "5", "5", "6", "7"], "time": [27424, 27607, 27923, 28474, 31591, 32141, 32476, 35707, 37990, 41291, 44724, 45207, 46124, 48074, 51608, 55058, 55391, 57857, 61324]}, "edge": {"target": [], "time": []}}, "mouseout": {"state": {"target": ["0", "8", "9", "1", "0", "0", "0", "31", "32", "31", "30", "33", "33", "29", "27", "28", "11", "11", "10", "11", "9", "5", "5", "5", "6", "7", "0"], "time": [10157, 13240, 23457, 26006, 26289, 27124, 27440, 27657, 28424, 31558, 31924, 32225, 34641, 37840, 41241, 44574, 44958, 45758, 47791, 51166, 54420, 55290, 57606, 57757, 61058, 69857, 70056]}, "edge": {"target": [], "time": []}}}, "displayed_time": "69.29", "trialTime": 70808, "trial_type": "mouselab-mdp", "trial_index": 40, "time_elapsed": 2167012, "internal_node_id": "0.0-4.0-1.0-31.0"}}, {"uniqueid": "w51453763:a52109074", "current_trial": 41, "dateTime": 1691072860734, "trialdata": {"revealed_states": [], "clicked_states": ["32", "31", "33"], "num_clicks_accrued": [0, 0, 0, 0, 0, 0, 0, 0, 0, 0, 0, 0, 0], "stateRewards": ["", 2, -2, -3, 10, -4, -1, -11, -8, -9, -36, -78, 2, 1, 7, -7, 44, -1, -31, -1, 26, 47, 83, 2, -4, -4, -6, -52, -76, -81, -1, -59, 45, 67], "withholdReward": false, "trial_id": "mdp_trial_33", "block": "test", "trialIndex": 34, "score": 53.55, "costs": -6.449999999999999, "simulationMode": [null, null, null, null, null], "rewards": [2, -4, -4, -1, 67], "path": ["0", "0", "23", "24", "25", "30", "33"], "rt": [12146, 200, 76, 76, 134], "actions": ["left", "left", "left", "down", "left"], "actionTimes": [13256, 13958, 14533, 15101, 15726], "queries": {"click": {"state": {"target": ["32", "31", "33"], "time": [2090, 5690, 8843]}, "edge": {"target": [], "time": []}}, "mouseover": {"state": {"target": ["32", "30", "31", "30", "33", "29"], "time": [1773, 2556, 2889, 6007, 6390, 9423]}, "edge": {"target": [], "time": []}}, "mouseout": {"state": {"target": ["0", "0", "32", "30", "31", "30", "33", "29", "24"], "time": [322, 1161, 2406, 2573, 5940, 6241, 9106, 16839, 17289]}, "edge": {"target": [], "time": []}}}, "displayed_time": "16.23", "trialTime": 17445, "trial_type": "mouselab-mdp", "trial_index": 41, "time_elapsed": 2184867, "internal_node_id": "0.0-4.0-1.0-32.0"}}, {"uniqueid": "w51453763:a52109074", "current_trial": 42, "dateTime": 1691072877719, "trialdata": {"revealed_states": [], "clicked_states": ["32"], "num_clicks_accrued": [0, 0, 0, 0, 0, 0, 0, 0, 0, 0, 0, 0, 0], "stateRewards": ["", 1, -3, -6, -5, 47, 80, -29, 11, -71, 10, -29, -2, 3, -6, 12, 2, -78, -6, 8, 34, -16, -5, -1, 3, 3, -13, 84, -36, -62, -3, -27, 66, 15], "withholdReward": false, "trial_id": "mdp_trial_34", "block": "test", "trialIndex": 35, "score": 65.85, "costs": -2.15, "simulationMode": [null, null, null, null, null], "rewards": [-1, 3, 3, -3, 66], "path": ["0", "0", "23", "24", "25", "30", "32"], "rt": [4908, 167, 148, 138, 184], "actions": ["left", "left", "left", "down", "down"], "actionTimes": [6023, 6708, 7356, 7997, 8677], "queries": {"click": {"state": {"target": ["32"], "time": [1988]}, "edge": {"target": [], "time": []}}, "mouseover": {"state": {"target": ["23", "31", "32", "31"], "time": [1407, 1524, 1790, 2241]}, "edge": {"target": [], "time": []}}, "mouseout": {"state": {"target": ["24", "0", "0", "23", "31", "32", "31", "24"], "time": [123, 457, 1340, 1457, 1557, 2129, 11174, 13440]}, "edge": {"target": [], "time": []}}}, "displayed_time": "15.12", "trialTime": 16582, "trial_type": "mouselab-mdp", "trial_index": 42, "time_elapsed": 2201853, "internal_node_id": "0.0-4.0-1.0-33.0"}}, {"uniqueid": "w51453763:a52109074", "current_trial": 43, "dateTime": 1691072895663, "trialdata": {"revealed_states": [], "clicked_states": ["20"], "num_clicks_accrued": [0, 0, 0, 0, 0, 0, 0, 0, 0, 0, 0, 0, 0], "stateRewards": ["", -2, -3, 7, -13, 60, 9, 37, -6, 37, 20, 1, 2, -2, -8, 6, -80, -31, -10, -7, 70, -65, -44, -1, 1, 7, 6, -11, 73, -85, 16, -21, 47, 34], "withholdReward": false, "trial_id": "mdp_trial_35", "block": "test", "trialIndex": 36, "score": 52.85, "costs": -2.15, "simulationMode": [null, null, null, null, null], "rewards": [2, -2, -8, -7, 70], "path": ["0", "0", "12", "13", "14", "19", "20"], "rt": [4540, 158, 155, 108, 296], "actions": ["right", "right", "right", "down", "right"], "actionTimes": [6627, 7314, 7962, 8589, 9402], "queries": {"click": {"state": {"target": ["20"], "time": [2865]}, "edge": {"target": [], "time": []}}, "mouseover": {"state": {"target": ["12", "13", "19", "20", "19", "22", "30", "33"], "time": [2122, 2205, 2521, 2588, 3150, 3223, 3789, 3938]}, "edge": {"target": [], "time": []}}, "mouseout": {"state": {"target": ["23", "0", "12", "13", "19", "20", "19", "22", "30", "33", "30", "25", "28", "8", "3", "10"], "time": [338, 971, 2172, 2222, 2538, 3092, 3206, 3256, 3850, 9688, 9772, 10321, 10505, 10555, 12038, 12772]}, "edge": {"target": [], "time": []}}}, "displayed_time": "16.09", "trialTime": 17524, "trial_type": "mouselab-mdp", "trial_index": 43, "time_elapsed": 2219797, "internal_node_id": "0.0-4.0-1.0-34.0"}}, {"uniqueid": "w51453763:a52109074", "current_trial": 44, "dateTime": 1691072921585, "trialdata": {"revealed_states": [], "clicked_states": ["5", "32", "6", "27"], "num_clicks_accrued": [0, 0, 0, 0, 0, 0, 0, 0, 0, 0, 0, 0, 0], "stateRewards": ["", 1, -2, 4, 7, -43, -83, -60, -5, -86, -80, 83, -1, -2, 6, 11, -15, 21, 13, 9, 29, -49, 11, -1, 4, -6, -11, 87, 40, 63, -8, -39, -11, 62], "withholdReward": false, "trial_id": "mdp_trial_36", "block": "test", "trialIndex": 37, "score": 64.4, "costs": -8.6, "simulationMode": [null, null, null, null, null], "rewards": [-1, 4, -6, -11, 87], "path": ["0", "0", "23", "24", "25", "26", "27"], "rt": [14110, 129, 113, 104, 136], "actions": ["left", "left", "left", "up", "up"], "actionTimes": [15642, 16265, 16881, 17489, 18121], "queries": {"click": {"state": {"target": ["5", "32", "6", "27"], "time": [2418, 5608, 8908, 12120]}, "edge": {"target": [], "time": []}}, "mouseover": {"state": {"target": ["5", "4", "2", "1", "32", "30", "28", "2", "4", "6", "7", "2", "28", "25", "33", "26", "27", "27", "26", "29"], "time": [2134, 2819, 2869, 2888, 3485, 6201, 6469, 6702, 7018, 7368, 9252, 9285, 9401, 9534, 9918, 10451, 10585, 10818, 12951, 13718]}, "edge": {"target": [], "time": []}}, "mouseout": {"state": {"target": ["0", "5", "4", "2", "1", "32", "30", "28", "2", "4", "6", "7", "2", "28", "25", "33", "26", "27", "27", "26", "29", "32", "32"], "time": [1546, 2801, 2852, 2886, 2903, 5767, 6301, 6535, 6752, 7068, 9185, 9268, 9318, 9419, 9668, 10368, 10518, 10651, 12801, 13318, 19467, 19817, 24617]}, "edge": {"target": [], "time": []}}}, "displayed_time": "18.62", "trialTime": 25525, "trial_type": "mouselab-mdp", "trial_index": 44, "time_elapsed": 2245719, "internal_node_id": "0.0-4.0-1.0-35.0"}}, {"uniqueid": "w51453763:a52109074", "current_trial": 45, "dateTime": 1691072945266, "trialdata": {"revealed_states": [], "clicked_states": ["25", "8", "4", "6", "5", "7"], "num_clicks_accrued": [0, 0, 0, 0, 0, 0, 0, 0, 0, 0, 0, 0, 0], "stateRewards": ["", -2, 1, -7, 9, 8, 25, 61, -7, -17, 69, -81, 1, 4, -4, -11, 16, 67, 44, 3, 6, -45, -54, -2, 3, 6, -11, -15, 32, -47, 3, -39, -6, -88], "withholdReward": false, "trial_id": "mdp_trial_37", "block": "test", "trialIndex": 38, "score": 51.5, "costs": -10.5, "simulationMode": [null, null, null, null, null], "rewards": [-2, 1, -7, 9, 61], "path": ["0", "0", "1", "2", "3", "4", "7"], "rt": [17266, 70, 106, 113, 137], "actions": ["up", "up", "up", "right", "down"], "actionTimes": [18706, 19305, 19921, 20529, 21169], "queries": {"click": {"state": {"target": ["25", "8", "4", "6", "5", "7"], "time": [2261, 4430, 5956, 8280, 11689, 14922]}, "edge": {"target": [], "time": []}}, "mouseover": {"state": {"target": ["23", "24", "25", "26", "8", "8", "3", "4", "4", "15", "14", "14", "15", "6", "5", "4", "7", "16"], "time": [1548, 1697, 1831, 2865, 3364, 3648, 4816, 5082, 5481, 6632, 7097, 7498, 7698, 8081, 8649, 11962, 12065, 15815]}, "edge": {"target": [], "time": []}}, "mouseout": {"state": {"target": ["25", "24", "23", "23", "24", "25", "26", "8", "8", "3", "4", "4", "15", "14", "14", "15", "6", "5", "5", "4", "7", "16", "15", "12"], "time": [447, 580, 797, 1631, 1781, 2731, 2899, 3414, 4765, 5032, 5182, 6382, 6699, 7347, 7681, 7715, 8516, 11806, 11915, 11997, 15382, 18931, 19131, 22448]}, "edge": {"target": [], "time": []}}}, "displayed_time": "21.67", "trialTime": 23269, "trial_type": "mouselab-mdp", "trial_index": 45, "time_elapsed": 2269399, "internal_node_id": "0.0-4.0-1.0-36.0"}}, {"uniqueid": "w51453763:a52109074", "current_trial": 46, "dateTime": 1691073006937, "trialdata": {"revealed_states": [], "clicked_states": ["25", "8", "4", "14", "6", "7", "5", "9", "10", "11", "27", "28", "29", "33", "32", "31", "21", "22"], "num_clicks_accrued": [0, 0, 0, 0, 0, 0, 0, 0, 0, 0, 0, 0, 0], "stateRewards": ["", -2, -1, -3, -1, -78, -6, 2, -1, 22, -88, 32, 2, 2, -7, -8, -51, -17, 54, 2, -44, 54, 75, 2, -2, -8, -15, -29, 12, -67, 15, -1, -47, -47], "withholdReward": false, "trial_id": "mdp_trial_38", "block": "test", "trialIndex": 39, "score": 38.900000000000006, "costs": -35.099999999999994, "simulationMode": [null, null, null, null, null], "rewards": [2, 2, -7, 2, 75], "path": ["0", "0", "12", "13", "14", "19", "22"], "rt": [53419, 109, 62, 840, 154], "actions": ["right", "right", "right", "down", "left"], "actionTimes": [54667, 55274, 55827, 57171, 57818], "queries": {"click": {"state": {"target": ["25", "8", "4", "14", "6", "7", "5", "9", "10", "11", "27", "28", "29", "33", "32", "31", "21", "22"], "time": [2011, 3813, 5058, 6671, 9009, 12338, 15586, 18770, 22229, 25441, 28793, 31968, 35200, 38252, 41458, 44646, 47861, 51131]}, "edge": {"target": [], "time": []}}, "mouseover": {"state": {"target": ["24", "25", "28", "10", "8", "3", "4", "7", "18", "14", "13", "12", "0", "24", "28", "2", "6", "7", "4", "5", "9", "8", "10", "11", "28", "26", "27", "28", "26", "29", "33", "32", "31", "12", "13", "19", "21", "22", "19", "20"], "time": [1346, 1763, 2781, 2897, 3146, 4131, 4464, 5530, 5747, 6196, 7780, 7847, 7913, 8180, 8513, 8580, 8846, 9780, 12531, 12664, 16247, 19048, 19180, 22630, 25897, 26047, 26780, 29297, 32197, 32531, 35930, 38680, 41963, 45198, 45245, 45547, 45897, 48280, 51380, 51629]}, "edge": {"target": [], "time": []}}, "mouseout": {"state": {"target": ["24", "23", "0", "24", "25", "28", "10", "8", "3", "4", "7", "18", "14", "13", "12", "0", "24", "28", "2", "6", "7", "4", "5", "9", "8", "10", "11", "28", "26", "27", "27", "28", "26", "29", "33", "32", "31", "12", "13", "19", "21", "22", "19", "20", "14"], "time": [546, 662, 1262, 1596, 2731, 2847, 2980, 4081, 4281, 5447, 5564, 5880, 7730, 7830, 7880, 7946, 8280, 8530, 8613, 9414, 12480, 12563, 15598, 18997, 19097, 22431, 25763, 25997, 26081, 28806, 29180, 32071, 32364, 35464, 38580, 41652, 45014, 45230, 45481, 45663, 48064, 51346, 51463, 59446, 60868]}, "edge": {"target": [], "time": []}}}, "displayed_time": "58.31", "trialTime": 61190, "trial_type": "mouselab-mdp", "trial_index": 46, "time_elapsed": 2331071, "internal_node_id": "0.0-4.0-1.0-37.0"}}, {"uniqueid": "w51453763:a52109074", "current_trial": 47, "dateTime": 1691073082542, "trialdata": {"revealed_states": [], "clicked_states": ["32", "33", "31", "29", "27", "28", "10", "11", "9", "5", "6", "7", "16", "17", "18", "20", "21", "22"], "num_clicks_accrued": [0, 0, 0, 0, 0, 0, 0, 0, 0, 0, 0, 0, 0], "stateRewards": ["", 2, -3, 5, 11, -79, 54, 11, -9, -78, 33, 22, -2, -1, 2, 14, 43, 34, 1, 10, 49, -65, 39, -1, 1, -1, 3, -16, -2, 11, 2, 12, 48, -65], "withholdReward": false, "trial_id": "mdp_trial_39", "block": "test", "trialIndex": 40, "score": 30.30000000000001, "costs": -38.69999999999999, "simulationMode": [null, null, null, null, null], "rewards": [2, -3, 5, 11, 54], "path": ["0", "0", "1", "2", "3", "4", "6"], "rt": [60879, 97, 106, 33, 49], "actions": ["up", "up", "up", "right", "right"], "actionTimes": [71183, 71772, 72380, 72908, 73457], "queries": {"click": {"state": {"target": ["32", "33", "31", "29", "27", "28", "10", "11", "9", "5", "6", "7", "16", "17", "18", "20", "21", "22"], "time": [11620, 15002, 18180, 21406, 24509, 27609, 30836, 34092, 37185, 40390, 43572, 47351, 50569, 53914, 57272, 60539, 64461, 67689]}, "edge": {"target": [], "time": []}}, "mouseover": {"state": {"target": ["23", "31", "30", "32", "32", "33", "30", "31", "31", "25", "29", "27", "28", "28", "11", "10", "11", "9", "5", "5", "6", "7", "16", "16", "17", "15", "18", "14", "20", "21", "22", "13", "6"], "time": [10740, 10840, 10890, 10990, 11323, 12223, 15292, 15357, 16041, 18657, 19007, 22024, 24790, 25057, 28257, 28557, 31225, 34691, 37574, 37891, 40807, 44191, 47890, 48290, 50857, 54141, 54340, 57658, 58090, 60990, 65057, 68323, 68523]}, "edge": {"target": [], "time": []}}, "mouseout": {"state": {"target": ["22", "13", "12", "23", "31", "30", "32", "32", "33", "33", "30", "31", "31", "25", "29", "27", "28", "28", "11", "10", "11", "9", "5", "5", "5", "6", "7", "16", "16", "16", "17", "15", "18", "14", "20", "21", "22", "13", "6"], "time": [8656, 8856, 9590, 10773, 10857, 10907, 11007, 12073, 15123, 15275, 15325, 15541, 18441, 18791, 21624, 24741, 24857, 27873, 28457, 30954, 34290, 37508, 37641, 40532, 40591, 43841, 47674, 47990, 50698, 50774, 54057, 54257, 57591, 57824, 60857, 64592, 67857, 68374, 68544]}, "edge": {"target": [], "time": []}}}, "displayed_time": "73.96", "trialTime": 75188, "trial_type": "mouselab-mdp", "trial_index": 47, "time_elapsed": 2406675, "internal_node_id": "0.0-4.0-1.0-38.0"}}, {"uniqueid": "w51453763:a52109074", "current_trial": 48, "dateTime": 1691073105742, "trialdata": {"revealed_states": [], "clicked_states": ["32", "33", "31", "27"], "num_clicks_accrued": [0, 0, 0, 0, 0, 0, 0, 0, 0, 0, 0, 0, 0], "stateRewards": ["", 2, -3, -2, 14, -4, 85, 46, 15, -28, 41, 31, -1, -1, -1, 5, 62, 79, 57, 12, -73, -64, 86, -1, 1, -3, -5, 68, 11, -32, 8, -80, -21, -56], "withholdReward": false, "trial_id": "mdp_trial_40", "block": "test", "trialIndex": 41, "score": 51.4, "costs": -8.6, "simulationMode": [null, null, null, null, null], "rewards": [-1, 1, -3, -5, 68], "path": ["0", "0", "23", "24", "25", "26", "27"], "rt": [14964, 452, 126, 166, 1004], "actions": ["left", "left", "left", "up", "up"], "actionTimes": [16314, 17265, 17889, 18546, 20049], "queries": {"click": {"state": {"target": ["32", "33", "31", "27"], "time": [2369, 5573, 8901, 12320]}, "edge": {"target": [], "time": []}}, "mouseover": {"state": {"target": ["31", "32", "32", "30", "33", "30", "31", "31", "31", "24", "26", "27", "26", "28", "28"], "time": [1419, 1628, 2277, 3378, 3761, 5863, 5912, 6362, 8278, 9163, 9245, 9962, 12728, 12978, 14279]}, "edge": {"target": [], "time": []}}, "mouseout": {"state": {"target": ["6", "7", "12", "31", "32", "32", "30", "33", "30", "31", "31", "31", "24", "26", "27", "27", "26", "28", "28", "24", "31"], "time": [377, 494, 744, 1461, 1828, 3228, 3578, 5828, 5879, 6079, 7278, 9112, 9179, 9429, 12444, 12629, 12812, 13895, 21377, 21777, 21944]}, "edge": {"target": [], "time": []}}}, "displayed_time": "20.55", "trialTime": 22793, "trial_type": "mouselab-mdp", "trial_index": 48, "time_elapsed": 2429875, "internal_node_id": "0.0-4.0-1.0-39.0"}}, {"uniqueid": "w51453763:a52109074", "current_trial": 49, "dateTime": 1691073194110, "trialdata": {"rt": 88364, "response": {"Q0": "$-2 to $2", "Q1": "$-16 to $16", "Q2": "$-88 to $88", "Q3": "The cost for clicking on nodes varied between nodes.", "Q4": "Slightly motivated"}, "question_order": [0, 1, 2, 3, 4], "trial_id": "final_quiz_control", "trial_type": "survey-multi-choice", "trial_index": 49, "time_elapsed": 2518244, "internal_node_id": "0.0-4.0-2.0"}}, {"uniqueid": "w51453763:a52109074", "current_trial": 50, "dateTime": 1691073347445, "trialdata": {"rt": 153326, "response": {"Q0": "reveal the nodes on the last step until uncovering one greater than 50. As soon as I found such a node I chose that path.", "Q1": "No.", "Q2": "the amount of time that the node stayed visible for made it a bit challenging to refine the strategy."}, "trial_id": "self_report_control", "trial_type": "survey-text", "trial_index": 50, "time_elapsed": 2671579, "internal_node_id": "0.0-4.0-3.0"}}, {"uniqueid": "w51453763:a52109074", "current_trial": 51, "dateTime": 1691073470018, "trialdata": {"rt": 122568, "response": {"Q0": "Strongly disagree", "Q1": "Strongly disagree", "Q2": "Disagree", "Q3": "Strongly agree", "Q4": "Strongly disagree", "Q5": "Strongly agree", "Q6": "Strongly disagree"}, "question_order": [0, 1, 2, 3, 4, 5, 6], "trial_id": "self_report_2", "trial_type": "survey-multi-choice", "trial_index": 51, "time_elapsed": 2794151, "internal_node_id": "0.0-4.0-4.0"}}, {"uniqueid": "w51453763:a52109074", "current_trial": 52, "dateTime": 1691073511659, "trialdata": {"rt": 41634, "response": {"gender": "male", "age": "31", "colorblind": "0", "effort": "0"}, "trial_type": "survey-html-form", "trial_index": 52, "time_elapsed": 2835792, "internal_node_id": "0.0-4.0-5.0"}}, {"uniqueid": "w51453763:a52109074", "current_trial": 53, "dateTime": 1691073567896, "trialdata": {"rt": 56232, "response": {"Q0": "not at all", "Q1": "no", "Q2": "none"}, "trial_type": "survey-text", "trial_index": 53, "time_elapsed": 2892030, "internal_node_id": "0.0-4.0-6.0"}}, {"uniqueid": "w51453763:a52109074", "current_trial": 54, "dateTime": 1691073574148, "trialdata": {"rt": 6247, "stimulus": "Press 'Finish HIT' in order to reach the completion code. Once the data has been saved, you will receive the code either in this window or in the original browser window where you started the experiment.\n", "response": 0, "trial_type": "html-button-response", "trial_index": 54, "time_elapsed": 2898281, "internal_node_id": "0.0-5.0"}}, {"uniqueid": "w51453763:a52109074", "current_trial": 55, "dateTime": 1691073575151, "trialdata": {"success": true, "trial_type": "fullscreen", "trial_index": 55, "time_elapsed": 2899285, "internal_node_id": "0.0-6.0"}}], "questiondata": {"params": {"CODE": "C6DMOQA6", "MIN_TIME": 14, "inspectCost": 1, "startTime": "Thu Aug 03 2023 15:51:14 GMT+0200 (South Africa Standard Time)", "bonusRate": 0.002, "variance": "1_2_4_8_44", "branching": "31123"}, "final_score": 2385.15}, "eventdata": [{"eventtype": "initialized", "value": null, "timestamp": 1691070673725, "interval": 0}, {"eventtype": "window_resize", "value": [1024, 770], "timestamp": 1691070673725, "interval": 0}, {"eventtype": "window_resize", "value": [1024, 770], "timestamp": 1691070674181, "interval": 456}, {"eventtype": "window_resize", "value": [3278, 1728], "timestamp": 1691070678898, "interval": 4717}, {"eventtype": "window_resize", "value": [1024, 770], "timestamp": 1691073574383, "interval": 2895485}], "useragent": "Mozilla/5.0 (Windows NT 10.0; Win64; x64) AppleWebKit/537.36 (KHTML, like Gecko) Chrome/115.0.0.0 Safari/537.36 Edg/115.0.1901.188", "mode": "live", "id": "w51453763:a52109074", "status": "user data saved", "Beginhit": "2023-08-03 13:51:10.540582", "Beginexp": "2023-08-03 13:51:19.061715", "Endhit": "2023-08-03 14:39:35.278683", "psiturkStatus": 3, "browser": "<redacted>", "platform": "windows", "language": "en-US"}