{"condition": 0, "counterbalance": 0, "assignmentId": "a59209405", "workerId": "w53181297", "hitId": "h10033576", "currenttrial": 61, "bonus": 0, "data": [{"uniqueid": "w53181297:a59209405", "current_trial": 0, "dateTime": 1693388599362, "trialdata": {"success": true, "trial_type": "fullscreen", "trial_index": 0, "time_elapsed": 6758, "internal_node_id": "0.0-0.0"}}, {"uniqueid": "w53181297:a59209405", "current_trial": 1, "dateTime": 1693388625273, "trialdata": {"view_history": [{"page_index": 0, "viewing_time": 25887}], "rt": 25888, "trial_id": "exp_instructions_control", "trial_type": "instructions", "trial_index": 1, "time_elapsed": 32668, "internal_node_id": "0.0-1.0"}}, {"uniqueid": "w53181297:a59209405", "current_trial": 2, "dateTime": 1693388976634, "trialdata": {"view_history": [{"page_index": 0, "viewing_time": 120074}, {"page_index": 1, "viewing_time": 81432}, {"page_index": 2, "viewing_time": 96173}, {"page_index": 3, "viewing_time": 53679}], "rt": 351358, "trial_id": "mouselab_instructions_1_control", "trial_type": "instructions", "trial_index": 2, "time_elapsed": 384030, "internal_node_id": "0.0-2.0-1.0"}}, {"uniqueid": "w53181297:a59209405", "current_trial": 3, "dateTime": 1693389035653, "trialdata": {"revealed_states": [], "clicked_states": ["1", "2", "3", "8", "9"], "num_clicks_accrued": [0, 0, 0, 0, 0, 0, 0, 0, 0, 0, 0, 0, 0], "stateRewards": ["", 10, 10, 10, -10, 10, 10, -10, -10, -10, 10, -10, 10, -10, 10, 10, 10, 10, -10, 10, -10, 10, -10, 10, -10, 10, -10, 10, 10, -10, 10, 10, 10, 10], "withholdReward": false, "trial_id": "practice_1", "block": "test", "trialIndex": 0, "score": 31, "costs": -2.5, "simulationMode": [null, null, null, null, null], "rewards": [10, 10, 10, -10, 10], "path": ["0", "0", "1", "2", "3", "4", "5"], "rt": [37011, 1213, 748, 1167, 1125], "actions": ["up", "up", "up", "right", "up"], "actionTimes": [42261, 43988, 45237, 46905, 48529], "queries": {"click": {"state": {"target": ["1", "2", "3", "8", "9"], "time": [7618, 9450, 11211, 12825, 14224]}, "edge": {"target": [], "time": []}}, "mouseover": {"state": {"target": ["1", "2", "3", "8", "9", "5", "16", "21", "13", "12", "1", "2", "11", "8", "3", "2", "4", "7", "22", "13", "15", "16", "0", "12", "23", "24", "25", "20"], "time": [6891, 8124, 10055, 11754, 13302, 14734, 20662, 23026, 23176, 23244, 23909, 23941, 24541, 25643, 25673, 26156, 26355, 29036, 30902, 31434, 31534, 31600, 33699, 40209, 40575, 40593, 40610, 40925]}, "edge": {"target": [], "time": []}}, "mouseout": {"state": {"target": ["14", "13", "12", "18", "18", "1", "0", "1", "2", "3", "3", "8", "9", "9", "5", "16", "21", "13", "12", "1", "2", "11", "8", "3", "2", "4", "7", "22", "13", "15", "16", "0", "12", "23", "24", "25", "20"], "time": [833, 864, 1281, 1431, 1747, 4511, 6143, 7891, 9905, 11334, 11620, 12965, 14267, 14618, 15265, 20677, 23092, 23192, 23475, 23924, 23958, 25640, 25656, 25857, 26290, 28986, 29119, 31284, 31484, 31567, 31650, 39493, 40492, 40591, 40608, 40624, 40941]}, "edge": {"target": [], "time": []}}}, "displayed_time": "49.03", "trialTime": 57672, "trial_type": "mouselab-mdp", "trial_index": 3, "time_elapsed": 443048, "internal_node_id": "0.0-2.0-2.0-0.0"}}, {"uniqueid": "w53181297:a59209405", "current_trial": 4, "dateTime": 1693389056283, "trialdata": {"revealed_states": [], "clicked_states": [], "num_clicks_accrued": [0, 0, 0, 0, 0, 0, 0, 0, 0, 0, 0, 0, 0], "stateRewards": ["", -10, 10, -10, 10, -10, -10, 10, -10, 10, -10, -10, 10, -10, -10, 10, 10, 10, 10, 10, 10, -10, 10, -10, -10, 10, -10, -10, -10, -10, -10, -10, -10, 10], "withholdReward": false, "trial_id": "practice_2", "block": "test", "trialIndex": 1, "score": -6.5, "costs": 0, "simulationMode": [null, null, null, null, null], "rewards": [-10, 10, -10, 10, -10], "path": ["0", "0", "1", "2", "3", "4", "5"], "rt": [3579, 868, 751, 739, 414], "actions": ["up", "up", "up", "right", "up"], "actionTimes": [11908, 13285, 14549, 15803, 16726], "queries": {"click": {"state": {"target": [], "time": []}, "edge": {"target": [], "time": []}}, "mouseover": {"state": {"target": [], "time": []}, "edge": {"target": [], "time": []}}, "mouseout": {"state": {"target": ["15", "13", "12"], "time": [7419, 7485, 7685]}, "edge": {"target": [], "time": []}}}, "displayed_time": "17.25", "trialTime": 20389, "trial_type": "mouselab-mdp", "trial_index": 4, "time_elapsed": 463678, "internal_node_id": "0.0-2.0-2.0-1.0"}}, {"uniqueid": "w53181297:a59209405", "current_trial": 5, "dateTime": 1693389141419, "trialdata": {"view_history": [{"page_index": 0, "viewing_time": 69274}, {"page_index": 1, "viewing_time": 15856}], "rt": 85131, "trial_id": "mouselab_instructions_2_control", "trial_type": "instructions", "trial_index": 5, "time_elapsed": 548815, "internal_node_id": "0.0-2.0-3.0"}}, {"uniqueid": "w53181297:a59209405", "current_trial": 6, "dateTime": 1693389197207, "trialdata": {"rt": 55783, "response": {"Q0": "The cost for clicking on nodes may vary between nodes.", "Q1": "The better I perform the higher my bonus will be.", "Q2": "No, the amount of cash at each node of the web may be different each time.", "Q3": "To get the highest total score.", "Q4": "Only after moving the spider.", "Q5": "3 seconds"}, "question_order": [0, 1, 2, 3, 4, 5], "correct": {"Q0": "The cost for clicking on nodes may vary between nodes.", "Q1": "The better I perform the higher my bonus will be.", "Q2": "No, the amount of cash at each node of the web may be different each time.", "Q3": "To get the highest total score.", "Q4": "Only before moving the spider.", "Q5": "3 seconds"}, "trial_id": "mouselab_quiz_control", "trial_type": "survey-multi-choice", "trial_index": 6, "time_elapsed": 604603, "internal_node_id": "0.0-2.0-4.0"}}, {"uniqueid": "w53181297:a59209405", "current_trial": 7, "dateTime": 1693389222892, "trialdata": {"success": true, "trial_type": "fullscreen", "trial_index": 7, "time_elapsed": 630288, "internal_node_id": "0.0-2.1-0.1-0.1"}}, {"uniqueid": "w53181297:a59209405", "current_trial": 8, "dateTime": 1693389459154, "trialdata": {"view_history": [{"page_index": 0, "viewing_time": 184109}, {"page_index": 1, "viewing_time": 14269}, {"page_index": 2, "viewing_time": 14648}, {"page_index": 3, "viewing_time": 23236}], "rt": 236261, "trial_id": "mouselab_instructions_1_control", "trial_type": "instructions", "trial_index": 8, "time_elapsed": 866550, "internal_node_id": "0.0-2.1-1.1"}}, {"uniqueid": "w53181297:a59209405", "current_trial": 9, "dateTime": 1693389505817, "trialdata": {"revealed_states": [], "clicked_states": ["1", "2", "3", "4", "5"], "num_clicks_accrued": [0, 0, 0, 0, 0, 0, 0, 0, 0, 0, 0, 0, 0], "stateRewards": ["", 10, 10, 10, -10, 10, 10, -10, -10, -10, 10, -10, 10, -10, 10, 10, 10, 10, -10, 10, -10, 10, -10, 10, -10, 10, -10, 10, 10, -10, 10, 10, 10, 10], "withholdReward": false, "trial_id": "practice_1", "block": "test", "trialIndex": 2, "score": 31, "costs": -2.5, "simulationMode": [null, null, null, null, null], "rewards": [10, -10, 10, 10, 10], "path": ["0", "0", "12", "13", "14", "15", "16"], "rt": [28885, 827, 1104, 592, 578], "actions": ["right", "right", "right", "up", "up"], "actionTimes": [33846, 35188, 36797, 37900, 38984], "queries": {"click": {"state": {"target": ["1", "2", "3", "4", "5"], "time": [9455, 10701, 11964, 14370, 15650]}, "edge": {"target": [], "time": []}}, "mouseover": {"state": {"target": ["1", "2", "3", "4", "4", "5", "16", "15", "14", "12", "12", "2", "2", "1", "12", "12", "0", "12", "0", "12", "13", "12", "0", "0", "12", "12", "13"], "time": [6836, 10399, 11231, 12364, 13746, 14861, 21454, 21488, 22205, 24218, 25051, 25352, 25883, 26150, 26682, 27016, 27482, 27682, 28081, 28314, 28347, 28664, 29331, 29603, 31529, 32494, 32809]}, "edge": {"target": [], "time": []}}, "mouseout": {"state": {"target": ["22", "22", "23", "0", "1", "1", "2", "3", "4", "4", "5", "16", "15", "14", "12", "12", "2", "2", "1", "12", "12", "0", "12", "0", "12", "13", "12", "0", "0", "12", "12"], "time": [658, 1807, 2173, 6553, 9850, 10349, 10822, 12314, 13379, 14778, 16027, 21471, 21521, 22220, 24235, 25118, 25702, 26050, 26600, 26716, 27433, 27649, 28031, 28298, 28331, 28431, 29281, 29447, 31461, 31762, 32545]}, "edge": {"target": [], "time": []}}}, "displayed_time": "39.49", "trialTime": 46407, "trial_type": "mouselab-mdp", "trial_index": 9, "time_elapsed": 913212, "internal_node_id": "0.0-2.1-2.1-0.1"}}, {"uniqueid": "w53181297:a59209405", "current_trial": 10, "dateTime": 1693389529909, "trialdata": {"revealed_states": [], "clicked_states": [], "num_clicks_accrued": [0, 0, 0, 0, 0, 0, 0, 0, 0, 0, 0, 0, 0], "stateRewards": ["", -10, 10, -10, 10, -10, -10, 10, -10, 10, -10, -10, 10, -10, -10, 10, 10, 10, 10, 10, 10, -10, 10, -10, -10, 10, -10, -10, -10, -10, -10, -10, -10, 10], "withholdReward": false, "trial_id": "practice_2", "block": "test", "trialIndex": 3, "score": -26.5, "costs": 0, "simulationMode": [null, null, null, null, null], "rewards": [-10, -10, 10, -10, -10], "path": ["0", "0", "23", "24", "25", "26", "27"], "rt": [1684, 575, 452, 634, 395], "actions": ["left", "left", "left", "up", "up"], "actionTimes": [6087, 7171, 8130, 9278, 10188], "queries": {"click": {"state": {"target": [], "time": []}, "edge": {"target": [], "time": []}}, "mouseover": {"state": {"target": ["12"], "time": [4496]}, "edge": {"target": [], "time": []}}, "mouseout": {"state": {"target": ["13", "0", "12", "12", "7", "3", "18", "21"], "time": [3131, 3862, 4561, 15468, 15801, 16018, 21511, 21728]}, "edge": {"target": [], "time": []}}}, "displayed_time": "10.72", "trialTime": 23838, "trial_type": "mouselab-mdp", "trial_index": 10, "time_elapsed": 937305, "internal_node_id": "0.0-2.1-2.1-1.1"}}, {"uniqueid": "w53181297:a59209405", "current_trial": 11, "dateTime": 1693389537579, "trialdata": {"view_history": [{"page_index": 0, "viewing_time": 5446}, {"page_index": 1, "viewing_time": 2220}], "rt": 7666, "trial_id": "mouselab_instructions_2_control", "trial_type": "instructions", "trial_index": 11, "time_elapsed": 944975, "internal_node_id": "0.0-2.1-3.1"}}, {"uniqueid": "w53181297:a59209405", "current_trial": 12, "dateTime": 1693389600676, "trialdata": {"rt": 63094, "response": {"Q0": "The cost for clicking on nodes may vary between nodes.", "Q1": "The better I perform the higher my bonus will be.", "Q2": "No, the amount of cash at each node of the web may be different each time.", "Q3": "To get the highest total score.", "Q4": "Only before moving the spider.", "Q5": "3 seconds"}, "question_order": [0, 1, 2, 3, 4, 5], "correct": {"Q0": "The cost for clicking on nodes may vary between nodes.", "Q1": "The better I perform the higher my bonus will be.", "Q2": "No, the amount of cash at each node of the web may be different each time.", "Q3": "To get the highest total score.", "Q4": "Only before moving the spider.", "Q5": "3 seconds"}, "trial_id": "mouselab_quiz_control", "trial_type": "survey-multi-choice", "trial_index": 12, "time_elapsed": 1008072, "internal_node_id": "0.0-2.1-4.1"}}, {"uniqueid": "w53181297:a59209405", "current_trial": 13, "dateTime": 1693389610799, "trialdata": {"rt": 10116, "response": {"Q0": "No"}, "question_order": [0], "trial_id": "repeat_check", "trial_type": "survey-multi-choice", "trial_index": 13, "time_elapsed": 1018195, "internal_node_id": "0.0-4.0-0.0"}}, {"uniqueid": "w53181297:a59209405", "current_trial": 14, "dateTime": 1693389635523, "trialdata": {"rt": 24718, "stimulus": "\n<h1> Get ready to start the game! </h1>\n\nThank you for reading the instructions. Get ready start with the 40 rounds of this game.\n<br><br>\nIf you need to take a break, feel free to take one after the end of a round, before continuing to the next one.\n<br><br>\nRemember, the more money the spider gets, the bigger your bonus will be!\n<br><br>\n<div style='text-align: center;'>Press <code>space</code> to begin.</div>\n\n<br><br>\n(If, at any point, the <code>space</code> key does not take you to the next page, click once on the text and try again.)", "response": " ", "trial_id": "mdp_ready", "trial_type": "html-keyboard-response", "trial_index": 14, "time_elapsed": 1042919, "internal_node_id": "0.0-6.0-0.0"}}, {"uniqueid": "w53181297:a59209405", "current_trial": 15, "dateTime": 1693389673816, "trialdata": {"revealed_states": [], "clicked_states": [], "num_clicks_accrued": [0, 0, 0, 0, 0, 0, 0, 0, 0, 0, 0, 0, 0], "stateRewards": ["", 1, 2, -3, -5, 66, -50, -47, -5, 1, 28, -27, 1, 1, -1, -6, 37, -25, 56, 1, -82, -66, -40, -1, -4, -7, 15, -61, -23, 26, 10, 14, -56, 29], "withholdReward": false, "trial_id": "mdp_trial_1", "block": "test", "trialIndex": 4, "score": 61, "costs": 0, "simulationMode": [null, null, null, null, null], "rewards": [1, 2, -3, -5, 66], "path": ["0", "0", "1", "2", "3", "4", "5"], "rt": [3154, 486, 462, 678, 535], "actions": ["up", "up", "up", "right", "up"], "actionTimes": [5498, 6496, 7471, 8670, 9725], "queries": {"click": {"state": {"target": [], "time": []}, "edge": {"target": [], "time": []}}, "mouseover": {"state": {"target": [], "time": []}, "edge": {"target": [], "time": []}}, "mouseout": {"state": {"target": ["0"], "time": [2561]}, "edge": {"target": [], "time": []}}}, "displayed_time": "16.35", "trialTime": 38020, "trial_type": "mouselab-mdp", "trial_index": 15, "time_elapsed": 1081211, "internal_node_id": "0.0-6.0-1.0-0.0"}}, {"uniqueid": "w53181297:a59209405", "current_trial": 16, "dateTime": 1693389698386, "trialdata": {"revealed_states": [], "clicked_states": [], "num_clicks_accrued": [0, 0, 0, 0, 0, 0, 0, 0, 0, 0, 0, 0, 0], "stateRewards": ["", 2, 3, -3, 4, 72, -28, 34, -12, 57, -64, -15, 2, 1, -4, -15, 2, 49, 31, -1, -42, -58, 31, -2, 1, -2, -13, -75, -19, -22, -6, 61, 10, -56], "withholdReward": false, "trial_id": "mdp_trial_2", "block": "test", "trialIndex": 5, "score": -14, "costs": 0, "simulationMode": [null, null, null, null, null], "rewards": [2, 1, -4, -15, 2], "path": ["0", "0", "12", "13", "14", "15", "16"], "rt": [2106, 414, 487, 346, 395], "actions": ["right", "right", "right", "up", "up"], "actionTimes": [6377, 7305, 8310, 9168, 10083], "queries": {"click": {"state": {"target": [], "time": []}, "edge": {"target": [], "time": []}}, "mouseover": {"state": {"target": ["1"], "time": [4409]}, "edge": {"target": [], "time": []}}, "mouseout": {"state": {"target": ["1"], "time": [4518]}, "edge": {"target": [], "time": []}}}, "displayed_time": "18.27", "trialTime": 24278, "trial_type": "mouselab-mdp", "trial_index": 16, "time_elapsed": 1105782, "internal_node_id": "0.0-6.0-1.0-1.0"}}, {"uniqueid": "w53181297:a59209405", "current_trial": 17, "dateTime": 1693389721632, "trialdata": {"revealed_states": [], "clicked_states": [], "num_clicks_accrued": [0, 0, 0, 0, 0, 0, 0, 0, 0, 0, 0, 0, 0], "stateRewards": ["", 2, -3, -4, -1, 25, -16, 16, 10, -71, -20, -55, 1, 3, -4, -9, 1, 32, 11, -6, 32, -50, -41, -1, 4, 4, -8, 7, -81, 70, 2, -52, 45, -10], "withholdReward": false, "trial_id": "mdp_trial_3", "block": "test", "trialIndex": 6, "score": -66, "costs": 0, "simulationMode": [null, null, null, null, null], "rewards": [2, -3, -4, 10, -71], "path": ["0", "0", "1", "2", "3", "8", "9"], "rt": [3390, 399, 352, 539, 520], "actions": ["up", "up", "up", "left", "up"], "actionTimes": [5880, 6800, 7668, 8721, 9752], "queries": {"click": {"state": {"target": [], "time": []}, "edge": {"target": [], "time": []}}, "mouseover": {"state": {"target": ["1", "2"], "time": [2618, 2668]}, "edge": {"target": [], "time": []}}, "mouseout": {"state": {"target": ["1", "0", "1"], "time": [1887, 2552, 2651]}, "edge": {"target": [], "time": []}}}, "displayed_time": "16.49", "trialTime": 22940, "trial_type": "mouselab-mdp", "trial_index": 17, "time_elapsed": 1129027, "internal_node_id": "0.0-6.0-1.0-2.0"}}, {"uniqueid": "w53181297:a59209405", "current_trial": 18, "dateTime": 1693389743579, "trialdata": {"revealed_states": [], "clicked_states": [], "num_clicks_accrued": [0, 0, 0, 0, 0, 0, 0, 0, 0, 0, 0, 0, 0], "stateRewards": ["", 2, -2, 7, -11, -76, -65, -23, 16, -58, 30, 81, 1, 2, 7, 14, 9, 55, -2, 6, 11, -15, 31, -1, -1, -3, 2, 15, 2, 46, 15, 18, 45, -34], "withholdReward": false, "trial_id": "mdp_trial_4", "block": "test", "trialIndex": 7, "score": 12, "costs": 0, "simulationMode": [null, null, null, null, null], "rewards": [-1, -1, -3, 2, 15], "path": ["0", "0", "23", "24", "25", "26", "27"], "rt": [4646, 468, 346, 430, 235], "actions": ["left", "left", "left", "up", "up"], "actionTimes": [7240, 8217, 9077, 10025, 10779], "queries": {"click": {"state": {"target": [], "time": []}, "edge": {"target": [], "time": []}}, "mouseover": {"state": {"target": ["23", "23"], "time": [2784, 3251]}, "edge": {"target": [], "time": []}}, "mouseout": {"state": {"target": ["2", "1", "22", "0", "0", "23", "23"], "time": [1292, 1402, 1468, 1834, 2750, 2851, 5947]}, "edge": {"target": [], "time": []}}}, "displayed_time": "16.60", "trialTime": 21641, "trial_type": "mouselab-mdp", "trial_index": 18, "time_elapsed": 1150974, "internal_node_id": "0.0-6.0-1.0-3.0"}}, {"uniqueid": "w53181297:a59209405", "current_trial": 19, "dateTime": 1693389767639, "trialdata": {"revealed_states": [], "clicked_states": [], "num_clicks_accrued": [0, 0, 0, 0, 0, 0, 0, 0, 0, 0, 0, 0, 0], "stateRewards": ["", -1, 1, 6, -6, 70, 66, 67, -16, -75, -35, 37, -1, 4, 4, -6, 47, -9, 63, 15, 21, -63, 13, 1, 3, -6, 10, 79, -29, 18, -15, 9, -67, -19], "withholdReward": false, "trial_id": "mdp_trial_5", "block": "test", "trialIndex": 8, "score": 70, "costs": 0, "simulationMode": [null, null, null, null, null], "rewards": [-1, 1, 6, -6, 70], "path": ["0", "0", "1", "2", "3", "4", "5"], "rt": [2177, 473, 440, 494, 493], "actions": ["up", "up", "up", "right", "up"], "actionTimes": [4831, 5809, 6758, 7762, 8776], "queries": {"click": {"state": {"target": [], "time": []}, "edge": {"target": [], "time": []}}, "mouseover": {"state": {"target": ["1"], "time": [2819]}, "edge": {"target": [], "time": []}}, "mouseout": {"state": {"target": ["0", "0"], "time": [1937, 2666]}, "edge": {"target": [], "time": []}}}, "displayed_time": "16.66", "trialTime": 23726, "trial_type": "mouselab-mdp", "trial_index": 19, "time_elapsed": 1175035, "internal_node_id": "0.0-6.0-1.0-4.0"}}, {"uniqueid": "w53181297:a59209405", "current_trial": 20, "dateTime": 1693389788241, "trialdata": {"revealed_states": [], "clicked_states": [], "num_clicks_accrued": [0, 0, 0, 0, 0, 0, 0, 0, 0, 0, 0, 0, 0], "stateRewards": ["", 2, 4, 4, -8, -36, -33, 38, 16, -51, 57, 57, 1, 3, 4, -6, 45, 68, 87, 1, 63, 24, -55, -2, 2, -6, -13, -63, -50, 8, 2, 80, 6, 60], "withholdReward": false, "trial_id": "mdp_trial_6", "block": "test", "trialIndex": 9, "score": 47, "costs": 0, "simulationMode": [null, null, null, null, null], "rewards": [1, 3, 4, -6, 45], "path": ["0", "0", "12", "13", "14", "15", "16"], "rt": [2614, 489, 399, 472, 309], "actions": ["right", "right", "right", "up", "up"], "actionTimes": [5031, 6030, 6939, 7928, 8748], "queries": {"click": {"state": {"target": [], "time": []}, "edge": {"target": [], "time": []}}, "mouseover": {"state": {"target": [], "time": []}, "edge": {"target": [], "time": []}}, "mouseout": {"state": {"target": ["1", "0"], "time": [1426, 2593]}, "edge": {"target": [], "time": []}}}, "displayed_time": "16.42", "trialTime": 20258, "trial_type": "mouselab-mdp", "trial_index": 20, "time_elapsed": 1195637, "internal_node_id": "0.0-6.0-1.0-5.0"}}, {"uniqueid": "w53181297:a59209405", "current_trial": 21, "dateTime": 1693389809382, "trialdata": {"revealed_states": [], "clicked_states": [], "num_clicks_accrued": [0, 0, 0, 0, 0, 0, 0, 0, 0, 0, 0, 0, 0], "stateRewards": ["", -2, -1, -5, 10, -36, -70, 68, -9, 86, 71, -10, 2, -4, 7, -7, 66, 44, -66, -13, -69, 43, 15, -2, 2, 6, -13, 62, 57, 50, -10, -69, 42, -72], "withholdReward": false, "trial_id": "mdp_trial_7", "block": "test", "trialIndex": 10, "score": 55, "costs": 0, "simulationMode": [null, null, null, null, null], "rewards": [-2, 2, 6, -13, 62], "path": ["0", "0", "23", "24", "25", "26", "27"], "rt": [1549, 440, 481, 445, 293], "actions": ["left", "left", "left", "up", "up"], "actionTimes": [4383, 5332, 6321, 7284, 8098], "queries": {"click": {"state": {"target": [], "time": []}, "edge": {"target": [], "time": []}}, "mouseover": {"state": {"target": ["7"], "time": [3008]}, "edge": {"target": [], "time": []}}, "mouseout": {"state": {"target": ["18", "13", "12", "0", "0"], "time": [1759, 1958, 2008, 2092, 2862]}, "edge": {"target": [], "time": []}}}, "displayed_time": "16.84", "trialTime": 20818, "trial_type": "mouselab-mdp", "trial_index": 21, "time_elapsed": 1216777, "internal_node_id": "0.0-6.0-1.0-6.0"}}, {"uniqueid": "w53181297:a59209405", "current_trial": 22, "dateTime": 1693389832249, "trialdata": {"revealed_states": [], "clicked_states": [], "num_clicks_accrued": [0, 0, 0, 0, 0, 0, 0, 0, 0, 0, 0, 0, 0], "stateRewards": ["", 1, 2, -6, -13, -51, 22, -4, -12, -44, -12, 6, -2, -2, -2, -14, -46, -4, -77, -2, 36, -79, 41, 2, -4, 2, -6, -55, 59, 70, -5, 39, -19, 24], "withholdReward": false, "trial_id": "mdp_trial_8", "block": "test", "trialIndex": 11, "score": -67, "costs": 0, "simulationMode": [null, null, null, null, null], "rewards": [1, 2, -6, -13, -51], "path": ["0", "0", "1", "2", "3", "4", "5"], "rt": [1855, 493, 397, 531, 551], "actions": ["up", "up", "up", "right", "up"], "actionTimes": [4241, 5245, 6148, 7198, 8266], "queries": {"click": {"state": {"target": [], "time": []}, "edge": {"target": [], "time": []}}, "mouseover": {"state": {"target": ["7"], "time": [2536]}, "edge": {"target": [], "time": []}}, "mouseout": {"state": {"target": ["7", "18", "7", "1", "26", "26", "28", "1"], "time": [1370, 1652, 19687, 20301, 20920, 21283, 21333, 21983]}, "edge": {"target": [], "time": []}}}, "displayed_time": "16.39", "trialTime": 22533, "trial_type": "mouselab-mdp", "trial_index": 22, "time_elapsed": 1239644, "internal_node_id": "0.0-6.0-1.0-7.0"}}, {"uniqueid": "w53181297:a59209405", "current_trial": 23, "dateTime": 1693389852892, "trialdata": {"revealed_states": [], "clicked_states": [], "num_clicks_accrued": [0, 0, 0, 0, 0, 0, 0, 0, 0, 0, 0, 0, 0], "stateRewards": ["", -1, -2, 4, 9, 10, -75, 39, 16, -43, 88, -19, -1, 1, 2, 4, -31, 10, 73, 12, 41, -64, -81, -2, 2, -6, 1, -81, -1, -26, 3, -59, -3, -20], "withholdReward": false, "trial_id": "mdp_trial_9", "block": "test", "trialIndex": 12, "score": -86, "costs": 0, "simulationMode": [null, null, null, null, null], "rewards": [-2, 2, -6, 1, -81], "path": ["0", "0", "23", "24", "25", "26", "27"], "rt": [1305, 392, 496, 445, 342], "actions": ["left", "left", "left", "up", "up"], "actionTimes": [3460, 4369, 5373, 6336, 7216], "queries": {"click": {"state": {"target": [], "time": []}, "edge": {"target": [], "time": []}}, "mouseover": {"state": {"target": ["1"], "time": [2227]}, "edge": {"target": [], "time": []}}, "mouseout": {"state": {"target": ["1", "0", "1"], "time": [1410, 2166, 2243]}, "edge": {"target": [], "time": []}}}, "displayed_time": "16.16", "trialTime": 20307, "trial_type": "mouselab-mdp", "trial_index": 23, "time_elapsed": 1260287, "internal_node_id": "0.0-6.0-1.0-8.0"}}, {"uniqueid": "w53181297:a59209405", "current_trial": 24, "dateTime": 1693389870876, "trialdata": {"revealed_states": [], "clicked_states": [], "num_clicks_accrued": [0, 0, 0, 0, 0, 0, 0, 0, 0, 0, 0, 0, 0], "stateRewards": ["", -2, -3, 1, -7, 39, -67, 16, 5, -20, 73, 66, -1, 4, 5, -3, 23, -68, -87, -8, 3, -3, 17, 1, -4, -2, -13, -32, 34, 61, -5, -11, -18, 12], "withholdReward": false, "trial_id": "mdp_trial_10", "block": "test", "trialIndex": 13, "score": 28, "costs": 0, "simulationMode": [null, null, null, null, null], "rewards": [-2, -3, 1, -7, 39], "path": ["0", "0", "1", "2", "3", "4", "5"], "rt": [1492, 277, 503, 530, 438], "actions": ["up", "up", "up", "right", "up"], "actionTimes": [2776, 3569, 4579, 5638, 6611], "queries": {"click": {"state": {"target": [], "time": []}, "edge": {"target": [], "time": []}}, "mouseover": {"state": {"target": [], "time": []}, "edge": {"target": [], "time": []}}, "mouseout": {"state": {"target": ["12"], "time": [659]}, "edge": {"target": [], "time": []}}}, "displayed_time": "15.29", "trialTime": 17626, "trial_type": "mouselab-mdp", "trial_index": 24, "time_elapsed": 1278271, "internal_node_id": "0.0-6.0-1.0-9.0"}}, {"uniqueid": "w53181297:a59209405", "current_trial": 25, "dateTime": 1693389890165, "trialdata": {"revealed_states": [], "clicked_states": [], "num_clicks_accrued": [0, 0, 0, 0, 0, 0, 0, 0, 0, 0, 0, 0, 0], "stateRewards": ["", -1, -4, -1, -11, 43, 69, 39, 4, 17, -20, -82, -2, -1, 4, 8, -79, 24, -79, 11, 36, 64, 41, 2, 4, -1, 11, -79, -47, 75, -3, 63, -36, -19], "withholdReward": false, "trial_id": "mdp_trial_11", "block": "test", "trialIndex": 14, "score": -70, "costs": 0, "simulationMode": [null, null, null, null, null], "rewards": [-2, -1, 4, 8, -79], "path": ["0", "0", "12", "13", "14", "15", "16"], "rt": [1212, 342, 411, 529, 300], "actions": ["right", "right", "right", "up", "up"], "actionTimes": [3655, 4513, 5462, 6496, 7316], "queries": {"click": {"state": {"target": [], "time": []}, "edge": {"target": [], "time": []}}, "mouseover": {"state": {"target": [], "time": []}, "edge": {"target": [], "time": []}}, "mouseout": {"state": {"target": [], "time": []}, "edge": {"target": [], "time": []}}}, "displayed_time": "16.44", "trialTime": 18944, "trial_type": "mouselab-mdp", "trial_index": 25, "time_elapsed": 1297560, "internal_node_id": "0.0-6.0-1.0-10.0"}}, {"uniqueid": "w53181297:a59209405", "current_trial": 26, "dateTime": 1693389908807, "trialdata": {"revealed_states": [], "clicked_states": [], "num_clicks_accrued": [0, 0, 0, 0, 0, 0, 0, 0, 0, 0, 0, 0, 0], "stateRewards": ["", 2, -4, -8, -15, 71, -43, -41, 7, -17, 20, 67, -1, -1, -4, 6, 37, -24, -47, 9, 34, 57, 45, 1, 2, -4, -5, -23, 88, -5, 13, -40, 43, 44], "withholdReward": false, "trial_id": "mdp_trial_12", "block": "test", "trialIndex": 15, "score": -20, "costs": 0, "simulationMode": [null, null, null, null, null], "rewards": [2, -4, -8, 7, -17], "path": ["0", "0", "1", "2", "3", "8", "9"], "rt": [2271, 392, 397, 391, 445], "actions": ["up", "up", "up", "left", "up"], "actionTimes": [4498, 5402, 6306, 7215, 8169], "queries": {"click": {"state": {"target": [], "time": []}, "edge": {"target": [], "time": []}}, "mouseover": {"state": {"target": [], "time": []}, "edge": {"target": [], "time": []}}, "mouseout": {"state": {"target": ["18", "0"], "time": [1211, 2260]}, "edge": {"target": [], "time": []}}}, "displayed_time": "16.23", "trialTime": 18280, "trial_type": "mouselab-mdp", "trial_index": 26, "time_elapsed": 1316202, "internal_node_id": "0.0-6.0-1.0-11.0"}}, {"uniqueid": "w53181297:a59209405", "current_trial": 27, "dateTime": 1693389928577, "trialdata": {"revealed_states": [], "clicked_states": [], "num_clicks_accrued": [0, 0, 0, 0, 0, 0, 0, 0, 0, 0, 0, 0, 0], "stateRewards": ["", 1, 2, -3, -6, 50, -7, 7, -7, -80, 21, -1, 2, 2, 4, -1, 33, 84, 1, 14, -53, 81, 6, -2, -2, -3, -9, -87, -38, -59, -5, -74, -3, -71], "withholdReward": false, "trial_id": "mdp_trial_13", "block": "test", "trialIndex": 16, "score": -103, "costs": 0, "simulationMode": [null, null, null, null, null], "rewards": [-2, -2, -3, -9, -87], "path": ["0", "0", "23", "24", "25", "26", "27"], "rt": [1423, 304, 345, 349, 207], "actions": ["left", "left", "left", "up", "up"], "actionTimes": [3191, 4005, 4859, 5728, 6452], "queries": {"click": {"state": {"target": [], "time": []}, "edge": {"target": [], "time": []}}, "mouseover": {"state": {"target": [], "time": []}, "edge": {"target": [], "time": []}}, "mouseout": {"state": {"target": ["12", "0", "0"], "time": [931, 1131, 1779]}, "edge": {"target": [], "time": []}}}, "displayed_time": "15.77", "trialTime": 19404, "trial_type": "mouselab-mdp", "trial_index": 27, "time_elapsed": 1335972, "internal_node_id": "0.0-6.0-1.0-12.0"}}, {"uniqueid": "w53181297:a59209405", "current_trial": 28, "dateTime": 1693389948111, "trialdata": {"revealed_states": [], "clicked_states": [], "num_clicks_accrued": [0, 0, 0, 0, 0, 0, 0, 0, 0, 0, 0, 0, 0], "stateRewards": ["", -1, 3, -7, 16, -32, -74, -48, 2, 10, 15, -30, 1, 1, -2, 10, 12, -83, 67, 13, -66, 47, 65, -2, 4, 2, -14, -8, -57, 24, 9, 65, 12, 46], "withholdReward": false, "trial_id": "mdp_trial_14", "block": "test", "trialIndex": 17, "score": -21, "costs": 0, "simulationMode": [null, null, null, null, null], "rewards": [-1, 3, -7, 16, -32], "path": ["0", "0", "1", "2", "3", "4", "5"], "rt": [1652, 402, 409, 453, 347], "actions": ["up", "up", "up", "right", "up"], "actionTimes": [4338, 5246, 6170, 7129, 7989], "queries": {"click": {"state": {"target": [], "time": []}, "edge": {"target": [], "time": []}}, "mouseover": {"state": {"target": ["1"], "time": [2778]}, "edge": {"target": [], "time": []}}, "mouseout": {"state": {"target": ["18", "13", "12", "23", "23", "0", "1"], "time": [1595, 1778, 1830, 1878, 2094, 2700, 2795]}, "edge": {"target": [], "time": []}}}, "displayed_time": "16.69", "trialTime": 19158, "trial_type": "mouselab-mdp", "trial_index": 28, "time_elapsed": 1355507, "internal_node_id": "0.0-6.0-1.0-13.0"}}, {"uniqueid": "w53181297:a59209405", "current_trial": 29, "dateTime": 1693389973162, "trialdata": {"revealed_states": [], "clicked_states": ["1", "12", "23"], "num_clicks_accrued": [0, 0, 0, 0, 0, 0, 0, 0, 0, 0, 0, 0, 0], "stateRewards": ["", 1, 1, 7, -11, 80, -20, -53, -14, 3, 31, 27, 2, -1, -8, -10, 33, 41, 86, 9, 78, -37, -13, -1, -2, -6, -8, -80, 75, 4, -16, -49, -74, 24], "withholdReward": false, "trial_id": "mdp_trial_15", "block": "test", "trialIndex": 18, "score": -101.2, "costs": -4.199999999999999, "simulationMode": [null, null, null, null, null], "rewards": [-1, -2, -6, -8, -80], "path": ["0", "0", "23", "24", "25", "26", "27"], "rt": [11196, 419, 312, 364, 246], "actions": ["left", "left", "left", "up", "up"], "actionTimes": [13680, 14607, 15431, 16316, 17080], "queries": {"click": {"state": {"target": ["1", "12", "23"], "time": [4206, 6092, 8408]}, "edge": {"target": [], "time": []}}, "mouseover": {"state": {"target": ["1", "12", "0", "23", "31", "30", "31"], "time": [2963, 5760, 7309, 7493, 11105, 11172, 11321]}, "edge": {"target": [], "time": []}}, "mouseout": {"state": {"target": ["1", "1", "0", "1", "12", "12", "0", "23", "31", "30", "31"], "time": [782, 1330, 2882, 4280, 6560, 7209, 7409, 9940, 11139, 11305, 11338]}, "edge": {"target": [], "time": []}}}, "displayed_time": "17.61", "trialTime": 24678, "trial_type": "mouselab-mdp", "trial_index": 29, "time_elapsed": 1380557, "internal_node_id": "0.0-6.0-1.0-14.0"}}, {"uniqueid": "w53181297:a59209405", "current_trial": 30, "dateTime": 1693389992486, "trialdata": {"revealed_states": [], "clicked_states": [], "num_clicks_accrued": [0, 0, 0, 0, 0, 0, 0, 0, 0, 0, 0, 0, 0], "stateRewards": ["", 1, 2, 2, -15, -84, 28, -26, 13, 31, 86, 30, -2, 1, -1, -8, 66, -40, -1, -10, -32, 57, -17, 1, 2, -2, 9, -23, 77, 85, 12, -32, -62, -35], "withholdReward": false, "trial_id": "mdp_trial_16", "block": "test", "trialIndex": 19, "score": 56, "costs": 0, "simulationMode": [null, null, null, null, null], "rewards": [-2, 1, -1, -8, 66], "path": ["0", "0", "12", "13", "14", "15", "16"], "rt": [2220, 231, 363, 381, 224], "actions": ["right", "right", "right", "up", "up"], "actionTimes": [4583, 5336, 6215, 7115, 7859], "queries": {"click": {"state": {"target": [], "time": []}, "edge": {"target": [], "time": []}}, "mouseover": {"state": {"target": [], "time": []}, "edge": {"target": [], "time": []}}, "mouseout": {"state": {"target": [], "time": []}, "edge": {"target": [], "time": []}}}, "displayed_time": "16.36", "trialTime": 18968, "trial_type": "mouselab-mdp", "trial_index": 30, "time_elapsed": 1399881, "internal_node_id": "0.0-6.0-1.0-15.0"}}, {"uniqueid": "w53181297:a59209405", "current_trial": 31, "dateTime": 1693390011666, "trialdata": {"revealed_states": [], "clicked_states": [], "num_clicks_accrued": [0, 0, 0, 0, 0, 0, 0, 0, 0, 0, 0, 0, 0], "stateRewards": ["", 1, -1, 4, 5, -32, 18, 20, 6, -88, -74, 9, -2, 1, -2, -14, 34, -77, -38, -1, 80, -36, 73, 2, 3, -8, 10, -48, -73, -71, -11, -22, 20, 54], "withholdReward": false, "trial_id": "mdp_trial_17", "block": "test", "trialIndex": 20, "score": 27, "costs": 0, "simulationMode": [null, null, null, null, null], "rewards": [1, -1, 4, 5, 18], "path": ["0", "0", "1", "2", "3", "4", "6"], "rt": [1270, 209, 277, 364, 141], "actions": ["up", "up", "up", "right", "right"], "actionTimes": [2377, 3105, 3890, 4759, 5418], "queries": {"click": {"state": {"target": [], "time": []}, "edge": {"target": [], "time": []}}, "mouseover": {"state": {"target": [], "time": []}, "edge": {"target": [], "time": []}}, "mouseout": {"state": {"target": [], "time": []}, "edge": {"target": [], "time": []}}}, "displayed_time": "15.11", "trialTime": 18774, "trial_type": "mouselab-mdp", "trial_index": 31, "time_elapsed": 1419061, "internal_node_id": "0.0-6.0-1.0-16.0"}}, {"uniqueid": "w53181297:a59209405", "current_trial": 32, "dateTime": 1693390036211, "trialdata": {"revealed_states": [], "clicked_states": [], "num_clicks_accrued": [0, 0, 0, 0, 0, 0, 0, 0, 0, 0, 0, 0, 0], "stateRewards": ["", 1, 4, -8, -13, -13, -87, -77, -10, -44, 54, 42, 2, -3, -4, 12, -9, -80, 52, 9, 84, -2, -65, 1, -4, -5, -6, 8, 80, 32, 13, -59, -5, -13], "withholdReward": false, "trial_id": "mdp_trial_18", "block": "test", "trialIndex": 21, "score": 29, "costs": 0, "simulationMode": [null, null, null, null, null], "rewards": [1, 4, -8, -10, 42], "path": ["0", "0", "1", "2", "3", "8", "11"], "rt": [1332, 341, 426, 1026, 270], "actions": ["up", "up", "up", "left", "left"], "actionTimes": [3671, 4519, 5453, 6987, 7761], "queries": {"click": {"state": {"target": [], "time": []}, "edge": {"target": [], "time": []}}, "mouseover": {"state": {"target": [], "time": []}, "edge": {"target": [], "time": []}}, "mouseout": {"state": {"target": [], "time": []}, "edge": {"target": [], "time": []}}}, "displayed_time": "16.34", "trialTime": 24154, "trial_type": "mouselab-mdp", "trial_index": 32, "time_elapsed": 1443606, "internal_node_id": "0.0-6.0-1.0-17.0"}}, {"uniqueid": "w53181297:a59209405", "current_trial": 33, "dateTime": 1693390054960, "trialdata": {"revealed_states": [], "clicked_states": [], "num_clicks_accrued": [0, 0, 0, 0, 0, 0, 0, 0, 0, 0, 0, 0, 0], "stateRewards": ["", 1, 2, -8, 9, 18, -83, -11, 6, -64, -48, 17, -2, -2, -5, -3, -24, -3, -86, -2, 48, -41, -22, -2, 4, 7, 8, 81, 13, -48, 10, 61, 19, 57], "withholdReward": false, "trial_id": "mdp_trial_19", "block": "test", "trialIndex": 22, "score": 38, "costs": 0, "simulationMode": [null, null, null, null, null], "rewards": [-2, 4, 7, 10, 19], "path": ["0", "0", "23", "24", "25", "30", "32"], "rt": [2632, 330, 430, 595, 263], "actions": ["left", "left", "left", "down", "down"], "actionTimes": [4084, 4922, 5871, 6985, 7768], "queries": {"click": {"state": {"target": [], "time": []}, "edge": {"target": [], "time": []}}, "mouseover": {"state": {"target": [], "time": []}, "edge": {"target": [], "time": []}}, "mouseout": {"state": {"target": ["0"], "time": [null]}, "edge": {"target": [], "time": []}}}, "displayed_time": "15.45", "trialTime": 18343, "trial_type": "mouselab-mdp", "trial_index": 33, "time_elapsed": 1462355, "internal_node_id": "0.0-6.0-1.0-18.0"}}, {"uniqueid": "w53181297:a59209405", "current_trial": 34, "dateTime": 1693390073901, "trialdata": {"revealed_states": [], "clicked_states": [], "num_clicks_accrued": [0, 0, 0, 0, 0, 0, 0, 0, 0, 0, 0, 0, 0], "stateRewards": ["", -1, 1, -2, 5, 73, 15, 61, 8, 7, 38, 76, 2, 2, -4, -6, -6, -26, 43, -5, -45, -85, -35, -2, 1, -4, 15, -10, 69, 72, -11, 84, -49, -38], "withholdReward": false, "trial_id": "mdp_trial_20", "block": "test", "trialIndex": 23, "score": -90, "costs": 0, "simulationMode": [null, null, null, null, null], "rewards": [2, 2, -4, -5, -85], "path": ["0", "0", "12", "13", "14", "19", "21"], "rt": [1907, 368, 370, 421, 383], "actions": ["right", "right", "right", "down", "down"], "actionTimes": [3808, 4691, 5575, 6508, 7418], "queries": {"click": {"state": {"target": [], "time": []}, "edge": {"target": [], "time": []}}, "mouseover": {"state": {"target": [], "time": []}, "edge": {"target": [], "time": []}}, "mouseout": {"state": {"target": [], "time": []}, "edge": {"target": [], "time": []}}}, "displayed_time": "15.90", "trialTime": 18531, "trial_type": "mouselab-mdp", "trial_index": 34, "time_elapsed": 1481296, "internal_node_id": "0.0-6.0-1.0-19.0"}}, {"uniqueid": "w53181297:a59209405", "current_trial": 35, "dateTime": 1693390092198, "trialdata": {"revealed_states": [], "clicked_states": [], "num_clicks_accrued": [0, 0, 0, 0, 0, 0, 0, 0, 0, 0, 0, 0, 0], "stateRewards": ["", 2, -4, -4, 13, -80, 62, 13, -11, 57, -13, -44, 1, 4, 3, -4, -29, -88, 15, 16, -58, 68, -45, -1, -3, -1, -9, -44, -86, -19, -7, -36, 59, 66], "withholdReward": false, "trial_id": "mdp_trial_21", "block": "test", "trialIndex": 24, "score": -84, "costs": 0, "simulationMode": [null, null, null, null, null], "rewards": [1, 4, 3, -4, -88], "path": ["0", "0", "12", "13", "14", "15", "17"], "rt": [2723, 487, 398, 571, 368], "actions": ["right", "right", "right", "up", "right"], "actionTimes": [4439, 5442, 6352, 7441, 8319], "queries": {"click": {"state": {"target": [], "time": []}, "edge": {"target": [], "time": []}}, "mouseover": {"state": {"target": [], "time": []}, "edge": {"target": [], "time": []}}, "mouseout": {"state": {"target": [], "time": []}, "edge": {"target": [], "time": []}}}, "displayed_time": "15.72", "trialTime": 17881, "trial_type": "mouselab-mdp", "trial_index": 35, "time_elapsed": 1499593, "internal_node_id": "0.0-6.0-1.0-20.0"}}, {"uniqueid": "w53181297:a59209405", "current_trial": 36, "dateTime": 1693390110795, "trialdata": {"revealed_states": [], "clicked_states": [], "num_clicks_accrued": [0, 0, 0, 0, 0, 0, 0, 0, 0, 0, 0, 0, 0], "stateRewards": ["", 1, 4, -8, -5, -15, -7, 21, 13, -30, 40, -65, 1, 1, 5, -14, 35, 27, -38, -11, 36, -58, -47, -2, 4, -3, 13, -16, -49, 22, 15, -56, -44, -10], "withholdReward": false, "trial_id": "mdp_trial_22", "block": "test", "trialIndex": 25, "score": 34, "costs": 0, "simulationMode": [null, null, null, null, null], "rewards": [-2, 4, -3, 13, 22], "path": ["0", "0", "23", "24", "25", "26", "29"], "rt": [1549, 310, 528, 413, 525], "actions": ["left", "left", "left", "up", "left"], "actionTimes": [3212, 4031, 5065, 5998, 7043], "queries": {"click": {"state": {"target": [], "time": []}, "edge": {"target": [], "time": []}}, "mouseover": {"state": {"target": [], "time": []}, "edge": {"target": [], "time": []}}, "mouseout": {"state": {"target": [], "time": []}, "edge": {"target": [], "time": []}}}, "displayed_time": "15.66", "trialTime": 18178, "trial_type": "mouselab-mdp", "trial_index": 36, "time_elapsed": 1518191, "internal_node_id": "0.0-6.0-1.0-21.0"}}, {"uniqueid": "w53181297:a59209405", "current_trial": 37, "dateTime": 1693390129725, "trialdata": {"revealed_states": [], "clicked_states": [], "num_clicks_accrued": [0, 0, 0, 0, 0, 0, 0, 0, 0, 0, 0, 0, 0], "stateRewards": ["", -2, 2, 5, -14, -56, 64, 84, -5, 52, 39, 85, -2, 1, 7, 8, 21, 29, -78, -9, -10, -69, 10, -2, -1, -7, 15, 72, 20, 41, -2, 52, 80, 22], "withholdReward": false, "trial_id": "mdp_trial_23", "block": "test", "trialIndex": 26, "score": -65, "costs": 0, "simulationMode": [null, null, null, null, null], "rewards": [-2, 2, 5, -14, -56], "path": ["0", "0", "1", "2", "3", "4", "5"], "rt": [1443, 206, 439, 598, 581], "actions": ["up", "up", "up", "right", "up"], "actionTimes": [2992, 3716, 4665, 5774, 6889], "queries": {"click": {"state": {"target": [], "time": []}, "edge": {"target": [], "time": []}}, "mouseover": {"state": {"target": [], "time": []}, "edge": {"target": [], "time": []}}, "mouseout": {"state": {"target": [], "time": []}, "edge": {"target": [], "time": []}}}, "displayed_time": "15.55", "trialTime": 18500, "trial_type": "mouselab-mdp", "trial_index": 37, "time_elapsed": 1537121, "internal_node_id": "0.0-6.0-1.0-22.0"}}, {"uniqueid": "w53181297:a59209405", "current_trial": 38, "dateTime": 1693390149780, "trialdata": {"revealed_states": [], "clicked_states": [], "num_clicks_accrued": [0, 0, 0, 0, 0, 0, 0, 0, 0, 0, 0, 0, 0], "stateRewards": ["", 1, 1, -2, 7, -31, -6, 76, 1, -36, -16, -53, 2, 1, 7, 13, -47, -10, 47, -7, 72, 46, -56, -2, -2, -2, 11, -80, 44, 38, 16, 67, 85, -78], "withholdReward": false, "trial_id": "mdp_trial_24", "block": "test", "trialIndex": 27, "score": -75, "costs": 0, "simulationMode": [null, null, null, null, null], "rewards": [-2, -2, -2, 11, -80], "path": ["0", "0", "23", "24", "25", "26", "27"], "rt": [2323, 397, 441, 346, 195], "actions": ["left", "left", "left", "up", "up"], "actionTimes": [4776, 5684, 6644, 7497, 8212], "queries": {"click": {"state": {"target": [], "time": []}, "edge": {"target": [], "time": []}}, "mouseover": {"state": {"target": ["31", "17"], "time": [3087, 3604]}, "edge": {"target": [], "time": []}}, "mouseout": {"state": {"target": ["0", "31", "17"], "time": [2464, 3103, 3620]}, "edge": {"target": [], "time": []}}}, "displayed_time": "16.45", "trialTime": 19635, "trial_type": "mouselab-mdp", "trial_index": 38, "time_elapsed": 1557175, "internal_node_id": "0.0-6.0-1.0-23.0"}}, {"uniqueid": "w53181297:a59209405", "current_trial": 39, "dateTime": 1693390169944, "trialdata": {"revealed_states": [], "clicked_states": [], "num_clicks_accrued": [0, 0, 0, 0, 0, 0, 0, 0, 0, 0, 0, 0, 0], "stateRewards": ["", 2, -2, -3, 10, -4, -1, -11, -8, -9, -36, -78, 2, 1, 7, -7, 44, -1, -31, -1, 26, 47, 83, 2, -4, -4, -6, -52, -76, -81, -1, -59, 45, 67], "withholdReward": false, "trial_id": "mdp_trial_25", "block": "test", "trialIndex": 28, "score": -89, "costs": 0, "simulationMode": [null, null, null, null, null], "rewards": [2, -2, -3, -8, -78], "path": ["0", "0", "1", "2", "3", "8", "11"], "rt": [1852, 189, 485, 983, 289], "actions": ["up", "up", "up", "left", "left"], "actionTimes": [6067, 6761, 7755, 9254, 10058], "queries": {"click": {"state": {"target": [], "time": []}, "edge": {"target": [], "time": []}}, "mouseover": {"state": {"target": ["0", "7"], "time": [4455, 4938]}, "edge": {"target": [], "time": []}}, "mouseout": {"state": {"target": ["12", "31", "0", "0"], "time": [3123, 3407, 4305, 4722]}, "edge": {"target": [], "time": []}}}, "displayed_time": "18.22", "trialTime": 19722, "trial_type": "mouselab-mdp", "trial_index": 39, "time_elapsed": 1577339, "internal_node_id": "0.0-6.0-1.0-24.0"}}, {"uniqueid": "w53181297:a59209405", "current_trial": 40, "dateTime": 1693390189311, "trialdata": {"revealed_states": [], "clicked_states": [], "num_clicks_accrued": [0, 0, 0, 0, 0, 0, 0, 0, 0, 0, 0, 0, 0], "stateRewards": ["", 1, -2, -8, -3, 31, -84, -55, -14, 15, -58, 17, -2, -3, 7, 7, -12, 48, 67, 4, -44, -68, 46, 2, 3, -5, -7, 76, 27, 5, 11, 57, 52, 59], "withholdReward": false, "trial_id": "mdp_trial_26", "block": "test", "trialIndex": 29, "score": 68, "costs": 0, "simulationMode": [null, null, null, null, null], "rewards": [2, 3, -5, 11, 57], "path": ["0", "0", "23", "24", "25", "30", "31"], "rt": [1573, 213, 245, 659, 602], "actions": ["left", "left", "left", "down", "right"], "actionTimes": [3590, 4323, 5088, 6268, 7377], "queries": {"click": {"state": {"target": [], "time": []}, "edge": {"target": [], "time": []}}, "mouseover": {"state": {"target": [], "time": []}, "edge": {"target": [], "time": []}}, "mouseout": {"state": {"target": ["7", "7"], "time": [1094, 1211]}, "edge": {"target": [], "time": []}}}, "displayed_time": "16.02", "trialTime": 18894, "trial_type": "mouselab-mdp", "trial_index": 40, "time_elapsed": 1596706, "internal_node_id": "0.0-6.0-1.0-25.0"}}, {"uniqueid": "w53181297:a59209405", "current_trial": 41, "dateTime": 1693390211804, "trialdata": {"revealed_states": [], "clicked_states": [], "num_clicks_accrued": [0, 0, 0, 0, 0, 0, 0, 0, 0, 0, 0, 0, 0], "stateRewards": ["", -2, 4, -3, -13, 63, -36, 62, 11, 78, 34, -51, 2, -2, 8, -6, -40, -18, 31, 9, 64, 39, 79, 1, 4, -4, 15, -12, 76, 73, -10, -77, 86, -4], "withholdReward": false, "trial_id": "mdp_trial_27", "block": "test", "trialIndex": 30, "score": 81, "costs": 0, "simulationMode": [null, null, null, null, null], "rewards": [2, -2, 8, 9, 64], "path": ["0", "0", "12", "13", "14", "19", "20"], "rt": [1559, 387, 316, 464, 471], "actions": ["right", "right", "right", "down", "right"], "actionTimes": [3224, 4118, 4947, 5927, 6916], "queries": {"click": {"state": {"target": [], "time": []}, "edge": {"target": [], "time": []}}, "mouseover": {"state": {"target": [], "time": []}, "edge": {"target": [], "time": []}}, "mouseout": {"state": {"target": [], "time": []}, "edge": {"target": [], "time": []}}}, "displayed_time": "15.67", "trialTime": 22010, "trial_type": "mouselab-mdp", "trial_index": 41, "time_elapsed": 1619199, "internal_node_id": "0.0-6.0-1.0-26.0"}}, {"uniqueid": "w53181297:a59209405", "current_trial": 42, "dateTime": 1693390231104, "trialdata": {"revealed_states": [], "clicked_states": [], "num_clicks_accrued": [0, 0, 0, 0, 0, 0, 0, 0, 0, 0, 0, 0, 0], "stateRewards": ["", 2, -3, 5, 11, -79, 54, 11, -9, -78, 33, 22, -2, -1, 2, 14, 43, 34, 1, 10, 49, -65, 39, -1, 1, -1, 3, -16, -2, 11, 2, 12, 48, -65], "withholdReward": false, "trial_id": "mdp_trial_28", "block": "test", "trialIndex": 31, "score": 28, "costs": 0, "simulationMode": [null, null, null, null, null], "rewards": [2, -3, 5, -9, 33], "path": ["0", "0", "1", "2", "3", "8", "10"], "rt": [3657, 555, 1331, 657, 1479], "actions": ["up", "up", "up", "left", "down"], "actionTimes": [5656, 6720, 8562, 9752, 11741], "queries": {"click": {"state": {"target": [], "time": []}, "edge": {"target": [], "time": []}}, "mouseover": {"state": {"target": [], "time": []}, "edge": {"target": [], "time": []}}, "mouseout": {"state": {"target": [], "time": []}, "edge": {"target": [], "time": []}}}, "displayed_time": "16.00", "trialTime": 18820, "trial_type": "mouselab-mdp", "trial_index": 42, "time_elapsed": 1638499, "internal_node_id": "0.0-6.0-1.0-27.0"}}, {"uniqueid": "w53181297:a59209405", "current_trial": 43, "dateTime": 1693390249442, "trialdata": {"revealed_states": [], "clicked_states": [], "num_clicks_accrued": [0, 0, 0, 0, 0, 0, 0, 0, 0, 0, 0, 0, 0], "stateRewards": ["", -2, 1, -8, 12, -65, -79, 16, 7, -80, -17, -45, -2, 2, -5, -2, -85, 23, -4, -7, 48, 27, -76, 2, 3, 5, 2, 43, 71, -13, 7, -49, 59, -31], "withholdReward": false, "trial_id": "mdp_trial_29", "block": "test", "trialIndex": 32, "score": 19, "costs": 0, "simulationMode": [null, null, null, null, null], "rewards": [-2, 1, -8, 12, 16], "path": ["0", "0", "1", "2", "3", "4", "7"], "rt": [1405, 474, 440, 1853, 528], "actions": ["up", "up", "up", "right", "down"], "actionTimes": [3133, 4112, 5077, 7440, 8478], "queries": {"click": {"state": {"target": [], "time": []}, "edge": {"target": [], "time": []}}, "mouseover": {"state": {"target": [], "time": []}, "edge": {"target": [], "time": []}}, "mouseout": {"state": {"target": [], "time": []}, "edge": {"target": [], "time": []}}}, "displayed_time": "15.73", "trialTime": 17864, "trial_type": "mouselab-mdp", "trial_index": 43, "time_elapsed": 1656838, "internal_node_id": "0.0-6.0-1.0-28.0"}}, {"uniqueid": "w53181297:a59209405", "current_trial": 44, "dateTime": 1693390267898, "trialdata": {"revealed_states": [], "clicked_states": [], "num_clicks_accrued": [0, 0, 0, 0, 0, 0, 0, 0, 0, 0, 0, 0, 0], "stateRewards": ["", 1, 1, -3, 7, 49, 78, 26, -5, 26, 48, -43, -1, -3, 2, -5, 4, -1, -60, 10, -35, 51, 81, -2, 1, -7, -5, -39, -86, -54, 4, -3, 74, 77], "withholdReward": false, "trial_id": "mdp_trial_30", "block": "test", "trialIndex": 33, "score": -67, "costs": 0, "simulationMode": [null, null, null, null, null], "rewards": [-1, -3, 2, -5, -60], "path": ["0", "0", "12", "13", "14", "15", "18"], "rt": [2925, 323, 290, 430, 565], "actions": ["right", "right", "right", "up", "left"], "actionTimes": [5148, 5985, 6784, 7723, 8807], "queries": {"click": {"state": {"target": [], "time": []}, "edge": {"target": [], "time": []}}, "mouseover": {"state": {"target": [], "time": []}, "edge": {"target": [], "time": []}}, "mouseout": {"state": {"target": [], "time": []}, "edge": {"target": [], "time": []}}}, "displayed_time": "16.22", "trialTime": 17980, "trial_type": "mouselab-mdp", "trial_index": 44, "time_elapsed": 1675294, "internal_node_id": "0.0-6.0-1.0-29.0"}}, {"uniqueid": "w53181297:a59209405", "current_trial": 45, "dateTime": 1693390286351, "trialdata": {"revealed_states": [], "clicked_states": [], "num_clicks_accrued": [0, 0, 0, 0, 0, 0, 0, 0, 0, 0, 0, 0, 0], "stateRewards": ["", -1, -3, -3, 1, -38, 2, -53, -2, -1, -81, 70, -1, 1, -5, -9, 46, 15, 35, -1, -22, 38, 59, -2, 4, -8, 13, 1, -83, -43, 4, 76, 13, 48], "withholdReward": false, "trial_id": "mdp_trial_31", "block": "test", "trialIndex": 34, "score": -44, "costs": 0, "simulationMode": [null, null, null, null, null], "rewards": [-1, -3, -3, 1, -38], "path": ["0", "0", "1", "2", "3", "4", "5"], "rt": [1550, 104, 197, 380, 325], "actions": ["up", "up", "up", "right", "up"], "actionTimes": [3268, 3886, 4597, 5495, 6355], "queries": {"click": {"state": {"target": [], "time": []}, "edge": {"target": [], "time": []}}, "mouseover": {"state": {"target": [], "time": []}, "edge": {"target": [], "time": []}}, "mouseout": {"state": {"target": [], "time": []}, "edge": {"target": [], "time": []}}}, "displayed_time": "15.72", "trialTime": 17969, "trial_type": "mouselab-mdp", "trial_index": 45, "time_elapsed": 1693746, "internal_node_id": "0.0-6.0-1.0-30.0"}}, {"uniqueid": "w53181297:a59209405", "current_trial": 46, "dateTime": 1693390304763, "trialdata": {"revealed_states": [], "clicked_states": [], "num_clicks_accrued": [0, 0, 0, 0, 0, 0, 0, 0, 0, 0, 0, 0, 0], "stateRewards": ["", 1, 3, 3, -10, 52, 68, 59, 12, 7, 49, 21, -2, -3, -4, -2, -2, 63, 63, -4, 44, 43, -76, -2, -3, -6, 13, 48, 36, 12, -5, -36, -33, -11], "withholdReward": false, "trial_id": "mdp_trial_32", "block": "test", "trialIndex": 35, "score": 26, "costs": 0, "simulationMode": [null, null, null, null, null], "rewards": [1, 3, 3, 12, 7], "path": ["0", "0", "1", "2", "3", "8", "9"], "rt": [1398, 103, 106, 435, 599], "actions": ["up", "up", "up", "left", "up"], "actionTimes": [3155, 3778, 4398, 5342, 6456], "queries": {"click": {"state": {"target": [], "time": []}, "edge": {"target": [], "time": []}}, "mouseover": {"state": {"target": [], "time": []}, "edge": {"target": [], "time": []}}, "mouseout": {"state": {"target": [], "time": []}, "edge": {"target": [], "time": []}}}, "displayed_time": "15.76", "trialTime": 17875, "trial_type": "mouselab-mdp", "trial_index": 46, "time_elapsed": 1712158, "internal_node_id": "0.0-6.0-1.0-31.0"}}, {"uniqueid": "w53181297:a59209405", "current_trial": 47, "dateTime": 1693390325427, "trialdata": {"revealed_states": [], "clicked_states": [], "num_clicks_accrued": [0, 0, 0, 0, 0, 0, 0, 0, 0, 0, 0, 0, 0], "stateRewards": ["", 1, 4, -4, 14, 35, 51, 19, -13, 54, 78, -74, -2, -1, -3, 13, -11, -42, -73, -15, -24, -3, -69, 2, -1, 5, 16, -27, 73, 58, 9, -60, 5, -60], "withholdReward": false, "trial_id": "mdp_trial_33", "block": "test", "trialIndex": 36, "score": -86, "costs": 0, "simulationMode": [null, null, null, null, null], "rewards": [1, 4, -4, -13, -74], "path": ["0", "0", "1", "2", "3", "8", "11"], "rt": [1834, 3011, 525, 670, 772], "actions": ["up", "up", "up", "left", "left"], "actionTimes": [3588, 7108, 8151, 9330, 10615], "queries": {"click": {"state": {"target": [], "time": []}, "edge": {"target": [], "time": []}}, "mouseover": {"state": {"target": [], "time": []}, "edge": {"target": [], "time": []}}, "mouseout": {"state": {"target": [], "time": []}, "edge": {"target": [], "time": []}}}, "displayed_time": "15.76", "trialTime": 20080, "trial_type": "mouselab-mdp", "trial_index": 47, "time_elapsed": 1732822, "internal_node_id": "0.0-6.0-1.0-32.0"}}, {"uniqueid": "w53181297:a59209405", "current_trial": 48, "dateTime": 1693390343303, "trialdata": {"revealed_states": [], "clicked_states": [], "num_clicks_accrued": [0, 0, 0, 0, 0, 0, 0, 0, 0, 0, 0, 0, 0], "stateRewards": ["", 1, -2, -3, 14, -42, -87, -37, -11, -50, 33, -44, -2, 4, -7, 13, 48, -75, -66, 12, 23, -2, 82, 1, -4, 3, 12, 51, -15, -26, -11, -52, -29, 82], "withholdReward": false, "trial_id": "mdp_trial_34", "block": "test", "trialIndex": 37, "score": 63, "costs": 0, "simulationMode": [null, null, null, null, null], "rewards": [1, -4, 3, 12, 51], "path": ["0", "0", "23", "24", "25", "26", "27"], "rt": [2679, 327, 354, 391, 201], "actions": ["left", "left", "left", "up", "up"], "actionTimes": [4104, 4963, 5822, 6725, 7451], "queries": {"click": {"state": {"target": [], "time": []}, "edge": {"target": [], "time": []}}, "mouseover": {"state": {"target": [], "time": []}, "edge": {"target": [], "time": []}}, "mouseout": {"state": {"target": [], "time": []}, "edge": {"target": [], "time": []}}}, "displayed_time": "15.43", "trialTime": 17351, "trial_type": "mouselab-mdp", "trial_index": 48, "time_elapsed": 1750699, "internal_node_id": "0.0-6.0-1.0-33.0"}}, {"uniqueid": "w53181297:a59209405", "current_trial": 49, "dateTime": 1693390361019, "trialdata": {"revealed_states": [], "clicked_states": [], "num_clicks_accrued": [0, 0, 0, 0, 0, 0, 0, 0, 0, 0, 0, 0, 0], "stateRewards": ["", -2, 2, 2, -6, 9, 37, 50, -13, -7, -18, -75, -2, -4, 4, 7, 23, -57, -66, -7, -81, -48, -76, 1, 1, -8, 1, 51, -2, 70, 14, 59, 71, -37], "withholdReward": false, "trial_id": "mdp_trial_35", "block": "test", "trialIndex": 38, "score": -52, "costs": 0, "simulationMode": [null, null, null, null, null], "rewards": [-2, -4, 4, 7, -57], "path": ["0", "0", "12", "13", "14", "15", "17"], "rt": [1833, 224, 211, 343, 347], "actions": ["right", "right", "right", "up", "right"], "actionTimes": [3589, 4318, 5038, 5886, 6740], "queries": {"click": {"state": {"target": [], "time": []}, "edge": {"target": [], "time": []}}, "mouseover": {"state": {"target": [], "time": []}, "edge": {"target": [], "time": []}}, "mouseout": {"state": {"target": [], "time": []}, "edge": {"target": [], "time": []}}}, "displayed_time": "15.76", "trialTime": 17160, "trial_type": "mouselab-mdp", "trial_index": 49, "time_elapsed": 1768415, "internal_node_id": "0.0-6.0-1.0-34.0"}}, {"uniqueid": "w53181297:a59209405", "current_trial": 50, "dateTime": 1693390378854, "trialdata": {"revealed_states": [], "clicked_states": [], "num_clicks_accrued": [0, 0, 0, 0, 0, 0, 0, 0, 0, 0, 0, 0, 0], "stateRewards": ["", -2, 2, -5, -6, 10, -66, -58, -10, -11, -63, -70, -1, -4, -5, 7, 66, -64, -43, -3, 45, -37, 4, -2, -2, -6, -4, -30, 33, 43, 15, -32, -65, -59], "withholdReward": false, "trial_id": "mdp_trial_36", "block": "test", "trialIndex": 39, "score": -60, "costs": 0, "simulationMode": [null, null, null, null, null], "rewards": [-2, -2, -6, 15, -65], "path": ["0", "0", "23", "24", "25", "30", "32"], "rt": [1164, 159, 197, 361, 103], "actions": ["left", "left", "left", "down", "down"], "actionTimes": [2697, 3370, 4075, 4954, 5563], "queries": {"click": {"state": {"target": [], "time": []}, "edge": {"target": [], "time": []}}, "mouseover": {"state": {"target": [], "time": []}, "edge": {"target": [], "time": []}}, "mouseout": {"state": {"target": ["0"], "time": [912]}, "edge": {"target": [], "time": []}}}, "displayed_time": "15.54", "trialTime": 17293, "trial_type": "mouselab-mdp", "trial_index": 50, "time_elapsed": 1786249, "internal_node_id": "0.0-6.0-1.0-35.0"}}, {"uniqueid": "w53181297:a59209405", "current_trial": 51, "dateTime": 1693390397085, "trialdata": {"revealed_states": [], "clicked_states": [], "num_clicks_accrued": [0, 0, 0, 0, 0, 0, 0, 0, 0, 0, 0, 0, 0], "stateRewards": ["", -2, -3, 7, -13, 60, 9, 37, -6, 37, 20, 1, 2, -2, -8, 6, -80, -31, -10, -7, 70, -65, -44, -1, 1, 7, 6, -11, 73, -85, 16, -21, 47, 34], "withholdReward": false, "trial_id": "mdp_trial_37", "block": "test", "trialIndex": 40, "score": -80, "costs": 0, "simulationMode": [null, null, null, null, null], "rewards": [2, -2, -8, -7, -65], "path": ["0", "0", "12", "13", "14", "19", "21"], "rt": [3989, 1267, 321, 381, 237], "actions": ["right", "right", "right", "down", "down"], "actionTimes": [5852, 7628, 8463, 9356, 10111], "queries": {"click": {"state": {"target": [], "time": []}, "edge": {"target": [], "time": []}}, "mouseover": {"state": {"target": ["0"], "time": [1875]}, "edge": {"target": [], "time": []}}, "mouseout": {"state": {"target": ["0"], "time": [1539]}, "edge": {"target": [], "time": []}}}, "displayed_time": "15.86", "trialTime": 17694, "trial_type": "mouselab-mdp", "trial_index": 51, "time_elapsed": 1804480, "internal_node_id": "0.0-6.0-1.0-36.0"}}, {"uniqueid": "w53181297:a59209405", "current_trial": 52, "dateTime": 1693390415163, "trialdata": {"revealed_states": [], "clicked_states": [], "num_clicks_accrued": [0, 0, 0, 0, 0, 0, 0, 0, 0, 0, 0, 0, 0], "stateRewards": ["", 1, 2, 3, 16, 63, -25, 16, -4, -14, 82, -66, -1, -3, -3, -11, -14, 19, 46, 3, -34, -82, 66, -2, -3, 4, -5, -63, 77, -37, -1, -45, -41, 84], "withholdReward": false, "trial_id": "mdp_trial_38", "block": "test", "trialIndex": 41, "score": 85, "costs": 0, "simulationMode": [null, null, null, null, null], "rewards": [1, 2, 3, 16, 63], "path": ["0", "0", "1", "2", "3", "4", "5"], "rt": [1213, 94, 269, 371, 172], "actions": ["up", "up", "up", "right", "up"], "actionTimes": [3015, 3623, 4398, 5287, 5966], "queries": {"click": {"state": {"target": [], "time": []}, "edge": {"target": [], "time": []}}, "mouseover": {"state": {"target": [], "time": []}, "edge": {"target": [], "time": []}}, "mouseout": {"state": {"target": [], "time": []}, "edge": {"target": [], "time": []}}}, "displayed_time": "15.80", "trialTime": 17557, "trial_type": "mouselab-mdp", "trial_index": 52, "time_elapsed": 1822559, "internal_node_id": "0.0-6.0-1.0-37.0"}}, {"uniqueid": "w53181297:a59209405", "current_trial": 53, "dateTime": 1693390433646, "trialdata": {"revealed_states": [], "clicked_states": [], "num_clicks_accrued": [0, 0, 0, 0, 0, 0, 0, 0, 0, 0, 0, 0, 0], "stateRewards": ["", 1, -1, 4, -2, -75, -75, 84, -9, -60, -79, 59, 2, -4, 8, 9, -17, -82, 80, 14, -4, 49, 49, -1, 3, 6, -11, -33, 34, 55, 9, -57, 5, 59], "withholdReward": false, "trial_id": "mdp_trial_39", "block": "test", "trialIndex": 42, "score": -2, "costs": 0, "simulationMode": [null, null, null, null, null], "rewards": [2, -4, 8, 9, -17], "path": ["0", "0", "12", "13", "14", "15", "16"], "rt": [6032, 47, 291, 496, 259], "actions": ["right", "right", "right", "up", "up"], "actionTimes": [7647, 8215, 9041, 10046, 10823], "queries": {"click": {"state": {"target": [], "time": []}, "edge": {"target": [], "time": []}}, "mouseover": {"state": {"target": [], "time": []}, "edge": {"target": [], "time": []}}, "mouseout": {"state": {"target": [], "time": []}, "edge": {"target": [], "time": []}}}, "displayed_time": "15.62", "trialTime": 17917, "trial_type": "mouselab-mdp", "trial_index": 53, "time_elapsed": 1841042, "internal_node_id": "0.0-6.0-1.0-38.0"}}, {"uniqueid": "w53181297:a59209405", "current_trial": 54, "dateTime": 1693390464402, "trialdata": {"revealed_states": [], "clicked_states": [], "num_clicks_accrued": [0, 0, 0, 0, 0, 0, 0, 0, 0, 0, 0, 0, 0], "stateRewards": ["", 1, 1, 1, 15, -76, 52, -32, 14, -57, 37, 49, 1, -4, -3, 6, 83, -76, 25, 9, 36, -1, -17, -1, 4, 4, -2, -22, -21, 58, -15, -57, 49, -24], "withholdReward": false, "trial_id": "mdp_trial_40", "block": "test", "trialIndex": 43, "score": 66, "costs": 0, "simulationMode": [null, null, null, null, null], "rewards": [1, 1, 1, 14, 49], "path": ["0", "0", "1", "2", "3", "8", "11"], "rt": [1334, 193, 246, 534, 534], "actions": ["up", "up", "up", "left", "left"], "actionTimes": [3276, 3975, 4744, 5798, 6848], "queries": {"click": {"state": {"target": [], "time": []}, "edge": {"target": [], "time": []}}, "mouseover": {"state": {"target": [], "time": []}, "edge": {"target": [], "time": []}}, "mouseout": {"state": {"target": [], "time": []}, "edge": {"target": [], "time": []}}}, "displayed_time": "15.95", "trialTime": 30170, "trial_type": "mouselab-mdp", "trial_index": 54, "time_elapsed": 1871797, "internal_node_id": "0.0-6.0-1.0-39.0"}}, {"uniqueid": "w53181297:a59209405", "current_trial": 55, "dateTime": 1693390521680, "trialdata": {"rt": 57272, "response": {"Q0": "$-16 to 16", "Q1": "$-4 to $4", "Q2": "$-32 to $32", "Q3": "The cost for clicking on nodes varied between nodes.", "Q4": "Very motivated"}, "question_order": [0, 1, 2, 3, 4], "trial_id": "final_quiz_control", "trial_type": "survey-multi-choice", "trial_index": 55, "time_elapsed": 1929076, "internal_node_id": "0.0-6.0-2.0"}}, {"uniqueid": "w53181297:a59209405", "current_trial": 56, "dateTime": 1693390635864, "trialdata": {"rt": 114173, "response": {"Q0": "I used different patterns to navigate", "Q1": "Yes , I realized that I could move in a few different directions each time", "Q2": "You couldn't get around the negative costs, also there was no way of moving backwards."}, "trial_id": "self_report_control", "trial_type": "survey-text", "trial_index": 56, "time_elapsed": 2043260, "internal_node_id": "0.0-6.0-3.0"}}, {"uniqueid": "w53181297:a59209405", "current_trial": 57, "dateTime": 1693390674515, "trialdata": {"rt": 38646, "response": {"gender": "male", "age": "40", "colorblind": "0", "effort": "0"}, "trial_type": "survey-html-form", "trial_index": 57, "time_elapsed": 2081911, "internal_node_id": "0.0-6.0-4.0"}}, {"uniqueid": "w53181297:a59209405", "current_trial": 58, "dateTime": 1693390731795, "trialdata": {"rt": 57273, "response": {"Q0": "It was fair", "Q1": "No I have never played before", "Q2": "none"}, "trial_type": "survey-text", "trial_index": 58, "time_elapsed": 2139191, "internal_node_id": "0.0-6.0-5.0"}}, {"uniqueid": "w53181297:a59209405", "current_trial": 59, "dateTime": 1693390746536, "trialdata": {"rt": 14735, "stimulus": "<h1>Completion Code Instructions (1/2)</h1>\n<br><br><br><br>\nYou have reached the end of the experiment! The completion code consists of two parts: (1) a code with 2 characters (2) a code with 6 characters. On this page, you will receive the second part of the code. The first part of the completion code will be on the next page.\n<br><br>\nThe second part of your completion code is: <b>EWEK22</b>\n<br><br>\nPlease note this down. Then, press 'Finish HIT' in order to find the first part of your completion code. Once the data has been saved, you will receive this code either in this window or in the original browser window where you started the experiment.\n", "response": 0, "trial_type": "html-button-response", "trial_index": 59, "time_elapsed": 2153932, "internal_node_id": "0.0-6.0-6.0"}}, {"uniqueid": "w53181297:a59209405", "current_trial": 60, "dateTime": 1693390747541, "trialdata": {"success": true, "trial_type": "fullscreen", "trial_index": 60, "time_elapsed": 2154937, "internal_node_id": "0.0-7.0"}}], "questiondata": {"params": {"CODE": "C6DMOQA6", "MIN_TIME": 14, "inspectCost": 1, "startTime": "Wed Aug 30 2023 11:43:10 GMT+0200 (South Africa Standard Time)", "bonusRate": 0.002, "variance": "1_2_4_8_44", "branching": "31123"}, "final_score": -449.2}, "eventdata": [{"eventtype": "initialized", "value": null, "timestamp": 1693388590067, "interval": 0}, {"eventtype": "window_resize", "value": [1024, 694], "timestamp": 1693388590068, "interval": 1}, {"eventtype": "window_resize", "value": [1024, 694], "timestamp": 1693388590557, "interval": 489}, {"eventtype": "window_resize", "value": [1366, 768], "timestamp": 1693388598600, "interval": 8043}, {"eventtype": "focus", "value": "off", "timestamp": 1693389220000, "interval": 621400}, {"eventtype": "focus", "value": "on", "timestamp": 1693389220001, "interval": 1}, {"eventtype": "window_resize", "value": [1024, 694], "timestamp": 1693389220219, "interval": 218}, {"eventtype": "window_resize", "value": [1366, 768], "timestamp": 1693389222113, "interval": 1894}, {"eventtype": "window_resize", "value": [1024, 694], "timestamp": 1693390746771, "interval": 1524658}], "useragent": "Mozilla/5.0 (Windows NT 10.0; Win64; x64) AppleWebKit/537.36 (KHTML, like Gecko) Chrome/116.0.0.0 Safari/537.36", "mode": "live", "id": "w53181297:a59209405", "status": "user data saved", "Beginhit": "2023-08-30 09:43:00.833192", "Beginexp": "2023-08-30 09:43:13.703182", "Endhit": "2023-08-30 10:19:03.428669", "psiturkStatus": 3, "browser": "<redacted>", "platform": "windows", "language": "en-US"}