{"condition": 0, "counterbalance": 0, "assignmentId": "a38439860", "workerId": "w40151789", "hitId": "h77759635", "currenttrial": 67, "bonus": 0, "data": [{"uniqueid": "w40151789:a38439860", "current_trial": 0, "dateTime": 1691143236668, "trialdata": {"success": true, "trial_type": "fullscreen", "trial_index": 0, "time_elapsed": 7601, "internal_node_id": "0.0-0.0"}}, {"uniqueid": "w40151789:a38439860", "current_trial": 1, "dateTime": 1691143273281, "trialdata": {"view_history": [{"page_index": 0, "viewing_time": 36591}], "rt": 36593, "trial_id": "exp_instructions_control", "trial_type": "instructions", "trial_index": 1, "time_elapsed": 44217, "internal_node_id": "0.0-1.0"}}, {"uniqueid": "w40151789:a38439860", "current_trial": 2, "dateTime": 1691143277494, "trialdata": {"success": true, "trial_type": "fullscreen", "trial_index": 2, "time_elapsed": 48429, "internal_node_id": "0.0-2.0-0.0"}}, {"uniqueid": "w40151789:a38439860", "current_trial": 3, "dateTime": 1691143473531, "trialdata": {"view_history": [{"page_index": 0, "viewing_time": 70686}, {"page_index": 1, "viewing_time": 67219}, {"page_index": 0, "viewing_time": 15332}, {"page_index": 1, "viewing_time": 3861}, {"page_index": 0, "viewing_time": 913}, {"page_index": 1, "viewing_time": 537}, {"page_index": 2, "viewing_time": 570}, {"page_index": 1, "viewing_time": 944}, {"page_index": 2, "viewing_time": 487}, {"page_index": 1, "viewing_time": 761}, {"page_index": 2, "viewing_time": 6822}, {"page_index": 1, "viewing_time": 905}, {"page_index": 0, "viewing_time": 1928}, {"page_index": 1, "viewing_time": 2568}, {"page_index": 2, "viewing_time": 13546}, {"page_index": 3, "viewing_time": 8941}], "rt": 196021, "trial_id": "mouselab_instructions_1_control", "trial_type": "instructions", "trial_index": 3, "time_elapsed": 244466, "internal_node_id": "0.0-2.0-1.0"}}, {"uniqueid": "w40151789:a38439860", "current_trial": 4, "dateTime": 1691143488507, "trialdata": {"revealed_states": [], "clicked_states": [], "num_clicks_accrued": [0, 0, 0, 0, 0, 0, 0, 0, 0, 0, 0, 0, 0], "stateRewards": ["", 10, 10, 10, -10, -10, 10, -10, -10, 10, 10, -10, 10, -10, -10, 10, 10, 10, -10, 10, 10, 10, -10, -10, -10, -10, 10, 10, -10, -10, -10, 10, 10, 10], "withholdReward": false, "trial_id": "practice_1", "block": "test", "trialIndex": 0, "score": 33.5, "costs": 0, "simulationMode": [null, null, null, null, null], "rewards": [10, 10, 10, -10, 10], "path": ["0", "0", "1", "2", "3", "8", "9"], "rt": [1134, 487, 188, 717, 69], "actions": ["up", "up", "up", "left", "up"], "actionTimes": [4778, 5780, 6480, 7710, 8296], "queries": {"click": {"state": {"target": [], "time": []}, "edge": {"target": [], "time": []}}, "mouseover": {"state": {"target": [], "time": []}, "edge": {"target": [], "time": []}}, "mouseout": {"state": {"target": ["27", "10", "1"], "time": [2471, 2547, 2715]}, "edge": {"target": [], "time": []}}}, "displayed_time": "8.83", "trialTime": 14039, "trial_type": "mouselab-mdp", "trial_index": 4, "time_elapsed": 259440, "internal_node_id": "0.0-2.0-2.0-0.0"}}, {"uniqueid": "w40151789:a38439860", "current_trial": 5, "dateTime": 1691143497356, "trialdata": {"revealed_states": [], "clicked_states": [], "num_clicks_accrued": [0, 0, 0, 0, 0, 0, 0, 0, 0, 0, 0, 0, 0], "stateRewards": ["", -10, -10, -10, 10, -10, 10, 10, -10, -10, 10, 10, -10, 10, 10, -10, -10, -10, -10, 10, -10, -10, -10, -10, -10, 10, 10, 10, 10, 10, -10, 10, -10, -10], "withholdReward": false, "trial_id": "practice_2", "block": "test", "trialIndex": 1, "score": -26.5, "costs": 0, "simulationMode": [null, null, null, null, null], "rewards": [-10, -10, -10, 10, -10], "path": ["0", "0", "1", "2", "3", "4", "5"], "rt": [469, 376, 156, 770, 207], "actions": ["up", "up", "up", "right", "up"], "actionTimes": [4110, 5002, 5681, 6960, 7681], "queries": {"click": {"state": {"target": [], "time": []}, "edge": {"target": [], "time": []}}, "mouseover": {"state": {"target": [], "time": []}, "edge": {"target": [], "time": []}}, "mouseout": {"state": {"target": [], "time": []}, "edge": {"target": [], "time": []}}}, "displayed_time": "8.21", "trialTime": 8297, "trial_type": "mouselab-mdp", "trial_index": 5, "time_elapsed": 268290, "internal_node_id": "0.0-2.0-2.0-1.0"}}, {"uniqueid": "w40151789:a38439860", "current_trial": 6, "dateTime": 1691143501384, "trialdata": {"view_history": [{"page_index": 0, "viewing_time": 3318}, {"page_index": 1, "viewing_time": 701}], "rt": 4020, "trial_id": "mouselab_instructions_2_control", "trial_type": "instructions", "trial_index": 6, "time_elapsed": 272320, "internal_node_id": "0.0-2.0-3.0"}}, {"uniqueid": "w40151789:a38439860", "current_trial": 7, "dateTime": 1691143554160, "trialdata": {"rt": 52762, "response": {"Q0": "The cost for clicking on nodes may vary between nodes.", "Q1": "The better I perform the higher my bonus will be.", "Q2": "No, the amount of cash at each node of the web may be different each time.", "Q3": "To get the highest total score.", "Q4": "Any time during the round.", "Q5": "3 seconds"}, "question_order": [0, 1, 2, 3, 4, 5], "correct": {"Q0": "The cost for clicking on nodes may vary between nodes.", "Q1": "The better I perform the higher my bonus will be.", "Q2": "No, the amount of cash at each node of the web may be different each time.", "Q3": "To get the highest total score.", "Q4": "Only before moving the spider.", "Q5": "3 seconds"}, "trial_id": "mouselab_quiz_control", "trial_type": "survey-multi-choice", "trial_index": 7, "time_elapsed": 325095, "internal_node_id": "0.0-2.0-4.0"}}, {"uniqueid": "w40151789:a38439860", "current_trial": 8, "dateTime": 1691143565400, "trialdata": {"success": true, "trial_type": "fullscreen", "trial_index": 8, "time_elapsed": 336336, "internal_node_id": "0.0-2.1-0.1"}}, {"uniqueid": "w40151789:a38439860", "current_trial": 9, "dateTime": 1691143671277, "trialdata": {"view_history": [{"page_index": 0, "viewing_time": 6507}, {"page_index": 1, "viewing_time": 48318}, {"page_index": 2, "viewing_time": 17960}, {"page_index": 3, "viewing_time": 33082}], "rt": 105869, "trial_id": "mouselab_instructions_1_control", "trial_type": "instructions", "trial_index": 9, "time_elapsed": 442213, "internal_node_id": "0.0-2.1-1.1"}}, {"uniqueid": "w40151789:a38439860", "current_trial": 10, "dateTime": 1691143683721, "trialdata": {"revealed_states": [], "clicked_states": [], "num_clicks_accrued": [0, 0, 0, 0, 0, 0, 0, 0, 0, 0, 0, 0, 0], "stateRewards": ["", 10, 10, 10, -10, -10, 10, -10, -10, 10, 10, -10, 10, -10, -10, 10, 10, 10, -10, 10, 10, 10, -10, -10, -10, -10, 10, 10, -10, -10, -10, 10, 10, 10], "withholdReward": false, "trial_id": "practice_1", "block": "test", "trialIndex": 2, "score": -26.5, "costs": 0, "simulationMode": [null, null, null, null, null], "rewards": [-10, -10, -10, 10, -10], "path": ["0", "0", "23", "24", "25", "26", "28"], "rt": [1021, 295, 342, 602, 574], "actions": ["left", "left", "left", "up", "right"], "actionTimes": [6193, 7020, 7883, 9008, 10097], "queries": {"click": {"state": {"target": [], "time": []}, "edge": {"target": [], "time": []}}, "mouseover": {"state": {"target": ["23", "24"], "time": [5395, 5494]}, "edge": {"target": [], "time": []}}, "mouseout": {"state": {"target": ["11", "23"], "time": [2659, 5434]}, "edge": {"target": [], "time": []}}}, "displayed_time": "10.62", "trialTime": 12000, "trial_type": "mouselab-mdp", "trial_index": 10, "time_elapsed": 454656, "internal_node_id": "0.0-2.1-2.1-0.1"}}, {"uniqueid": "w40151789:a38439860", "current_trial": 11, "dateTime": 1691143691532, "trialdata": {"revealed_states": [], "clicked_states": [], "num_clicks_accrued": [0, 0, 0, 0, 0, 0, 0, 0, 0, 0, 0, 0, 0], "stateRewards": ["", -10, -10, -10, 10, -10, 10, 10, -10, -10, 10, 10, -10, 10, 10, -10, -10, -10, -10, 10, -10, -10, -10, -10, -10, 10, 10, 10, 10, 10, -10, 10, -10, -10], "withholdReward": false, "trial_id": "practice_2", "block": "test", "trialIndex": 3, "score": 13.5, "costs": 0, "simulationMode": [null, null, null, null, null], "rewards": [-10, 10, 10, 10, -10], "path": ["0", "0", "12", "13", "14", "19", "20"], "rt": [341, 799, 143, 6, 118], "actions": ["right", "right", "right", "down", "right"], "actionTimes": [3077, 4396, 5057, 5592, 6244], "queries": {"click": {"state": {"target": [], "time": []}, "edge": {"target": [], "time": []}}, "mouseover": {"state": {"target": [], "time": []}, "edge": {"target": [], "time": []}}, "mouseout": {"state": {"target": ["24", "23", "0", "0"], "time": [1450, 1501, 1622, 2050]}, "edge": {"target": [], "time": []}}}, "displayed_time": "6.76", "trialTime": 7368, "trial_type": "mouselab-mdp", "trial_index": 11, "time_elapsed": 462466, "internal_node_id": "0.0-2.1-2.1-1.1"}}, {"uniqueid": "w40151789:a38439860", "current_trial": 12, "dateTime": 1691143711649, "trialdata": {"view_history": [{"page_index": 0, "viewing_time": 15544}, {"page_index": 1, "viewing_time": 4561}], "rt": 20105, "trial_id": "mouselab_instructions_2_control", "trial_type": "instructions", "trial_index": 12, "time_elapsed": 482585, "internal_node_id": "0.0-2.1-3.1"}}, {"uniqueid": "w40151789:a38439860", "current_trial": 13, "dateTime": 1691143771288, "trialdata": {"rt": 59637, "response": {"Q0": "There is no cost for clicking on nodes.", "Q1": "The better I perform the higher my bonus will be.", "Q2": "No, the amount of cash at each node of the web may be different each time.", "Q3": "To get the highest total score.", "Q4": "Only before moving the spider.", "Q5": "3 seconds"}, "question_order": [0, 1, 2, 3, 4, 5], "correct": {"Q0": "The cost for clicking on nodes may vary between nodes.", "Q1": "The better I perform the higher my bonus will be.", "Q2": "No, the amount of cash at each node of the web may be different each time.", "Q3": "To get the highest total score.", "Q4": "Only before moving the spider.", "Q5": "3 seconds"}, "trial_id": "mouselab_quiz_control", "trial_type": "survey-multi-choice", "trial_index": 13, "time_elapsed": 542223, "internal_node_id": "0.0-2.1-4.1"}}, {"uniqueid": "w40151789:a38439860", "current_trial": 14, "dateTime": 1691143786781, "trialdata": {"success": true, "trial_type": "fullscreen", "trial_index": 14, "time_elapsed": 557717, "internal_node_id": "0.0-2.2-0.2"}}, {"uniqueid": "w40151789:a38439860", "current_trial": 15, "dateTime": 1691143877356, "trialdata": {"view_history": [{"page_index": 0, "viewing_time": 16971}, {"page_index": 1, "viewing_time": 49756}, {"page_index": 2, "viewing_time": 9443}, {"page_index": 3, "viewing_time": 14386}], "rt": 90557, "trial_id": "mouselab_instructions_1_control", "trial_type": "instructions", "trial_index": 15, "time_elapsed": 648292, "internal_node_id": "0.0-2.2-1.2"}}, {"uniqueid": "w40151789:a38439860", "current_trial": 16, "dateTime": 1691143887304, "trialdata": {"revealed_states": [], "clicked_states": [], "num_clicks_accrued": [0, 0, 0, 0, 0, 0, 0, 0, 0, 0, 0, 0, 0], "stateRewards": ["", 10, 10, 10, -10, -10, 10, -10, -10, 10, 10, -10, 10, -10, -10, 10, 10, 10, -10, 10, 10, 10, -10, -10, -10, -10, 10, 10, -10, -10, -10, 10, 10, 10], "withholdReward": false, "trial_id": "practice_1", "block": "test", "trialIndex": 4, "score": 13.5, "costs": 0, "simulationMode": [null, null, null, null, null], "rewards": [10, 10, 10, -10, -10], "path": ["0", "0", "1", "2", "3", "4", "5"], "rt": [1252, 309, 126, 27, 32], "actions": ["up", "up", "up", "right", "up"], "actionTimes": [5503, 6336, 6985, 7542, 8090], "queries": {"click": {"state": {"target": [], "time": []}, "edge": {"target": [], "time": []}}, "mouseover": {"state": {"target": [], "time": []}, "edge": {"target": [], "time": []}}, "mouseout": {"state": {"target": ["12", "23", "1", "1"], "time": [1691, 2005, 2089, 2587]}, "edge": {"target": [], "time": []}}}, "displayed_time": "8.61", "trialTime": 9439, "trial_type": "mouselab-mdp", "trial_index": 16, "time_elapsed": 658237, "internal_node_id": "0.0-2.2-2.2-0.2"}}, {"uniqueid": "w40151789:a38439860", "current_trial": 17, "dateTime": 1691143901210, "trialdata": {"revealed_states": [], "clicked_states": [], "num_clicks_accrued": [0, 0, 0, 0, 0, 0, 0, 0, 0, 0, 0, 0, 0], "stateRewards": ["", -10, -10, -10, 10, -10, 10, 10, -10, -10, 10, 10, -10, 10, 10, -10, -10, -10, -10, 10, -10, -10, -10, -10, -10, 10, 10, 10, 10, 10, -10, 10, -10, -10], "withholdReward": false, "trial_id": "practice_2", "block": "test", "trialIndex": 5, "score": -46.5, "costs": 0, "simulationMode": [null, null, null, null, null], "rewards": [-10, -10, -10, -10, -10], "path": ["0", "0", "1", "2", "3", "8", "9"], "rt": [658, 94, 4926, 185, 152], "actions": ["up", "up", "up", "left", "up"], "actionTimes": [3595, 4214, 9668, 10369, 11048], "queries": {"click": {"state": {"target": [], "time": []}, "edge": {"target": [], "time": []}}, "mouseover": {"state": {"target": [], "time": []}, "edge": {"target": [], "time": []}}, "mouseout": {"state": {"target": ["0", "10", "8", "10"], "time": [5415, 6176, 8525, 8616]}, "edge": {"target": [], "time": []}}}, "displayed_time": "11.57", "trialTime": 13432, "trial_type": "mouselab-mdp", "trial_index": 17, "time_elapsed": 672144, "internal_node_id": "0.0-2.2-2.2-1.2"}}, {"uniqueid": "w40151789:a38439860", "current_trial": 18, "dateTime": 1691143921527, "trialdata": {"view_history": [{"page_index": 0, "viewing_time": 17732}, {"page_index": 1, "viewing_time": 2572}], "rt": 20305, "trial_id": "mouselab_instructions_2_control", "trial_type": "instructions", "trial_index": 18, "time_elapsed": 692463, "internal_node_id": "0.0-2.2-3.2"}}, {"uniqueid": "w40151789:a38439860", "current_trial": 19, "dateTime": 1691143958698, "trialdata": {"rt": 37168, "response": {"Q0": "The cost for clicking on nodes may vary between nodes.", "Q1": "The better I perform the higher my bonus will be.", "Q2": "No, the amount of cash at each node of the web may be different each time.", "Q3": "To get the highest total score.", "Q4": "Only before moving the spider.", "Q5": "3 seconds"}, "question_order": [0, 1, 2, 3, 4, 5], "correct": {"Q0": "The cost for clicking on nodes may vary between nodes.", "Q1": "The better I perform the higher my bonus will be.", "Q2": "No, the amount of cash at each node of the web may be different each time.", "Q3": "To get the highest total score.", "Q4": "Only before moving the spider.", "Q5": "3 seconds"}, "trial_id": "mouselab_quiz_control", "trial_type": "survey-multi-choice", "trial_index": 19, "time_elapsed": 729634, "internal_node_id": "0.0-2.2-4.2"}}, {"uniqueid": "w40151789:a38439860", "current_trial": 20, "dateTime": 1691143982621, "trialdata": {"rt": 23908, "stimulus": "\n<h1> Get ready to start the game! </h1>\n\nThank you for reading the instructions. Get ready start with the 40 rounds of this game.\n<br><br>\nIf you need to take a break, feel free to take one after the end of a round, before continuing to the next one.\n<br><br>\nRemember, the more money the spider gets, the bigger your bonus will be!\n<br><br>\n<div style='text-align: center;'>Press <code>space</code> to begin.</div>\n\n<br><br>\n(If, at any point, the <code>space</code> key does not take you to the next page, click once on the text and try again.)", "response": " ", "trial_id": "mdp_ready", "trial_type": "html-keyboard-response", "trial_index": 20, "time_elapsed": 753557, "internal_node_id": "0.0-4.0-0.0"}}, {"uniqueid": "w40151789:a38439860", "current_trial": 21, "dateTime": 1691144002167, "trialdata": {"revealed_states": [], "clicked_states": ["24"], "num_clicks_accrued": [0, 0, 0, 0, 0, 0, 0, 0, 0, 0, 0, 0, 0], "stateRewards": ["", 2, 3, 3, 10, 19, -21, 6, 9, 54, 68, 16, 2, 2, -6, -8, 40, -2, -75, -2, -42, 55, 59, -1, 2, 4, -14, 11, -34, -30, -6, 61, -53, 13], "withholdReward": false, "trial_id": "mdp_trial_1", "block": "test", "trialIndex": 6, "score": 10.6, "costs": -1.4, "simulationMode": [null, null, null, null, null], "rewards": [-1, 2, 4, -6, 13], "path": ["0", "0", "23", "24", "25", "30", "33"], "rt": [8294, 361, 109, 105, 106], "actions": ["left", "left", "left", "down", "left"], "actionTimes": [11376, 12250, 12880, 13509, 14127], "queries": {"click": {"state": {"target": ["24"], "time": [6107]}, "edge": {"target": [], "time": []}}, "mouseover": {"state": {"target": ["1", "28", "25", "24", "23", "1", "1"], "time": [3702, 4031, 4779, 5654, 9542, 9704, 9841]}, "edge": {"target": [], "time": []}}, "mouseout": {"state": {"target": ["1", "0", "1", "28", "25", "24", "23", "1", "1"], "time": [1863, 3413, 3863, 4305, 5382, 6839, 9576, 9740, 10023]}, "edge": {"target": [], "time": []}}}, "displayed_time": "17.09", "trialTime": 18816, "trial_type": "mouselab-mdp", "trial_index": 21, "time_elapsed": 773101, "internal_node_id": "0.0-4.0-1.0-0.0"}}, {"uniqueid": "w40151789:a38439860", "current_trial": 22, "dateTime": 1691144020403, "trialdata": {"revealed_states": [], "clicked_states": [], "num_clicks_accrued": [0, 0, 0, 0, 0, 0, 0, 0, 0, 0, 0, 0, 0], "stateRewards": ["", 1, 1, 4, 11, 83, -66, 18, -16, -23, 5, 25, 1, -3, 1, -12, 18, 24, -86, -11, -64, 36, 40, 2, 1, -6, 13, 55, 29, 72, -2, 81, -72, -41], "withholdReward": false, "trial_id": "mdp_trial_2", "block": "test", "trialIndex": 7, "score": -76, "costs": 0, "simulationMode": [null, null, null, null, null], "rewards": [1, -3, 1, -11, -64], "path": ["0", "0", "12", "13", "14", "19", "20"], "rt": [1222, 117, 41, 68, 136], "actions": ["right", "right", "right", "down", "right"], "actionTimes": [2702, 3362, 3929, 4527, 5180], "queries": {"click": {"state": {"target": [], "time": []}, "edge": {"target": [], "time": []}}, "mouseover": {"state": {"target": [], "time": []}, "edge": {"target": [], "time": []}}, "mouseout": {"state": {"target": ["0"], "time": [1065]}, "edge": {"target": [], "time": []}}}, "displayed_time": "15.49", "trialTime": 17613, "trial_type": "mouselab-mdp", "trial_index": 22, "time_elapsed": 791337, "internal_node_id": "0.0-4.0-1.0-1.0"}}, {"uniqueid": "w40151789:a38439860", "current_trial": 23, "dateTime": 1691144038335, "trialdata": {"revealed_states": [], "clicked_states": [], "num_clicks_accrued": [0, 0, 0, 0, 0, 0, 0, 0, 0, 0, 0, 0, 0], "stateRewards": ["", -2, -1, -3, -1, -78, -6, 2, -1, 22, -88, 32, 2, 2, -7, -8, -51, -17, 54, 2, -44, 54, 75, 2, -2, -8, -15, -29, 12, -67, 15, -1, -47, -47], "withholdReward": false, "trial_id": "mdp_trial_3", "block": "test", "trialIndex": 8, "score": -85, "costs": 0, "simulationMode": [null, null, null, null, null], "rewards": [-2, -1, -3, -1, -78], "path": ["0", "0", "1", "2", "3", "4", "5"], "rt": [1544, 1159, 389, 1310, 2139], "actions": ["up", "up", "up", "right", "up"], "actionTimes": [3112, 4789, 5700, 7527, 10194], "queries": {"click": {"state": {"target": [], "time": []}, "edge": {"target": [], "time": []}}, "mouseover": {"state": {"target": ["1"], "time": [2201]}, "edge": {"target": [], "time": []}}, "mouseout": {"state": {"target": ["0", "1", "23"], "time": [1189, 2415, 16960]}, "edge": {"target": [], "time": []}}}, "displayed_time": "15.57", "trialTime": 17190, "trial_type": "mouselab-mdp", "trial_index": 23, "time_elapsed": 809270, "internal_node_id": "0.0-4.0-1.0-2.0"}}, {"uniqueid": "w40151789:a38439860", "current_trial": 24, "dateTime": 1691144059918, "trialdata": {"revealed_states": [], "clicked_states": [], "num_clicks_accrued": [0, 0, 0, 0, 0, 0, 0, 0, 0, 0, 0, 0, 0], "stateRewards": ["", -1, -3, 1, 13, -64, -29, 12, -4, -33, 50, 56, 2, -3, 4, 11, -64, -58, -55, 12, 47, 38, -25, -2, 2, 5, -15, 85, 7, 84, 10, 8, 57, 26], "withholdReward": false, "trial_id": "mdp_trial_4", "block": "test", "trialIndex": 9, "score": -54, "costs": 0, "simulationMode": [null, null, null, null, null], "rewards": [-1, -3, 1, 13, -64], "path": ["0", "0", "1", "2", "3", "4", "5"], "rt": [723, 116, 111, 58, 109], "actions": ["up", "up", "up", "right", "up"], "actionTimes": [2528, 3164, 3804, 4373, 5024], "queries": {"click": {"state": {"target": [], "time": []}, "edge": {"target": [], "time": []}}, "mouseover": {"state": {"target": [], "time": []}, "edge": {"target": [], "time": []}}, "mouseout": {"state": {"target": ["0"], "time": [6841]}, "edge": {"target": [], "time": []}}}, "displayed_time": "15.82", "trialTime": 20985, "trial_type": "mouselab-mdp", "trial_index": 24, "time_elapsed": 830852, "internal_node_id": "0.0-4.0-1.0-3.0"}}, {"uniqueid": "w40151789:a38439860", "current_trial": 25, "dateTime": 1691144077872, "trialdata": {"revealed_states": [], "clicked_states": [], "num_clicks_accrued": [0, 0, 0, 0, 0, 0, 0, 0, 0, 0, 0, 0, 0], "stateRewards": ["", -2, -3, -3, 9, 79, 67, 22, -15, -56, 27, -85, -2, 4, -4, -15, -20, -32, 60, 15, 71, 57, 17, 1, 2, -8, 15, -37, -81, 82, 15, 21, -3, 2], "withholdReward": false, "trial_id": "mdp_trial_5", "block": "test", "trialIndex": 10, "score": -71, "costs": 0, "simulationMode": [null, null, null, null, null], "rewards": [1, 2, -8, 15, -81], "path": ["0", "0", "23", "24", "25", "26", "28"], "rt": [495, 5, 154, 553, 146], "actions": ["left", "left", "left", "up", "right"], "actionTimes": [2099, 2624, 3307, 4372, 5031], "queries": {"click": {"state": {"target": [], "time": []}, "edge": {"target": [], "time": []}}, "mouseover": {"state": {"target": [], "time": []}, "edge": {"target": [], "time": []}}, "mouseout": {"state": {"target": ["0"], "time": [13130]}, "edge": {"target": [], "time": []}}}, "displayed_time": "15.61", "trialTime": 17245, "trial_type": "mouselab-mdp", "trial_index": 25, "time_elapsed": 848806, "internal_node_id": "0.0-4.0-1.0-4.0"}}, {"uniqueid": "w40151789:a38439860", "current_trial": 26, "dateTime": 1691144098823, "trialdata": {"revealed_states": [], "clicked_states": ["8"], "num_clicks_accrued": [0, 0, 0, 0, 0, 0, 0, 0, 0, 0, 0, 0, 0], "stateRewards": ["", -1, -4, -6, -15, 21, -67, -63, 9, 51, 69, -14, -1, 3, 8, -8, 39, 72, 63, 15, 19, 47, 15, 1, 4, 5, 16, -18, 34, 35, -14, -80, 40, 1], "withholdReward": false, "trial_id": "mdp_trial_6", "block": "test", "trialIndex": 11, "score": 65.6, "costs": -1.4, "simulationMode": [null, null, null, null, null, null], "rewards": [-1, -4, -6, 9, 69], "path": ["0", "0", "1", "2", "3", "8", "10"], "rt": [2766, 3012, 116, 589, 2, 51], "actions": ["up", "up", "up", "up", "left", "down"], "actionTimes": [3889, 6907, 7545, 8651, 9198, 9787], "queries": {"click": {"state": {"target": ["8"], "time": [2716]}, "edge": {"target": [], "time": []}}, "mouseover": {"state": {"target": ["2", "3", "3", "8", "10"], "time": [1712, 1750, 2255, 2336, 4994]}, "edge": {"target": [], "time": []}}, "mouseout": {"state": {"target": ["0", "2", "3", "3", "8", "10", "0"], "time": [1647, 1734, 1890, 2308, 4936, 5032, 19220]}, "edge": {"target": [], "time": []}}}, "displayed_time": "15.14", "trialTime": 20216, "trial_type": "mouselab-mdp", "trial_index": 26, "time_elapsed": 869757, "internal_node_id": "0.0-4.0-1.0-5.0"}}, {"uniqueid": "w40151789:a38439860", "current_trial": 27, "dateTime": 1691144118538, "trialdata": {"revealed_states": [], "clicked_states": [], "num_clicks_accrued": [0, 0, 0, 0, 0, 0, 0, 0, 0, 0, 0, 0, 0], "stateRewards": ["", -2, -4, 4, -11, -63, -60, -7, 2, -14, 81, -43, -1, -1, -5, 7, 10, 69, 40, 8, -83, 52, 60, 1, 2, 5, -5, 16, 64, 14, -3, 29, 7, -51], "withholdReward": false, "trial_id": "mdp_trial_7", "block": "test", "trialIndex": 12, "score": 81, "costs": 0, "simulationMode": [null, null, null, null, null], "rewards": [-2, -4, 4, 2, 81], "path": ["0", "0", "1", "2", "3", "8", "10"], "rt": [2163, 319, 183, 434, 490], "actions": ["up", "up", "up", "left", "down"], "actionTimes": [4397, 5230, 5940, 6894, 7901], "queries": {"click": {"state": {"target": [], "time": []}, "edge": {"target": [], "time": []}}, "mouseover": {"state": {"target": ["1", "2", "10", "1"], "time": [2748, 3183, 3392, 3913]}, "edge": {"target": [], "time": []}}, "mouseout": {"state": {"target": ["0", "1", "2", "10", "1"], "time": [2569, 3106, 3262, 3878, 3934]}, "edge": {"target": [], "time": []}}}, "displayed_time": "16.24", "trialTime": 18973, "trial_type": "mouselab-mdp", "trial_index": 27, "time_elapsed": 889472, "internal_node_id": "0.0-4.0-1.0-6.0"}}, {"uniqueid": "w40151789:a38439860", "current_trial": 28, "dateTime": 1691144137583, "trialdata": {"revealed_states": [], "clicked_states": [], "num_clicks_accrued": [0, 0, 0, 0, 0, 0, 0, 0, 0, 0, 0, 0, 0], "stateRewards": ["", -1, 3, 2, 9, 41, 4, -46, -12, -54, -87, -25, 2, 3, -1, 11, -77, 12, -33, -9, -32, 35, 72, 1, 3, -7, 4, 37, 65, -73, 6, 77, -43, 8], "withholdReward": false, "trial_id": "mdp_trial_8", "block": "test", "trialIndex": 13, "score": -95, "costs": 0, "simulationMode": [null, null, null, null, null], "rewards": [-1, 3, 2, -12, -87], "path": ["0", "0", "1", "2", "3", "8", "10"], "rt": [340, 2, 141, 18, 176], "actions": ["up", "up", "up", "left", "down"], "actionTimes": [2129, 2654, 3379, 3976, 4730], "queries": {"click": {"state": {"target": [], "time": []}, "edge": {"target": [], "time": []}}, "mouseover": {"state": {"target": [], "time": []}, "edge": {"target": [], "time": []}}, "mouseout": {"state": {"target": ["0"], "time": [10930]}, "edge": {"target": [], "time": []}}}, "displayed_time": "15.80", "trialTime": 18312, "trial_type": "mouselab-mdp", "trial_index": 28, "time_elapsed": 908516, "internal_node_id": "0.0-4.0-1.0-7.0"}}, {"uniqueid": "w40151789:a38439860", "current_trial": 29, "dateTime": 1691144164059, "trialdata": {"revealed_states": [], "clicked_states": [], "num_clicks_accrued": [0, 0, 0, 0, 0, 0, 0, 0, 0, 0, 0, 0, 0], "stateRewards": ["", 1, -1, 4, 5, -32, 18, 20, 6, -88, -74, 9, -2, 1, -2, -14, 34, -77, -38, -1, 80, -36, 73, 2, 3, -8, 10, -48, -73, -71, -11, -22, 20, 54], "withholdReward": false, "trial_id": "mdp_trial_9", "block": "test", "trialIndex": 14, "score": -55, "costs": 0, "simulationMode": [null, null, null, null, null], "rewards": [-2, 1, -2, -14, -38], "path": ["0", "0", "12", "13", "14", "15", "18"], "rt": [1228, 6, 57, 44, 780], "actions": ["right", "right", "right", "up", "left"], "actionTimes": [3469, 4038, 4675, 5262, 6594], "queries": {"click": {"state": {"target": [], "time": []}, "edge": {"target": [], "time": []}}, "mouseover": {"state": {"target": [], "time": []}, "edge": {"target": [], "time": []}}, "mouseout": {"state": {"target": ["0"], "time": [720]}, "edge": {"target": [], "time": []}}}, "displayed_time": "16.25", "trialTime": 25683, "trial_type": "mouselab-mdp", "trial_index": 29, "time_elapsed": 934993, "internal_node_id": "0.0-4.0-1.0-8.0"}}, {"uniqueid": "w40151789:a38439860", "current_trial": 30, "dateTime": 1691144188076, "trialdata": {"revealed_states": [], "clicked_states": [], "num_clicks_accrued": [0, 0, 0, 0, 0, 0, 0, 0, 0, 0, 0, 0, 0], "stateRewards": ["", 1, 2, -8, 9, 18, -83, -11, 6, -64, -48, 17, -2, -2, -5, -3, -24, -3, -86, -2, 48, -41, -22, -2, 4, 7, 8, 81, 13, -48, 10, 61, 19, 57], "withholdReward": false, "trial_id": "mdp_trial_10", "block": "test", "trialIndex": 15, "score": 76, "costs": 0, "simulationMode": [null, null, null, null, null], "rewards": [-2, 4, 7, 10, 57], "path": ["0", "0", "23", "24", "25", "30", "33"], "rt": [266, 496, 21, 568, 136], "actions": ["left", "left", "left", "down", "left"], "actionTimes": [2100, 3117, 3776, 5017, 5706], "queries": {"click": {"state": {"target": [], "time": []}, "edge": {"target": [], "time": []}}, "mouseover": {"state": {"target": [], "time": []}, "edge": {"target": [], "time": []}}, "mouseout": {"state": {"target": ["0", "23"], "time": [163, 426]}, "edge": {"target": [], "time": []}}}, "displayed_time": "15.85", "trialTime": 23233, "trial_type": "mouselab-mdp", "trial_index": 30, "time_elapsed": 959010, "internal_node_id": "0.0-4.0-1.0-9.0"}}, {"uniqueid": "w40151789:a38439860", "current_trial": 31, "dateTime": 1691144207307, "trialdata": {"revealed_states": [], "clicked_states": [], "num_clicks_accrued": [0, 0, 0, 0, 0, 0, 0, 0, 0, 0, 0, 0, 0], "stateRewards": ["", 1, 2, -6, -13, -51, 22, -4, -12, -44, -12, 6, -2, -2, -2, -14, -46, -4, -77, -2, 36, -79, 41, 2, -4, 2, -6, -55, 59, 70, -5, 39, -19, 24], "withholdReward": false, "trial_id": "mdp_trial_11", "block": "test", "trialIndex": 16, "score": 64, "costs": 0, "simulationMode": [null, null, null, null, null], "rewards": [2, -4, 2, -6, 70], "path": ["0", "0", "23", "24", "25", "26", "29"], "rt": [1622, 319, 909, 68, 624], "actions": ["left", "left", "left", "up", "left"], "actionTimes": [3567, 4408, 5841, 6429, 7598], "queries": {"click": {"state": {"target": [], "time": []}, "edge": {"target": [], "time": []}}, "mouseover": {"state": {"target": [], "time": []}, "edge": {"target": [], "time": []}}, "mouseout": {"state": {"target": ["0", "0", "22", "22"], "time": [1149, 17174, 17461, 17582]}, "edge": {"target": [], "time": []}}}, "displayed_time": "15.96", "trialTime": 17824, "trial_type": "mouselab-mdp", "trial_index": 31, "time_elapsed": 978240, "internal_node_id": "0.0-4.0-1.0-10.0"}}, {"uniqueid": "w40151789:a38439860", "current_trial": 32, "dateTime": 1691144225367, "trialdata": {"revealed_states": [], "clicked_states": [], "num_clicks_accrued": [0, 0, 0, 0, 0, 0, 0, 0, 0, 0, 0, 0, 0], "stateRewards": ["", -2, 3, 8, -9, 59, 41, -50, -1, 82, 66, 33, 2, -2, 7, 8, 1, -38, 12, -16, 24, -37, 67, 1, 4, -2, 5, 35, -83, 28, 8, -27, 69, -64], "withholdReward": false, "trial_id": "mdp_trial_12", "block": "test", "trialIndex": 17, "score": 43, "costs": 0, "simulationMode": [null, null, null, null, null], "rewards": [1, 4, -2, 5, 35], "path": ["0", "0", "23", "24", "25", "26", "27"], "rt": [576, 230, 79, 481, 171], "actions": ["left", "left", "left", "up", "up"], "actionTimes": [1934, 2684, 3286, 4301, 4991], "queries": {"click": {"state": {"target": [], "time": []}, "edge": {"target": [], "time": []}}, "mouseover": {"state": {"target": [], "time": []}, "edge": {"target": [], "time": []}}, "mouseout": {"state": {"target": ["0"], "time": [14996]}, "edge": {"target": [], "time": []}}}, "displayed_time": "15.37", "trialTime": 17274, "trial_type": "mouselab-mdp", "trial_index": 32, "time_elapsed": 996302, "internal_node_id": "0.0-4.0-1.0-11.0"}}, {"uniqueid": "w40151789:a38439860", "current_trial": 33, "dateTime": 1691144243022, "trialdata": {"revealed_states": [], "clicked_states": [], "num_clicks_accrued": [0, 0, 0, 0, 0, 0, 0, 0, 0, 0, 0, 0, 0], "stateRewards": ["", 1, -4, 6, -3, 40, 76, -51, 5, -24, -63, 44, -2, -2, 8, 1, 76, -85, -58, 10, 59, 20, 11, -2, 3, -3, 3, -82, -10, 54, -7, -57, -6, -32], "withholdReward": false, "trial_id": "mdp_trial_13", "block": "test", "trialIndex": 18, "score": -81, "costs": 0, "simulationMode": [null, null, null, null, null], "rewards": [-2, 3, -3, 3, -82], "path": ["0", "0", "23", "24", "25", "26", "27"], "rt": [515, 693, 364, 134, 73], "actions": ["left", "left", "left", "up", "up"], "actionTimes": [1586, 2800, 3687, 4339, 4926], "queries": {"click": {"state": {"target": [], "time": []}, "edge": {"target": [], "time": []}}, "mouseover": {"state": {"target": [], "time": []}, "edge": {"target": [], "time": []}}, "mouseout": {"state": {"target": [], "time": []}, "edge": {"target": [], "time": []}}}, "displayed_time": "15.08", "trialTime": 16888, "trial_type": "mouselab-mdp", "trial_index": 33, "time_elapsed": 1013956, "internal_node_id": "0.0-4.0-1.0-12.0"}}, {"uniqueid": "w40151789:a38439860", "current_trial": 34, "dateTime": 1691144262674, "trialdata": {"revealed_states": [], "clicked_states": [], "num_clicks_accrued": [0, 0, 0, 0, 0, 0, 0, 0, 0, 0, 0, 0, 0], "stateRewards": ["", 1, 1, -5, 8, -6, 45, 16, -6, -7, -22, -38, -1, -4, 8, -11, -16, 21, -45, -15, -59, -32, 42, -1, 3, 6, 11, -7, 34, -27, -8, 85, 43, -9], "withholdReward": false, "trial_id": "mdp_trial_14", "block": "test", "trialIndex": 19, "score": 53, "costs": 0, "simulationMode": [null, null, null, null, null], "rewards": [-1, 3, 6, 11, 34], "path": ["0", "0", "23", "24", "25", "26", "28"], "rt": [556, 63, 90, 16, 508], "actions": ["left", "left", "left", "up", "right"], "actionTimes": [1848, 2454, 3075, 3601, 4660], "queries": {"click": {"state": {"target": [], "time": []}, "edge": {"target": [], "time": []}}, "mouseover": {"state": {"target": [], "time": []}, "edge": {"target": [], "time": []}}, "mouseout": {"state": {"target": [], "time": []}, "edge": {"target": [], "time": []}}}, "displayed_time": "15.30", "trialTime": 18862, "trial_type": "mouselab-mdp", "trial_index": 34, "time_elapsed": 1033608, "internal_node_id": "0.0-4.0-1.0-13.0"}}, {"uniqueid": "w40151789:a38439860", "current_trial": 35, "dateTime": 1691144284192, "trialdata": {"revealed_states": [], "clicked_states": [], "num_clicks_accrued": [0, 0, 0, 0, 0, 0, 0, 0, 0, 0, 0, 0, 0], "stateRewards": ["", -2, -1, -6, -14, -55, 78, -13, 11, 14, -71, 59, 2, 2, 6, -6, 9, 38, 14, 7, 85, 11, 68, 1, -4, -1, -3, -63, -85, 9, -2, 63, -86, -10], "withholdReward": false, "trial_id": "mdp_trial_15", "block": "test", "trialIndex": 20, "score": -92, "costs": 0, "simulationMode": [null, null, null, null, null], "rewards": [1, -4, -1, -2, -86], "path": ["0", "0", "23", "24", "25", "30", "32"], "rt": [436, 136, 1011, 128, 48], "actions": ["left", "left", "left", "down", "down"], "actionTimes": [2083, 2733, 4257, 4905, 5475], "queries": {"click": {"state": {"target": [], "time": []}, "edge": {"target": [], "time": []}}, "mouseover": {"state": {"target": [], "time": []}, "edge": {"target": [], "time": []}}, "mouseout": {"state": {"target": [], "time": []}, "edge": {"target": [], "time": []}}}, "displayed_time": "15.66", "trialTime": 20685, "trial_type": "mouselab-mdp", "trial_index": 35, "time_elapsed": 1055126, "internal_node_id": "0.0-4.0-1.0-14.0"}}, {"uniqueid": "w40151789:a38439860", "current_trial": 36, "dateTime": 1691144309188, "trialdata": {"revealed_states": [], "clicked_states": [], "num_clicks_accrued": [0, 0, 0, 0, 0, 0, 0, 0, 0, 0, 0, 0, 0], "stateRewards": ["", 1, -3, -1, 9, -34, -40, 22, -7, 45, 53, -11, 2, 4, 5, 15, 21, 37, -49, -3, 80, -28, -34, 1, -3, 1, 1, -40, -6, -5, -16, -85, -86, 59], "withholdReward": false, "trial_id": "mdp_trial_16", "block": "test", "trialIndex": 21, "score": 28, "costs": 0, "simulationMode": [null, null, null, null, null], "rewards": [1, -3, -1, 9, 22], "path": ["0", "0", "1", "2", "3", "4", "7"], "rt": [723, 22, 96, 55, 468], "actions": ["up", "up", "up", "right", "down"], "actionTimes": [2002, 2538, 3160, 3735, 4733], "queries": {"click": {"state": {"target": [], "time": []}, "edge": {"target": [], "time": []}}, "mouseover": {"state": {"target": [], "time": []}, "edge": {"target": [], "time": []}}, "mouseout": {"state": {"target": [], "time": []}, "edge": {"target": [], "time": []}}}, "displayed_time": "15.28", "trialTime": 24163, "trial_type": "mouselab-mdp", "trial_index": 36, "time_elapsed": 1080122, "internal_node_id": "0.0-4.0-1.0-15.0"}}, {"uniqueid": "w40151789:a38439860", "current_trial": 37, "dateTime": 1691144329860, "trialdata": {"revealed_states": [], "clicked_states": [], "num_clicks_accrued": [0, 0, 0, 0, 0, 0, 0, 0, 0, 0, 0, 0, 0], "stateRewards": ["", 1, -2, -8, -3, 31, -84, -55, -14, 15, -58, 17, -2, -3, 7, 7, -12, 48, 67, 4, -44, -68, 46, 2, 3, -5, -7, 76, 27, 5, 11, 57, 52, 59], "withholdReward": false, "trial_id": "mdp_trial_17", "block": "test", "trialIndex": 22, "score": -96, "costs": 0, "simulationMode": [null, null, null, null, null], "rewards": [1, -2, -8, -3, -84], "path": ["0", "0", "1", "2", "3", "4", "6"], "rt": [654, 15, 3978, 11, 734], "actions": ["up", "up", "up", "right", "right"], "actionTimes": [2310, 2844, 7357, 7894, 9176], "queries": {"click": {"state": {"target": [], "time": []}, "edge": {"target": [], "time": []}}, "mouseover": {"state": {"target": [], "time": []}, "edge": {"target": [], "time": []}}, "mouseout": {"state": {"target": ["0"], "time": [3918]}, "edge": {"target": [], "time": []}}}, "displayed_time": "15.66", "trialTime": 19857, "trial_type": "mouselab-mdp", "trial_index": 37, "time_elapsed": 1100793, "internal_node_id": "0.0-4.0-1.0-16.0"}}, {"uniqueid": "w40151789:a38439860", "current_trial": 38, "dateTime": 1691144349864, "trialdata": {"revealed_states": [], "clicked_states": ["15", "14", "13"], "num_clicks_accrued": [0, 0, 0, 0, 0, 0, 0, 0, 0, 0, 0, 0, 0], "stateRewards": ["", 2, -1, 5, 6, 10, 86, 55, 10, -45, 63, -71, 1, -2, 5, -8, -50, -72, 36, 15, 61, 12, 33, -1, -4, 6, 5, 79, -56, -21, -16, -87, 60, -81], "withholdReward": false, "trial_id": "mdp_trial_18", "block": "test", "trialIndex": 23, "score": 75.8, "costs": -4.199999999999999, "simulationMode": [null, null, null, null, null], "rewards": [1, -2, 5, 15, 61], "path": ["0", "0", "12", "13", "14", "19", "20"], "rt": [6890, 111, 271, 270, 219], "actions": ["right", "right", "right", "down", "right"], "actionTimes": [8977, 9608, 10400, 11183, 11913], "queries": {"click": {"state": {"target": ["15", "14", "13"], "time": [3631, 5351, 7103]}, "edge": {"target": [], "time": []}}, "mouseover": {"state": {"target": ["18", "15", "14", "13", "22", "21"], "time": [2385, 2783, 4946, 5912, 7847, 8792]}, "edge": {"target": [], "time": []}}, "mouseout": {"state": {"target": ["7", "18", "15", "14", "13", "22", "21"], "time": [521, 2535, 4183, 5829, 7779, 8693, 8830]}, "edge": {"target": [], "time": []}}}, "displayed_time": "16.09", "trialTime": 19111, "trial_type": "mouselab-mdp", "trial_index": 38, "time_elapsed": 1120799, "internal_node_id": "0.0-4.0-1.0-17.0"}}, {"uniqueid": "w40151789:a38439860", "current_trial": 39, "dateTime": 1691144369068, "trialdata": {"revealed_states": [], "clicked_states": ["14", "19", "22"], "num_clicks_accrued": [0, 0, 0, 0, 0, 0, 0, 0, 0, 0, 0, 0, 0], "stateRewards": ["", -1, -3, 1, -4, -48, -63, -49, -2, -84, -19, 65, 2, -2, -2, -12, -4, 59, 9, 6, 75, 69, -13, -1, -3, -3, -2, -37, -68, -36, 13, 32, 18, -14], "withholdReward": false, "trial_id": "mdp_trial_19", "block": "test", "trialIndex": 24, "score": -13.2, "costs": -4.199999999999999, "simulationMode": [null, null, null, null, null, null], "rewards": [2, -2, -2, 6, -13], "path": ["0", "0", "12", "13", "14", "19", "22"], "rt": [6718, 665, 42, 81, 96, 147], "actions": ["right", "right", "right", "right", "down", "left"], "actionTimes": [10997, 11669, 12246, 12868, 13488, 14158], "queries": {"click": {"state": {"target": ["14", "19", "22"], "time": [5883, 7632, 9984]}, "edge": {"target": [], "time": []}}, "mouseover": {"state": {"target": ["12", "13", "14", "14", "19", "19", "22", "12"], "time": [4653, 4827, 5076, 5591, 6510, 7342, 8110, 10725]}, "edge": {"target": [], "time": []}}, "mouseout": {"state": {"target": ["19", "22", "12", "12", "13", "14", "14", "19", "19", "22"], "time": [1629, 3016, 3436, 4769, 5051, 5143, 6293, 7209, 7993, 10358]}, "edge": {"target": [], "time": []}}}, "displayed_time": "18.29", "trialTime": 18358, "trial_type": "mouselab-mdp", "trial_index": 39, "time_elapsed": 1140001, "internal_node_id": "0.0-4.0-1.0-18.0"}}, {"uniqueid": "w40151789:a38439860", "current_trial": 40, "dateTime": 1691144390412, "trialdata": {"revealed_states": [], "clicked_states": ["13", "22", "19", "21"], "num_clicks_accrued": [0, 0, 0, 0, 0, 0, 0, 0, 0, 0, 0, 0, 0], "stateRewards": ["", -2, -4, -6, 12, -58, -70, -80, 2, 16, -88, -62, 1, 2, -5, 11, 77, -35, -44, -5, 18, -83, 87, 1, -3, -5, 13, -44, -21, -86, 10, -52, 8, 29], "withholdReward": false, "trial_id": "mdp_trial_20", "block": "test", "trialIndex": 25, "score": -95.6, "costs": -5.6, "simulationMode": [null, null, null, null, null, null], "rewards": [1, 2, -5, -5, -83], "path": ["0", "0", "12", "13", "14", "19", "21"], "rt": [10371, 544, 13, 128, 5, 185], "actions": ["right", "right", "right", "right", "down", "down"], "actionTimes": [13524, 14073, 14610, 15272, 15803, 16540], "queries": {"click": {"state": {"target": ["13", "22", "19", "21"], "time": [4397, 7030, 9292, 12215]}, "edge": {"target": [], "time": []}}, "mouseover": {"state": {"target": ["12", "13", "13", "14", "19", "22", "22", "19", "20", "21"], "time": [3247, 3614, 3999, 4896, 5132, 5565, 6578, 7503, 11011, 11874]}, "edge": {"target": [], "time": []}}, "mouseout": {"state": {"target": ["12", "12", "13", "13", "14", "19", "22", "22", "22", "19", "19", "20", "21"], "time": [1339, 3580, 3666, 4843, 5031, 5182, 6305, 7151, 7469, 9845, 10959, 11261, 12342]}, "edge": {"target": [], "time": []}}}, "displayed_time": "17.15", "trialTime": 20571, "trial_type": "mouselab-mdp", "trial_index": 40, "time_elapsed": 1161346, "internal_node_id": "0.0-4.0-1.0-19.0"}}, {"uniqueid": "w40151789:a38439860", "current_trial": 41, "dateTime": 1691144409827, "trialdata": {"revealed_states": [], "clicked_states": ["13", "14", "19", "20"], "num_clicks_accrued": [0, 0, 0, 0, 0, 0, 0, 0, 0, 0, 0, 0, 0], "stateRewards": ["", 1, -4, -6, 11, -20, 8, -30, 1, -38, 88, 42, 2, 3, 5, -12, -8, -74, 30, -8, 67, -19, 42, 2, -1, 4, 13, 50, -68, 2, -8, -15, 87, -46], "withholdReward": false, "trial_id": "mdp_trial_21", "block": "test", "trialIndex": 26, "score": 63.4, "costs": -5.6, "simulationMode": [null, null, null, null, null], "rewards": [2, 3, 5, -8, 67], "path": ["0", "0", "12", "13", "14", "19", "20"], "rt": [10861, 567, 275, 139, 107], "actions": ["right", "right", "right", "down", "right"], "actionTimes": [13268, 14364, 15155, 15815, 16452], "queries": {"click": {"state": {"target": ["13", "14", "19", "20"], "time": [3831, 5881, 8017, 10850]}, "edge": {"target": [], "time": []}}, "mouseover": {"state": {"target": ["22", "13", "14", "19", "22", "20", "20", "22", "22"], "time": [2609, 3422, 4979, 7192, 9298, 10079, 10435, 11395, 12157]}, "edge": {"target": [], "time": []}}, "mouseout": {"state": {"target": ["0", "22", "13", "14", "19", "22", "20", "20", "19", "22", "22"], "time": [2428, 2646, 4247, 6662, 9095, 10033, 10105, 11342, 11377, 11415, 13000]}, "edge": {"target": [], "time": []}}}, "displayed_time": "17.00", "trialTime": 18645, "trial_type": "mouselab-mdp", "trial_index": 41, "time_elapsed": 1180761, "internal_node_id": "0.0-4.0-1.0-20.0"}}, {"uniqueid": "w40151789:a38439860", "current_trial": 42, "dateTime": 1691144430790, "trialdata": {"revealed_states": [], "clicked_states": ["23", "25", "24", "30", "33"], "num_clicks_accrued": [0, 0, 0, 0, 0, 0, 0, 0, 0, 0, 0, 0, 0], "stateRewards": ["", 1, -1, 4, -2, -75, -75, 84, -9, -60, -79, 59, 2, -4, 8, 9, -17, -82, 80, 14, -4, 49, 49, -1, 3, 6, -11, -33, 34, 55, 9, -57, 5, 59], "withholdReward": false, "trial_id": "mdp_trial_22", "block": "test", "trialIndex": 27, "score": 69, "costs": -7, "simulationMode": [null, null, null, null, null], "rewards": [-1, 3, 6, 9, 59], "path": ["0", "0", "23", "24", "25", "30", "33"], "rt": [12165, 622, 114, 533, 492], "actions": ["left", "left", "left", "down", "left"], "actionTimes": [14877, 16036, 16674, 17750, 18766], "queries": {"click": {"state": {"target": ["23", "25", "24", "30", "33"], "time": [3530, 5833, 7504, 9642, 12578]}, "edge": {"target": [], "time": []}}, "mouseover": {"state": {"target": ["23", "24", "25", "24", "30", "30", "33"], "time": [2762, 4163, 5077, 6566, 8660, 9527, 12198]}, "edge": {"target": [], "time": []}}, "mouseout": {"state": {"target": ["20", "19", "22", "0", "23", "24", "25", "24", "30", "30", "33"], "time": [716, 1067, 1141, 2099, 3660, 4885, 6229, 8310, 8808, 11689, 13731]}, "edge": {"target": [], "time": []}}}, "displayed_time": "19.31", "trialTime": 20203, "trial_type": "mouselab-mdp", "trial_index": 42, "time_elapsed": 1201724, "internal_node_id": "0.0-4.0-1.0-21.0"}}, {"uniqueid": "w40151789:a38439860", "current_trial": 43, "dateTime": 1691144455915, "trialdata": {"revealed_states": [], "clicked_states": ["23", "24", "1", "2", "3", "8", "9"], "num_clicks_accrued": [0, 0, 0, 0, 0, 0, 0, 0, 0, 0, 0, 0, 0], "stateRewards": ["", -1, 2, -2, 5, 80, -61, -27, 12, 44, -26, -75, -2, -4, 1, -16, 42, -49, -50, 4, -44, 2, 80, -2, -2, 5, -2, 59, 10, 24, 7, -48, -86, -44], "withholdReward": false, "trial_id": "mdp_trial_23", "block": "test", "trialIndex": 28, "score": 45.2, "costs": -9.8, "simulationMode": [null, null, null, null, null], "rewards": [-1, 2, -2, 12, 44], "path": ["0", "0", "1", "2", "3", "8", "9"], "rt": [16230, 552, 138, 17, 15], "actions": ["up", "up", "up", "left", "up"], "actionTimes": [19600, 20665, 21316, 21853, 22391], "queries": {"click": {"state": {"target": ["23", "24", "1", "2", "3", "8", "9"], "time": [4136, 6199, 9360, 10886, 13363, 15212, 17236]}, "edge": {"target": [], "time": []}}, "mouseover": {"state": {"target": ["23", "24", "25", "1", "1", "2", "3", "8", "9", "2"], "time": [3811, 4647, 6882, 8467, 8793, 9834, 11765, 14298, 15964, 17836]}, "edge": {"target": [], "time": []}}, "mouseout": {"state": {"target": ["1", "0", "0", "23", "24", "25", "1", "1", "2", "3", "8", "9", "2"], "time": [1621, 1726, 2043, 4486, 6212, 8399, 8522, 9767, 11050, 14167, 15730, 17695, 18167]}, "edge": {"target": [], "time": []}}}, "displayed_time": "22.91", "trialTime": 24198, "trial_type": "mouselab-mdp", "trial_index": 43, "time_elapsed": 1226849, "internal_node_id": "0.0-4.0-1.0-22.0"}}, {"uniqueid": "w40151789:a38439860", "current_trial": 44, "dateTime": 1691144498740, "trialdata": {"revealed_states": [], "clicked_states": ["1", "2", "3", "4", "7", "12", "13", "14", "15", "18", "19", "21", "22", "23", "24"], "num_clicks_accrued": [0, 0, 0, 0, 0, 0, 0, 0, 0, 0, 0, 0, 0], "stateRewards": ["", -2, 4, -7, -3, -76, 39, -28, 10, 14, 12, 60, 2, -3, 6, -10, 88, -34, -41, -3, 72, -13, -56, 1, 3, 2, 8, -51, 23, -57, 1, 14, -46, -16], "withholdReward": false, "trial_id": "mdp_trial_24", "block": "test", "trialIndex": 29, "score": -29.999999999999996, "costs": -20.999999999999996, "simulationMode": [null, null, null, null, null], "rewards": [1, 3, 2, 1, -16], "path": ["0", "0", "23", "24", "25", "30", "33"], "rt": [34489, 358, 8, 50, 115], "actions": ["left", "left", "left", "down", "left"], "actionTimes": [36103, 36977, 37531, 38115, 38766], "queries": {"click": {"state": {"target": ["1", "2", "3", "4", "7", "12", "13", "14", "15", "18", "19", "21", "22", "23", "24"], "time": [2304, 4914, 6999, 8916, 10933, 12980, 15531, 17322, 19251, 21538, 23883, 25468, 28017, 30920, 34483]}, "edge": {"target": [], "time": []}}, "mouseover": {"state": {"target": ["1", "2", "2", "3", "4", "7", "12", "13", "14", "13", "14", "15", "15", "18", "19", "21", "22", "25", "23", "24", "31", "24", "25"], "time": [1900, 2616, 4379, 6455, 7730, 10164, 11930, 13695, 14933, 15210, 16221, 17804, 18655, 20904, 22157, 24576, 27219, 28938, 30669, 31293, 32805, 33968, 35085]}, "edge": {"target": [], "time": []}}, "mouseout": {"state": {"target": ["0", "1", "2", "2", "3", "4", "7", "7", "12", "13", "14", "13", "14", "15", "15", "18", "18", "19", "21", "22", "25", "23", "24", "31", "23", "24", "24", "25"], "time": [1628, 2596, 3926, 5152, 7498, 9874, 11012, 11479, 13127, 14864, 15162, 15910, 17735, 17955, 20757, 21750, 22140, 24397, 26888, 28525, 28980, 31208, 32479, 32851, 33656, 34606, 34948, 41091]}, "edge": {"target": [], "time": []}}}, "displayed_time": "39.28", "trialTime": 42094, "trial_type": "mouselab-mdp", "trial_index": 44, "time_elapsed": 1269674, "internal_node_id": "0.0-4.0-1.0-23.0"}}, {"uniqueid": "w40151789:a38439860", "current_trial": 45, "dateTime": 1691144524508, "trialdata": {"revealed_states": [], "clicked_states": [], "num_clicks_accrued": [0, 0, 0, 0, 0, 0, 0, 0, 0, 0, 0, 0, 0], "stateRewards": ["", -2, 4, -5, -12, 85, -24, -18, -15, -78, -22, 26, -1, -1, 2, 14, -45, 52, -23, 7, -33, 24, -6, -2, -4, 5, -7, -16, 36, -39, 5, 71, -87, -23], "withholdReward": false, "trial_id": "mdp_trial_25", "block": "test", "trialIndex": 30, "score": -24, "costs": 0, "simulationMode": [null, null, null, null, null], "rewards": [-2, -4, 5, -7, -16], "path": ["0", "0", "23", "24", "25", "26", "27"], "rt": [912, 249, 495, 11, 62], "actions": ["left", "left", "left", "up", "up"], "actionTimes": [2410, 3180, 4196, 4723, 5324], "queries": {"click": {"state": {"target": [], "time": []}, "edge": {"target": [], "time": []}}, "mouseover": {"state": {"target": [], "time": []}, "edge": {"target": [], "time": []}}, "mouseout": {"state": {"target": ["24", "23"], "time": [266, 24611]}, "edge": {"target": [], "time": []}}}, "displayed_time": "15.51", "trialTime": 24965, "trial_type": "mouselab-mdp", "trial_index": 45, "time_elapsed": 1295442, "internal_node_id": "0.0-4.0-1.0-24.0"}}, {"uniqueid": "w40151789:a38439860", "current_trial": 46, "dateTime": 1691144562370, "trialdata": {"revealed_states": [], "clicked_states": ["23", "24", "30", "2", "32", "33", "31", "3", "8", "9"], "num_clicks_accrued": [0, 0, 0, 0, 0, 0, 0, 0, 0, 0, 0, 0, 0], "stateRewards": ["", 2, 2, 3, -15, 23, -14, 73, -7, -32, -20, -6, 1, 1, -5, -12, 73, 6, -84, 11, -81, -57, 13, -2, -1, -4, -8, -52, -58, 49, 13, 5, -41, -41], "withholdReward": false, "trial_id": "mdp_trial_26", "block": "test", "trialIndex": 31, "score": 51, "costs": -14.000000000000002, "simulationMode": [null, null, null, null, null], "rewards": [2, 2, 3, -15, 73], "path": ["0", "0", "1", "2", "3", "4", "7"], "rt": [24376, 208, 486, 423, 10], "actions": ["up", "up", "up", "right", "down"], "actionTimes": [27649, 28372, 29378, 30316, 30871], "queries": {"click": {"state": {"target": ["23", "24", "30", "2", "32", "33", "31", "3", "8", "9"], "time": [4871, 6598, 8430, 10410, 12361, 15623, 18511, 21421, 23838, 26045]}, "edge": {"target": [], "time": []}}, "mouseover": {"state": {"target": ["23", "24", "24", "25", "30", "28", "2", "23", "31", "32", "33", "30", "31", "23", "2", "3", "8", "9", "9"], "time": [4054, 5824, 6191, 7140, 7574, 9025, 9657, 11039, 11082, 11603, 15137, 16336, 18159, 19600, 20019, 21096, 21972, 24317, 24883]}, "edge": {"target": [], "time": []}}, "mouseout": {"state": {"target": ["0", "23", "24", "24", "25", "30", "28", "2", "23", "31", "32", "32", "33", "30", "31", "23", "2", "3", "8", "9", "9", "8"], "time": [2146, 5451, 5846, 6958, 7293, 8573, 9060, 10989, 11059, 11145, 12519, 13015, 16234, 16645, 19549, 19616, 20568, 21862, 24296, 24336, 26558, 26610]}, "edge": {"target": [], "time": []}}}, "displayed_time": "31.41", "trialTime": 36922, "trial_type": "mouselab-mdp", "trial_index": 46, "time_elapsed": 1333304, "internal_node_id": "0.0-4.0-1.0-25.0"}}, {"uniqueid": "w40151789:a38439860", "current_trial": 47, "dateTime": 1691144594923, "trialdata": {"revealed_states": [], "clicked_states": ["1", "2", "3", "4", "5"], "num_clicks_accrued": [0, 0, 0, 0, 0, 0, 0, 0, 0, 0, 0, 0, 0], "stateRewards": ["", 2, -3, -2, 14, -4, 85, 46, 15, -28, 41, 31, -1, -1, -1, 5, 62, 79, 57, 12, -73, -64, 86, -1, 1, -3, -5, 68, 11, -32, 8, -80, -21, -56], "withholdReward": false, "trial_id": "mdp_trial_27", "block": "test", "trialIndex": 32, "score": 0, "costs": -7, "simulationMode": [null, null, null, null, null], "rewards": [2, -3, -2, 14, -4], "path": ["0", "0", "1", "2", "3", "4", "5"], "rt": [10334, 165, 538, 301, 31], "actions": ["up", "up", "up", "right", "up"], "actionTimes": [16546, 17238, 18313, 19124, 19670], "queries": {"click": {"state": {"target": ["1", "2", "3", "4", "5"], "time": [7382, 9452, 11146, 12687, 14238]}, "edge": {"target": [], "time": []}}, "mouseover": {"state": {"target": ["1", "2", "1", "2", "2", "3", "4", "5"], "time": [6273, 6586, 7149, 7914, 9230, 9926, 11964, 13275]}, "edge": {"target": [], "time": []}}, "mouseout": {"state": {"target": ["1", "1", "2", "1", "2", "2", "3", "3", "4", "5", "4"], "time": [5282, 6446, 6934, 7500, 8776, 9564, 11281, 11809, 12870, 14939, 15027]}, "edge": {"target": [], "time": []}}}, "displayed_time": "20.21", "trialTime": 31620, "trial_type": "mouselab-mdp", "trial_index": 47, "time_elapsed": 1365857, "internal_node_id": "0.0-4.0-1.0-26.0"}}, {"uniqueid": "w40151789:a38439860", "current_trial": 48, "dateTime": 1691144627824, "trialdata": {"revealed_states": [], "clicked_states": [], "num_clicks_accrued": [0, 0, 0, 0, 0, 0, 0, 0, 0, 0, 0, 0, 0], "stateRewards": ["", -1, 1, -2, 5, 73, 15, 61, 8, 7, 38, 76, 2, 2, -4, -6, -6, -26, 43, -5, -45, -85, -35, -2, 1, -4, 15, -10, 69, 72, -11, 84, -49, -38], "withholdReward": false, "trial_id": "mdp_trial_28", "block": "test", "trialIndex": 33, "score": 82, "costs": 0, "simulationMode": [null, null, null, null, null], "rewards": [-2, 1, -4, 15, 72], "path": ["0", "0", "23", "24", "25", "26", "29"], "rt": [314, 35, 685, 361, 390], "actions": ["left", "left", "left", "up", "left"], "actionTimes": [3368, 3913, 5114, 5989, 6903], "queries": {"click": {"state": {"target": [], "time": []}, "edge": {"target": [], "time": []}}, "mouseover": {"state": {"target": [], "time": []}, "edge": {"target": [], "time": []}}, "mouseout": {"state": {"target": ["1", "24", "31", "0", "1", "0"], "time": [1000, 1131, 1278, 1670, 1949, 31750]}, "edge": {"target": [], "time": []}}}, "displayed_time": "17.06", "trialTime": 32004, "trial_type": "mouselab-mdp", "trial_index": 48, "time_elapsed": 1398758, "internal_node_id": "0.0-4.0-1.0-27.0"}}, {"uniqueid": "w40151789:a38439860", "current_trial": 49, "dateTime": 1691144648508, "trialdata": {"revealed_states": [], "clicked_states": ["23", "25", "26", "29"], "num_clicks_accrued": [0, 0, 0, 0, 0, 0, 0, 0, 0, 0, 0, 0, 0], "stateRewards": ["", -2, -4, 6, 14, -34, 49, 36, -8, -3, 32, -4, 1, -2, 1, -8, -20, -71, -57, -7, -86, -62, -16, -2, -3, -5, 11, 23, -21, 53, 5, -5, 85, 73], "withholdReward": false, "trial_id": "mdp_trial_29", "block": "test", "trialIndex": 34, "score": 48.4, "costs": -5.6, "simulationMode": [null, null, null, null, null], "rewards": [-2, -3, -5, 11, 53], "path": ["0", "0", "23", "24", "25", "26", "29"], "rt": [10641, 265, 92, 5, 499], "actions": ["left", "left", "left", "up", "left"], "actionTimes": [13391, 14181, 14790, 15337, 16363], "queries": {"click": {"state": {"target": ["23", "25", "26", "29"], "time": [3827, 6605, 8456, 10363]}, "edge": {"target": [], "time": []}}, "mouseover": {"state": {"target": ["23", "23", "24", "25", "26", "29", "24", "27", "28"], "time": [3180, 3498, 4356, 6012, 7485, 8985, 11550, 12455, 12548]}, "edge": {"target": [], "time": []}}, "mouseout": {"state": {"target": ["0", "23", "23", "24", "25", "26", "29", "25", "24", "27", "28"], "time": [2787, 3226, 4219, 5773, 7167, 8950, 10931, 11032, 11592, 12522, 12852]}, "edge": {"target": [], "time": []}}}, "displayed_time": "16.88", "trialTime": 19763, "trial_type": "mouselab-mdp", "trial_index": 49, "time_elapsed": 1419442, "internal_node_id": "0.0-4.0-1.0-28.0"}}, {"uniqueid": "w40151789:a38439860", "current_trial": 50, "dateTime": 1691144675256, "trialdata": {"revealed_states": [], "clicked_states": ["23", "24", "25", "30", "32", "33", "31"], "num_clicks_accrued": [0, 0, 0, 0, 0, 0, 0, 0, 0, 0, 0, 0, 0], "stateRewards": ["", 1, 4, -8, -13, -13, -87, -77, -10, -44, 54, 42, 2, -3, -4, 12, -9, -80, 52, 9, 84, -2, -65, 1, -4, -5, -6, 8, 80, 32, 13, -59, -5, -13], "withholdReward": false, "trial_id": "mdp_trial_30", "block": "test", "trialIndex": 35, "score": 8.2, "costs": -9.8, "simulationMode": [null, null, null, null, null], "rewards": [1, -4, -5, -6, 32], "path": ["0", "0", "23", "24", "25", "26", "29"], "rt": [18732, 216, 248, 34, 81], "actions": ["left", "left", "left", "up", "left"], "actionTimes": [21403, 22142, 22935, 23491, 24102], "queries": {"click": {"state": {"target": ["23", "24", "25", "30", "32", "33", "31"], "time": [3459, 6416, 8832, 10851, 13235, 16509, 19588]}, "edge": {"target": [], "time": []}}, "mouseover": {"state": {"target": ["23", "24", "24", "25", "25", "30", "32", "33", "30", "31", "30"], "time": [3067, 4011, 5890, 7481, 8284, 9547, 12359, 15833, 18928, 19228, 20173]}, "edge": {"target": [], "time": []}}, "mouseout": {"state": {"target": ["22", "0", "23", "24", "24", "25", "25", "30", "32", "33", "30", "31", "30"], "time": [818, 1553, 3951, 5321, 7446, 7517, 9447, 11813, 13391, 18876, 18958, 20154, 20190]}, "edge": {"target": [], "time": []}}}, "displayed_time": "24.62", "trialTime": 25917, "trial_type": "mouselab-mdp", "trial_index": 50, "time_elapsed": 1446190, "internal_node_id": "0.0-4.0-1.0-29.0"}}, {"uniqueid": "w40151789:a38439860", "current_trial": 51, "dateTime": 1691144698691, "trialdata": {"revealed_states": [], "clicked_states": ["1", "2", "3", "4", "7"], "num_clicks_accrued": [0, 0, 0, 0, 0, 0, 0, 0, 0, 0, 0, 0, 0], "stateRewards": ["", -1, 2, -6, 6, -82, -19, -39, -16, -83, 11, -33, -2, -2, 4, -6, -82, -1, -19, -6, -10, -67, -41, -2, 1, -7, 16, -23, -78, -52, 14, 31, -71, 74], "withholdReward": false, "trial_id": "mdp_trial_31", "block": "test", "trialIndex": 36, "score": -88, "costs": -7, "simulationMode": [null, null, null, null, null, null], "rewards": [-1, 2, -6, 6, -82], "path": ["0", "0", "1", "2", "3", "4", "5"], "rt": [12985, 409, 196, 78, 416, 283], "actions": ["up", "up", "up", "up", "right", "up"], "actionTimes": [16120, 16534, 17258, 17855, 18809, 19612], "queries": {"click": {"state": {"target": ["1", "2", "3", "4", "7"], "time": [5523, 8252, 9984, 12115, 15387]}, "edge": {"target": [], "time": []}}, "mouseover": {"state": {"target": ["23", "1", "1", "2", "3", "3", "2", "3", "4", "7"], "time": [4023, 4289, 4765, 5913, 7506, 7804, 7936, 9012, 10480, 15010]}, "edge": {"target": [], "time": []}}, "mouseout": {"state": {"target": ["23", "1", "1", "2", "3", "3", "2", "3", "4", "7", "7", "23"], "time": [4239, 4321, 5617, 6714, 7600, 7863, 8566, 10396, 12802, 15459, 21914, 22058]}, "edge": {"target": [], "time": []}}}, "displayed_time": "20.13", "trialTime": 22666, "trial_type": "mouselab-mdp", "trial_index": 51, "time_elapsed": 1469625, "internal_node_id": "0.0-4.0-1.0-30.0"}}, {"uniqueid": "w40151789:a38439860", "current_trial": 52, "dateTime": 1691144725747, "trialdata": {"revealed_states": [], "clicked_states": [], "num_clicks_accrued": [0, 0, 0, 0, 0, 0, 0, 0, 0, 0, 0, 0, 0], "stateRewards": ["", -1, 4, -6, -5, -22, -38, -38, -2, -56, 88, 14, -1, -1, -7, -6, 61, -60, 21, 11, 57, 31, -30, -2, -2, 6, -9, -44, -70, -44, -15, 34, 16, -78], "withholdReward": false, "trial_id": "mdp_trial_32", "block": "test", "trialIndex": 37, "score": 9, "costs": 0, "simulationMode": [null, null, null, null, null], "rewards": [-1, 4, -6, -2, 14], "path": ["0", "0", "1", "2", "3", "8", "11"], "rt": [1094, 39, 707, 333, 19], "actions": ["up", "up", "up", "left", "left"], "actionTimes": [4075, 4642, 5879, 6755, 7290], "queries": {"click": {"state": {"target": [], "time": []}, "edge": {"target": [], "time": []}}, "mouseover": {"state": {"target": [], "time": []}, "edge": {"target": [], "time": []}}, "mouseout": {"state": {"target": ["0"], "time": [3485]}, "edge": {"target": [], "time": []}}}, "displayed_time": "16.99", "trialTime": 26175, "trial_type": "mouselab-mdp", "trial_index": 52, "time_elapsed": 1496681, "internal_node_id": "0.0-4.0-1.0-31.0"}}, {"uniqueid": "w40151789:a38439860", "current_trial": 53, "dateTime": 1691144750939, "trialdata": {"revealed_states": [], "clicked_states": [], "num_clicks_accrued": [0, 0, 0, 0, 0, 0, 0, 0, 0, 0, 0, 0, 0], "stateRewards": ["", -2, 2, 8, -6, -25, 3, 87, 2, -62, -2, 74, -2, -1, 2, -1, 79, 49, -37, -14, 5, 67, -9, -1, 2, -2, 5, 15, 38, 32, -14, -38, -38, 30], "withholdReward": false, "trial_id": "mdp_trial_33", "block": "test", "trialIndex": 38, "score": -24, "costs": 0, "simulationMode": [null, null, null, null, null], "rewards": [-2, -1, 2, -14, -9], "path": ["0", "0", "12", "13", "14", "19", "22"], "rt": [1833, 247, 747, 378, 310], "actions": ["right", "right", "right", "down", "left"], "actionTimes": [8058, 8838, 10107, 11004, 11834], "queries": {"click": {"state": {"target": [], "time": []}, "edge": {"target": [], "time": []}}, "mouseover": {"state": {"target": ["0"], "time": [6374]}, "edge": {"target": [], "time": []}}, "mouseout": {"state": {"target": [], "time": []}, "edge": {"target": [], "time": []}}}, "displayed_time": "20.23", "trialTime": 24308, "trial_type": "mouselab-mdp", "trial_index": 53, "time_elapsed": 1521873, "internal_node_id": "0.0-4.0-1.0-32.0"}}, {"uniqueid": "w40151789:a38439860", "current_trial": 54, "dateTime": 1691144781015, "trialdata": {"revealed_states": [], "clicked_states": [], "num_clicks_accrued": [0, 0, 0, 0, 0, 0, 0, 0, 0, 0, 0, 0, 0], "stateRewards": ["", -1, 1, 8, -3, -24, 11, -65, -6, -77, 48, 44, -2, 1, -2, -7, -55, -35, 33, 8, -28, 19, -53, -1, -1, -5, -5, -70, 10, 44, 8, -58, -70, 51], "withholdReward": false, "trial_id": "mdp_trial_34", "block": "test", "trialIndex": 39, "score": -2, "costs": 0, "simulationMode": [null, null, null, null, null], "rewards": [-1, -1, -5, -5, 10], "path": ["0", "0", "23", "24", "25", "26", "28"], "rt": [408, 75, 1030, 74, 401], "actions": ["left", "left", "left", "up", "right"], "actionTimes": [11423, 12031, 13596, 14186, 15110], "queries": {"click": {"state": {"target": [], "time": []}, "edge": {"target": [], "time": []}}, "mouseover": {"state": {"target": [], "time": []}, "edge": {"target": [], "time": []}}, "mouseout": {"state": {"target": [], "time": []}, "edge": {"target": [], "time": []}}}, "displayed_time": "25.03", "trialTime": 29218, "trial_type": "mouselab-mdp", "trial_index": 54, "time_elapsed": 1551949, "internal_node_id": "0.0-4.0-1.0-33.0"}}, {"uniqueid": "w40151789:a38439860", "current_trial": 55, "dateTime": 1691144800580, "trialdata": {"revealed_states": [], "clicked_states": [], "num_clicks_accrued": [0, 0, 0, 0, 0, 0, 0, 0, 0, 0, 0, 0, 0], "stateRewards": ["", 1, 1, -6, -2, 7, 77, 3, 16, -16, 66, 31, -1, 3, -8, -6, 33, -50, -48, 7, -60, -66, 36, 2, -3, 3, -7, -12, -61, -79, -4, 8, 74, -70], "withholdReward": false, "trial_id": "mdp_trial_35", "block": "test", "trialIndex": 40, "score": -66, "costs": 0, "simulationMode": [null, null, null, null, null], "rewards": [2, -3, 3, -7, -61], "path": ["0", "0", "23", "24", "25", "26", "28"], "rt": [918, 91, 478, 1326, 316], "actions": ["left", "left", "left", "up", "right"], "actionTimes": [4577, 5205, 6232, 8071, 8913], "queries": {"click": {"state": {"target": [], "time": []}, "edge": {"target": [], "time": []}}, "mouseover": {"state": {"target": [], "time": []}, "edge": {"target": [], "time": []}}, "mouseout": {"state": {"target": ["0"], "time": [3733]}, "edge": {"target": [], "time": []}}}, "displayed_time": "17.67", "trialTime": 18697, "trial_type": "mouselab-mdp", "trial_index": 55, "time_elapsed": 1571514, "internal_node_id": "0.0-4.0-1.0-34.0"}}, {"uniqueid": "w40151789:a38439860", "current_trial": 56, "dateTime": 1691144828476, "trialdata": {"revealed_states": [], "clicked_states": [], "num_clicks_accrued": [0, 0, 0, 0, 0, 0, 0, 0, 0, 0, 0, 0, 0], "stateRewards": ["", -1, -3, 3, 5, 56, 39, 50, -1, -80, 33, -46, 1, -2, -6, -8, 87, 48, 54, -11, -20, -64, -54, -2, 3, -7, -3, 12, 88, 35, -16, -46, -70, -3], "withholdReward": false, "trial_id": "mdp_trial_36", "block": "test", "trialIndex": 41, "score": 60, "costs": 0, "simulationMode": [null, null, null, null, null], "rewards": [-1, -3, 3, 5, 56], "path": ["0", "0", "1", "2", "3", "4", "5"], "rt": [534, 371, 26, 392, 392], "actions": ["up", "up", "up", "right", "up"], "actionTimes": [5301, 6204, 6741, 7660, 8573], "queries": {"click": {"state": {"target": [], "time": []}, "edge": {"target": [], "time": []}}, "mouseover": {"state": {"target": [], "time": []}, "edge": {"target": [], "time": []}}, "mouseout": {"state": {"target": ["1"], "time": [3273]}, "edge": {"target": [], "time": []}}}, "displayed_time": "18.78", "trialTime": 26989, "trial_type": "mouselab-mdp", "trial_index": 56, "time_elapsed": 1599409, "internal_node_id": "0.0-4.0-1.0-35.0"}}, {"uniqueid": "w40151789:a38439860", "current_trial": 57, "dateTime": 1691144846446, "trialdata": {"revealed_states": [], "clicked_states": [], "num_clicks_accrued": [0, 0, 0, 0, 0, 0, 0, 0, 0, 0, 0, 0, 0], "stateRewards": ["", 1, -3, 4, 13, -72, 52, 5, 5, -58, 5, 14, 2, 1, 3, -14, -86, -4, 73, 6, -58, -50, 49, 2, -3, -4, 2, 33, -41, 42, -11, 81, 45, 53], "withholdReward": false, "trial_id": "mdp_trial_37", "block": "test", "trialIndex": 42, "score": 20, "costs": 0, "simulationMode": [null, null, null, null, null], "rewards": [1, -3, 4, 13, 5], "path": ["0", "0", "1", "2", "3", "4", "7"], "rt": [356, 314, 559, 339, 245], "actions": ["up", "up", "up", "right", "down"], "actionTimes": [2308, 3142, 4229, 5082, 5842], "queries": {"click": {"state": {"target": [], "time": []}, "edge": {"target": [], "time": []}}, "mouseover": {"state": {"target": [], "time": []}, "edge": {"target": [], "time": []}}, "mouseout": {"state": {"target": ["0"], "time": [1362]}, "edge": {"target": [], "time": []}}}, "displayed_time": "15.96", "trialTime": 17069, "trial_type": "mouselab-mdp", "trial_index": 57, "time_elapsed": 1617380, "internal_node_id": "0.0-4.0-1.0-36.0"}}, {"uniqueid": "w40151789:a38439860", "current_trial": 58, "dateTime": 1691144866348, "trialdata": {"revealed_states": [], "clicked_states": [], "num_clicks_accrued": [0, 0, 0, 0, 0, 0, 0, 0, 0, 0, 0, 0, 0], "stateRewards": ["", 1, -2, -2, 10, -31, -77, 35, 9, -47, 8, 48, -2, 1, -4, -3, -26, -50, 43, -11, 76, -38, 17, 1, -1, 6, 10, 15, -9, 12, -8, 85, 11, -55], "withholdReward": false, "trial_id": "mdp_trial_38", "block": "test", "trialIndex": 43, "score": -70, "costs": 0, "simulationMode": [null, null, null, null, null], "rewards": [1, -2, -2, 10, -77], "path": ["0", "0", "1", "2", "3", "4", "6"], "rt": [1349, 351, 196, 97, 118], "actions": ["up", "up", "up", "right", "right"], "actionTimes": [3070, 3943, 4653, 5269, 5909], "queries": {"click": {"state": {"target": [], "time": []}, "edge": {"target": [], "time": []}}, "mouseover": {"state": {"target": [], "time": []}, "edge": {"target": [], "time": []}}, "mouseout": {"state": {"target": ["0"], "time": [1160]}, "edge": {"target": [], "time": []}}}, "displayed_time": "15.73", "trialTime": 18981, "trial_type": "mouselab-mdp", "trial_index": 58, "time_elapsed": 1637283, "internal_node_id": "0.0-4.0-1.0-37.0"}}, {"uniqueid": "w40151789:a38439860", "current_trial": 59, "dateTime": 1691144885304, "trialdata": {"revealed_states": [], "clicked_states": [], "num_clicks_accrued": [0, 0, 0, 0, 0, 0, 0, 0, 0, 0, 0, 0, 0], "stateRewards": ["", 1, 2, 8, -2, 23, -69, -18, -16, 54, -21, 71, -1, -4, 7, 11, 43, -6, 88, 6, -55, 72, 43, 1, -3, -2, -1, 68, -31, -54, 4, -8, 25, -2], "withholdReward": false, "trial_id": "mdp_trial_39", "block": "test", "trialIndex": 44, "score": 25, "costs": 0, "simulationMode": [null, null, null, null, null], "rewards": [1, -3, -2, 4, 25], "path": ["0", "0", "23", "24", "25", "30", "32"], "rt": [495, 359, 166, 10, 15], "actions": ["left", "left", "left", "down", "down"], "actionTimes": [2959, 3843, 4532, 5065, 5616], "queries": {"click": {"state": {"target": [], "time": []}, "edge": {"target": [], "time": []}}, "mouseover": {"state": {"target": [], "time": []}, "edge": {"target": [], "time": []}}, "mouseout": {"state": {"target": ["0", "23"], "time": [1020, 1188]}, "edge": {"target": [], "time": []}}}, "displayed_time": "16.47", "trialTime": 18039, "trial_type": "mouselab-mdp", "trial_index": 59, "time_elapsed": 1656237, "internal_node_id": "0.0-4.0-1.0-38.0"}}, {"uniqueid": "w40151789:a38439860", "current_trial": 60, "dateTime": 1691144906647, "trialdata": {"revealed_states": [], "clicked_states": [], "num_clicks_accrued": [0, 0, 0, 0, 0, 0, 0, 0, 0, 0, 0, 0, 0], "stateRewards": ["", 2, 3, -1, 16, -78, -11, 46, 2, -20, 79, -67, 2, 3, 2, 11, -83, -42, -58, -11, -67, -22, 55, 2, -1, -1, -16, -83, -82, 23, -11, -29, 13, 13], "withholdReward": false, "trial_id": "mdp_trial_40", "block": "test", "trialIndex": 45, "score": 2, "costs": 0, "simulationMode": [null, null, null, null, null], "rewards": [2, -1, -1, -11, 13], "path": ["0", "0", "23", "24", "25", "30", "32"], "rt": [1212, 358, 66, 449, 510], "actions": ["left", "left", "left", "down", "down"], "actionTimes": [2578, 3461, 4050, 5034, 6060], "queries": {"click": {"state": {"target": [], "time": []}, "edge": {"target": [], "time": []}}, "mouseover": {"state": {"target": [], "time": []}, "edge": {"target": [], "time": []}}, "mouseout": {"state": {"target": ["0"], "time": [1933]}, "edge": {"target": [], "time": []}}}, "displayed_time": "15.38", "trialTime": 20528, "trial_type": "mouselab-mdp", "trial_index": 60, "time_elapsed": 1677582, "internal_node_id": "0.0-4.0-1.0-39.0"}}, {"uniqueid": "w40151789:a38439860", "current_trial": 61, "dateTime": 1691144971340, "trialdata": {"rt": 64671, "response": {"Q0": "$-2 to $2", "Q1": "$-16 to $16", "Q2": "$-88 to $88", "Q3": "The cost for clicking on nodes varied between nodes.", "Q4": "Slightly motivated"}, "question_order": [0, 1, 2, 3, 4], "trial_id": "final_quiz_control", "trial_type": "survey-multi-choice", "trial_index": 61, "time_elapsed": 1742275, "internal_node_id": "0.0-4.0-2.0"}}, {"uniqueid": "w40151789:a38439860", "current_trial": 62, "dateTime": 1691145094063, "trialdata": {"rt": 122702, "response": {"Q0": "I observed the patterns that i won and try to go over them again, then I realized that the nodes did not repeat the patterns. ", "Q1": "Yes, I improved my strategy by clicking on the nodes to reveal them before moving the spider.", "Q2": "It was quite difficult as there was no much time to reveal all the nodes."}, "trial_id": "self_report_control", "trial_type": "survey-text", "trial_index": 62, "time_elapsed": 1864999, "internal_node_id": "0.0-4.0-3.0"}}, {"uniqueid": "w40151789:a38439860", "current_trial": 63, "dateTime": 1691145124683, "trialdata": {"rt": 30610, "response": {"gender": "male", "age": "54", "colorblind": "2", "effort": "0"}, "trial_type": "survey-html-form", "trial_index": 63, "time_elapsed": 1895618, "internal_node_id": "0.0-4.0-4.0"}}, {"uniqueid": "w40151789:a38439860", "current_trial": 64, "dateTime": 1691145201180, "trialdata": {"rt": 76489, "response": {"Q0": "Understanding the instruction was quite challenging", "Q1": "I have not participated in the Web of Cash HIT before.", "Q2": "Thank you."}, "trial_type": "survey-text", "trial_index": 64, "time_elapsed": 1972116, "internal_node_id": "0.0-4.0-5.0"}}, {"uniqueid": "w40151789:a38439860", "current_trial": 65, "dateTime": 1691145203924, "trialdata": {"rt": 2737, "stimulus": "Press 'Finish HIT' in order to reach the completion code. Once the data has been saved, you will receive the code either in this window or in the original browser window where you started the experiment.\n", "response": 0, "trial_type": "html-button-response", "trial_index": 65, "time_elapsed": 1974860, "internal_node_id": "0.0-5.0"}}, {"uniqueid": "w40151789:a38439860", "current_trial": 66, "dateTime": 1691145204942, "trialdata": {"success": true, "trial_type": "fullscreen", "trial_index": 66, "time_elapsed": 1975878, "internal_node_id": "0.0-6.0"}}], "questiondata": {"params": {"CODE": "C6DMOQA6", "MIN_TIME": 14, "inspectCost": 1, "startTime": "Fri Aug 04 2023 11:00:25 GMT+0100 (West Africa Standard Time)", "bonusRate": 0.002, "variance": "1_2_4_8_44", "branching": "31123"}, "final_score": -137.6}, "eventdata": [{"eventtype": "initialized", "value": null, "timestamp": 1691143224493, "interval": 0}, {"eventtype": "window_resize", "value": [1024, 654], "timestamp": 1691143224493, "interval": 0}, {"eventtype": "window_resize", "value": [1024, 654], "timestamp": 1691143225053, "interval": 560}, {"eventtype": "window_resize", "value": [1366, 768], "timestamp": 1691143235913, "interval": 10860}, {"eventtype": "focus", "value": "off", "timestamp": 1691143561897, "interval": 325984}, {"eventtype": "focus", "value": "on", "timestamp": 1691143561897, "interval": 0}, {"eventtype": "window_resize", "value": [1024, 654], "timestamp": 1691143562118, "interval": 221}, {"eventtype": "window_resize", "value": [1366, 768], "timestamp": 1691143564640, "interval": 2522}, {"eventtype": "focus", "value": "off", "timestamp": 1691143781897, "interval": 217257}, {"eventtype": "focus", "value": "on", "timestamp": 1691143781897, "interval": 0}, {"eventtype": "window_resize", "value": [1024, 654], "timestamp": 1691143782115, "interval": 218}, {"eventtype": "window_resize", "value": [1366, 768], "timestamp": 1691143786012, "interval": 3897}, {"eventtype": "window_resize", "value": [1024, 654], "timestamp": 1691145204200, "interval": 1418188}], "useragent": "Mozilla/5.0 (Windows NT 10.0; Win64; x64) AppleWebKit/537.36 (KHTML, like Gecko) Chrome/115.0.0.0 Safari/537.36", "mode": "live", "id": "w40151789:a38439860", "status": "user data saved", "Beginhit": "2023-08-04 09:58:45.089703", "Beginexp": "2023-08-04 10:00:37.422996", "Endhit": "2023-08-04 10:33:27.455867", "psiturkStatus": 3, "browser": "<redacted>", "platform": "windows", "language": "en-US"}