{"condition": 0, "counterbalance": 0, "assignmentId": "a97812099", "workerId": "w26593215", "hitId": "h80648075", "currenttrial": 61, "bonus": 0, "data": [{"uniqueid": "w26593215:a97812099", "current_trial": 0, "dateTime": 1693389822775, "trialdata": {"success": true, "trial_type": "fullscreen", "trial_index": 0, "time_elapsed": 10692, "internal_node_id": "0.0-0.0"}}, {"uniqueid": "w26593215:a97812099", "current_trial": 1, "dateTime": 1693389866753, "trialdata": {"view_history": [{"page_index": 0, "viewing_time": 43972}], "rt": 43972, "trial_id": "exp_instructions_control", "trial_type": "instructions", "trial_index": 1, "time_elapsed": 54670, "internal_node_id": "0.0-1.0"}}, {"uniqueid": "w26593215:a97812099", "current_trial": 2, "dateTime": 1693390167232, "trialdata": {"view_history": [{"page_index": 0, "viewing_time": 95766}, {"page_index": 1, "viewing_time": 113936}, {"page_index": 2, "viewing_time": 29608}, {"page_index": 3, "viewing_time": 61168}], "rt": 300478, "trial_id": "mouselab_instructions_1_control", "trial_type": "instructions", "trial_index": 2, "time_elapsed": 355149, "internal_node_id": "0.0-2.0-1.0"}}, {"uniqueid": "w26593215:a97812099", "current_trial": 3, "dateTime": 1693390189553, "trialdata": {"revealed_states": [], "clicked_states": [], "num_clicks_accrued": [0, 0, 0, 0, 0, 0, 0, 0, 0, 0, 0, 0, 0], "stateRewards": ["", 10, -10, -10, 10, -10, -10, -10, -10, -10, 10, -10, 10, -10, -10, 10, 10, -10, -10, 10, -10, 10, 10, -10, -10, 10, -10, 10, 10, -10, 10, -10, -10, 10], "withholdReward": false, "trial_id": "practice_1", "block": "test", "trialIndex": 0, "score": 13.5, "costs": 0, "simulationMode": [null, null, null, null, null], "rewards": [10, -10, -10, 10, 10], "path": ["0", "0", "12", "13", "14", "19", "22"], "rt": [1524, 184, 509, 119, 5254], "actions": ["right", "right", "right", "down", "left"], "actionTimes": [6761, 7440, 8447, 9058, 14810], "queries": {"click": {"state": {"target": [], "time": []}, "edge": {"target": [], "time": []}}, "mouseover": {"state": {"target": [], "time": []}, "edge": {"target": [], "time": []}}, "mouseout": {"state": {"target": ["12", "0", "0", "12", "22"], "time": [4452, 4769, 11652, 11702, 12085]}, "edge": {"target": [], "time": []}}}, "displayed_time": "15.31", "trialTime": 21264, "trial_type": "mouselab-mdp", "trial_index": 3, "time_elapsed": 377470, "internal_node_id": "0.0-2.0-2.0-0.0"}}, {"uniqueid": "w26593215:a97812099", "current_trial": 4, "dateTime": 1693390204330, "trialdata": {"revealed_states": [], "clicked_states": [], "num_clicks_accrued": [0, 0, 0, 0, 0, 0, 0, 0, 0, 0, 0, 0, 0], "stateRewards": ["", 10, -10, 10, -10, 10, -10, 10, 10, -10, -10, -10, 10, 10, -10, 10, 10, 10, 10, -10, -10, -10, 10, 10, 10, 10, 10, 10, -10, 10, -10, 10, -10, 10], "withholdReward": false, "trial_id": "practice_2", "block": "test", "trialIndex": 1, "score": 13.5, "costs": 0, "simulationMode": [null, null, null, null, null], "rewards": [10, -10, 10, -10, 10], "path": ["0", "0", "1", "2", "3", "4", "5"], "rt": [554, 3, 134, 692, 192], "actions": ["up", "up", "up", "right", "up"], "actionTimes": [7097, 7622, 8270, 9479, 10162], "queries": {"click": {"state": {"target": [], "time": []}, "edge": {"target": [], "time": []}}, "mouseover": {"state": {"target": [], "time": []}, "edge": {"target": [], "time": []}}, "mouseout": {"state": {"target": ["19", "12", "0"], "time": [5633, 5984, 12534]}, "edge": {"target": [], "time": []}}}, "displayed_time": "10.67", "trialTime": 14456, "trial_type": "mouselab-mdp", "trial_index": 4, "time_elapsed": 392247, "internal_node_id": "0.0-2.0-2.0-1.0"}}, {"uniqueid": "w26593215:a97812099", "current_trial": 5, "dateTime": 1693390270272, "trialdata": {"view_history": [{"page_index": 0, "viewing_time": 49178}, {"page_index": 1, "viewing_time": 16760}], "rt": 65939, "trial_id": "mouselab_instructions_2_control", "trial_type": "instructions", "trial_index": 5, "time_elapsed": 458189, "internal_node_id": "0.0-2.0-3.0"}}, {"uniqueid": "w26593215:a97812099", "current_trial": 6, "dateTime": 1693390321098, "trialdata": {"rt": 50820, "response": {"Q0": "The cost for clicking on nodes may vary between nodes.", "Q1": "The better I perform the higher my bonus will be.", "Q2": "No, the structure of the web will be different each time.", "Q3": "To get the highest total score.", "Q4": "Only before moving the spider.", "Q5": "3 seconds"}, "question_order": [0, 1, 2, 3, 4, 5], "correct": {"Q0": "The cost for clicking on nodes may vary between nodes.", "Q1": "The better I perform the higher my bonus will be.", "Q2": "No, the amount of cash at each node of the web may be different each time.", "Q3": "To get the highest total score.", "Q4": "Only before moving the spider.", "Q5": "3 seconds"}, "trial_id": "mouselab_quiz_control", "trial_type": "survey-multi-choice", "trial_index": 6, "time_elapsed": 509015, "internal_node_id": "0.0-2.0-4.0"}}, {"uniqueid": "w26593215:a97812099", "current_trial": 7, "dateTime": 1693390339458, "trialdata": {"success": true, "trial_type": "fullscreen", "trial_index": 7, "time_elapsed": 527375, "internal_node_id": "0.0-2.1-0.1-0.1"}}, {"uniqueid": "w26593215:a97812099", "current_trial": 8, "dateTime": 1693390384657, "trialdata": {"view_history": [{"page_index": 0, "viewing_time": 6348}, {"page_index": 1, "viewing_time": 15273}, {"page_index": 2, "viewing_time": 11529}, {"page_index": 3, "viewing_time": 12047}], "rt": 45197, "trial_id": "mouselab_instructions_1_control", "trial_type": "instructions", "trial_index": 8, "time_elapsed": 572574, "internal_node_id": "0.0-2.1-1.1"}}, {"uniqueid": "w26593215:a97812099", "current_trial": 9, "dateTime": 1693390396495, "trialdata": {"revealed_states": [], "clicked_states": [], "num_clicks_accrued": [0, 0, 0, 0, 0, 0, 0, 0, 0, 0, 0, 0, 0], "stateRewards": ["", 10, -10, -10, 10, -10, -10, -10, -10, -10, 10, -10, 10, -10, -10, 10, 10, -10, -10, 10, -10, 10, 10, -10, -10, 10, -10, 10, 10, -10, 10, -10, -10, 10], "withholdReward": false, "trial_id": "practice_1", "block": "test", "trialIndex": 2, "score": -6.5, "costs": 0, "simulationMode": [null, null, null, null, null], "rewards": [10, -10, -10, -10, 10], "path": ["0", "0", "1", "2", "3", "8", "10"], "rt": [3221, 40, 744, 364, 188], "actions": ["up", "up", "up", "left", "down"], "actionTimes": [4956, 5504, 6741, 7610, 8317], "queries": {"click": {"state": {"target": [], "time": []}, "edge": {"target": [], "time": []}}, "mouseover": {"state": {"target": [], "time": []}, "edge": {"target": [], "time": []}}, "mouseout": {"state": {"target": ["0"], "time": [10879]}, "edge": {"target": [], "time": []}}}, "displayed_time": "8.83", "trialTime": 11496, "trial_type": "mouselab-mdp", "trial_index": 9, "time_elapsed": 584412, "internal_node_id": "0.0-2.1-2.1-0.1"}}, {"uniqueid": "w26593215:a97812099", "current_trial": 10, "dateTime": 1693390411497, "trialdata": {"revealed_states": [], "clicked_states": [], "num_clicks_accrued": [0, 0, 0, 0, 0, 0, 0, 0, 0, 0, 0, 0, 0], "stateRewards": ["", 10, -10, 10, -10, 10, -10, 10, 10, -10, -10, -10, 10, 10, -10, 10, 10, 10, 10, -10, -10, -10, 10, 10, 10, 10, 10, 10, -10, 10, -10, 10, -10, 10], "withholdReward": false, "trial_id": "practice_2", "block": "test", "trialIndex": 3, "score": -6.5, "costs": 0, "simulationMode": [null, null, null, null, null], "rewards": [10, 10, -10, -10, -10], "path": ["0", "0", "12", "13", "14", "19", "20"], "rt": [3971, 182, 134, 206, 1240], "actions": ["right", "right", "right", "down", "right"], "actionTimes": [8051, 8732, 9383, 10088, 11824], "queries": {"click": {"state": {"target": [], "time": []}, "edge": {"target": [], "time": []}}, "mouseover": {"state": {"target": [], "time": []}, "edge": {"target": [], "time": []}}, "mouseout": {"state": {"target": ["0", "0"], "time": [5530, 13664]}, "edge": {"target": [], "time": []}}}, "displayed_time": "12.33", "trialTime": 14668, "trial_type": "mouselab-mdp", "trial_index": 10, "time_elapsed": 599413, "internal_node_id": "0.0-2.1-2.1-1.1"}}, {"uniqueid": "w26593215:a97812099", "current_trial": 11, "dateTime": 1693390418376, "trialdata": {"view_history": [{"page_index": 0, "viewing_time": 5468}, {"page_index": 1, "viewing_time": 1408}], "rt": 6877, "trial_id": "mouselab_instructions_2_control", "trial_type": "instructions", "trial_index": 11, "time_elapsed": 606293, "internal_node_id": "0.0-2.1-3.1"}}, {"uniqueid": "w26593215:a97812099", "current_trial": 12, "dateTime": 1693390511642, "trialdata": {"rt": 93261, "response": {"Q0": "The cost for clicking on nodes may vary between nodes.", "Q1": "The better I perform the higher my bonus will be.", "Q2": "No, the amount of cash at each node of the web may be different each time.", "Q3": "To get the highest total score.", "Q4": "Only before moving the spider.", "Q5": "3 seconds"}, "question_order": [0, 1, 2, 3, 4, 5], "correct": {"Q0": "The cost for clicking on nodes may vary between nodes.", "Q1": "The better I perform the higher my bonus will be.", "Q2": "No, the amount of cash at each node of the web may be different each time.", "Q3": "To get the highest total score.", "Q4": "Only before moving the spider.", "Q5": "3 seconds"}, "trial_id": "mouselab_quiz_control", "trial_type": "survey-multi-choice", "trial_index": 12, "time_elapsed": 699559, "internal_node_id": "0.0-2.1-4.1"}}, {"uniqueid": "w26593215:a97812099", "current_trial": 13, "dateTime": 1693390525169, "trialdata": {"rt": 13518, "response": {"Q0": "No"}, "question_order": [0], "trial_id": "repeat_check", "trial_type": "survey-multi-choice", "trial_index": 13, "time_elapsed": 713085, "internal_node_id": "0.0-4.0-0.0"}}, {"uniqueid": "w26593215:a97812099", "current_trial": 14, "dateTime": 1693390561271, "trialdata": {"rt": 36095, "stimulus": "\n<h1> Get ready to start the game! </h1>\n\nThank you for reading the instructions. Get ready start with the 40 rounds of this game.\n<br><br>\nIf you need to take a break, feel free to take one after the end of a round, before continuing to the next one.\n<br><br>\nRemember, the more money the spider gets, the bigger your bonus will be!\n<br><br>\n<div style='text-align: center;'>Press <code>space</code> to begin.</div>\n\n<br><br>\n(If, at any point, the <code>space</code> key does not take you to the next page, click once on the text and try again.)", "response": " ", "trial_id": "mdp_ready", "trial_type": "html-keyboard-response", "trial_index": 14, "time_elapsed": 749188, "internal_node_id": "0.0-6.0-0.0"}}, {"uniqueid": "w26593215:a97812099", "current_trial": 15, "dateTime": 1693390584474, "trialdata": {"revealed_states": [], "clicked_states": [], "num_clicks_accrued": [0, 0, 0, 0, 0, 0, 0, 0, 0, 0, 0, 0, 0], "stateRewards": ["", -2, -3, -7, 7, -54, -69, -4, -14, -77, 22, 40, -2, -1, 5, 6, -35, 50, -60, 10, -28, 75, 57, 1, -4, -2, 2, 68, 34, -18, 12, 3, -21, -43], "withholdReward": false, "trial_id": "mdp_trial_1", "block": "test", "trialIndex": 4, "score": -21, "costs": 0, "simulationMode": [null, null, null, null, null], "rewards": [1, -4, -2, 2, -18], "path": ["0", "0", "23", "24", "25", "26", "29"], "rt": [1663, 128, 211, 686, 676], "actions": ["left", "left", "left", "up", "left"], "actionTimes": [8190, 8816, 9547, 10739, 11930], "queries": {"click": {"state": {"target": [], "time": []}, "edge": {"target": [], "time": []}}, "mouseover": {"state": {"target": [], "time": []}, "edge": {"target": [], "time": []}}, "mouseout": {"state": {"target": ["0", "0", "0"], "time": [6116, 21701, 22534]}, "edge": {"target": [], "time": []}}}, "displayed_time": "20.53", "trialTime": 22848, "trial_type": "mouselab-mdp", "trial_index": 15, "time_elapsed": 772391, "internal_node_id": "0.0-6.0-1.0-0.0"}}, {"uniqueid": "w26593215:a97812099", "current_trial": 16, "dateTime": 1693390601622, "trialdata": {"revealed_states": [], "clicked_states": [], "num_clicks_accrued": [0, 0, 0, 0, 0, 0, 0, 0, 0, 0, 0, 0, 0], "stateRewards": ["", 1, 3, 3, -10, 52, 68, 59, 12, 7, 49, 21, -2, -3, -4, -2, -2, 63, 63, -4, 44, 43, -76, -2, -3, -6, 13, 48, 36, 12, -5, -36, -33, -11], "withholdReward": false, "trial_id": "mdp_trial_2", "block": "test", "trialIndex": 5, "score": -13, "costs": 0, "simulationMode": [null, null, null, null, null], "rewards": [-2, -3, -4, -2, -2], "path": ["0", "0", "12", "13", "14", "15", "16"], "rt": [1267, 186, 225, 3092, 200], "actions": ["right", "right", "right", "up", "up"], "actionTimes": [2753, 3435, 4174, 7774, 8466], "queries": {"click": {"state": {"target": [], "time": []}, "edge": {"target": [], "time": []}}, "mouseover": {"state": {"target": [], "time": []}, "edge": {"target": [], "time": []}}, "mouseout": {"state": {"target": ["0", "12", "0"], "time": [1499, 5561, 10844]}, "edge": {"target": [], "time": []}}}, "displayed_time": "15.50", "trialTime": 16757, "trial_type": "mouselab-mdp", "trial_index": 16, "time_elapsed": 789538, "internal_node_id": "0.0-6.0-1.0-1.0"}}, {"uniqueid": "w26593215:a97812099", "current_trial": 17, "dateTime": 1693390620037, "trialdata": {"revealed_states": [], "clicked_states": [], "num_clicks_accrued": [0, 0, 0, 0, 0, 0, 0, 0, 0, 0, 0, 0, 0], "stateRewards": ["", 2, -4, 1, -12, -59, -53, -74, 16, -88, -66, 66, 1, -2, 8, -9, -14, 22, 25, -1, -39, 47, -14, -1, -1, -2, 1, -4, 52, -26, 15, -7, 46, 43], "withholdReward": false, "trial_id": "mdp_trial_3", "block": "test", "trialIndex": 6, "score": -73, "costs": 0, "simulationMode": [null, null, null, null, null], "rewards": [2, -4, 1, 16, -88], "path": ["0", "0", "1", "2", "3", "8", "9"], "rt": [2739, 254, 373, 301, 319], "actions": ["up", "up", "up", "left", "up"], "actionTimes": [4855, 5609, 6476, 7286, 8120], "queries": {"click": {"state": {"target": [], "time": []}, "edge": {"target": [], "time": []}}, "mouseover": {"state": {"target": ["0"], "time": [2919]}, "edge": {"target": [], "time": []}}, "mouseout": {"state": {"target": ["0", "0", "0"], "time": [2137, 3223, 9831]}, "edge": {"target": [], "time": []}}}, "displayed_time": "16.12", "trialTime": 17925, "trial_type": "mouselab-mdp", "trial_index": 17, "time_elapsed": 807953, "internal_node_id": "0.0-6.0-1.0-2.0"}}, {"uniqueid": "w26593215:a97812099", "current_trial": 18, "dateTime": 1693390636913, "trialdata": {"revealed_states": [], "clicked_states": [], "num_clicks_accrued": [0, 0, 0, 0, 0, 0, 0, 0, 0, 0, 0, 0, 0], "stateRewards": ["", 1, -1, -7, -7, -22, 15, -13, 13, 26, -32, 38, -1, 1, -7, -4, 16, -62, 86, 12, -54, 56, 64, -2, -1, 6, 14, -57, 37, 62, -6, -25, 50, -70], "withholdReward": false, "trial_id": "mdp_trial_4", "block": "test", "trialIndex": 7, "score": -73, "costs": 0, "simulationMode": [null, null, null, null, null], "rewards": [-2, -1, 6, -6, -70], "path": ["0", "0", "23", "24", "25", "30", "33"], "rt": [889, 199, 179, 363, 1206], "actions": ["left", "left", "left", "down", "left"], "actionTimes": [2574, 3283, 3986, 4863, 6587], "queries": {"click": {"state": {"target": [], "time": []}, "edge": {"target": [], "time": []}}, "mouseover": {"state": {"target": [], "time": []}, "edge": {"target": [], "time": []}}, "mouseout": {"state": {"target": [], "time": []}, "edge": {"target": [], "time": []}}}, "displayed_time": "15.69", "trialTime": 16432, "trial_type": "mouselab-mdp", "trial_index": 18, "time_elapsed": 824829, "internal_node_id": "0.0-6.0-1.0-3.0"}}, {"uniqueid": "w26593215:a97812099", "current_trial": 19, "dateTime": 1693390654550, "trialdata": {"revealed_states": [], "clicked_states": [], "num_clicks_accrued": [0, 0, 0, 0, 0, 0, 0, 0, 0, 0, 0, 0, 0], "stateRewards": ["", -2, -3, -5, 8, 27, 11, 43, -6, -24, -87, 69, -2, 1, 1, 9, 19, 48, -37, 9, -14, 45, 62, 1, 2, 1, 16, -81, -41, 22, 4, -6, -63, 47], "withholdReward": false, "trial_id": "mdp_trial_5", "block": "test", "trialIndex": 8, "score": 41, "costs": 0, "simulationMode": [null, null, null, null, null], "rewards": [-2, -3, -5, 8, 43], "path": ["0", "0", "1", "2", "3", "4", "7"], "rt": [696, 376, 682, 666, 498], "actions": ["up", "up", "up", "right", "down"], "actionTimes": [2776, 3651, 4839, 6022, 7039], "queries": {"click": {"state": {"target": [], "time": []}, "edge": {"target": [], "time": []}}, "mouseover": {"state": {"target": [], "time": []}, "edge": {"target": [], "time": []}}, "mouseout": {"state": {"target": [], "time": []}, "edge": {"target": [], "time": []}}}, "displayed_time": "16.08", "trialTime": 17227, "trial_type": "mouselab-mdp", "trial_index": 19, "time_elapsed": 842466, "internal_node_id": "0.0-6.0-1.0-4.0"}}, {"uniqueid": "w26593215:a97812099", "current_trial": 20, "dateTime": 1693390671890, "trialdata": {"revealed_states": [], "clicked_states": [], "num_clicks_accrued": [0, 0, 0, 0, 0, 0, 0, 0, 0, 0, 0, 0, 0], "stateRewards": ["", -2, -4, 2, 10, -17, 18, 73, 11, -32, 23, -13, -2, -4, 7, 12, -25, 66, -23, 15, 40, -76, -9, 1, 2, -7, -5, -20, 24, 3, -5, 16, -73, 70], "withholdReward": false, "trial_id": "mdp_trial_6", "block": "test", "trialIndex": 9, "score": -10, "costs": 0, "simulationMode": [null, null, null, null, null], "rewards": [-2, -4, 7, 12, -23], "path": ["0", "0", "12", "13", "14", "15", "18"], "rt": [5243, 254, 346, 130, 28], "actions": ["right", "right", "right", "up", "left"], "actionTimes": [6364, 7134, 7992, 8625, 9173], "queries": {"click": {"state": {"target": [], "time": []}, "edge": {"target": [], "time": []}}, "mouseover": {"state": {"target": ["0", "0"], "time": [2209, 3992]}, "edge": {"target": [], "time": []}}, "mouseout": {"state": {"target": ["0", "0"], "time": [2542, 5159]}, "edge": {"target": [], "time": []}}}, "displayed_time": "15.12", "trialTime": 16905, "trial_type": "mouselab-mdp", "trial_index": 20, "time_elapsed": 859806, "internal_node_id": "0.0-6.0-1.0-5.0"}}, {"uniqueid": "w26593215:a97812099", "current_trial": 21, "dateTime": 1693390688781, "trialdata": {"revealed_states": [], "clicked_states": [], "num_clicks_accrued": [0, 0, 0, 0, 0, 0, 0, 0, 0, 0, 0, 0, 0], "stateRewards": ["", -2, -1, -5, 10, -36, -70, 68, -9, 86, 71, -10, 2, -4, 7, -7, 66, 44, -66, -13, -69, 43, 15, -2, 2, 6, -13, 62, 57, 50, -10, -69, 42, -72], "withholdReward": false, "trial_id": "mdp_trial_7", "block": "test", "trialIndex": 10, "score": 70, "costs": 0, "simulationMode": [null, null, null, null, null], "rewards": [-2, -1, -5, 10, 68], "path": ["0", "0", "1", "2", "3", "4", "7"], "rt": [3137, 328, 371, 1369, 718], "actions": ["up", "up", "up", "right", "down"], "actionTimes": [4341, 5171, 6062, 7928, 9160], "queries": {"click": {"state": {"target": [], "time": []}, "edge": {"target": [], "time": []}}, "mouseover": {"state": {"target": ["0", "0"], "time": [1689, 3238]}, "edge": {"target": [], "time": []}}, "mouseout": {"state": {"target": ["0", "0"], "time": [2672, 11836]}, "edge": {"target": [], "time": []}}}, "displayed_time": "15.21", "trialTime": 16459, "trial_type": "mouselab-mdp", "trial_index": 21, "time_elapsed": 876698, "internal_node_id": "0.0-6.0-1.0-6.0"}}, {"uniqueid": "w26593215:a97812099", "current_trial": 22, "dateTime": 1693390705512, "trialdata": {"revealed_states": [], "clicked_states": [], "num_clicks_accrued": [0, 0, 0, 0, 0, 0, 0, 0, 0, 0, 0, 0, 0], "stateRewards": ["", 2, 3, -6, -5, -3, 55, 40, 11, 61, 11, 51, 2, -4, -6, 9, -25, 29, -15, -6, 7, -77, -2, -2, -4, 1, 14, -43, -1, 56, -12, -54, 41, -74], "withholdReward": false, "trial_id": "mdp_trial_8", "block": "test", "trialIndex": 11, "score": 24, "costs": 0, "simulationMode": [null, null, null, null, null], "rewards": [-2, -4, 1, -12, 41], "path": ["0", "0", "23", "24", "25", "30", "32"], "rt": [3374, 526, 486, 309, 624], "actions": ["left", "left", "left", "down", "down"], "actionTimes": [4947, 5972, 6950, 7774, 8904], "queries": {"click": {"state": {"target": [], "time": []}, "edge": {"target": [], "time": []}}, "mouseover": {"state": {"target": [], "time": []}, "edge": {"target": [], "time": []}}, "mouseout": {"state": {"target": [], "time": []}, "edge": {"target": [], "time": []}}}, "displayed_time": "15.57", "trialTime": 16295, "trial_type": "mouselab-mdp", "trial_index": 22, "time_elapsed": 893429, "internal_node_id": "0.0-6.0-1.0-7.0"}}, {"uniqueid": "w26593215:a97812099", "current_trial": 23, "dateTime": 1693390723453, "trialdata": {"revealed_states": [], "clicked_states": [], "num_clicks_accrued": [0, 0, 0, 0, 0, 0, 0, 0, 0, 0, 0, 0, 0], "stateRewards": ["", 2, 4, -6, -13, -75, -81, 30, 7, 5, 59, -65, -1, -1, 7, 14, -38, 36, -41, 1, -54, -5, 64, 2, -1, 5, 6, -19, 79, 11, 16, -33, -50, 58], "withholdReward": false, "trial_id": "mdp_trial_9", "block": "test", "trialIndex": 12, "score": 66, "costs": 0, "simulationMode": [null, null, null, null, null], "rewards": [2, 4, -6, 7, 59], "path": ["0", "0", "1", "2", "3", "8", "10"], "rt": [2078, 364, 454, 152, 630], "actions": ["up", "up", "up", "left", "down"], "actionTimes": [4622, 5486, 6458, 7107, 8234], "queries": {"click": {"state": {"target": [], "time": []}, "edge": {"target": [], "time": []}}, "mouseover": {"state": {"target": [], "time": []}, "edge": {"target": [], "time": []}}, "mouseout": {"state": {"target": ["0", "0", "1", "1"], "time": [2559, 10501, 10551, 10934]}, "edge": {"target": [], "time": []}}}, "displayed_time": "16.55", "trialTime": 17493, "trial_type": "mouselab-mdp", "trial_index": 23, "time_elapsed": 911369, "internal_node_id": "0.0-6.0-1.0-8.0"}}, {"uniqueid": "w26593215:a97812099", "current_trial": 24, "dateTime": 1693390740320, "trialdata": {"revealed_states": [], "clicked_states": [], "num_clicks_accrued": [0, 0, 0, 0, 0, 0, 0, 0, 0, 0, 0, 0, 0], "stateRewards": ["", 2, -3, -8, 14, -7, -51, 73, 2, 36, 36, -43, -1, 3, -4, 1, 6, 87, -65, 15, 61, -42, -83, -1, 3, -2, -7, 30, -48, 35, 13, 26, 60, 78], "withholdReward": false, "trial_id": "mdp_trial_10", "block": "test", "trialIndex": 13, "score": -66, "costs": 0, "simulationMode": [null, null, null, null, null], "rewards": [-1, 3, -4, 1, -65], "path": ["0", "0", "12", "13", "14", "15", "18"], "rt": [1626, 167, 364, 322, 142], "actions": ["right", "right", "right", "up", "left"], "actionTimes": [3023, 3707, 4586, 5428, 6083], "queries": {"click": {"state": {"target": [], "time": []}, "edge": {"target": [], "time": []}}, "mouseover": {"state": {"target": [], "time": []}, "edge": {"target": [], "time": []}}, "mouseout": {"state": {"target": ["1"], "time": [702]}, "edge": {"target": [], "time": []}}}, "displayed_time": "15.40", "trialTime": 16428, "trial_type": "mouselab-mdp", "trial_index": 24, "time_elapsed": 928236, "internal_node_id": "0.0-6.0-1.0-9.0"}}, {"uniqueid": "w26593215:a97812099", "current_trial": 25, "dateTime": 1693390760069, "trialdata": {"revealed_states": [], "clicked_states": [], "num_clicks_accrued": [0, 0, 0, 0, 0, 0, 0, 0, 0, 0, 0, 0, 0], "stateRewards": ["", -1, -3, -7, -4, -85, -70, 79, 8, 84, -66, 42, 2, -2, -3, -16, -54, -66, 68, -3, 21, -14, 7, -2, -1, -3, -8, 75, 80, 86, -7, -84, 73, -16], "withholdReward": false, "trial_id": "mdp_trial_11", "block": "test", "trialIndex": 14, "score": -85, "costs": 0, "simulationMode": [null, null, null, null, null], "rewards": [-1, -3, -7, -4, -70], "path": ["0", "0", "1", "2", "3", "4", "6"], "rt": [2746, 677, 367, 8, 331], "actions": ["up", "up", "up", "right", "right"], "actionTimes": [6765, 7963, 8852, 9385, 10244], "queries": {"click": {"state": {"target": [], "time": []}, "edge": {"target": [], "time": []}}, "mouseover": {"state": {"target": [], "time": []}, "edge": {"target": [], "time": []}}, "mouseout": {"state": {"target": ["0", "0", "0"], "time": [1118, 11562, 18861]}, "edge": {"target": [], "time": []}}}, "displayed_time": "18.02", "trialTime": 19286, "trial_type": "mouselab-mdp", "trial_index": 25, "time_elapsed": 947985, "internal_node_id": "0.0-6.0-1.0-10.0"}}, {"uniqueid": "w26593215:a97812099", "current_trial": 26, "dateTime": 1693390777610, "trialdata": {"revealed_states": [], "clicked_states": [], "num_clicks_accrued": [0, 0, 0, 0, 0, 0, 0, 0, 0, 0, 0, 0, 0], "stateRewards": ["", 2, 3, -3, 12, -43, 81, -82, -15, 58, -7, -75, -1, -1, 3, -5, 50, -25, -8, 4, 66, 65, -66, 2, -4, 2, -1, -10, 10, 37, 11, 88, -37, 8], "withholdReward": false, "trial_id": "mdp_trial_12", "block": "test", "trialIndex": 15, "score": 36, "costs": 0, "simulationMode": [null, null, null, null, null], "rewards": [2, -4, 2, -1, 37], "path": ["0", "0", "23", "24", "25", "26", "29"], "rt": [746, 140, 409, 161, 379], "actions": ["left", "left", "left", "up", "left"], "actionTimes": [3249, 3894, 4799, 5467, 6350], "queries": {"click": {"state": {"target": [], "time": []}, "edge": {"target": [], "time": []}}, "mouseover": {"state": {"target": [], "time": []}, "edge": {"target": [], "time": []}}, "mouseout": {"state": {"target": ["0"], "time": [135]}, "edge": {"target": [], "time": []}}}, "displayed_time": "16.50", "trialTime": 17068, "trial_type": "mouselab-mdp", "trial_index": 26, "time_elapsed": 965526, "internal_node_id": "0.0-6.0-1.0-11.0"}}, {"uniqueid": "w26593215:a97812099", "current_trial": 27, "dateTime": 1693390793672, "trialdata": {"revealed_states": [], "clicked_states": [], "num_clicks_accrued": [0, 0, 0, 0, 0, 0, 0, 0, 0, 0, 0, 0, 0], "stateRewards": ["", 1, 1, -7, -9, -44, 24, -83, -15, 44, -24, 72, -2, -3, 4, -5, 57, 55, 29, -11, 22, 12, -25, -1, 2, 7, 12, 33, -8, 47, -4, 8, 50, -4], "withholdReward": false, "trial_id": "mdp_trial_13", "block": "test", "trialIndex": 16, "score": 54, "costs": 0, "simulationMode": [null, null, null, null, null], "rewards": [-1, 2, 7, -4, 50], "path": ["0", "0", "23", "24", "25", "30", "32"], "rt": [1568, 103, 185, 117, 401], "actions": ["left", "left", "left", "down", "down"], "actionTimes": [2458, 3066, 3766, 4382, 5298], "queries": {"click": {"state": {"target": [], "time": []}, "edge": {"target": [], "time": []}}, "mouseover": {"state": {"target": [], "time": []}, "edge": {"target": [], "time": []}}, "mouseout": {"state": {"target": ["0", "0"], "time": [581, 7911]}, "edge": {"target": [], "time": []}}}, "displayed_time": "14.89", "trialTime": 15605, "trial_type": "mouselab-mdp", "trial_index": 27, "time_elapsed": 981588, "internal_node_id": "0.0-6.0-1.0-12.0"}}, {"uniqueid": "w26593215:a97812099", "current_trial": 28, "dateTime": 1693390810039, "trialdata": {"revealed_states": [], "clicked_states": [], "num_clicks_accrued": [0, 0, 0, 0, 0, 0, 0, 0, 0, 0, 0, 0, 0], "stateRewards": ["", 1, -2, -8, -3, 31, -84, -55, -14, 15, -58, 17, -2, -3, 7, 7, -12, 48, 67, 4, -44, -68, 46, 2, 3, -5, -7, 76, 27, 5, 11, 57, 52, 59], "withholdReward": false, "trial_id": "mdp_trial_14", "block": "test", "trialIndex": 17, "score": 20, "costs": 0, "simulationMode": [null, null, null, null, null], "rewards": [2, 3, -5, -7, 27], "path": ["0", "0", "23", "24", "25", "26", "28"], "rt": [1147, 142, 153, 746, 258], "actions": ["left", "left", "left", "up", "right"], "actionTimes": [2352, 3016, 3662, 4907, 5683], "queries": {"click": {"state": {"target": [], "time": []}, "edge": {"target": [], "time": []}}, "mouseover": {"state": {"target": [], "time": []}, "edge": {"target": [], "time": []}}, "mouseout": {"state": {"target": ["0", "0"], "time": [906, 6889]}, "edge": {"target": [], "time": []}}}, "displayed_time": "15.21", "trialTime": 15866, "trial_type": "mouselab-mdp", "trial_index": 28, "time_elapsed": 997955, "internal_node_id": "0.0-6.0-1.0-13.0"}}, {"uniqueid": "w26593215:a97812099", "current_trial": 29, "dateTime": 1693390827330, "trialdata": {"revealed_states": [], "clicked_states": [], "num_clicks_accrued": [0, 0, 0, 0, 0, 0, 0, 0, 0, 0, 0, 0, 0], "stateRewards": ["", -1, 2, -6, 6, -82, -19, -39, -16, -83, 11, -33, -2, -2, 4, -6, -82, -1, -19, -6, -10, -67, -41, -2, 1, -7, 16, -23, -78, -52, 14, 31, -71, 74], "withholdReward": false, "trial_id": "mdp_trial_15", "block": "test", "trialIndex": 18, "score": 37, "costs": 0, "simulationMode": [null, null, null, null, null], "rewards": [-2, 1, -7, 14, 31], "path": ["0", "0", "23", "24", "25", "30", "31"], "rt": [868, 15, 123, 514, 361], "actions": ["left", "left", "left", "down", "right"], "actionTimes": [3051, 3559, 4199, 5226, 6089], "queries": {"click": {"state": {"target": [], "time": []}, "edge": {"target": [], "time": []}}, "mouseover": {"state": {"target": [], "time": []}, "edge": {"target": [], "time": []}}, "mouseout": {"state": {"target": ["0", "0"], "time": [1213, 12142]}, "edge": {"target": [], "time": []}}}, "displayed_time": "16.18", "trialTime": 16826, "trial_type": "mouselab-mdp", "trial_index": 29, "time_elapsed": 1015247, "internal_node_id": "0.0-6.0-1.0-14.0"}}, {"uniqueid": "w26593215:a97812099", "current_trial": 30, "dateTime": 1693390844704, "trialdata": {"revealed_states": [], "clicked_states": [], "num_clicks_accrued": [0, 0, 0, 0, 0, 0, 0, 0, 0, 0, 0, 0, 0], "stateRewards": ["", 2, -3, 5, 11, -79, 54, 11, -9, -78, 33, 22, -2, -1, 2, 14, 43, 34, 1, 10, 49, -65, 39, -1, 1, -1, 3, -16, -2, 11, 2, 12, 48, -65], "withholdReward": false, "trial_id": "mdp_trial_16", "block": "test", "trialIndex": 19, "score": -14, "costs": 0, "simulationMode": [null, null, null, null, null], "rewards": [-1, 1, -1, 3, -16], "path": ["0", "0", "23", "24", "25", "26", "27"], "rt": [501, 210, 65, 486, 20], "actions": ["left", "left", "left", "up", "up"], "actionTimes": [1703, 2415, 2987, 3992, 4509], "queries": {"click": {"state": {"target": [], "time": []}, "edge": {"target": [], "time": []}}, "mouseover": {"state": {"target": [], "time": []}, "edge": {"target": [], "time": []}}, "mouseout": {"state": {"target": ["0", "0", "0"], "time": [925, 8535, 16552]}, "edge": {"target": [], "time": []}}}, "displayed_time": "15.20", "trialTime": 16878, "trial_type": "mouselab-mdp", "trial_index": 30, "time_elapsed": 1032621, "internal_node_id": "0.0-6.0-1.0-15.0"}}, {"uniqueid": "w26593215:a97812099", "current_trial": 31, "dateTime": 1693390860705, "trialdata": {"revealed_states": [], "clicked_states": [], "num_clicks_accrued": [0, 0, 0, 0, 0, 0, 0, 0, 0, 0, 0, 0, 0], "stateRewards": ["", 2, -3, -5, 5, 11, -9, -33, 6, 67, 6, -30, -1, -2, -6, 13, 55, 13, 72, -14, 75, 21, -66, -2, -4, 6, 15, -1, -35, 60, 2, 51, -73, 12], "withholdReward": false, "trial_id": "mdp_trial_17", "block": "test", "trialIndex": 20, "score": 14, "costs": 0, "simulationMode": [null, null, null, null, null], "rewards": [-2, -4, 6, 2, 12], "path": ["0", "0", "23", "24", "25", "30", "33"], "rt": [1068, 396, 88, 129, 735], "actions": ["left", "left", "left", "down", "left"], "actionTimes": [1810, 2714, 3324, 3966, 5204], "queries": {"click": {"state": {"target": [], "time": []}, "edge": {"target": [], "time": []}}, "mouseover": {"state": {"target": [], "time": []}, "edge": {"target": [], "time": []}}, "mouseout": {"state": {"target": ["0", "0"], "time": [149, 6850]}, "edge": {"target": [], "time": []}}}, "displayed_time": "14.74", "trialTime": 15493, "trial_type": "mouselab-mdp", "trial_index": 31, "time_elapsed": 1048621, "internal_node_id": "0.0-6.0-1.0-16.0"}}, {"uniqueid": "w26593215:a97812099", "current_trial": 32, "dateTime": 1693390877076, "trialdata": {"revealed_states": [], "clicked_states": [], "num_clicks_accrued": [0, 0, 0, 0, 0, 0, 0, 0, 0, 0, 0, 0, 0], "stateRewards": ["", 1, -4, -6, -1, -21, 17, -72, 10, 77, 67, -46, -1, 4, -2, 14, -66, -49, -45, -15, -52, 23, -67, 2, -2, -2, 15, -3, 45, -64, 5, -44, 83, 61], "withholdReward": false, "trial_id": "mdp_trial_18", "block": "test", "trialIndex": 21, "score": 86, "costs": 0, "simulationMode": [null, null, null, null, null], "rewards": [2, -2, -2, 5, 83], "path": ["0", "0", "23", "24", "25", "30", "32"], "rt": [464, 89, 495, 85, 167], "actions": ["left", "left", "left", "down", "down"], "actionTimes": [1509, 2097, 3086, 3692, 4358], "queries": {"click": {"state": {"target": [], "time": []}, "edge": {"target": [], "time": []}}, "mouseover": {"state": {"target": [], "time": []}, "edge": {"target": [], "time": []}}, "mouseout": {"state": {"target": [], "time": []}, "edge": {"target": [], "time": []}}}, "displayed_time": "15.05", "trialTime": 15836, "trial_type": "mouselab-mdp", "trial_index": 32, "time_elapsed": 1064993, "internal_node_id": "0.0-6.0-1.0-17.0"}}, {"uniqueid": "w26593215:a97812099", "current_trial": 33, "dateTime": 1693390908741, "trialdata": {"revealed_states": [], "clicked_states": [], "num_clicks_accrued": [0, 0, 0, 0, 0, 0, 0, 0, 0, 0, 0, 0, 0], "stateRewards": ["", 1, -1, 4, 5, -32, 18, 20, 6, -88, -74, 9, -2, 1, -2, -14, 34, -77, -38, -1, 80, -36, 73, 2, 3, -8, 10, -48, -73, -71, -11, -22, 20, 54], "withholdReward": false, "trial_id": "mdp_trial_19", "block": "test", "trialIndex": 22, "score": 40, "costs": 0, "simulationMode": [null, null, null, null, null], "rewards": [2, 3, -8, -11, 54], "path": ["0", "0", "23", "24", "25", "30", "33"], "rt": [1017, 148, 91, 89, 385], "actions": ["left", "left", "left", "down", "left"], "actionTimes": [2372, 3020, 3613, 4212, 5092], "queries": {"click": {"state": {"target": [], "time": []}, "edge": {"target": [], "time": []}}, "mouseover": {"state": {"target": [], "time": []}, "edge": {"target": [], "time": []}}, "mouseout": {"state": {"target": ["0", "0", "1"], "time": [1047, 28453, 28852]}, "edge": {"target": [], "time": []}}}, "displayed_time": "15.36", "trialTime": 31149, "trial_type": "mouselab-mdp", "trial_index": 33, "time_elapsed": 1096658, "internal_node_id": "0.0-6.0-1.0-18.0"}}, {"uniqueid": "w26593215:a97812099", "current_trial": 34, "dateTime": 1693390953061, "trialdata": {"revealed_states": [], "clicked_states": [], "num_clicks_accrued": [0, 0, 0, 0, 0, 0, 0, 0, 0, 0, 0, 0, 0], "stateRewards": ["", -2, 2, 3, -7, -31, -33, 29, -8, -57, 50, -83, -1, -1, 5, 13, -23, -62, 25, 5, -66, -85, 14, 1, -2, -1, 16, 71, 33, -19, -14, 5, -43, 79], "withholdReward": false, "trial_id": "mdp_trial_20", "block": "test", "trialIndex": 23, "score": -11, "costs": 0, "simulationMode": [null, null, null, null, null], "rewards": [1, -2, -1, -14, 5], "path": ["0", "0", "23", "24", "25", "30", "31"], "rt": [759, 21, 298, 21, 439], "actions": ["left", "left", "left", "down", "right"], "actionTimes": [2146, 2671, 3467, 4008, 4941], "queries": {"click": {"state": {"target": [], "time": []}, "edge": {"target": [], "time": []}}, "mouseover": {"state": {"target": [], "time": []}, "edge": {"target": [], "time": []}}, "mouseout": {"state": {"target": ["0"], "time": [42999]}, "edge": {"target": [], "time": []}}}, "displayed_time": "15.39", "trialTime": 43748, "trial_type": "mouselab-mdp", "trial_index": 34, "time_elapsed": 1140978, "internal_node_id": "0.0-6.0-1.0-19.0"}}, {"uniqueid": "w26593215:a97812099", "current_trial": 35, "dateTime": 1693390970442, "trialdata": {"revealed_states": [], "clicked_states": [], "num_clicks_accrued": [0, 0, 0, 0, 0, 0, 0, 0, 0, 0, 0, 0, 0], "stateRewards": ["", 1, 1, -5, 10, -31, 73, 14, -8, -23, 63, -70, -1, 2, 8, 7, 25, -59, 27, -10, -40, -71, -15, -2, 3, -8, -5, -19, 77, -34, 7, 67, 63, 19], "withholdReward": false, "trial_id": "mdp_trial_21", "block": "test", "trialIndex": 24, "score": 63, "costs": 0, "simulationMode": [null, null, null, null, null], "rewards": [-2, 3, -8, 7, 63], "path": ["0", "0", "23", "24", "25", "30", "32"], "rt": [407, 246, 167, 248, 333], "actions": ["left", "left", "left", "down", "down"], "actionTimes": [2967, 3712, 4399, 5147, 5983], "queries": {"click": {"state": {"target": [], "time": []}, "edge": {"target": [], "time": []}}, "mouseover": {"state": {"target": [], "time": []}, "edge": {"target": [], "time": []}}, "mouseout": {"state": {"target": ["13", "12", "0"], "time": [1779, 1996, 6880]}, "edge": {"target": [], "time": []}}}, "displayed_time": "16.56", "trialTime": 16860, "trial_type": "mouselab-mdp", "trial_index": 35, "time_elapsed": 1158359, "internal_node_id": "0.0-6.0-1.0-20.0"}}, {"uniqueid": "w26593215:a97812099", "current_trial": 36, "dateTime": 1693390988201, "trialdata": {"revealed_states": [], "clicked_states": [], "num_clicks_accrued": [0, 0, 0, 0, 0, 0, 0, 0, 0, 0, 0, 0, 0], "stateRewards": ["", -1, -3, 3, 5, 56, 39, 50, -1, -80, 33, -46, 1, -2, -6, -8, 87, 48, 54, -11, -20, -64, -54, -2, 3, -7, -3, 12, 88, 35, -16, -46, -70, -3], "withholdReward": false, "trial_id": "mdp_trial_22", "block": "test", "trialIndex": 25, "score": -92, "costs": 0, "simulationMode": [null, null, null, null, null], "rewards": [-2, 3, -7, -16, -70], "path": ["0", "0", "23", "24", "25", "30", "32"], "rt": [1089, 130, 770, 171, 242], "actions": ["left", "left", "left", "down", "down"], "actionTimes": [2316, 2963, 4236, 4924, 5676], "queries": {"click": {"state": {"target": [], "time": []}, "edge": {"target": [], "time": []}}, "mouseover": {"state": {"target": ["0"], "time": [1712]}, "edge": {"target": [], "time": []}}, "mouseout": {"state": {"target": ["0", "0"], "time": [597, 11298]}, "edge": {"target": [], "time": []}}}, "displayed_time": "15.23", "trialTime": 17203, "trial_type": "mouselab-mdp", "trial_index": 36, "time_elapsed": 1176118, "internal_node_id": "0.0-6.0-1.0-21.0"}}, {"uniqueid": "w26593215:a97812099", "current_trial": 37, "dateTime": 1693391005041, "trialdata": {"revealed_states": [], "clicked_states": [], "num_clicks_accrued": [0, 0, 0, 0, 0, 0, 0, 0, 0, 0, 0, 0, 0], "stateRewards": ["", 2, 3, 8, 14, 69, -27, 17, 2, -71, -65, -10, 2, -3, 7, 8, 65, -10, 65, -12, 73, -12, 13, -2, -2, 6, 10, -79, -69, -18, 10, -85, 67, 74], "withholdReward": false, "trial_id": "mdp_trial_23", "block": "test", "trialIndex": 26, "score": 86, "costs": 0, "simulationMode": [null, null, null, null, null], "rewards": [-2, -2, 6, 10, 74], "path": ["0", "0", "23", "24", "25", "30", "33"], "rt": [770, 117, 447, 438, 347], "actions": ["left", "left", "left", "down", "left"], "actionTimes": [2589, 3206, 4154, 5092, 5936], "queries": {"click": {"state": {"target": [], "time": []}, "edge": {"target": [], "time": []}}, "mouseover": {"state": {"target": [], "time": []}, "edge": {"target": [], "time": []}}, "mouseout": {"state": {"target": ["0"], "time": [7303]}, "edge": {"target": [], "time": []}}}, "displayed_time": "15.82", "trialTime": 16298, "trial_type": "mouselab-mdp", "trial_index": 37, "time_elapsed": 1192958, "internal_node_id": "0.0-6.0-1.0-22.0"}}, {"uniqueid": "w26593215:a97812099", "current_trial": 38, "dateTime": 1693391022098, "trialdata": {"revealed_states": [], "clicked_states": [], "num_clicks_accrued": [0, 0, 0, 0, 0, 0, 0, 0, 0, 0, 0, 0, 0], "stateRewards": ["", 1, 3, -2, 15, 51, 15, -19, 11, 67, -45, -73, 2, 4, -2, -13, 36, 9, -28, 10, -30, 31, 16, 1, 2, -1, -16, 14, -22, 36, -1, 88, -5, 45], "withholdReward": false, "trial_id": "mdp_trial_24", "block": "test", "trialIndex": 27, "score": 0, "costs": 0, "simulationMode": [null, null, null, null, null], "rewards": [1, 2, -1, -16, 14], "path": ["0", "0", "23", "24", "25", "26", "27"], "rt": [588, 398, 339, 729, 150], "actions": ["left", "left", "left", "up", "up"], "actionTimes": [1742, 2634, 3472, 4713, 5369], "queries": {"click": {"state": {"target": [], "time": []}, "edge": {"target": [], "time": []}}, "mouseover": {"state": {"target": ["0"], "time": [1168]}, "edge": {"target": [], "time": []}}, "mouseout": {"state": {"target": ["0", "0"], "time": [631, 9098]}, "edge": {"target": [], "time": []}}}, "displayed_time": "15.16", "trialTime": 16517, "trial_type": "mouselab-mdp", "trial_index": 38, "time_elapsed": 1210015, "internal_node_id": "0.0-6.0-1.0-23.0"}}, {"uniqueid": "w26593215:a97812099", "current_trial": 39, "dateTime": 1693391053610, "trialdata": {"revealed_states": [], "clicked_states": [], "num_clicks_accrued": [0, 0, 0, 0, 0, 0, 0, 0, 0, 0, 0, 0, 0], "stateRewards": ["", 1, -3, -1, 9, -34, -40, 22, -7, 45, 53, -11, 2, 4, 5, 15, 21, 37, -49, -3, 80, -28, -34, 1, -3, 1, 1, -40, -6, -5, -16, -85, -86, 59], "withholdReward": false, "trial_id": "mdp_trial_25", "block": "test", "trialIndex": 28, "score": -5, "costs": 0, "simulationMode": [null, null, null, null, null], "rewards": [1, -3, 1, 1, -5], "path": ["0", "0", "23", "24", "25", "26", "29"], "rt": [466, 103, 97, 367, 296], "actions": ["left", "left", "left", "up", "left"], "actionTimes": [1633, 2234, 2844, 3713, 4526], "queries": {"click": {"state": {"target": [], "time": []}, "edge": {"target": [], "time": []}}, "mouseover": {"state": {"target": [], "time": []}, "edge": {"target": [], "time": []}}, "mouseout": {"state": {"target": ["0", "16"], "time": [6561, 7044]}, "edge": {"target": [], "time": []}}}, "displayed_time": "15.17", "trialTime": 30958, "trial_type": "mouselab-mdp", "trial_index": 39, "time_elapsed": 1241526, "internal_node_id": "0.0-6.0-1.0-24.0"}}, {"uniqueid": "w26593215:a97812099", "current_trial": 40, "dateTime": 1693391070813, "trialdata": {"revealed_states": [], "clicked_states": [], "num_clicks_accrued": [0, 0, 0, 0, 0, 0, 0, 0, 0, 0, 0, 0, 0], "stateRewards": ["", -1, -1, 7, -15, -43, -21, -84, -9, -45, -66, 2, 1, -2, 2, 8, -27, 44, -52, -5, -84, 11, 53, 1, 4, -4, 16, 83, -82, -15, -16, 68, -43, 81], "withholdReward": false, "trial_id": "mdp_trial_26", "block": "test", "trialIndex": 29, "score": 66, "costs": 0, "simulationMode": [null, null, null, null, null], "rewards": [1, 4, -4, -16, 81], "path": ["0", "0", "23", "24", "25", "30", "33"], "rt": [2474, 132, 592, 69, 244], "actions": ["left", "left", "left", "down", "left"], "actionTimes": [3966, 4618, 5710, 6289, 7031], "queries": {"click": {"state": {"target": [], "time": []}, "edge": {"target": [], "time": []}}, "mouseover": {"state": {"target": [], "time": []}, "edge": {"target": [], "time": []}}, "mouseout": {"state": {"target": ["12", "0", "0", "0", "12", "12"], "time": [722, 782, 1048, 8116, 8184, 8466]}, "edge": {"target": [], "time": []}}}, "displayed_time": "15.49", "trialTime": 16650, "trial_type": "mouselab-mdp", "trial_index": 40, "time_elapsed": 1258729, "internal_node_id": "0.0-6.0-1.0-25.0"}}, {"uniqueid": "w26593215:a97812099", "current_trial": 41, "dateTime": 1693391086721, "trialdata": {"revealed_states": [], "clicked_states": [], "num_clicks_accrued": [0, 0, 0, 0, 0, 0, 0, 0, 0, 0, 0, 0, 0], "stateRewards": ["", -2, 4, -5, -12, 85, -24, -18, -15, -78, -22, 26, -1, -1, 2, 14, -45, 52, -23, 7, -33, 24, -6, -2, -4, 5, -7, -16, 36, -39, 5, 71, -87, -23], "withholdReward": false, "trial_id": "mdp_trial_27", "block": "test", "trialIndex": 30, "score": -83, "costs": 0, "simulationMode": [null, null, null, null, null], "rewards": [-2, -4, 5, 5, -87], "path": ["0", "0", "23", "24", "25", "30", "32"], "rt": [451, 267, 554, 550, 59], "actions": ["left", "left", "left", "down", "down"], "actionTimes": [1325, 2084, 3161, 4215, 4794], "queries": {"click": {"state": {"target": [], "time": []}, "edge": {"target": [], "time": []}}, "mouseover": {"state": {"target": [], "time": []}, "edge": {"target": [], "time": []}}, "mouseout": {"state": {"target": ["0", "0"], "time": [349, 6479]}, "edge": {"target": [], "time": []}}}, "displayed_time": "14.88", "trialTime": 15338, "trial_type": "mouselab-mdp", "trial_index": 41, "time_elapsed": 1274638, "internal_node_id": "0.0-6.0-1.0-26.0"}}, {"uniqueid": "w26593215:a97812099", "current_trial": 42, "dateTime": 1693391103386, "trialdata": {"revealed_states": [], "clicked_states": [], "num_clicks_accrued": [0, 0, 0, 0, 0, 0, 0, 0, 0, 0, 0, 0, 0], "stateRewards": ["", 1, 2, -3, -5, 66, -50, -47, -5, 1, 28, -27, 1, 1, -1, -6, 37, -25, 56, 1, -82, -66, -40, -1, -4, -7, 15, -61, -23, 26, 10, 14, -56, 29], "withholdReward": false, "trial_id": "mdp_trial_28", "block": "test", "trialIndex": 31, "score": 27, "costs": 0, "simulationMode": [null, null, null, null, null], "rewards": [-1, -4, -7, 10, 29], "path": ["0", "0", "23", "24", "25", "30", "33"], "rt": [729, 54, 148, 100, 166], "actions": ["left", "left", "left", "down", "left"], "actionTimes": [1750, 2303, 2978, 3584, 4264], "queries": {"click": {"state": {"target": [], "time": []}, "edge": {"target": [], "time": []}}, "mouseover": {"state": {"target": ["0", "12"], "time": [1035, 1112]}, "edge": {"target": [], "time": []}}, "mouseout": {"state": {"target": ["0", "0", "12", "23", "24", "27", "28"], "time": [594, 1078, 6429, 6479, 6495, 7561, 7712]}, "edge": {"target": [], "time": []}}}, "displayed_time": "15.02", "trialTime": 16102, "trial_type": "mouselab-mdp", "trial_index": 42, "time_elapsed": 1291303, "internal_node_id": "0.0-6.0-1.0-27.0"}}, {"uniqueid": "w26593215:a97812099", "current_trial": 43, "dateTime": 1693391133372, "trialdata": {"revealed_states": [], "clicked_states": [], "num_clicks_accrued": [0, 0, 0, 0, 0, 0, 0, 0, 0, 0, 0, 0, 0], "stateRewards": ["", -1, 2, 7, 8, 75, 67, -11, 6, 52, -17, 38, -1, 4, -8, 14, 74, -37, -17, -12, 52, 55, 71, -2, -1, -5, 2, 21, 6, -88, -14, 64, -61, -47], "withholdReward": false, "trial_id": "mdp_trial_29", "block": "test", "trialIndex": 32, "score": -69, "costs": 0, "simulationMode": [null, null, null, null, null], "rewards": [-2, -1, -5, -14, -47], "path": ["0", "0", "23", "24", "25", "30", "33"], "rt": [909, 51, 519, 497, 931], "actions": ["left", "left", "left", "down", "left"], "actionTimes": [2477, 3023, 4073, 5085, 6518], "queries": {"click": {"state": {"target": [], "time": []}, "edge": {"target": [], "time": []}}, "mouseover": {"state": {"target": [], "time": []}, "edge": {"target": [], "time": []}}, "mouseout": {"state": {"target": [], "time": []}, "edge": {"target": [], "time": []}}}, "displayed_time": "15.57", "trialTime": 29427, "trial_type": "mouselab-mdp", "trial_index": 43, "time_elapsed": 1321288, "internal_node_id": "0.0-6.0-1.0-28.0"}}, {"uniqueid": "w26593215:a97812099", "current_trial": 44, "dateTime": 1693391149471, "trialdata": {"revealed_states": [], "clicked_states": [], "num_clicks_accrued": [0, 0, 0, 0, 0, 0, 0, 0, 0, 0, 0, 0, 0], "stateRewards": ["", -2, 3, -1, 2, -72, 63, 20, -1, 62, -66, 39, -2, 3, -6, 14, 22, 47, 1, 8, -49, -1, -41, 2, 2, -6, -16, -64, -60, -34, 16, 54, 22, -7], "withholdReward": false, "trial_id": "mdp_trial_30", "block": "test", "trialIndex": 33, "score": -78, "costs": 0, "simulationMode": [null, null, null, null, null], "rewards": [2, 2, -6, -16, -60], "path": ["0", "0", "23", "24", "25", "26", "28"], "rt": [719, 354, 313, 33, 627], "actions": ["left", "left", "left", "up", "right"], "actionTimes": [1688, 2547, 3374, 3926, 5087], "queries": {"click": {"state": {"target": [], "time": []}, "edge": {"target": [], "time": []}}, "mouseover": {"state": {"target": [], "time": []}, "edge": {"target": [], "time": []}}, "mouseout": {"state": {"target": ["0"], "time": [6358]}, "edge": {"target": [], "time": []}}}, "displayed_time": "14.97", "trialTime": 15533, "trial_type": "mouselab-mdp", "trial_index": 44, "time_elapsed": 1337388, "internal_node_id": "0.0-6.0-1.0-29.0"}}, {"uniqueid": "w26593215:a97812099", "current_trial": 45, "dateTime": 1693391165693, "trialdata": {"revealed_states": [], "clicked_states": [], "num_clicks_accrued": [0, 0, 0, 0, 0, 0, 0, 0, 0, 0, 0, 0, 0], "stateRewards": ["", 1, -4, -6, 11, -20, 8, -30, 1, -38, 88, 42, 2, 3, 5, -12, -8, -74, 30, -8, 67, -19, 42, 2, -1, 4, 13, 50, -68, 2, -8, -15, 87, -46], "withholdReward": false, "trial_id": "mdp_trial_31", "block": "test", "trialIndex": 34, "score": -18, "costs": 0, "simulationMode": [null, null, null, null, null], "rewards": [1, -4, -6, 11, -20], "path": ["0", "0", "1", "2", "3", "4", "5"], "rt": [897, 153, 165, 89, 14], "actions": ["up", "up", "up", "right", "up"], "actionTimes": [2030, 2690, 3369, 3960, 4485], "queries": {"click": {"state": {"target": [], "time": []}, "edge": {"target": [], "time": []}}, "mouseover": {"state": {"target": [], "time": []}, "edge": {"target": [], "time": []}}, "mouseout": {"state": {"target": ["0"], "time": [5918]}, "edge": {"target": [], "time": []}}}, "displayed_time": "15.13", "trialTime": 15632, "trial_type": "mouselab-mdp", "trial_index": 45, "time_elapsed": 1353609, "internal_node_id": "0.0-6.0-1.0-30.0"}}, {"uniqueid": "w26593215:a97812099", "current_trial": 46, "dateTime": 1693391181655, "trialdata": {"revealed_states": [], "clicked_states": [], "num_clicks_accrued": [0, 0, 0, 0, 0, 0, 0, 0, 0, 0, 0, 0, 0], "stateRewards": ["", -2, 2, -5, 1, 42, -63, -58, -6, 2, 16, 81, -2, 4, 7, -10, 33, 3, -33, -2, -52, -84, -27, 2, -3, -3, 15, -74, -14, -5, -5, -84, 79, -31], "withholdReward": false, "trial_id": "mdp_trial_32", "block": "test", "trialIndex": 35, "score": -40, "costs": 0, "simulationMode": [null, null, null, null, null], "rewards": [2, -3, -3, -5, -31], "path": ["0", "0", "23", "24", "25", "30", "33"], "rt": [760, 21, 90, 190, 228], "actions": ["left", "left", "left", "down", "left"], "actionTimes": [1535, 2051, 2652, 3337, 4075], "queries": {"click": {"state": {"target": [], "time": []}, "edge": {"target": [], "time": []}}, "mouseover": {"state": {"target": [], "time": []}, "edge": {"target": [], "time": []}}, "mouseout": {"state": {"target": ["0"], "time": [8721]}, "edge": {"target": [], "time": []}}}, "displayed_time": "14.78", "trialTime": 15386, "trial_type": "mouselab-mdp", "trial_index": 46, "time_elapsed": 1369572, "internal_node_id": "0.0-6.0-1.0-31.0"}}, {"uniqueid": "w26593215:a97812099", "current_trial": 47, "dateTime": 1693391198215, "trialdata": {"revealed_states": [], "clicked_states": [], "num_clicks_accrued": [0, 0, 0, 0, 0, 0, 0, 0, 0, 0, 0, 0, 0], "stateRewards": ["", -2, -1, 3, -3, 71, -58, -21, 7, -10, -75, -37, 2, 4, -1, -12, -79, -29, -48, 3, -41, -10, -30, -1, -2, 1, -15, 13, 66, 22, -1, -42, -86, -55], "withholdReward": false, "trial_id": "mdp_trial_33", "block": "test", "trialIndex": 36, "score": 5, "costs": 0, "simulationMode": [null, null, null, null, null], "rewards": [-1, -2, 1, -15, 22], "path": ["0", "0", "23", "24", "25", "26", "29"], "rt": [503, 549, 241, 36, 430], "actions": ["left", "left", "left", "up", "left"], "actionTimes": [1890, 2940, 3682, 4228, 5172], "queries": {"click": {"state": {"target": [], "time": []}, "edge": {"target": [], "time": []}}, "mouseover": {"state": {"target": [], "time": []}, "edge": {"target": [], "time": []}}, "mouseout": {"state": {"target": ["0"], "time": [6521]}, "edge": {"target": [], "time": []}}}, "displayed_time": "15.39", "trialTime": 15973, "trial_type": "mouselab-mdp", "trial_index": 47, "time_elapsed": 1386132, "internal_node_id": "0.0-6.0-1.0-32.0"}}, {"uniqueid": "w26593215:a97812099", "current_trial": 48, "dateTime": 1693391214302, "trialdata": {"revealed_states": [], "clicked_states": [], "num_clicks_accrued": [0, 0, 0, 0, 0, 0, 0, 0, 0, 0, 0, 0, 0], "stateRewards": ["", -1, -2, -8, 8, -27, -82, 19, -14, -62, 4, 1, -2, 2, 6, 10, 73, -51, -2, 2, 73, -48, 54, -1, 2, -4, 11, -25, 47, 86, 15, 33, 43, -42], "withholdReward": false, "trial_id": "mdp_trial_34", "block": "test", "trialIndex": 37, "score": -30, "costs": 0, "simulationMode": [null, null, null, null, null], "rewards": [-1, 2, -4, 15, -42], "path": ["0", "0", "23", "24", "25", "30", "33"], "rt": [1624, 100, 143, 327, 157], "actions": ["left", "left", "left", "down", "left"], "actionTimes": [2468, 3084, 3726, 4576, 5256], "queries": {"click": {"state": {"target": [], "time": []}, "edge": {"target": [], "time": []}}, "mouseover": {"state": {"target": [], "time": []}, "edge": {"target": [], "time": []}}, "mouseout": {"state": {"target": ["0", "0"], "time": [1297, 15087]}, "edge": {"target": [], "time": []}}}, "displayed_time": "14.85", "trialTime": 15519, "trial_type": "mouselab-mdp", "trial_index": 48, "time_elapsed": 1402218, "internal_node_id": "0.0-6.0-1.0-33.0"}}, {"uniqueid": "w26593215:a97812099", "current_trial": 49, "dateTime": 1693391230606, "trialdata": {"revealed_states": [], "clicked_states": [], "num_clicks_accrued": [0, 0, 0, 0, 0, 0, 0, 0, 0, 0, 0, 0, 0], "stateRewards": ["", 2, -4, 7, 3, 23, -42, 4, 7, -81, -33, 7, -2, -4, 5, -1, 50, -57, -14, -13, -14, 44, 55, -2, -2, 5, -2, 33, 1, 57, -13, -7, 58, 87], "withholdReward": false, "trial_id": "mdp_trial_35", "block": "test", "trialIndex": 38, "score": -19, "costs": 0, "simulationMode": [null, null, null, null, null], "rewards": [-2, -2, 5, -13, -7], "path": ["0", "0", "23", "24", "25", "30", "31"], "rt": [653, 464, 133, 527, 309], "actions": ["left", "left", "left", "down", "right"], "actionTimes": [1561, 2528, 3164, 4192, 5023], "queries": {"click": {"state": {"target": [], "time": []}, "edge": {"target": [], "time": []}}, "mouseover": {"state": {"target": [], "time": []}, "edge": {"target": [], "time": []}}, "mouseout": {"state": {"target": ["0", "0"], "time": [561, 6279]}, "edge": {"target": [], "time": []}}}, "displayed_time": "14.91", "trialTime": 15705, "trial_type": "mouselab-mdp", "trial_index": 49, "time_elapsed": 1418523, "internal_node_id": "0.0-6.0-1.0-34.0"}}, {"uniqueid": "w26593215:a97812099", "current_trial": 50, "dateTime": 1693391247321, "trialdata": {"revealed_states": [], "clicked_states": [], "num_clicks_accrued": [0, 0, 0, 0, 0, 0, 0, 0, 0, 0, 0, 0, 0], "stateRewards": ["", 1, -2, 7, -14, 88, -56, -44, -14, 64, -51, -57, -2, 3, -4, -9, -11, 19, -77, -1, 68, 75, -67, -1, 1, -2, 5, -37, 70, -34, -10, -72, 63, -41], "withholdReward": false, "trial_id": "mdp_trial_36", "block": "test", "trialIndex": 39, "score": 71, "costs": 0, "simulationMode": [null, null, null, null, null], "rewards": [-2, 3, -4, -1, 75], "path": ["0", "0", "12", "13", "14", "19", "21"], "rt": [515, 210, 176, 19, 189], "actions": ["right", "right", "right", "down", "down"], "actionTimes": [1761, 2474, 3158, 3683, 4372], "queries": {"click": {"state": {"target": [], "time": []}, "edge": {"target": [], "time": []}}, "mouseover": {"state": {"target": [], "time": []}, "edge": {"target": [], "time": []}}, "mouseout": {"state": {"target": ["0"], "time": [6845]}, "edge": {"target": [], "time": []}}}, "displayed_time": "15.25", "trialTime": 16120, "trial_type": "mouselab-mdp", "trial_index": 50, "time_elapsed": 1435238, "internal_node_id": "0.0-6.0-1.0-35.0"}}, {"uniqueid": "w26593215:a97812099", "current_trial": 51, "dateTime": 1693391263873, "trialdata": {"revealed_states": [], "clicked_states": [], "num_clicks_accrued": [0, 0, 0, 0, 0, 0, 0, 0, 0, 0, 0, 0, 0], "stateRewards": ["", 2, -1, -2, -5, -47, -57, -33, -11, 31, -18, -72, -2, 1, -4, -8, -46, -53, -50, 15, -85, -9, 39, -2, -2, 1, 14, -1, -8, 53, -12, -41, -74, 62], "withholdReward": false, "trial_id": "mdp_trial_37", "block": "test", "trialIndex": 40, "score": -75, "costs": 0, "simulationMode": [null, null, null, null, null], "rewards": [-2, 1, -4, 15, -85], "path": ["0", "0", "12", "13", "14", "19", "20"], "rt": [963, 326, 276, 565, 124], "actions": ["right", "right", "right", "down", "right"], "actionTimes": [2276, 3096, 3877, 4952, 5607], "queries": {"click": {"state": {"target": [], "time": []}, "edge": {"target": [], "time": []}}, "mouseover": {"state": {"target": ["0"], "time": [1632]}, "edge": {"target": [], "time": []}}, "mouseout": {"state": {"target": ["0", "0", "0", "1"], "time": [831, 11316, 11349, 12099]}, "edge": {"target": [], "time": []}}}, "displayed_time": "15.32", "trialTime": 15976, "trial_type": "mouselab-mdp", "trial_index": 51, "time_elapsed": 1451789, "internal_node_id": "0.0-6.0-1.0-36.0"}}, {"uniqueid": "w26593215:a97812099", "current_trial": 52, "dateTime": 1693391280814, "trialdata": {"revealed_states": [], "clicked_states": [], "num_clicks_accrued": [0, 0, 0, 0, 0, 0, 0, 0, 0, 0, 0, 0, 0], "stateRewards": ["", -2, -1, -6, -14, -55, 78, -13, 11, 14, -71, 59, 2, 2, 6, -6, 9, 38, 14, 7, 85, 11, 68, 1, -4, -1, -3, -63, -85, 9, -2, 63, -86, -10], "withholdReward": false, "trial_id": "mdp_trial_38", "block": "test", "trialIndex": 41, "score": 85, "costs": 0, "simulationMode": [null, null, null, null, null], "rewards": [2, 2, 6, 7, 68], "path": ["0", "0", "12", "13", "14", "19", "22"], "rt": [408, 60, 163, 186, 473], "actions": ["right", "right", "right", "down", "left"], "actionTimes": [2028, 2582, 3266, 3973, 4961], "queries": {"click": {"state": {"target": [], "time": []}, "edge": {"target": [], "time": []}}, "mouseover": {"state": {"target": [], "time": []}, "edge": {"target": [], "time": []}}, "mouseout": {"state": {"target": ["23", "0"], "time": [917, 1133]}, "edge": {"target": [], "time": []}}}, "displayed_time": "15.62", "trialTime": 16352, "trial_type": "mouselab-mdp", "trial_index": 52, "time_elapsed": 1468731, "internal_node_id": "0.0-6.0-1.0-37.0"}}, {"uniqueid": "w26593215:a97812099", "current_trial": 53, "dateTime": 1693391297486, "trialdata": {"revealed_states": [], "clicked_states": [], "num_clicks_accrued": [0, 0, 0, 0, 0, 0, 0, 0, 0, 0, 0, 0, 0], "stateRewards": ["", 2, 4, 7, -6, -76, -81, 2, 5, -66, -3, 36, -2, -4, 6, -2, -69, 4, -49, -6, 67, 38, -67, 2, 1, 1, 6, -68, -21, 52, -16, -16, 6, -70], "withholdReward": false, "trial_id": "mdp_trial_39", "block": "test", "trialIndex": 42, "score": 2, "costs": 0, "simulationMode": [null, null, null, null, null], "rewards": [-2, -4, 6, -2, 4], "path": ["0", "0", "12", "13", "14", "15", "17"], "rt": [1873, 406, 207, 205, 43], "actions": ["right", "right", "right", "up", "right"], "actionTimes": [3030, 3955, 4674, 5372, 5926], "queries": {"click": {"state": {"target": [], "time": []}, "edge": {"target": [], "time": []}}, "mouseover": {"state": {"target": [], "time": []}, "edge": {"target": [], "time": []}}, "mouseout": {"state": {"target": ["0"], "time": [531]}, "edge": {"target": [], "time": []}}}, "displayed_time": "15.17", "trialTime": 16053, "trial_type": "mouselab-mdp", "trial_index": 53, "time_elapsed": 1485402, "internal_node_id": "0.0-6.0-1.0-38.0"}}, {"uniqueid": "w26593215:a97812099", "current_trial": 54, "dateTime": 1693391313639, "trialdata": {"revealed_states": [], "clicked_states": [], "num_clicks_accrued": [0, 0, 0, 0, 0, 0, 0, 0, 0, 0, 0, 0, 0], "stateRewards": ["", 2, 3, -3, 4, 72, -28, 34, -12, 57, -64, -15, 2, 1, -4, -15, 2, 49, 31, -1, -42, -58, 31, -2, 1, -2, -13, -75, -19, -22, -6, 61, 10, -56], "withholdReward": false, "trial_id": "mdp_trial_40", "block": "test", "trialIndex": 43, "score": -60, "costs": 0, "simulationMode": [null, null, null, null, null], "rewards": [2, 1, -4, -1, -58], "path": ["0", "0", "12", "13", "14", "19", "21"], "rt": [1025, 568, 155, 66, 46], "actions": ["right", "right", "right", "down", "down"], "actionTimes": [2069, 3134, 3787, 4365, 4928], "queries": {"click": {"state": {"target": [], "time": []}, "edge": {"target": [], "time": []}}, "mouseover": {"state": {"target": [], "time": []}, "edge": {"target": [], "time": []}}, "mouseout": {"state": {"target": ["0", "0", "0", "1"], "time": [560, 6561, 8968, 9012]}, "edge": {"target": [], "time": []}}}, "displayed_time": "15.05", "trialTime": 15554, "trial_type": "mouselab-mdp", "trial_index": 54, "time_elapsed": 1501555, "internal_node_id": "0.0-6.0-1.0-39.0"}}, {"uniqueid": "w26593215:a97812099", "current_trial": 55, "dateTime": 1693391459249, "trialdata": {"rt": 145606, "response": {"Q0": "$-2 to $2", "Q1": "$-16 to $16", "Q2": "$-88 to $88", "Q3": "The cost for clicking on nodes varied between nodes.", "Q4": "Very motivated"}, "question_order": [0, 1, 2, 3, 4], "trial_id": "final_quiz_control", "trial_type": "survey-multi-choice", "trial_index": 55, "time_elapsed": 1647166, "internal_node_id": "0.0-6.0-2.0"}}, {"uniqueid": "w26593215:a97812099", "current_trial": 56, "dateTime": 1693391550689, "trialdata": {"rt": 91425, "response": {"Q0": "I choose the path that give me positive point the most.", "Q1": "Yes, The path that give me negatives most of the time I did not use very often", "Q2": "No much."}, "trial_id": "self_report_control", "trial_type": "survey-text", "trial_index": 56, "time_elapsed": 1738606, "internal_node_id": "0.0-6.0-3.0"}}, {"uniqueid": "w26593215:a97812099", "current_trial": 57, "dateTime": 1693391577249, "trialdata": {"rt": 26555, "response": {"gender": "female", "age": "24", "colorblind": "0", "effort": "0"}, "trial_type": "survey-html-form", "trial_index": 57, "time_elapsed": 1765166, "internal_node_id": "0.0-6.0-4.0"}}, {"uniqueid": "w26593215:a97812099", "current_trial": 58, "dateTime": 1693391618521, "trialdata": {"rt": 41264, "response": {"Q0": "Not at all", "Q1": "No I never did a HIT Game before.", "Q2": ""}, "trial_type": "survey-text", "trial_index": 58, "time_elapsed": 1806438, "internal_node_id": "0.0-6.0-5.0"}}, {"uniqueid": "w26593215:a97812099", "current_trial": 59, "dateTime": 1693391714305, "trialdata": {"rt": 95779, "stimulus": "<h1>Completion Code Instructions (1/2)</h1>\n<br><br><br><br>\nYou have reached the end of the experiment! The completion code consists of two parts: (1) a code with 2 characters (2) a code with 6 characters. On this page, you will receive the second part of the code. The first part of the completion code will be on the next page.\n<br><br>\nThe second part of your completion code is: <b>EWEK22</b>\n<br><br>\nPlease note this down. Then, press 'Finish HIT' in order to find the first part of your completion code. Once the data has been saved, you will receive this code either in this window or in the original browser window where you started the experiment.\n", "response": 0, "trial_type": "html-button-response", "trial_index": 59, "time_elapsed": 1902222, "internal_node_id": "0.0-6.0-6.0"}}, {"uniqueid": "w26593215:a97812099", "current_trial": 60, "dateTime": 1693391715310, "trialdata": {"success": true, "trial_type": "fullscreen", "trial_index": 60, "time_elapsed": 1903227, "internal_node_id": "0.0-7.0"}}], "questiondata": {"params": {"CODE": "C6DMOQA6", "MIN_TIME": 14, "inspectCost": 1, "startTime": "Wed Aug 30 2023 12:03:30 GMT+0200 (South Africa Standard Time)", "bonusRate": 0.002, "variance": "1_2_4_8_44", "branching": "31123"}}, "eventdata": [{"eventtype": "initialized", "value": null, "timestamp": 1693389809824, "interval": 0}, {"eventtype": "window_resize", "value": [1366, 670], "timestamp": 1693389809824, "interval": 0}, {"eventtype": "window_resize", "value": [1366, 670], "timestamp": 1693389810308, "interval": 484}, {"eventtype": "window_resize", "value": [1366, 768], "timestamp": 1693389821992, "interval": 11684}, {"eventtype": "focus", "value": "off", "timestamp": 1693390335517, "interval": 513525}, {"eventtype": "focus", "value": "on", "timestamp": 1693390335517, "interval": 0}, {"eventtype": "window_resize", "value": [1366, 670], "timestamp": 1693390335725, "interval": 208}, {"eventtype": "window_resize", "value": [1366, 768], "timestamp": 1693390338678, "interval": 2953}, {"eventtype": "window_resize", "value": [1366, 670], "timestamp": 1693391714539, "interval": 1375861}], "useragent": "Mozilla/5.0 (Windows NT 10.0; Win64; x64) AppleWebKit/537.36 (KHTML, like Gecko) Chrome/116.0.0.0 Safari/537.36", "mode": "live", "id": "w26593215:a97812099", "status": "user data saved", "Beginhit": "2023-08-30 10:03:26.839358", "Beginexp": "2023-08-30 10:03:42.581104", "Endhit": "2023-08-30 10:35:16.015789", "psiturkStatus": 3, "browser": "<redacted>", "platform": "windows", "language": "en-US"}