{"condition": 0, "counterbalance": 0, "assignmentId": "a65303087", "workerId": "w86964320", "hitId": "h67266094", "currenttrial": 61, "bonus": 0, "data": [{"uniqueid": "w86964320:a65303087", "current_trial": 0, "dateTime": 1693580165077, "trialdata": {"success": true, "trial_type": "fullscreen", "trial_index": 0, "time_elapsed": 21494, "internal_node_id": "0.0-0.0"}}, {"uniqueid": "w86964320:a65303087", "current_trial": 1, "dateTime": 1693580336226, "trialdata": {"view_history": [{"page_index": 0, "viewing_time": 171124}], "rt": 171125, "trial_id": "exp_instructions_control", "trial_type": "instructions", "trial_index": 1, "time_elapsed": 192646, "internal_node_id": "0.0-1.0"}}, {"uniqueid": "w86964320:a65303087", "current_trial": 2, "dateTime": 1693581247722, "trialdata": {"view_history": [{"page_index": 0, "viewing_time": 468202}, {"page_index": 1, "viewing_time": 242764}, {"page_index": 2, "viewing_time": 68094}, {"page_index": 3, "viewing_time": 132432}], "rt": 911492, "trial_id": "mouselab_instructions_1_control", "trial_type": "instructions", "trial_index": 2, "time_elapsed": 1104141, "internal_node_id": "0.0-2.0-1.0"}}, {"uniqueid": "w86964320:a65303087", "current_trial": 3, "dateTime": 1693581373844, "trialdata": {"revealed_states": [], "clicked_states": ["1", "2", "7", "3", "8", "23", "24", "12", "13", "14"], "num_clicks_accrued": [0, 0, 0, 0, 0, 0, 0, 0, 0, 0, 0, 0, 0], "stateRewards": ["", 10, -10, -10, -10, 10, 10, -10, 10, 10, -10, 10, 10, 10, 10, 10, -10, -10, -10, -10, -10, 10, -10, -10, 10, -10, -10, 10, 10, -10, 10, 10, -10, 10], "withholdReward": false, "trial_id": "practice_1", "block": "test", "trialIndex": 0, "score": 28.5, "costs": -5, "simulationMode": [null, null, null, null, null], "rewards": [10, 10, 10, 10, -10], "path": ["0", "0", "12", "13", "14", "15", "16"], "rt": [66054, 3149, 7018, 1376, 12247], "actions": ["right", "right", "right", "up", "up"], "actionTimes": [71688, 75374, 82913, 84806, 97575], "queries": {"click": {"state": {"target": ["1", "2", "7", "3", "8", "23", "24", "12", "13", "14"], "time": [7016, 8897, 10079, 11878, 13003, 15328, 16506, 18218, 19748, 22046]}, "edge": {"target": [], "time": []}}, "mouseover": {"state": {"target": ["1", "2", "7", "4", "3", "8", "10", "23", "23", "24", "12", "12", "13", "14", "13", "12", "12", "13", "14", "1", "2", "2", "1", "12", "12", "16", "21", "22", "12"], "time": [6498, 8080, 9582, 10681, 11273, 12425, 14220, 14503, 14901, 16074, 17679, 17829, 19430, 21689, 23822, 24170, 26216, 27598, 28613, 30526, 32190, 32756, 32988, 33838, 39279, 39945, 43906, 44378, 44438]}, "edge": {"target": [], "time": []}}, "mouseout": {"state": {"target": ["18", "15", "13", "1", "2", "7", "4", "3", "8", "8", "10", "23", "23", "24", "12", "12", "13", "14", "13", "12", "12", "13", "14", "1", "2", "2", "1", "12", "12", "16", "21", "22", "12", "18", "15", "17", "15", "20", "19", "22", "21"], "time": [null, 1990, 4334, 7135, 9446, 10443, 11104, 12359, 13810, 14139, 14253, 14617, 16037, 17367, 17746, 19313, 20712, 23795, 24003, 25268, 27563, 28529, 28645, 32124, 32256, 32905, 33471, 38298, 39911, 39963, 43940, 44396, 44470, 78620, 78650, 78686, 94727, 110082, 110131, 110198, 117037]}, "edge": {"target": [], "time": []}}}, "displayed_time": "98.09", "trialTime": 120832, "trial_type": "mouselab-mdp", "trial_index": 3, "time_elapsed": 1230263, "internal_node_id": "0.0-2.0-2.0-0.0"}}, {"uniqueid": "w86964320:a65303087", "current_trial": 4, "dateTime": 1693581422454, "trialdata": {"revealed_states": [], "clicked_states": ["12", "13", "1", "2", "3", "4", "6"], "num_clicks_accrued": [0, 0, 0, 0, 0, 0, 0, 0, 0, 0, 0, 0, 0], "stateRewards": ["", 10, 10, 10, 10, -10, 10, 10, -10, -10, -10, 10, -10, -10, -10, 10, 10, -10, 10, -10, -10, -10, 10, -10, 10, 10, 10, -10, 10, 10, 10, -10, 10, -10], "withholdReward": false, "trial_id": "practice_2", "block": "test", "trialIndex": 1, "score": 50, "costs": -3.5, "simulationMode": [null, null, null, null, null], "rewards": [10, 10, 10, 10, 10], "path": ["0", "0", "1", "2", "3", "4", "6"], "rt": [28480, 974, 594, 773, 435], "actions": ["up", "up", "up", "right", "right"], "actionTimes": [33641, 35133, 36248, 37545, 38503], "queries": {"click": {"state": {"target": ["12", "13", "1", "2", "3", "4", "6"], "time": [7477, 9108, 10535, 13341, 14986, 16741, 18250]}, "edge": {"target": [], "time": []}}, "mouseover": {"state": {"target": ["12", "13", "1", "23", "2", "3", "4", "6", "7", "1", "18", "15", "17", "13", "12", "12", "1"], "time": [6485, 8764, 9945, 11426, 12906, 14238, 16300, 17385, 19743, 19908, 20657, 20708, 20759, 21622, 21644, 22676, 32504]}, "edge": {"target": [], "time": []}}, "mouseout": {"state": {"target": ["14", "16", "12", "13", "1", "1", "23", "2", "3", "4", "6", "7", "1", "18", "15", "17", "13", "12", "12", "1", "14", "20", "21"], "time": [1573, 3584, 8684, 9734, 10643, 11243, 12490, 13470, 16148, 17281, 19593, 19791, 20475, 20690, 20741, 21558, 21640, 21657, 22725, 44154, 44352, 45120, 45284]}, "edge": {"target": [], "time": []}}}, "displayed_time": "39.02", "trialTime": 48137, "trial_type": "mouselab-mdp", "trial_index": 4, "time_elapsed": 1278874, "internal_node_id": "0.0-2.0-2.0-1.0"}}, {"uniqueid": "w86964320:a65303087", "current_trial": 5, "dateTime": 1693581549327, "trialdata": {"view_history": [{"page_index": 0, "viewing_time": 90920}, {"page_index": 1, "viewing_time": 35944}], "rt": 126865, "trial_id": "mouselab_instructions_2_control", "trial_type": "instructions", "trial_index": 5, "time_elapsed": 1405747, "internal_node_id": "0.0-2.0-3.0"}}, {"uniqueid": "w86964320:a65303087", "current_trial": 6, "dateTime": 1693581735636, "trialdata": {"rt": 186293, "response": {"Q0": "The cost for clicking on nodes may vary between nodes.", "Q1": "The better I perform the higher my bonus will be.", "Q2": "No, the structure of the web will be different each time.", "Q3": "To get the highest total score.", "Q4": "Only before moving the spider.", "Q5": "3 seconds"}, "question_order": [0, 1, 2, 3, 4, 5], "correct": {"Q0": "The cost for clicking on nodes may vary between nodes.", "Q1": "The better I perform the higher my bonus will be.", "Q2": "No, the amount of cash at each node of the web may be different each time.", "Q3": "To get the highest total score.", "Q4": "Only before moving the spider.", "Q5": "3 seconds"}, "trial_id": "mouselab_quiz_control", "trial_type": "survey-multi-choice", "trial_index": 6, "time_elapsed": 1592056, "internal_node_id": "0.0-2.0-4.0"}}, {"uniqueid": "w86964320:a65303087", "current_trial": 7, "dateTime": 1693581767193, "trialdata": {"success": true, "trial_type": "fullscreen", "trial_index": 7, "time_elapsed": 1623613, "internal_node_id": "0.0-2.1-0.1-0.1"}}, {"uniqueid": "w86964320:a65303087", "current_trial": 8, "dateTime": 1693581830218, "trialdata": {"view_history": [{"page_index": 0, "viewing_time": 19258}, {"page_index": 1, "viewing_time": 7790}, {"page_index": 2, "viewing_time": 11686}, {"page_index": 3, "viewing_time": 24289}], "rt": 63023, "trial_id": "mouselab_instructions_1_control", "trial_type": "instructions", "trial_index": 8, "time_elapsed": 1686638, "internal_node_id": "0.0-2.1-1.1"}}, {"uniqueid": "w86964320:a65303087", "current_trial": 9, "dateTime": 1693581897309, "trialdata": {"revealed_states": [], "clicked_states": ["1", "2", "3", "4", "12", "13", "14", "15", "16", "19", "21", "17", "18", "20", "22", "23", "24"], "num_clicks_accrued": [0, 0, 0, 0, 0, 0, 0, 0, 0, 0, 0, 0, 0], "stateRewards": ["", 10, -10, -10, -10, 10, 10, -10, 10, 10, -10, 10, 10, 10, 10, 10, -10, -10, -10, -10, -10, 10, -10, -10, 10, -10, -10, 10, 10, -10, 10, 10, -10, 10], "withholdReward": false, "trial_id": "practice_1", "block": "test", "trialIndex": 2, "score": 25, "costs": -8.5, "simulationMode": [null, null, null, null, null], "rewards": [10, 10, 10, 10, -10], "path": ["0", "0", "12", "13", "14", "15", "17"], "rt": [52421, 1008, 532, 926, 2554], "actions": ["right", "right", "right", "up", "right"], "actionTimes": [56406, 57926, 58980, 60423, 63498], "queries": {"click": {"state": {"target": ["1", "2", "3", "4", "12", "13", "14", "15", "16", "19", "21", "17", "18", "20", "22", "23", "24"], "time": [7216, 8751, 10249, 11841, 13251, 14536, 15982, 17556, 19200, 25078, 26597, 30326, 33093, 36608, 38416, 41403, 42853]}, "edge": {"target": [], "time": []}}, "mouseover": {"state": {"target": ["1", "2", "3", "4", "7", "1", "12", "13", "14", "15", "15", "16", "1", "0", "12", "12", "13", "19", "21", "0", "18", "15", "17", "12", "18", "13", "22", "20", "19", "22", "12", "23", "24", "28", "10", "2", "2", "10", "28", "12", "12", "18", "15", "17", "15", "18", "12"], "time": [6640, 8124, 9571, 11018, 12233, 12383, 12582, 13730, 15531, 16399, 17126, 18345, 20533, 21300, 22683, 23895, 24044, 24566, 25995, 29258, 29419, 29585, 29768, 32134, 32481, 34898, 35559, 36042, 37177, 37578, 40585, 40888, 42103, 45082, 45744, 45793, 47247, 47593, 47674, 48356, 50911, 51401, 51451, 51850, 54728, 54845, 55378]}, "edge": {"target": [], "time": []}}, "mouseout": {"state": {"target": ["12", "17", "13", "12", "0", "1", "2", "3", "4", "7", "1", "12", "13", "14", "15", "15", "16", "1", "0", "12", "12", "13", "19", "19", "21", "0", "18", "15", "17", "12", "18", "13", "22", "20", "19", "22", "12", "23", "24", "28", "10", "2", "2", "10", "28", "12", "12", "18", "15", "17", "15", "18"], "time": [1131, 1231, 2198, 2213, 6379, 7874, 9344, 10885, 12216, 12250, 12434, 13665, 14911, 16322, 16517, 17682, 20368, 20550, 21415, 23216, 23978, 24163, 25223, 25649, 27656, 29286, 29519, 29668, 32029, 32352, 34838, 34965, 35643, 37129, 37434, 40452, 40605, 41852, 43585, 45677, 45761, 45826, 47543, 47609, 47906, 48505, 51317, 51417, 51485, 54679, 54779, 54944]}, "edge": {"target": [], "time": []}}}, "displayed_time": "64.02", "trialTime": 66599, "trial_type": "mouselab-mdp", "trial_index": 9, "time_elapsed": 1753728, "internal_node_id": "0.0-2.1-2.1-0.1"}}, {"uniqueid": "w86964320:a65303087", "current_trial": 10, "dateTime": 1693581942598, "trialdata": {"revealed_states": [], "clicked_states": ["23", "1", "2", "3", "8", "4", "6"], "num_clicks_accrued": [0, 0, 0, 0, 0, 0, 0, 0, 0, 0, 0, 0, 0], "stateRewards": ["", 10, 10, 10, 10, -10, 10, 10, -10, -10, -10, 10, -10, -10, -10, 10, 10, -10, 10, -10, -10, -10, 10, -10, 10, 10, 10, -10, 10, 10, 10, -10, 10, -10], "withholdReward": false, "trial_id": "practice_2", "block": "test", "trialIndex": 3, "score": 50, "costs": -3.5, "simulationMode": [null, null, null, null, null], "rewards": [10, 10, 10, 10, 10], "path": ["0", "0", "1", "2", "3", "4", "6"], "rt": [28935, 787, 293, 691, 422], "actions": ["up", "up", "up", "right", "right"], "actionTimes": [33965, 35264, 36098, 37314, 38258], "queries": {"click": {"state": {"target": ["23", "1", "2", "3", "8", "4", "6"], "time": [7803, 10629, 12201, 13489, 15085, 18391, 20047]}, "edge": {"target": [], "time": []}}, "mouseover": {"state": {"target": ["12", "0", "23", "24", "1", "1", "2", "3", "8", "4", "6", "12"], "time": [6037, 7033, 7281, 8550, 9777, 10160, 11330, 12660, 14585, 18046, 19384, 21609]}, "edge": {"target": [], "time": []}}, "mouseout": {"state": {"target": ["12", "0", "12", "0", "23", "24", "1", "1", "2", "3", "8", "8", "4", "6", "12", "19", "20"], "time": [3919, 4425, 6998, 7114, 8435, 9719, 9810, 10757, 12529, 14497, 16549, 17614, 18508, 21476, 21642, 40629, 41550]}, "edge": {"target": [], "time": []}}}, "displayed_time": "38.77", "trialTime": 44850, "trial_type": "mouselab-mdp", "trial_index": 10, "time_elapsed": 1799017, "internal_node_id": "0.0-2.1-2.1-1.1"}}, {"uniqueid": "w86964320:a65303087", "current_trial": 11, "dateTime": 1693581999060, "trialdata": {"view_history": [{"page_index": 0, "viewing_time": 53500}, {"page_index": 1, "viewing_time": 2950}], "rt": 56450, "trial_id": "mouselab_instructions_2_control", "trial_type": "instructions", "trial_index": 11, "time_elapsed": 1855480, "internal_node_id": "0.0-2.1-3.1"}}, {"uniqueid": "w86964320:a65303087", "current_trial": 12, "dateTime": 1693582502741, "trialdata": {"rt": 503671, "response": {"Q0": "The cost for clicking on nodes may vary between nodes.", "Q1": "The better I perform the higher my bonus will be.", "Q2": "No, the amount of cash at each node of the web may be different each time.", "Q3": "To get the highest total score.", "Q4": "Only before moving the spider.", "Q5": "3 seconds"}, "question_order": [0, 1, 2, 3, 4, 5], "correct": {"Q0": "The cost for clicking on nodes may vary between nodes.", "Q1": "The better I perform the higher my bonus will be.", "Q2": "No, the amount of cash at each node of the web may be different each time.", "Q3": "To get the highest total score.", "Q4": "Only before moving the spider.", "Q5": "3 seconds"}, "trial_id": "mouselab_quiz_control", "trial_type": "survey-multi-choice", "trial_index": 12, "time_elapsed": 2359161, "internal_node_id": "0.0-2.1-4.1"}}, {"uniqueid": "w86964320:a65303087", "current_trial": 13, "dateTime": 1693582520910, "trialdata": {"rt": 18110, "response": {"Q0": "No"}, "question_order": [0], "trial_id": "repeat_check", "trial_type": "survey-multi-choice", "trial_index": 13, "time_elapsed": 2377329, "internal_node_id": "0.0-4.0-0.0"}}, {"uniqueid": "w86964320:a65303087", "current_trial": 14, "dateTime": 1693582568392, "trialdata": {"rt": 47472, "stimulus": "\n<h1> Get ready to start the game! </h1>\n\nThank you for reading the instructions. Get ready start with the 40 rounds of this game.\n<br><br>\nIf you need to take a break, feel free to take one after the end of a round, before continuing to the next one.\n<br><br>\nRemember, the more money the spider gets, the bigger your bonus will be!\n<br><br>\n<div style='text-align: center;'>Press <code>space</code> to begin.</div>\n\n<br><br>\n(If, at any point, the <code>space</code> key does not take you to the next page, click once on the text and try again.)", "response": " ", "trial_id": "mdp_ready", "trial_type": "html-keyboard-response", "trial_index": 14, "time_elapsed": 2424812, "internal_node_id": "0.0-6.0-0.0"}}, {"uniqueid": "w86964320:a65303087", "current_trial": 15, "dateTime": 1693582596580, "trialdata": {"revealed_states": [], "clicked_states": ["1"], "num_clicks_accrued": [0, 0, 0, 0, 0, 0, 0, 0, 0, 0, 0, 0, 0], "stateRewards": ["", 1, 1, -5, 8, -6, 45, 16, -6, -7, -22, -38, -1, -4, 8, -11, -16, 21, -45, -15, -59, -32, 42, -1, 3, 6, 11, -7, 34, -27, -8, 85, 43, -9], "withholdReward": false, "trial_id": "mdp_trial_1", "block": "test", "trialIndex": 4, "score": 11.6, "costs": -1.4, "simulationMode": [null, null, null, null, null], "rewards": [-1, -4, 8, -11, 21], "path": ["0", "0", "12", "13", "14", "15", "17"], "rt": [10687, 973, 519, 1097, 349], "actions": ["right", "right", "right", "up", "right"], "actionTimes": [16178, 17668, 18713, 20350, 21218], "queries": {"click": {"state": {"target": ["1"], "time": [8097]}, "edge": {"target": [], "time": []}}, "mouseover": {"state": {"target": ["1", "2", "3", "2", "2", "12"], "time": [7103, 8551, 9698, 11663, 14291, 14511]}, "edge": {"target": [], "time": []}}, "mouseout": {"state": {"target": ["7", "17", "13", "0", "1", "2", "3", "2", "2", "12", "13", "17"], "time": [1413, 3391, 3442, 6900, 8216, 9570, 11563, 12861, 14325, 23726, 23877, 24559]}, "edge": {"target": [], "time": []}}}, "displayed_time": "21.73", "trialTime": 27683, "trial_type": "mouselab-mdp", "trial_index": 15, "time_elapsed": 2452999, "internal_node_id": "0.0-6.0-1.0-0.0"}}, {"uniqueid": "w86964320:a65303087", "current_trial": 16, "dateTime": 1693582620551, "trialdata": {"revealed_states": [], "clicked_states": ["1", "3"], "num_clicks_accrued": [0, 0, 0, 0, 0, 0, 0, 0, 0, 0, 0, 0, 0], "stateRewards": ["", -2, -3, 4, 1, 33, -53, 15, 9, -12, 61, -6, -2, 4, 6, -11, 47, -43, -7, -11, 46, 23, -28, -1, -1, 3, -10, 11, 76, -76, 10, 18, -38, 87], "withholdReward": false, "trial_id": "mdp_trial_2", "block": "test", "trialIndex": 5, "score": -87.8, "costs": -2.8, "simulationMode": [null, null, null, null, null], "rewards": [-1, -1, 3, -10, -76], "path": ["0", "0", "23", "24", "25", "26", "29"], "rt": [7504, 389, 287, 4285, 549], "actions": ["left", "left", "left", "up", "left"], "actionTimes": [10713, 11618, 12430, 17228, 18301], "queries": {"click": {"state": {"target": ["1", "3"], "time": [5615, 7257]}, "edge": {"target": [], "time": []}}, "mouseover": {"state": {"target": ["1", "1", "2", "3", "0"], "time": [4754, 5218, 6040, 6843, 9625]}, "edge": {"target": [], "time": []}}, "mouseout": {"state": {"target": ["19", "22", "12", "0", "1", "1", "2", "3", "1", "0"], "time": [2020, 2086, 2169, 2569, 4805, 5879, 6803, 7850, 8349, 9775]}, "edge": {"target": [], "time": []}}}, "displayed_time": "18.82", "trialTime": 23492, "trial_type": "mouselab-mdp", "trial_index": 16, "time_elapsed": 2476971, "internal_node_id": "0.0-6.0-1.0-1.0"}}, {"uniqueid": "w86964320:a65303087", "current_trial": 17, "dateTime": 1693582641203, "trialdata": {"revealed_states": [], "clicked_states": ["12", "14"], "num_clicks_accrued": [0, 0, 0, 0, 0, 0, 0, 0, 0, 0, 0, 0, 0], "stateRewards": ["", -1, 3, 1, -7, 56, 76, 57, 3, 11, -9, 14, 1, -2, 2, 8, -77, -3, 79, -5, 88, 24, -66, -2, -1, 7, -7, -30, 14, -76, 11, -36, 28, -6], "withholdReward": false, "trial_id": "mdp_trial_3", "block": "test", "trialIndex": 6, "score": 17.2, "costs": -2.8, "simulationMode": [null, null, null, null, null], "rewards": [1, -2, 2, -5, 24], "path": ["0", "0", "12", "13", "14", "19", "21"], "rt": [10158, 285, 375, 1735, 343], "actions": ["right", "right", "right", "down", "down"], "actionTimes": [11950, 12754, 13643, 15900, 16762], "queries": {"click": {"state": {"target": ["12", "14"], "time": [3730, 5340]}, "edge": {"target": [], "time": []}}, "mouseover": {"state": {"target": ["12", "13", "14", "13"], "time": [2994, 4148, 4894, 6759]}, "edge": {"target": [], "time": []}}, "mouseout": {"state": {"target": ["0", "12", "13", "14", "14", "13"], "time": [1032, 3856, 4831, 5468, 6713, 6803]}, "edge": {"target": [], "time": []}}}, "displayed_time": "17.28", "trialTime": 19971, "trial_type": "mouselab-mdp", "trial_index": 17, "time_elapsed": 2497621, "internal_node_id": "0.0-6.0-1.0-2.0"}}, {"uniqueid": "w86964320:a65303087", "current_trial": 18, "dateTime": 1693582660851, "trialdata": {"revealed_states": [], "clicked_states": ["23", "25", "32"], "num_clicks_accrued": [0, 0, 0, 0, 0, 0, 0, 0, 0, 0, 0, 0, 0], "stateRewards": ["", 1, 1, 1, 15, -76, 52, -32, 14, -57, 37, 49, 1, -4, -3, 6, 83, -76, 25, 9, 36, -1, -17, -1, 4, 4, -2, -22, -21, 58, -15, -57, 49, -24], "withholdReward": false, "trial_id": "mdp_trial_4", "block": "test", "trialIndex": 7, "score": 36.8, "costs": -4.199999999999999, "simulationMode": [null, null, null, null, null], "rewards": [-1, 4, 4, -15, 49], "path": ["0", "0", "23", "24", "25", "30", "32"], "rt": [9554, 279, 367, 640, 375], "actions": ["left", "left", "left", "down", "down"], "actionTimes": [11229, 12030, 12916, 14073, 14972], "queries": {"click": {"state": {"target": ["23", "25", "32"], "time": [2937, 4628, 6851]}, "edge": {"target": [], "time": []}}, "mouseover": {"state": {"target": ["23", "24", "25", "30", "32", "32"], "time": [2529, 3399, 4196, 4951, 5946, 6405]}, "edge": {"target": [], "time": []}}, "mouseout": {"state": {"target": ["0", "23", "24", "25", "30", "32", "32", "31", "12", "14"], "time": [696, 3291, 4130, 4882, 5928, 6031, 7859, 17627, 17736, 17787]}, "edge": {"target": [], "time": []}}}, "displayed_time": "15.68", "trialTime": 19137, "trial_type": "mouselab-mdp", "trial_index": 18, "time_elapsed": 2517271, "internal_node_id": "0.0-6.0-1.0-3.0"}}, {"uniqueid": "w86964320:a65303087", "current_trial": 19, "dateTime": 1693582683658, "trialdata": {"revealed_states": [], "clicked_states": ["1", "3", "10"], "num_clicks_accrued": [0, 0, 0, 0, 0, 0, 0, 0, 0, 0, 0, 0, 0], "stateRewards": ["", 2, 3, -1, 16, -78, -11, 46, 2, -20, 79, -67, 2, 3, 2, 11, -83, -42, -58, -11, -67, -22, 55, 2, -1, -1, -16, -83, -82, 23, -11, -29, 13, 13], "withholdReward": false, "trial_id": "mdp_trial_5", "block": "test", "trialIndex": 8, "score": 80.8, "costs": -4.199999999999999, "simulationMode": [null, null, null, null, null], "rewards": [2, 3, -1, 2, 79], "path": ["0", "0", "1", "2", "3", "8", "10"], "rt": [10479, 384, 390, 755, 434], "actions": ["up", "up", "up", "left", "down"], "actionTimes": [12454, 13362, 14269, 15554, 16504], "queries": {"click": {"state": {"target": ["1", "3", "10"], "time": [3028, 5068, 6631]}, "edge": {"target": [], "time": []}}, "mouseover": {"state": {"target": ["1", "2", "3", "8", "10", "8", "2", "7", "17"], "time": [2606, 3921, 4548, 5320, 6218, 8132, 9862, 9941, 10023]}, "edge": {"target": [], "time": []}}, "mouseout": {"state": {"target": ["18", "1", "2", "3", "8", "10", "8", "2", "7", "17"], "time": [529, 3240, 4523, 5270, 6059, 6770, 9276, 9923, 9959, 18087]}, "edge": {"target": [], "time": []}}}, "displayed_time": "17.02", "trialTime": 22299, "trial_type": "mouselab-mdp", "trial_index": 19, "time_elapsed": 2540076, "internal_node_id": "0.0-6.0-1.0-4.0"}}, {"uniqueid": "w86964320:a65303087", "current_trial": 20, "dateTime": 1693582710153, "trialdata": {"revealed_states": [], "clicked_states": ["12", "19", "21"], "num_clicks_accrued": [0, 0, 0, 0, 0, 0, 0, 0, 0, 0, 0, 0, 0], "stateRewards": ["", 2, -1, 8, -2, -16, 69, -39, -7, -13, -27, -86, 2, -2, 2, 13, -34, -16, -20, -5, 19, 81, 32, -2, -1, 2, -14, 20, 80, 58, 4, 70, 12, 73], "withholdReward": false, "trial_id": "mdp_trial_6", "block": "test", "trialIndex": 9, "score": 73.8, "costs": -4.199999999999999, "simulationMode": [null, null, null, null, null], "rewards": [2, -2, 2, -5, 81], "path": ["0", "0", "12", "13", "14", "19", "21"], "rt": [14123, 183, 214, 683, 241], "actions": ["right", "right", "right", "down", "down"], "actionTimes": [19022, 19730, 20463, 21659, 22415], "queries": {"click": {"state": {"target": ["12", "19", "21"], "time": [7062, 10158, 13545]}, "edge": {"target": [], "time": []}}, "mouseover": {"state": {"target": ["1", "12", "13", "19", "19", "21", "19", "20"], "time": [5985, 6610, 7347, 8116, 9330, 10609, 16243, 16344]}, "edge": {"target": [], "time": []}}, "mouseout": {"state": {"target": ["15", "13", "12", "1", "12", "13", "19", "19", "21", "19", "20"], "time": [1369, 1485, 1900, 6510, 7284, 8034, 8646, 10548, 13660, 16278, 16377]}, "edge": {"target": [], "time": []}}}, "displayed_time": "22.98", "trialTime": 25896, "trial_type": "mouselab-mdp", "trial_index": 20, "time_elapsed": 2566572, "internal_node_id": "0.0-6.0-1.0-5.0"}}, {"uniqueid": "w86964320:a65303087", "current_trial": 21, "dateTime": 1693582756769, "trialdata": {"revealed_states": [], "clicked_states": ["17", "18", "16", "33", "31", "32", "28", "27", "29", "10", "7", "6", "5"], "num_clicks_accrued": [0, 0, 0, 0, 0, 0, 0, 0, 0, 0, 0, 0, 0], "stateRewards": ["", -2, -1, 3, -3, 71, -58, -21, 7, -10, -75, -37, 2, 4, -1, -12, -79, -29, -48, 3, -41, -10, -30, -1, -2, 1, -15, 13, 66, 22, -1, -42, -86, -55], "withholdReward": false, "trial_id": "mdp_trial_7", "block": "test", "trialIndex": 10, "score": 49.8, "costs": -18.2, "simulationMode": [null, null, null, null, null], "rewards": [-2, -1, 3, -3, 71], "path": ["0", "0", "1", "2", "3", "4", "5"], "rt": [35956, 373, 103, 577, 762], "actions": ["up", "up", "up", "right", "up"], "actionTimes": [37663, 38594, 39284, 40379, 41660], "queries": {"click": {"state": {"target": ["17", "18", "16", "33", "31", "32", "28", "27", "29", "10", "7", "6", "5"], "time": [4136, 5675, 8670, 12425, 15282, 17040, 19038, 22457, 24061, 25875, 27789, 29447, 31260]}, "edge": {"target": [], "time": []}}, "mouseover": {"state": {"target": ["7", "16", "17", "15", "18", "16", "15", "13", "12", "0", "23", "24", "25", "33", "30", "31", "32", "30", "25", "28", "26", "29", "27", "29", "10", "2", "7", "6", "5", "9", "8", "3", "2"], "time": [3173, 3208, 3619, 4754, 5124, 6604, 10408, 11027, 11086, 11125, 11176, 11258, 11440, 11939, 14708, 14802, 16499, 18051, 18151, 18613, 19897, 20031, 21566, 23421, 25019, 27021, 27433, 28966, 30669, 31933, 34221, 34420, 34520]}, "edge": {"target": [], "time": []}}, "mouseout": {"state": {"target": ["12", "7", "16", "17", "15", "18", "16", "15", "13", "12", "0", "23", "24", "25", "33", "30", "31", "32", "30", "25", "28", "26", "29", "27", "29", "10", "2", "7", "6", "5", "9", "8", "3", "2", "16"], "time": [740, 3193, 3224, 4499, 5055, 6333, 10244, 10944, 11063, 11108, 11143, 11209, 11358, 11557, 14678, 14753, 16189, 17868, 18116, 18400, 19864, 19964, 21281, 23343, 24196, 26969, 27136, 28732, 30156, 31796, 33406, 34320, 34441, 44021, 44188]}, "edge": {"target": [], "time": []}}}, "displayed_time": "42.20", "trialTime": 46057, "trial_type": "mouselab-mdp", "trial_index": 21, "time_elapsed": 2613187, "internal_node_id": "0.0-6.0-1.0-6.0"}}, {"uniqueid": "w86964320:a65303087", "current_trial": 22, "dateTime": 1693582792006, "trialdata": {"revealed_states": [], "clicked_states": ["28", "29", "27", "33", "32", "10", "7", "5"], "num_clicks_accrued": [0, 0, 0, 0, 0, 0, 0, 0, 0, 0, 0, 0, 0], "stateRewards": ["", -2, -3, 8, 14, -73, 73, 84, -12, -2, -50, -17, 2, 1, -2, -9, -44, -27, -33, 16, -63, -47, -66, -2, 1, 4, -5, -33, -11, 50, 9, 38, -79, 31], "withholdReward": false, "trial_id": "mdp_trial_8", "block": "test", "trialIndex": 11, "score": 89.8, "costs": -11.200000000000001, "simulationMode": [null, null, null, null, null], "rewards": [-2, -3, 8, 14, 84], "path": ["0", "0", "1", "2", "3", "4", "7"], "rt": [25200, 401, 194, 825, 549], "actions": ["up", "up", "up", "right", "down"], "actionTimes": [26789, 27732, 28447, 29792, 30879], "queries": {"click": {"state": {"target": ["28", "29", "27", "33", "32", "10", "7", "5"], "time": [3903, 6584, 8727, 10364, 11894, 14803, 16480, 20639]}, "edge": {"target": [], "time": []}}, "mouseover": {"state": {"target": ["23", "28", "27", "29", "27", "26", "33", "32", "31", "23", "10", "2", "7", "4", "5"], "time": [2935, 3355, 4547, 6027, 7378, 9475, 9801, 11096, 12636, 13747, 14219, 15347, 15767, 17113, 17239]}, "edge": {"target": [], "time": []}}, "mouseout": {"state": {"target": ["17", "18", "0", "23", "28", "27", "29", "27", "26", "33", "32", "31", "23", "10", "2", "7", "4", "5"], "time": [534, 585, 2454, 3067, 4450, 5661, 6912, 9443, 9529, 11006, 12270, 13683, 13767, 15332, 15416, 17045, 17163, 22434]}, "edge": {"target": [], "time": []}}}, "displayed_time": "31.39", "trialTime": 34597, "trial_type": "mouselab-mdp", "trial_index": 22, "time_elapsed": 2648425, "internal_node_id": "0.0-6.0-1.0-7.0"}}, {"uniqueid": "w86964320:a65303087", "current_trial": 23, "dateTime": 1693582843626, "trialdata": {"revealed_states": [], "clicked_states": ["18", "16", "17", "20", "21", "22", "7", "6", "11", "27", "28", "29", "33", "32", "31", "24", "10"], "num_clicks_accrued": [0, 0, 0, 0, 0, 0, 0, 0, 0, 0, 0, 0, 0], "stateRewards": ["", 2, 3, -1, 6, 44, -4, -59, -14, -3, 64, 16, 1, -3, 3, 6, 3, 49, 19, 3, -49, -14, -86, 1, 2, -3, -8, -33, 14, 32, -13, -77, -47, -67], "withholdReward": false, "trial_id": "mdp_trial_9", "block": "test", "trialIndex": 12, "score": 30.200000000000003, "costs": -23.799999999999994, "simulationMode": [null, null, null, null, null], "rewards": [2, 3, -1, -14, 64], "path": ["0", "0", "1", "2", "3", "8", "10"], "rt": [41816, 414, 82, 636, 211], "actions": ["up", "up", "up", "left", "down"], "actionTimes": [43947, 44875, 45470, 46624, 47347], "queries": {"click": {"state": {"target": ["18", "16", "17", "20", "21", "22", "7", "6", "11", "27", "28", "29", "33", "32", "31", "24", "10"], "time": [3542, 5506, 8789, 11706, 13333, 14922, 17446, 19625, 21607, 24072, 26060, 28458, 30957, 33747, 35289, 37722, 39643]}, "edge": {"target": [], "time": []}}, "mouseover": {"state": {"target": ["12", "18", "16", "17", "17", "20", "21", "22", "12", "1", "2", "7", "6", "4", "3", "11", "27", "28", "26", "29", "29", "33", "32", "31", "31", "24", "10", "8", "9", "3", "2"], "time": [2753, 3122, 4485, 6380, 8208, 9767, 12854, 14171, 16140, 16494, 16611, 17029, 19142, 20411, 20437, 20810, 23569, 25632, 27026, 27233, 27895, 30358, 32511, 34345, 34798, 37313, 39015, 41258, 41389, 41961, 41998]}, "edge": {"target": [], "time": []}}, "mouseout": {"state": {"target": ["4", "2", "1", "12", "18", "16", "17", "17", "20", "21", "22", "12", "1", "2", "7", "6", "4", "3", "11", "27", "27", "28", "26", "29", "29", "29", "33", "32", "31", "31", "24", "10", "8", "9", "3", "2"], "time": [589, 737, 1252, 2820, 3667, 6049, 7875, 9397, 12438, 14001, 16097, 16189, 16561, 16914, 18666, 20394, 20427, 20449, 23421, 24204, 25222, 26182, 27102, 27631, 28588, 30042, 32112, 34273, 34496, 37158, 38505, 41206, 41324, 41923, 41982, 42040]}, "edge": {"target": [], "time": []}}}, "displayed_time": "47.87", "trialTime": 51044, "trial_type": "mouselab-mdp", "trial_index": 23, "time_elapsed": 2700045, "internal_node_id": "0.0-6.0-1.0-8.0"}}, {"uniqueid": "w86964320:a65303087", "current_trial": 24, "dateTime": 1693582866763, "trialdata": {"revealed_states": [], "clicked_states": ["28", "27", "29", "11"], "num_clicks_accrued": [0, 0, 0, 0, 0, 0, 0, 0, 0, 0, 0, 0, 0], "stateRewards": ["", -2, 2, -5, 1, 42, -63, -58, -6, 2, 16, 81, -2, 4, 7, -10, 33, 3, -33, -2, -52, -84, -27, 2, -3, -3, 15, -74, -14, -5, -5, -84, 79, -31], "withholdReward": false, "trial_id": "mdp_trial_10", "block": "test", "trialIndex": 13, "score": 64.4, "costs": -5.6, "simulationMode": [null, null, null, null, null], "rewards": [-2, 2, -5, -6, 81], "path": ["0", "0", "1", "2", "3", "8", "11"], "rt": [13437, 43, 99, 700, 64], "actions": ["up", "up", "up", "left", "left"], "actionTimes": [16454, 17021, 17668, 18891, 19473], "queries": {"click": {"state": {"target": ["28", "27", "29", "11"], "time": [4760, 8566, 10130, 12218]}, "edge": {"target": [], "time": []}}, "mouseover": {"state": {"target": ["23", "24", "28", "27", "27", "29", "11", "8", "3", "6"], "time": [3794, 4010, 4128, 5611, 7539, 9373, 11669, 13943, 13979, 14459]}, "edge": {"target": [], "time": []}}, "mouseout": {"state": {"target": ["1", "23", "24", "28", "27", "27", "29", "27", "11", "8", "3"], "time": [1765, 3877, 4027, 5461, 7022, 9306, 11085, 11286, 13862, 13962, 14043]}, "edge": {"target": [], "time": []}}}, "displayed_time": "19.99", "trialTime": 22555, "trial_type": "mouselab-mdp", "trial_index": 24, "time_elapsed": 2723180, "internal_node_id": "0.0-6.0-1.0-9.0"}}, {"uniqueid": "w86964320:a65303087", "current_trial": 25, "dateTime": 1693582893522, "trialdata": {"revealed_states": [], "clicked_states": ["6", "5", "7", "20", "17"], "num_clicks_accrued": [0, 0, 0, 0, 0, 0, 0, 0, 0, 0, 0, 0, 0], "stateRewards": ["", 2, 4, -6, -13, -75, -81, 30, 7, 5, 59, -65, -1, -1, 7, 14, -38, 36, -41, 1, -54, -5, 64, 2, -1, 5, 6, -19, 79, 11, 16, -33, -50, 58], "withholdReward": false, "trial_id": "mdp_trial_11", "block": "test", "trialIndex": 14, "score": 48, "costs": -7, "simulationMode": [null, null, null, null, null], "rewards": [-1, -1, 7, 14, 36], "path": ["0", "0", "12", "13", "14", "15", "17"], "rt": [16335, 462, 435, 758, 191], "actions": ["right", "right", "right", "up", "right"], "actionTimes": [18532, 19519, 20474, 21744, 22465], "queries": {"click": {"state": {"target": ["6", "5", "7", "20", "17"], "time": [4209, 6410, 8689, 11133, 14677]}, "edge": {"target": [], "time": []}}, "mouseover": {"state": {"target": ["7", "6", "5", "4", "7", "18", "14", "20", "19", "14", "18", "15", "17", "15", "18"], "time": [3443, 3709, 5732, 7907, 8018, 9806, 10071, 10318, 13426, 13645, 13926, 14109, 14209, 16758, 16988]}, "edge": {"target": [], "time": []}}, "mouseout": {"state": {"target": ["6", "0", "7", "6", "5", "4", "7", "18", "14", "20", "19", "14", "18", "15", "17", "15", "18"], "time": [966, 1562, 3641, 5300, 7872, 7946, 9754, 9820, 10154, 13396, 13610, 13745, 14076, 14142, 16731, 16837, 17104]}, "edge": {"target": [], "time": []}}}, "displayed_time": "22.98", "trialTime": 26217, "trial_type": "mouselab-mdp", "trial_index": 25, "time_elapsed": 2749940, "internal_node_id": "0.0-6.0-1.0-10.0"}}, {"uniqueid": "w86964320:a65303087", "current_trial": 26, "dateTime": 1693582927360, "trialdata": {"revealed_states": [], "clicked_states": ["31", "33", "32", "27", "29", "11", "9"], "num_clicks_accrued": [0, 0, 0, 0, 0, 0, 0, 0, 0, 0, 0, 0, 0], "stateRewards": ["", 2, -3, 5, 11, -79, 54, 11, -9, -78, 33, 22, -2, -1, 2, 14, 43, 34, 1, 10, 49, -65, 39, -1, 1, -1, 3, -16, -2, 11, 2, 12, 48, -65], "withholdReward": false, "trial_id": "mdp_trial_12", "block": "test", "trialIndex": 15, "score": 3.1999999999999993, "costs": -9.8, "simulationMode": [null, null, null, null, null], "rewards": [-1, 1, -1, 3, 11], "path": ["0", "0", "23", "24", "25", "26", "29"], "rt": [20191, 439, 373, 1915, 768], "actions": ["left", "left", "left", "up", "left"], "actionTimes": [22551, 23513, 24401, 26835, 28118], "queries": {"click": {"state": {"target": ["31", "33", "32", "27", "29", "11", "9"], "time": [4047, 6597, 8903, 10672, 13359, 15958, 18787]}, "edge": {"target": [], "time": []}}, "mouseover": {"state": {"target": ["23", "31", "30", "30", "33", "32", "30", "27", "29", "11", "9", "3", "7", "18"], "time": [3086, 3566, 4820, 5318, 5713, 8309, 9615, 10130, 12851, 15247, 18110, 19449, 19530, 19848]}, "edge": {"target": [], "time": []}}, "mouseout": {"state": {"target": ["0", "23", "31", "31", "30", "30", "33", "32", "30", "27", "29", "27", "11", "9", "3", "7", "18"], "time": [3051, 3386, 4170, 4769, 4838, 5334, 7714, 9022, 9633, 12468, 13494, 14876, 17979, 19399, 19482, 19745, 19949]}, "edge": {"target": [], "time": []}}}, "displayed_time": "28.64", "trialTime": 33306, "trial_type": "mouselab-mdp", "trial_index": 26, "time_elapsed": 2783779, "internal_node_id": "0.0-6.0-1.0-11.0"}}, {"uniqueid": "w86964320:a65303087", "current_trial": 27, "dateTime": 1693582948664, "trialdata": {"revealed_states": [], "clicked_states": ["18", "17", "16"], "num_clicks_accrued": [0, 0, 0, 0, 0, 0, 0, 0, 0, 0, 0, 0, 0], "stateRewards": ["", -2, 3, -1, 2, -72, 63, 20, -1, 62, -66, 39, -2, 3, -6, 14, 22, 47, 1, 8, -49, -1, -41, 2, 2, -6, -16, -64, -60, -34, 16, 54, 22, -7], "withholdReward": false, "trial_id": "mdp_trial_13", "block": "test", "trialIndex": 16, "score": 51.8, "costs": -4.199999999999999, "simulationMode": [null, null, null, null, null], "rewards": [-2, 3, -6, 14, 47], "path": ["0", "0", "12", "13", "14", "15", "17"], "rt": [9728, 31, 731, 1136, 313], "actions": ["right", "right", "right", "up", "right"], "actionTimes": [12281, 12830, 14083, 15730, 16556], "queries": {"click": {"state": {"target": ["18", "17", "16"], "time": [4512, 6999, 9576]}, "edge": {"target": [], "time": []}}, "mouseover": {"state": {"target": ["18", "15", "17", "16"], "time": [3890, 5928, 6403, 8137]}, "edge": {"target": [], "time": []}}, "mouseout": {"state": {"target": ["18", "18", "15", "17"], "time": [1361, 5794, 6241, 7988]}, "edge": {"target": [], "time": []}}}, "displayed_time": "17.08", "trialTime": 20719, "trial_type": "mouselab-mdp", "trial_index": 27, "time_elapsed": 2805081, "internal_node_id": "0.0-6.0-1.0-12.0"}}, {"uniqueid": "w86964320:a65303087", "current_trial": 28, "dateTime": 1693582983024, "trialdata": {"revealed_states": [], "clicked_states": ["31", "32", "33", "28", "27", "29", "11"], "num_clicks_accrued": [0, 0, 0, 0, 0, 0, 0, 0, 0, 0, 0, 0, 0], "stateRewards": ["", -2, -3, 1, -7, 39, -67, 16, 5, -20, 73, 66, -1, 4, 5, -3, 23, -68, -87, -8, 3, -3, 17, 1, -4, -2, -13, -32, 34, 61, -5, -11, -18, 12], "withholdReward": false, "trial_id": "mdp_trial_14", "block": "test", "trialIndex": 17, "score": 57.2, "costs": -9.8, "simulationMode": [null, null, null, null, null], "rewards": [-2, -3, 1, 5, 66], "path": ["0", "0", "1", "2", "3", "8", "11"], "rt": [18034, 241, 302, 772, 177], "actions": ["up", "up", "up", "left", "left"], "actionTimes": [25010, 25784, 26615, 27908, 28597], "queries": {"click": {"state": {"target": ["31", "32", "33", "28", "27", "29", "11"], "time": [9064, 10815, 12494, 14376, 16096, 18207, 20461]}, "edge": {"target": [], "time": []}}, "mouseover": {"state": {"target": ["0", "23", "31", "32", "33", "25", "28", "27", "29", "11", "10", "1"], "time": [8181, 8248, 8513, 10399, 11551, 13460, 13711, 15561, 17304, 19532, 21426, 21525]}, "edge": {"target": [], "time": []}}, "mouseout": {"state": {"target": ["16", "18", "0", "23", "31", "32", "33", "25", "28", "27", "29", "27", "11", "11", "10", "1"], "time": [5003, 5069, 8213, 8298, 10051, 11364, 13294, 13543, 15275, 16989, 19133, 19217, 20588, 21382, 21456, 21573]}, "edge": {"target": [], "time": []}}}, "displayed_time": "29.12", "trialTime": 32963, "trial_type": "mouselab-mdp", "trial_index": 28, "time_elapsed": 2839442, "internal_node_id": "0.0-6.0-1.0-13.0"}}, {"uniqueid": "w86964320:a65303087", "current_trial": 29, "dateTime": 1693583001101, "trialdata": {"revealed_states": [], "clicked_states": ["7", "6", "5", "9"], "num_clicks_accrued": [0, 0, 0, 0, 0, 0, 0, 0, 0, 0, 0, 0, 0], "stateRewards": ["", -1, 2, -2, 5, 80, -61, -27, 12, 44, -26, -75, -2, -4, 1, -16, 42, -49, -50, 4, -44, 2, 80, -2, -2, 5, -2, 59, 10, 24, 7, -48, -86, -44], "withholdReward": false, "trial_id": "mdp_trial_15", "block": "test", "trialIndex": 18, "score": 78.4, "costs": -5.6, "simulationMode": [null, null, null, null, null], "rewards": [-1, 2, -2, 5, 80], "path": ["0", "0", "1", "2", "3", "4", "5"], "rt": [10524, 88, 180, 130, 159], "actions": ["up", "up", "up", "right", "up"], "actionTimes": [12492, 13099, 13791, 14438, 15121], "queries": {"click": {"state": {"target": ["7", "6", "5", "9"], "time": [3744, 5296, 7819, 9589]}, "edge": {"target": [], "time": []}}, "mouseover": {"state": {"target": ["1", "7", "6", "6", "5", "9"], "time": [3060, 3188, 4335, 4840, 6022, 8950]}, "edge": {"target": [], "time": []}}, "mouseout": {"state": {"target": ["1", "7", "6", "6", "5"], "time": [3088, 4258, 4412, 5789, 8667]}, "edge": {"target": [], "time": []}}}, "displayed_time": "15.97", "trialTime": 17527, "trial_type": "mouselab-mdp", "trial_index": 29, "time_elapsed": 2857519, "internal_node_id": "0.0-6.0-1.0-14.0"}}, {"uniqueid": "w86964320:a65303087", "current_trial": 30, "dateTime": 1693583020852, "trialdata": {"revealed_states": [], "clicked_states": ["18", "16", "20"], "num_clicks_accrued": [0, 0, 0, 0, 0, 0, 0, 0, 0, 0, 0, 0, 0], "stateRewards": ["", 2, 3, 6, -12, -29, 12, 87, 4, 35, -30, 67, 2, 3, -5, -9, 44, 69, -8, 1, 45, -8, 28, -2, -1, -8, 11, -12, -5, 81, 9, 87, 82, 88], "withholdReward": false, "trial_id": "mdp_trial_16", "block": "test", "trialIndex": 19, "score": 41.8, "costs": -4.199999999999999, "simulationMode": [null, null, null, null, null], "rewards": [2, 3, -5, 1, 45], "path": ["0", "0", "12", "13", "14", "19", "20"], "rt": [10039, 296, 22, 1254, 327], "actions": ["right", "right", "right", "down", "right"], "actionTimes": [12595, 13401, 13944, 15722, 16561], "queries": {"click": {"state": {"target": ["18", "16", "20"], "time": [4609, 6754, 9267]}, "edge": {"target": [], "time": []}}, "mouseover": {"state": {"target": ["18", "16", "16", "20"], "time": [3651, 5604, 5966, 8874]}, "edge": {"target": [], "time": []}}, "mouseout": {"state": {"target": ["9", "8", "10", "18", "16", "16"], "time": [1020, 1052, 1119, 5516, 5654, 8255]}, "edge": {"target": [], "time": []}}}, "displayed_time": "17.08", "trialTime": 19201, "trial_type": "mouselab-mdp", "trial_index": 30, "time_elapsed": 2877270, "internal_node_id": "0.0-6.0-1.0-15.0"}}, {"uniqueid": "w86964320:a65303087", "current_trial": 31, "dateTime": 1693583044721, "trialdata": {"revealed_states": [], "clicked_states": ["28", "27", "29", "32", "31", "33"], "num_clicks_accrued": [0, 0, 0, 0, 0, 0, 0, 0, 0, 0, 0, 0, 0], "stateRewards": ["", 1, -2, -2, 10, -31, -77, 35, 9, -47, 8, 48, -2, 1, -4, -3, -26, -50, 43, -11, 76, -38, 17, 1, -1, 6, 10, 15, -9, 12, -8, 85, 11, -55], "withholdReward": false, "trial_id": "mdp_trial_17", "block": "test", "trialIndex": 20, "score": 74.6, "costs": -8.4, "simulationMode": [null, null, null, null, null], "rewards": [1, -1, 6, -8, 85], "path": ["0", "0", "23", "24", "25", "30", "31"], "rt": [14136, 334, 290, 420, 278], "actions": ["left", "left", "left", "down", "right"], "actionTimes": [16971, 17851, 18698, 19667, 20484], "queries": {"click": {"state": {"target": ["28", "27", "29", "32", "31", "33"], "time": [4978, 7455, 9462, 11232, 12957, 14600]}, "edge": {"target": [], "time": []}}, "mouseover": {"state": {"target": ["23", "28", "27", "29", "33", "32", "31", "30", "33"], "time": [4121, 4550, 5864, 8749, 10331, 10514, 12260, 13692, 14124]}, "edge": {"target": [], "time": []}}, "mouseout": {"state": {"target": ["20", "19", "22", "0", "23", "28", "27", "29", "33", "32", "31", "30"], "time": [1159, 1209, 1324, 4088, 4376, 5583, 8519, 10201, 10398, 11914, 13593, 13958]}, "edge": {"target": [], "time": []}}}, "displayed_time": "21.05", "trialTime": 23293, "trial_type": "mouselab-mdp", "trial_index": 31, "time_elapsed": 2901140, "internal_node_id": "0.0-6.0-1.0-16.0"}}, {"uniqueid": "w86964320:a65303087", "current_trial": 32, "dateTime": 1693583066244, "trialdata": {"revealed_states": [], "clicked_states": ["10", "11", "9", "5", "6"], "num_clicks_accrued": [0, 0, 0, 0, 0, 0, 0, 0, 0, 0, 0, 0, 0], "stateRewards": ["", 1, -1, -7, -7, -22, 15, -13, 13, 26, -32, 38, -1, 1, -7, -4, 16, -62, 86, 12, -54, 56, 64, -2, -1, 6, 14, -57, 37, 62, -6, -25, 50, -70], "withholdReward": false, "trial_id": "mdp_trial_18", "block": "test", "trialIndex": 21, "score": 37, "costs": -7, "simulationMode": [null, null, null, null, null], "rewards": [1, -1, -7, 13, 38], "path": ["0", "0", "1", "2", "3", "8", "11"], "rt": [13437, 115, 461, 556, 63], "actions": ["up", "up", "up", "left", "left"], "actionTimes": [15434, 16062, 17045, 18116, 18722], "queries": {"click": {"state": {"target": ["10", "11", "9", "5", "6"], "time": [4434, 6130, 7884, 9740, 11773]}, "edge": {"target": [], "time": []}}, "mouseover": {"state": {"target": ["1", "7", "2", "10", "11", "9", "5", "6"], "time": [2878, 3161, 3456, 4060, 5279, 7394, 9284, 10848]}, "edge": {"target": [], "time": []}}, "mouseout": {"state": {"target": ["33", "25", "1", "7", "2", "10", "11", "9", "5", "6", "6"], "time": [766, 849, 2947, 3399, 3504, 5222, 6996, 8734, 10643, 11939, 14360]}, "edge": {"target": [], "time": []}}}, "displayed_time": "19.24", "trialTime": 20873, "trial_type": "mouselab-mdp", "trial_index": 32, "time_elapsed": 2922661, "internal_node_id": "0.0-6.0-1.0-17.0"}}, {"uniqueid": "w86964320:a65303087", "current_trial": 33, "dateTime": 1693583086579, "trialdata": {"revealed_states": [], "clicked_states": ["29", "27", "33"], "num_clicks_accrued": [0, 0, 0, 0, 0, 0, 0, 0, 0, 0, 0, 0, 0], "stateRewards": ["", -2, 4, 3, 5, -61, 4, 30, 1, -47, 83, 10, 1, 4, 7, -14, 19, -74, -83, 6, -2, -2, -65, -1, -2, 4, -11, 12, -1, -68, 11, -38, -28, 66], "withholdReward": false, "trial_id": "mdp_trial_19", "block": "test", "trialIndex": 22, "score": 73.8, "costs": -4.199999999999999, "simulationMode": [null, null, null, null, null], "rewards": [-1, -2, 4, 11, 66], "path": ["0", "0", "23", "24", "25", "30", "33"], "rt": [11748, 132, 331, 231, 540], "actions": ["left", "left", "left", "down", "left"], "actionTimes": [13658, 14322, 15190, 15951, 17018], "queries": {"click": {"state": {"target": ["29", "27", "33"], "time": [4491, 6899, 9650]}, "edge": {"target": [], "time": []}}, "mouseover": {"state": {"target": ["28", "26", "29", "27", "26", "33", "30"], "time": [3255, 3687, 3969, 6435, 8665, 9077, 12507]}, "edge": {"target": [], "time": []}}, "mouseout": {"state": {"target": ["7", "0", "28", "26", "29", "27", "26", "33", "30"], "time": [557, 1039, 3625, 3820, 5389, 8595, 8761, 12475, 12572]}, "edge": {"target": [], "time": []}}}, "displayed_time": "17.55", "trialTime": 19639, "trial_type": "mouselab-mdp", "trial_index": 33, "time_elapsed": 2942998, "internal_node_id": "0.0-6.0-1.0-18.0"}}, {"uniqueid": "w86964320:a65303087", "current_trial": 34, "dateTime": 1693583107797, "trialdata": {"revealed_states": [], "clicked_states": ["17"], "num_clicks_accrued": [0, 0, 0, 0, 0, 0, 0, 0, 0, 0, 0, 0, 0], "stateRewards": ["", -2, -4, -2, -13, -15, 87, -19, -6, -80, 30, 12, 1, 1, -8, 2, 55, 56, 15, 11, -68, -7, 55, -2, 3, -3, -3, 48, 62, 4, 1, -3, 69, -33], "withholdReward": false, "trial_id": "mdp_trial_20", "block": "test", "trialIndex": 23, "score": 50.6, "costs": -1.4, "simulationMode": [null, null, null, null, null], "rewards": [1, 1, -8, 2, 56], "path": ["0", "0", "12", "13", "14", "15", "17"], "rt": [6647, 132, 329, 769, 123], "actions": ["right", "right", "right", "up", "right"], "actionTimes": [8850, 9501, 10360, 11682, 12333], "queries": {"click": {"state": {"target": ["17"], "time": [4304]}, "edge": {"target": [], "time": []}}, "mouseover": {"state": {"target": ["18", "17", "17"], "time": [2978, 3128, 3761]}, "edge": {"target": [], "time": []}}, "mouseout": {"state": {"target": ["0", "18", "17", "17", "17"], "time": [1163, 3036, 3279, 4433, 7853]}, "edge": {"target": [], "time": []}}}, "displayed_time": "16.20", "trialTime": 20191, "trial_type": "mouselab-mdp", "trial_index": 34, "time_elapsed": 2964215, "internal_node_id": "0.0-6.0-1.0-19.0"}}, {"uniqueid": "w86964320:a65303087", "current_trial": 35, "dateTime": 1693583164754, "trialdata": {"revealed_states": [], "clicked_states": [], "num_clicks_accrued": [0, 0, 0, 0, 0, 0, 0, 0, 0, 0, 0, 0, 0], "stateRewards": ["", -2, -3, 7, -13, 60, 9, 37, -6, 37, 20, 1, 2, -2, -8, 6, -80, -31, -10, -7, 70, -65, -44, -1, 1, 7, 6, -11, 73, -85, 16, -21, 47, 34], "withholdReward": false, "trial_id": "mdp_trial_21", "block": "test", "trialIndex": 24, "score": -12, "costs": 0, "simulationMode": [null, null, null, null, null], "rewards": [2, -2, -8, 6, -10], "path": ["0", "0", "12", "13", "14", "15", "18"], "rt": [9224, 575, 402, 468, 363], "actions": ["right", "right", "right", "up", "left"], "actionTimes": [43638, 45218, 46325, 47352, 48238], "queries": {"click": {"state": {"target": [], "time": []}, "edge": {"target": [], "time": []}}, "mouseover": {"state": {"target": ["0", "12", "18", "17"], "time": [34822, 36770, 37354, 42433]}, "edge": {"target": [], "time": []}}, "mouseout": {"state": {"target": ["14", "19", "0", "0", "12", "18", "17"], "time": [674, 741, 34523, 36483, 37223, 42329, 42555]}, "edge": {"target": [], "time": []}}}, "displayed_time": "48.76", "trialTime": 56323, "trial_type": "mouselab-mdp", "trial_index": 35, "time_elapsed": 3021172, "internal_node_id": "0.0-6.0-1.0-20.0"}}, {"uniqueid": "w86964320:a65303087", "current_trial": 36, "dateTime": 1693583188999, "trialdata": {"revealed_states": [], "clicked_states": ["31", "33", "29", "32"], "num_clicks_accrued": [0, 0, 0, 0, 0, 0, 0, 0, 0, 0, 0, 0, 0], "stateRewards": ["", -2, -1, -5, 10, -36, -70, 68, -9, 86, 71, -10, 2, -4, 7, -7, 66, 44, -66, -13, -69, 43, 15, -2, 2, 6, -13, 62, 57, 50, -10, -69, 42, -72], "withholdReward": false, "trial_id": "mdp_trial_22", "block": "test", "trialIndex": 25, "score": 37.4, "costs": -5.6, "simulationMode": [null, null, null, null, null], "rewards": [-2, 2, 6, -13, 50], "path": ["0", "0", "23", "24", "25", "26", "29"], "rt": [12060, 511, 303, 817, 657], "actions": ["left", "left", "left", "up", "left"], "actionTimes": [16057, 17478, 18322, 19667, 20863], "queries": {"click": {"state": {"target": ["31", "33", "29", "32"], "time": [5611, 8516, 11441, 13710]}, "edge": {"target": [], "time": []}}, "mouseover": {"state": {"target": ["0", "23", "31", "32", "33", "32", "30", "25", "29", "25", "30", "32"], "time": [4783, 4864, 5193, 6733, 7959, 9442, 10384, 10552, 10951, 12519, 12573, 13020]}, "edge": {"target": [], "time": []}}, "mouseout": {"state": {"target": ["15", "18", "0", "23", "31", "32", "33", "33", "32", "30", "25", "29", "25", "30", "32"], "time": [616, 653, 4814, 4912, 6265, 7620, 8704, 9058, 10303, 10453, 10718, 12466, 12548, 12641, 14723]}, "edge": {"target": [], "time": []}}}, "displayed_time": "21.44", "trialTime": 23389, "trial_type": "mouselab-mdp", "trial_index": 36, "time_elapsed": 3045416, "internal_node_id": "0.0-6.0-1.0-21.0"}}, {"uniqueid": "w86964320:a65303087", "current_trial": 37, "dateTime": 1693583210491, "trialdata": {"revealed_states": [], "clicked_states": ["18", "17", "16"], "num_clicks_accrued": [0, 0, 0, 0, 0, 0, 0, 0, 0, 0, 0, 0, 0], "stateRewards": ["", -1, -1, 7, -15, -43, -21, -84, -9, -45, -66, 2, 1, -2, 2, 8, -27, 44, -52, -5, -84, 11, 53, 1, 4, -4, 16, 83, -82, -15, -16, 68, -43, 81], "withholdReward": false, "trial_id": "mdp_trial_23", "block": "test", "trialIndex": 26, "score": 48.8, "costs": -4.199999999999999, "simulationMode": [null, null, null, null, null], "rewards": [1, -2, 2, 8, 44], "path": ["0", "0", "12", "13", "14", "15", "17"], "rt": [8946, 188, 221, 470, 133], "actions": ["right", "right", "right", "up", "right"], "actionTimes": [13859, 14624, 15391, 16377, 17088], "queries": {"click": {"state": {"target": ["18", "17", "16"], "time": [6500, 8116, 11124]}, "edge": {"target": [], "time": []}}, "mouseover": {"state": {"target": ["18", "15", "17", "16"], "time": [5948, 7289, 7598, 8781]}, "edge": {"target": [], "time": []}}, "mouseout": {"state": {"target": ["0", "18", "15", "17", "16"], "time": [5715, 7264, 7427, 8249, 12699]}, "edge": {"target": [], "time": []}}}, "displayed_time": "18.91", "trialTime": 20429, "trial_type": "mouselab-mdp", "trial_index": 37, "time_elapsed": 3066909, "internal_node_id": "0.0-6.0-1.0-22.0"}}, {"uniqueid": "w86964320:a65303087", "current_trial": 38, "dateTime": 1693583235972, "trialdata": {"revealed_states": [], "clicked_states": ["7", "5", "6", "9", "11", "10"], "num_clicks_accrued": [0, 0, 0, 0, 0, 0, 0, 0, 0, 0, 0, 0, 0], "stateRewards": ["", 1, 1, -7, -9, -44, 24, -83, -15, 44, -24, 72, -2, -3, 4, -5, 57, 55, 29, -11, 22, 12, -25, -1, 2, 7, 12, 33, -8, 47, -4, 8, 50, -4], "withholdReward": false, "trial_id": "mdp_trial_24", "block": "test", "trialIndex": 27, "score": 43.6, "costs": -8.4, "simulationMode": [null, null, null, null, null], "rewards": [1, 1, -7, -15, 72], "path": ["0", "0", "1", "2", "3", "8", "11"], "rt": [14362, 242, 178, 848, 80], "actions": ["up", "up", "up", "left", "left"], "actionTimes": [17181, 17955, 18677, 20050, 20675], "queries": {"click": {"state": {"target": ["7", "5", "6", "9", "11", "10"], "time": [4606, 6455, 8040, 10843, 12781, 14724]}, "edge": {"target": [], "time": []}}, "mouseover": {"state": {"target": ["1", "7", "4", "5", "6", "9", "11", "10", "2"], "time": [3602, 3999, 5826, 6007, 7567, 10012, 11845, 13710, 15969]}, "edge": {"target": [], "time": []}}, "mouseout": {"state": {"target": ["18", "12", "0", "1", "7", "4", "5", "6", "5", "9", "11", "10", "2"], "time": [1604, 1721, 2019, 3637, 5768, 5901, 7125, 8200, 9365, 11506, 13381, 15958, 16007]}, "edge": {"target": [], "time": []}}}, "displayed_time": "21.19", "trialTime": 24307, "trial_type": "mouselab-mdp", "trial_index": 38, "time_elapsed": 3092389, "internal_node_id": "0.0-6.0-1.0-23.0"}}, {"uniqueid": "w86964320:a65303087", "current_trial": 39, "dateTime": 1693583259604, "trialdata": {"revealed_states": [], "clicked_states": ["28", "27", "29", "33", "32", "31"], "num_clicks_accrued": [0, 0, 0, 0, 0, 0, 0, 0, 0, 0, 0, 0, 0], "stateRewards": ["", -2, 3, 8, -9, 59, 41, -50, -1, 82, 66, 33, 2, -2, 7, 8, 1, -38, 12, -16, 24, -37, 67, 1, 4, -2, 5, 35, -83, 28, 8, -27, 69, -64], "withholdReward": false, "trial_id": "mdp_trial_25", "block": "test", "trialIndex": 28, "score": 71.6, "costs": -8.4, "simulationMode": [null, null, null, null, null], "rewards": [1, 4, -2, 8, 69], "path": ["0", "0", "23", "24", "25", "30", "32"], "rt": [14752, 234, 277, 352, 203], "actions": ["left", "left", "left", "down", "down"], "actionTimes": [16893, 17643, 18433, 19324, 20042], "queries": {"click": {"state": {"target": ["28", "27", "29", "33", "32", "31"], "time": [3989, 5990, 8196, 10533, 12132, 14446]}, "edge": {"target": [], "time": []}}, "mouseover": {"state": {"target": ["28", "26", "27", "29", "33", "32", "31", "23", "31"], "time": [3425, 5106, 5491, 7669, 9514, 11278, 13335, 13481, 13876]}, "edge": {"target": [], "time": []}}, "mouseout": {"state": {"target": ["16", "18", "28", "26", "27", "29", "33", "32", "31", "23", "31"], "time": [763, 813, 5074, 5126, 7304, 9205, 11155, 13256, 13384, 13727, 14581]}, "edge": {"target": [], "time": []}}}, "displayed_time": "20.56", "trialTime": 22740, "trial_type": "mouselab-mdp", "trial_index": 39, "time_elapsed": 3116023, "internal_node_id": "0.0-6.0-1.0-24.0"}}, {"uniqueid": "w86964320:a65303087", "current_trial": 40, "dateTime": 1693583279454, "trialdata": {"revealed_states": [], "clicked_states": ["7", "10", "9", "18"], "num_clicks_accrued": [0, 0, 0, 0, 0, 0, 0, 0, 0, 0, 0, 0, 0], "stateRewards": ["", 2, 3, 8, 14, 69, -27, 17, 2, -71, -65, -10, 2, -3, 7, 8, 65, -10, 65, -12, 73, -12, 13, -2, -2, 6, 10, -79, -69, -18, 10, -85, 67, 74], "withholdReward": false, "trial_id": "mdp_trial_26", "block": "test", "trialIndex": 29, "score": 73.4, "costs": -5.6, "simulationMode": [null, null, null, null, null], "rewards": [2, -3, 7, 8, 65], "path": ["0", "0", "12", "13", "14", "15", "18"], "rt": [10981, 178, 81, 500, 525], "actions": ["right", "right", "right", "up", "left"], "actionTimes": [13520, 14212, 14852, 15865, 16922], "queries": {"click": {"state": {"target": ["7", "10", "9", "18"], "time": [4065, 5711, 7348, 10100]}, "edge": {"target": [], "time": []}}, "mouseover": {"state": {"target": ["7", "2", "10", "8", "9", "5", "6", "18", "15", "17"], "time": [3483, 4966, 5110, 6590, 6880, 8289, 9173, 9653, 11405, 11613]}, "edge": {"target": [], "time": []}}, "mouseout": {"state": {"target": ["15", "18", "7", "2", "10", "8", "9", "5", "6", "18", "15", "17"], "time": [1100, 1132, 4941, 5038, 6514, 6667, 7844, 9139, 9192, 11372, 11474, 12815]}, "edge": {"target": [], "time": []}}}, "displayed_time": "17.45", "trialTime": 19152, "trial_type": "mouselab-mdp", "trial_index": 40, "time_elapsed": 3135874, "internal_node_id": "0.0-6.0-1.0-25.0"}}, {"uniqueid": "w86964320:a65303087", "current_trial": 41, "dateTime": 1693583299160, "trialdata": {"revealed_states": [], "clicked_states": [], "num_clicks_accrued": [0, 0, 0, 0, 0, 0, 0, 0, 0, 0, 0, 0, 0], "stateRewards": ["", 1, 4, 5, -5, 58, -80, 75, 6, 25, -39, 46, 2, -2, 4, 2, 59, 31, -22, -12, -61, 15, 72, 1, -2, -7, 8, 77, 76, -23, -7, 71, -15, -3], "withholdReward": false, "trial_id": "mdp_trial_27", "block": "test", "trialIndex": 30, "score": -69, "costs": 0, "simulationMode": [null, null, null, null, null], "rewards": [2, -2, 4, -12, -61], "path": ["0", "0", "12", "13", "14", "19", "20"], "rt": [5046, 246, 284, 369, 226], "actions": ["right", "right", "right", "down", "right"], "actionTimes": [7176, 7947, 8741, 9641, 10381], "queries": {"click": {"state": {"target": [], "time": []}, "edge": {"target": [], "time": []}}, "mouseover": {"state": {"target": ["12", "13", "20", "20"], "time": [3345, 3386, 3695, 4192]}, "edge": {"target": [], "time": []}}, "mouseout": {"state": {"target": ["12", "13", "20", "20"], "time": [3367, 3412, 3751, 6471]}, "edge": {"target": [], "time": []}}}, "displayed_time": "16.13", "trialTime": 18986, "trial_type": "mouselab-mdp", "trial_index": 41, "time_elapsed": 3155580, "internal_node_id": "0.0-6.0-1.0-26.0"}}, {"uniqueid": "w86964320:a65303087", "current_trial": 42, "dateTime": 1693583318919, "trialdata": {"revealed_states": [], "clicked_states": ["31"], "num_clicks_accrued": [0, 0, 0, 0, 0, 0, 0, 0, 0, 0, 0, 0, 0], "stateRewards": ["", 1, 2, -8, 9, 18, -83, -11, 6, -64, -48, 17, -2, -2, -5, -3, -24, -3, -86, -2, 48, -41, -22, -2, 4, 7, 8, 81, 13, -48, 10, 61, 19, 57], "withholdReward": false, "trial_id": "mdp_trial_28", "block": "test", "trialIndex": 31, "score": 78.6, "costs": -1.4, "simulationMode": [null, null, null, null, null], "rewards": [-2, 4, 7, 10, 61], "path": ["0", "0", "23", "24", "25", "30", "31"], "rt": [5169, 139, 254, 180, 165], "actions": ["left", "left", "left", "down", "right"], "actionTimes": [7628, 8294, 9060, 9752, 10437], "queries": {"click": {"state": {"target": ["31"], "time": [3973]}, "edge": {"target": [], "time": []}}, "mouseover": {"state": {"target": ["23", "31", "32"], "time": [3145, 3328, 4630]}, "edge": {"target": [], "time": []}}, "mouseout": {"state": {"target": ["17", "15", "13", "12", "0", "23", "31", "32", "31", "19", "20"], "time": [997, 1146, 1263, 1346, 1745, 3193, 4539, 13411, 14023, 17774, 17837]}, "edge": {"target": [], "time": []}}}, "displayed_time": "16.46", "trialTime": 19076, "trial_type": "mouselab-mdp", "trial_index": 42, "time_elapsed": 3175338, "internal_node_id": "0.0-6.0-1.0-27.0"}}, {"uniqueid": "w86964320:a65303087", "current_trial": 43, "dateTime": 1693583337814, "trialdata": {"revealed_states": [], "clicked_states": ["11", "9"], "num_clicks_accrued": [0, 0, 0, 0, 0, 0, 0, 0, 0, 0, 0, 0, 0], "stateRewards": ["", 1, 2, 8, -2, 23, -69, -18, -16, 54, -21, 71, -1, -4, 7, 11, 43, -6, 88, 6, -55, 72, 43, 1, -3, -2, -1, 68, -31, -54, 4, -8, 25, -2], "withholdReward": false, "trial_id": "mdp_trial_29", "block": "test", "trialIndex": 32, "score": 63.2, "costs": -2.8, "simulationMode": [null, null, null, null, null], "rewards": [1, 2, 8, -16, 71], "path": ["0", "0", "1", "2", "3", "8", "11"], "rt": [6918, 452, 230, 468, 239], "actions": ["up", "up", "up", "left", "left"], "actionTimes": [9019, 10009, 10752, 11738, 12489], "queries": {"click": {"state": {"target": ["11", "9"], "time": [4403, 6456]}, "edge": {"target": [], "time": []}}, "mouseover": {"state": {"target": ["11", "9"], "time": [3811, 5855]}, "edge": {"target": [], "time": []}}, "mouseout": {"state": {"target": ["14", "13", "12", "11", "9", "3", "8", "8", "3", "6"], "time": [630, 1012, 1097, 5578, 7424, 15191, 15640, 17171, 17191, 17270]}, "edge": {"target": [], "time": []}}}, "displayed_time": "16.10", "trialTime": 17936, "trial_type": "mouselab-mdp", "trial_index": 43, "time_elapsed": 3194234, "internal_node_id": "0.0-6.0-1.0-28.0"}}, {"uniqueid": "w86964320:a65303087", "current_trial": 44, "dateTime": 1693583358287, "trialdata": {"revealed_states": [], "clicked_states": ["18"], "num_clicks_accrued": [0, 0, 0, 0, 0, 0, 0, 0, 0, 0, 0, 0, 0], "stateRewards": ["", -2, 1, 6, -2, -10, -78, -69, 14, -15, 7, -1, 1, -1, -2, 13, 77, 32, 87, 5, -74, 30, -26, 1, 3, 4, 12, 39, 54, -43, 2, 10, 23, 13], "withholdReward": false, "trial_id": "mdp_trial_30", "block": "test", "trialIndex": 33, "score": 96.6, "costs": -1.4, "simulationMode": [null, null, null, null, null], "rewards": [1, -1, -2, 13, 87], "path": ["0", "0", "12", "13", "14", "15", "18"], "rt": [5217, 210, 336, 854, 674], "actions": ["right", "right", "right", "up", "left"], "actionTimes": [7598, 8335, 9193, 10564, 11777], "queries": {"click": {"state": {"target": ["18"], "time": [4076]}, "edge": {"target": [], "time": []}}, "mouseover": {"state": {"target": ["18", "16"], "time": [3511, 5276]}, "edge": {"target": [], "time": []}}, "mouseout": {"state": {"target": ["7", "1", "23", "23", "18", "16", "15", "18", "15", "18", "18", "16"], "time": [898, 929, 1013, 1429, 5112, 6506, 13780, 14232, 16888, 17021, 17438, 18706]}, "edge": {"target": [], "time": []}}}, "displayed_time": "16.38", "trialTime": 19587, "trial_type": "mouselab-mdp", "trial_index": 44, "time_elapsed": 3214705, "internal_node_id": "0.0-6.0-1.0-29.0"}}, {"uniqueid": "w86964320:a65303087", "current_trial": 45, "dateTime": 1693583381578, "trialdata": {"revealed_states": [], "clicked_states": ["17", "20", "22", "21"], "num_clicks_accrued": [0, 0, 0, 0, 0, 0, 0, 0, 0, 0, 0, 0, 0], "stateRewards": ["", 2, -2, -3, 10, -4, -1, -11, -8, -9, -36, -78, 2, 1, 7, -7, 44, -1, -31, -1, 26, 47, 83, 2, -4, -4, -6, -52, -76, -81, -1, -59, 45, 67], "withholdReward": false, "trial_id": "mdp_trial_31", "block": "test", "trialIndex": 34, "score": 86.4, "costs": -5.6, "simulationMode": [null, null, null, null, null], "rewards": [2, 1, 7, -1, 83], "path": ["0", "0", "12", "13", "14", "19", "22"], "rt": [10681, 164, 505, 388, 427], "actions": ["right", "right", "right", "down", "left"], "actionTimes": [15739, 16421, 17466, 18377, 19326], "queries": {"click": {"state": {"target": ["17", "20", "22", "21"], "time": [6554, 8680, 11096, 13020]}, "edge": {"target": [], "time": []}}, "mouseover": {"state": {"target": ["18", "15", "17", "19", "20", "19", "22", "21"], "time": [5749, 5818, 5998, 7765, 8094, 9485, 9913, 12265]}, "edge": {"target": [], "time": []}}, "mouseout": {"state": {"target": ["16", "18", "15", "17", "19", "20", "19", "22", "21"], "time": [3021, 5783, 5899, 7500, 7998, 9425, 9645, 12147, 13164]}, "edge": {"target": [], "time": []}}}, "displayed_time": "19.85", "trialTime": 22387, "trial_type": "mouselab-mdp", "trial_index": 45, "time_elapsed": 3237997, "internal_node_id": "0.0-6.0-1.0-30.0"}}, {"uniqueid": "w86964320:a65303087", "current_trial": 46, "dateTime": 1693583406382, "trialdata": {"revealed_states": [], "clicked_states": ["31", "32", "33", "28", "29", "27"], "num_clicks_accrued": [0, 0, 0, 0, 0, 0, 0, 0, 0, 0, 0, 0, 0], "stateRewards": ["", -1, -3, 1, -4, -48, -63, -49, -2, -84, -19, 65, 2, -2, -2, -12, -4, 59, 9, 6, 75, 69, -13, -1, -3, -3, -2, -37, -68, -36, 13, 32, 18, -14], "withholdReward": false, "trial_id": "mdp_trial_32", "block": "test", "trialIndex": 35, "score": 29.6, "costs": -8.4, "simulationMode": [null, null, null, null, null], "rewards": [-1, -3, -3, 13, 32], "path": ["0", "0", "23", "24", "25", "30", "31"], "rt": [16527, 95, 54, 404, 454], "actions": ["left", "left", "left", "down", "right"], "actionTimes": [18666, 19280, 19856, 20801, 21779], "queries": {"click": {"state": {"target": ["31", "32", "33", "28", "29", "27"], "time": [3874, 5782, 9112, 11013, 13825, 15474]}, "edge": {"target": [], "time": []}}, "mouseover": {"state": {"target": ["23", "31", "32", "33", "25", "28", "26", "29", "27", "2", "7"], "time": [3166, 3334, 4536, 6492, 9781, 9888, 12984, 13383, 14520, 16257, 16282]}, "edge": {"target": [], "time": []}}, "mouseout": {"state": {"target": ["14", "13", "12", "23", "31", "31", "32", "33", "25", "28", "26", "29", "27", "2", "7"], "time": [588, 1019, 1136, 3189, 4001, 4465, 6397, 9727, 9820, 12904, 13101, 14386, 15613, 16276, 16300]}, "edge": {"target": [], "time": []}}}, "displayed_time": "22.30", "trialTime": 24095, "trial_type": "mouselab-mdp", "trial_index": 46, "time_elapsed": 3262802, "internal_node_id": "0.0-6.0-1.0-31.0"}}, {"uniqueid": "w86964320:a65303087", "current_trial": 47, "dateTime": 1693583484876, "trialdata": {"revealed_states": [], "clicked_states": ["7", "10", "9", "5", "11", "6", "18", "22", "28", "29", "27"], "num_clicks_accrued": [0, 0, 0, 0, 0, 0, 0, 0, 0, 0, 0, 0, 0], "stateRewards": ["", -1, -4, -3, 1, -45, -67, -24, 14, 32, 22, 22, -1, 1, -5, -7, 72, 84, -79, -5, 19, -40, -2, -1, -2, 8, -3, 84, -25, -28, 11, 64, -66, 77], "withholdReward": false, "trial_id": "mdp_trial_33", "block": "test", "trialIndex": 36, "score": 70.6, "costs": -15.400000000000002, "simulationMode": [null, null, null, null, null], "rewards": [-1, -2, 8, -3, 84], "path": ["0", "0", "23", "24", "25", "26", "27"], "rt": [30327, 123, 76, 428, 157], "actions": ["left", "left", "left", "up", "up"], "actionTimes": [32475, 33130, 33730, 34677, 35354], "queries": {"click": {"state": {"target": ["7", "10", "9", "5", "11", "6", "18", "22", "28", "29", "27"], "time": [4006, 6441, 8168, 9706, 12868, 14482, 17388, 20233, 23686, 26530, 28572]}, "edge": {"target": [], "time": []}}, "mouseover": {"state": {"target": ["18", "18", "7", "2", "10", "8", "9", "5", "6", "4", "3", "8", "11", "8", "3", "4", "6", "18", "13", "13", "22", "23", "24", "28", "26", "29", "26", "27", "26", "25", "30", "33", "23"], "time": [2860, 3230, 3460, 5479, 5839, 7243, 7550, 8995, 10603, 11734, 11770, 11831, 12411, 13402, 13447, 13498, 13684, 16844, 18548, 19184, 19635, 22646, 22698, 23178, 25707, 26007, 27146, 27518, 29433, 29506, 30008, 30449, 30883]}, "edge": {"target": [], "time": []}}, "mouseout": {"state": {"target": ["0", "18", "18", "7", "2", "10", "8", "9", "5", "5", "6", "4", "3", "8", "11", "8", "3", "4", "6", "6", "18", "13", "13", "22", "23", "24", "28", "26", "29", "26", "27", "26", "25", "30", "33", "23"], "time": [2737, 2926, 3342, 5430, 5581, 7208, 7292, 8285, 9835, 10360, 11712, 11754, 11798, 12104, 13382, 13423, 13471, 13547, 14618, 15876, 18504, 18679, 19551, 22233, 22663, 22762, 25658, 25824, 27045, 27164, 29393, 29471, 29611, 30149, 30816, 30902]}, "edge": {"target": [], "time": []}}}, "displayed_time": "35.91", "trialTime": 77406, "trial_type": "mouselab-mdp", "trial_index": 47, "time_elapsed": 3341296, "internal_node_id": "0.0-6.0-1.0-32.0"}}, {"uniqueid": "w86964320:a65303087", "current_trial": 48, "dateTime": 1693583504488, "trialdata": {"revealed_states": [], "clicked_states": ["28", "27"], "num_clicks_accrued": [0, 0, 0, 0, 0, 0, 0, 0, 0, 0, 0, 0, 0], "stateRewards": ["", 1, 2, 7, 13, 88, -71, 27, 3, 60, 5, -53, -2, 2, -6, -1, -30, 79, 47, -4, -14, 46, 68, 1, 1, 8, 10, -14, 86, 48, -11, -67, -44, 5], "withholdReward": false, "trial_id": "mdp_trial_34", "block": "test", "trialIndex": 37, "score": 103.2, "costs": -2.8, "simulationMode": [null, null, null, null, null], "rewards": [1, 1, 8, 10, 86], "path": ["0", "0", "23", "24", "25", "26", "28"], "rt": [6825, 220, 262, 597, 487], "actions": ["left", "left", "left", "up", "right"], "actionTimes": [9276, 10036, 10814, 11927, 12935], "queries": {"click": {"state": {"target": ["28", "27"], "time": [4710, 6408]}, "edge": {"target": [], "time": []}}, "mouseover": {"state": {"target": ["23", "28", "27", "10", "2"], "time": [3955, 4269, 5707, 7201, 7223]}, "edge": {"target": [], "time": []}}, "mouseout": {"state": {"target": ["12", "23", "28", "27", "10", "2", "28", "26"], "time": [811, 3973, 5558, 6550, 7219, 7243, 16003, 16367]}, "edge": {"target": [], "time": []}}}, "displayed_time": "16.45", "trialTime": 18818, "trial_type": "mouselab-mdp", "trial_index": 48, "time_elapsed": 3360907, "internal_node_id": "0.0-6.0-1.0-33.0"}}, {"uniqueid": "w86964320:a65303087", "current_trial": 49, "dateTime": 1693583527182, "trialdata": {"revealed_states": [], "clicked_states": ["10", "11", "29", "27"], "num_clicks_accrued": [0, 0, 0, 0, 0, 0, 0, 0, 0, 0, 0, 0, 0], "stateRewards": ["", 1, -2, -3, 14, -42, -87, -37, -11, -50, 33, -44, -2, 4, -7, 13, 48, -75, -66, 12, 23, -2, 82, 1, -4, 3, 12, 51, -15, -26, -11, -52, -29, 82], "withholdReward": false, "trial_id": "mdp_trial_35", "block": "test", "trialIndex": 38, "score": 57.4, "costs": -5.6, "simulationMode": [null, null, null, null, null], "rewards": [1, -4, 3, 12, 51], "path": ["0", "0", "23", "24", "25", "26", "27"], "rt": [13363, 85, 85, 809, 50], "actions": ["left", "left", "left", "up", "up"], "actionTimes": [16372, 16979, 17574, 18903, 19469], "queries": {"click": {"state": {"target": ["10", "11", "29", "27"], "time": [4559, 7573, 10255, 12450]}, "edge": {"target": [], "time": []}}, "mouseover": {"state": {"target": ["1", "10", "11", "29", "27", "26", "33", "30", "24", "23"], "time": [3740, 4105, 6534, 9765, 11235, 13265, 13492, 15006, 15049, 15083]}, "edge": {"target": [], "time": []}}, "mouseout": {"state": {"target": ["28", "0", "0", "1", "10", "10", "11", "29", "27", "26", "33", "30", "24", "23"], "time": [912, 1193, 1725, 3871, 5658, 6368, 8616, 11055, 13244, 13290, 14989, 15028, 15080, 15101]}, "edge": {"target": [], "time": []}}}, "displayed_time": "20.02", "trialTime": 21915, "trial_type": "mouselab-mdp", "trial_index": 49, "time_elapsed": 3383601, "internal_node_id": "0.0-6.0-1.0-34.0"}}, {"uniqueid": "w86964320:a65303087", "current_trial": 50, "dateTime": 1693583595126, "trialdata": {"revealed_states": [], "clicked_states": ["18", "17", "22", "20", "21", "16", "27", "33"], "num_clicks_accrued": [0, 0, 0, 0, 0, 0, 0, 0, 0, 0, 0, 0, 0], "stateRewards": ["", -2, -4, 6, 14, -34, 49, 36, -8, -3, 32, -4, 1, -2, 1, -8, -20, -71, -57, -7, -86, -62, -16, -2, -3, -5, 11, 23, -21, 53, 5, -5, 85, 73], "withholdReward": false, "trial_id": "mdp_trial_36", "block": "test", "trialIndex": 39, "score": 56.8, "costs": -11.200000000000001, "simulationMode": [null, null, null, null, null], "rewards": [-2, -3, -5, 5, 73], "path": ["0", "0", "23", "24", "25", "30", "33"], "rt": [21726, 1160, 323, 514, 197], "actions": ["left", "left", "left", "down", "left"], "actionTimes": [25429, 27104, 27948, 28987, 29702], "queries": {"click": {"state": {"target": ["18", "17", "22", "20", "21", "16", "27", "33"], "time": [5747, 7530, 9396, 12298, 13917, 16185, 18910, 21898]}, "edge": {"target": [], "time": []}}, "mouseover": {"state": {"target": ["18", "15", "17", "14", "22", "21", "20", "21", "13", "18", "16", "1", "28", "26", "27", "26", "33", "32", "32"], "time": [4938, 6470, 6744, 8442, 8653, 10146, 11861, 12988, 14917, 15343, 15509, 18035, 18117, 18206, 18470, 20716, 21379, 23062, 23675]}, "edge": {"target": [], "time": []}}, "mouseout": {"state": {"target": ["15", "12", "18", "15", "17", "17", "14", "22", "21", "20", "20", "21", "13", "18", "16", "1", "28", "26", "27", "26", "33", "32", "32"], "time": [1595, 2309, 6446, 6625, 7670, 8211, 8464, 9936, 11395, 12429, 12865, 14059, 14960, 15372, 17272, 18069, 18169, 18287, 20631, 21164, 22989, 23107, 24078]}, "edge": {"target": [], "time": []}}}, "displayed_time": "30.22", "trialTime": 67230, "trial_type": "mouselab-mdp", "trial_index": 50, "time_elapsed": 3451545, "internal_node_id": "0.0-6.0-1.0-35.0"}}, {"uniqueid": "w86964320:a65303087", "current_trial": 51, "dateTime": 1693583613425, "trialdata": {"revealed_states": [], "clicked_states": ["10", "11"], "num_clicks_accrued": [0, 0, 0, 0, 0, 0, 0, 0, 0, 0, 0, 0, 0], "stateRewards": ["", 2, -1, -1, -9, -81, -30, 55, -6, 78, 25, 62, 2, 4, -1, 9, -85, 1, -19, 1, -60, 12, -34, 1, 4, -1, -13, -24, -16, -83, -8, 16, 43, 9], "withholdReward": false, "trial_id": "mdp_trial_37", "block": "test", "trialIndex": 40, "score": 53.2, "costs": -2.8, "simulationMode": [null, null, null, null, null], "rewards": [2, -1, -1, -6, 62], "path": ["0", "0", "1", "2", "3", "8", "11"], "rt": [9816, 104, 129, 566, 7], "actions": ["up", "up", "up", "left", "left"], "actionTimes": [11586, 12203, 12844, 13930, 14455], "queries": {"click": {"state": {"target": ["10", "11"], "time": [3691, 6547]}, "edge": {"target": [], "time": []}}, "mouseover": {"state": {"target": ["10", "11", "27", "2", "15"], "time": [3143, 5921, 7561, 9033, 9117]}, "edge": {"target": [], "time": []}}, "mouseout": {"state": {"target": ["0", "10", "11", "11", "27", "2", "15"], "time": [992, 4491, 6689, 7372, 8901, 9074, 9148]}, "edge": {"target": [], "time": []}}}, "displayed_time": "15.77", "trialTime": 17468, "trial_type": "mouselab-mdp", "trial_index": 51, "time_elapsed": 3469844, "internal_node_id": "0.0-6.0-1.0-36.0"}}, {"uniqueid": "w86964320:a65303087", "current_trial": 52, "dateTime": 1693583635274, "trialdata": {"revealed_states": [], "clicked_states": ["7", "6", "5", "9", "11"], "num_clicks_accrued": [0, 0, 0, 0, 0, 0, 0, 0, 0, 0, 0, 0, 0], "stateRewards": ["", -1, 1, 8, -3, -24, 11, -65, -6, -77, 48, 44, -2, 1, -2, -7, -55, -35, 33, 8, -28, 19, -53, -1, -1, -5, -5, -70, 10, 44, 8, -58, -70, 51], "withholdReward": false, "trial_id": "mdp_trial_38", "block": "test", "trialIndex": 41, "score": 39, "costs": -7, "simulationMode": [null, null, null, null, null], "rewards": [-1, 1, 8, -6, 44], "path": ["0", "0", "1", "2", "3", "8", "11"], "rt": [14253, 38, 119, 543, 91], "actions": ["up", "up", "up", "left", "left"], "actionTimes": [16080, 16646, 17308, 18362, 18972], "queries": {"click": {"state": {"target": ["7", "6", "5", "9", "11"], "time": [3498, 5640, 7777, 9883, 12107]}, "edge": {"target": [], "time": []}}, "mouseover": {"state": {"target": ["2", "4", "7", "6", "5", "9", "11", "10", "3", "4"], "time": [2425, 2507, 3021, 4293, 6475, 8578, 11076, 13075, 15088, 15109]}, "edge": {"target": [], "time": []}}, "mouseout": {"state": {"target": ["0", "2", "4", "7", "6", "5", "9", "11", "10", "3", "4"], "time": [2373, 2449, 2920, 3633, 6236, 8430, 10900, 12743, 15069, 15105, 15125]}, "edge": {"target": [], "time": []}}}, "displayed_time": "19.48", "trialTime": 20925, "trial_type": "mouselab-mdp", "trial_index": 52, "time_elapsed": 3491693, "internal_node_id": "0.0-6.0-1.0-37.0"}}, {"uniqueid": "w86964320:a65303087", "current_trial": 53, "dateTime": 1693583664104, "trialdata": {"revealed_states": [], "clicked_states": ["18", "28", "27", "29", "32", "21", "20", "17"], "num_clicks_accrued": [0, 0, 0, 0, 0, 0, 0, 0, 0, 0, 0, 0, 0], "stateRewards": ["", 1, -3, -2, 14, 49, -40, -39, 2, 26, -61, 73, 1, -4, -8, 12, 79, 29, -65, -13, 55, -26, 27, -1, 3, 3, 9, -17, -60, -18, -8, 35, -88, 69], "withholdReward": false, "trial_id": "mdp_trial_39", "block": "test", "trialIndex": 42, "score": 19.799999999999997, "costs": -11.200000000000001, "simulationMode": [null, null, null, null, null], "rewards": [1, -4, -8, -13, 55], "path": ["0", "0", "12", "13", "14", "19", "20"], "rt": [20118, 115, 344, 564, 235], "actions": ["right", "right", "right", "down", "right"], "actionTimes": [22656, 23289, 24149, 25236, 25988], "queries": {"click": {"state": {"target": ["18", "28", "27", "29", "32", "21", "20", "17"], "time": [3994, 6052, 9163, 11390, 13611, 15768, 18099, 19913]}, "edge": {"target": [], "time": []}}, "mouseover": {"state": {"target": ["18", "1", "28", "27", "29", "25", "30", "32", "21", "20", "17"], "time": [3432, 4830, 5241, 6749, 9710, 12354, 12425, 12805, 14892, 16551, 18973]}, "edge": {"target": [], "time": []}}, "mouseout": {"state": {"target": ["7", "2", "0", "18", "1", "28", "27", "29", "25", "30", "32", "21", "20", "17"], "time": [803, 873, 3300, 4774, 4870, 6183, 9629, 12280, 12398, 12557, 13747, 16418, 18805, 20924]}, "edge": {"target": [], "time": []}}}, "displayed_time": "26.50", "trialTime": 28040, "trial_type": "mouselab-mdp", "trial_index": 53, "time_elapsed": 3520523, "internal_node_id": "0.0-6.0-1.0-38.0"}}, {"uniqueid": "w86964320:a65303087", "current_trial": 54, "dateTime": 1693583700286, "trialdata": {"revealed_states": [], "clicked_states": ["27", "29", "17", "32", "9", "5", "6", "11", "7", "10"], "num_clicks_accrued": [0, 0, 0, 0, 0, 0, 0, 0, 0, 0, 0, 0, 0], "stateRewards": ["", 1, -3, -1, 9, -34, -40, 22, -7, 45, 53, -11, 2, 4, 5, 15, 21, 37, -49, -3, 80, -28, -34, 1, -3, 1, 1, -40, -6, -5, -16, -85, -86, 59], "withholdReward": false, "trial_id": "mdp_trial_40", "block": "test", "trialIndex": 43, "score": 29, "costs": -14.000000000000002, "simulationMode": [null, null, null, null, null], "rewards": [1, -3, -1, -7, 53], "path": ["0", "0", "1", "2", "3", "8", "10"], "rt": [22531, 100, 165, 906, 619], "actions": ["up", "up", "up", "left", "down"], "actionTimes": [25869, 26517, 27215, 28662, 29811], "queries": {"click": {"state": {"target": ["27", "29", "17", "32", "9", "5", "6", "11", "7", "10"], "time": [4747, 6995, 9160, 10906, 12595, 14832, 16657, 18425, 20697, 22555]}, "edge": {"target": [], "time": []}}, "mouseover": {"state": {"target": ["23", "28", "27", "29", "17", "15", "12", "32", "10", "3", "9", "5", "6", "4", "3", "8", "11", "7", "2", "10", "1", "18"], "time": [3956, 4021, 4321, 6187, 8288, 9845, 9874, 10312, 11586, 11645, 12046, 13481, 15792, 17273, 17357, 17477, 17924, 19443, 21229, 21690, 23595, 24525]}, "edge": {"target": [], "time": []}}, "mouseout": {"state": {"target": ["17", "15", "18", "23", "28", "27", "29", "17", "15", "12", "32", "10", "3", "9", "5", "6", "4", "3", "8", "11", "7", "2", "10", "1"], "time": [1341, 1375, 1409, 3978, 4071, 5733, 7122, 9818, 9870, 9893, 11479, 11610, 11684, 13213, 15226, 16794, 17322, 17415, 17768, 19301, 21146, 21469, 23547, 23620]}, "edge": {"target": [], "time": []}}}, "displayed_time": "30.34", "trialTime": 35465, "trial_type": "mouselab-mdp", "trial_index": 54, "time_elapsed": 3556704, "internal_node_id": "0.0-6.0-1.0-39.0"}}, {"uniqueid": "w86964320:a65303087", "current_trial": 55, "dateTime": 1693583923622, "trialdata": {"rt": 223261, "response": {"Q0": "$-2 to $2", "Q1": "$-4 to $4", "Q2": "$-88 to $88", "Q3": "The cost for clicking on nodes varied between nodes.", "Q4": "Very motivated"}, "question_order": [0, 1, 2, 3, 4], "trial_id": "final_quiz_control", "trial_type": "survey-multi-choice", "trial_index": 55, "time_elapsed": 3780041, "internal_node_id": "0.0-6.0-2.0"}}, {"uniqueid": "w86964320:a65303087", "current_trial": 56, "dateTime": 1693584117569, "trialdata": {"rt": 193904, "response": {"Q0": "my strategy was to move very quick when the node inspector was on.", "Q1": "yes, instead of viewing everything i viewing the circles that are far from the start because they have more points. ", "Q2": "no"}, "trial_id": "self_report_control", "trial_type": "survey-text", "trial_index": 56, "time_elapsed": 3973988, "internal_node_id": "0.0-6.0-3.0"}}, {"uniqueid": "w86964320:a65303087", "current_trial": 57, "dateTime": 1693584165642, "trialdata": {"rt": 48055, "response": {"gender": "female", "age": "26", "colorblind": "0", "effort": "0"}, "trial_type": "survey-html-form", "trial_index": 57, "time_elapsed": 4022062, "internal_node_id": "0.0-6.0-4.0"}}, {"uniqueid": "w86964320:a65303087", "current_trial": 58, "dateTime": 1693584230970, "trialdata": {"rt": 65318, "response": {"Q0": "no ", "Q1": "no", "Q2": "no"}, "trial_type": "survey-text", "trial_index": 58, "time_elapsed": 4087390, "internal_node_id": "0.0-6.0-5.0"}}, {"uniqueid": "w86964320:a65303087", "current_trial": 59, "dateTime": 1693584325474, "trialdata": {"rt": 94486, "stimulus": "<h1>Completion Code Instructions (1/2)</h1>\n<br><br><br><br>\nYou have reached the end of the experiment! The completion code consists of two parts: (1) a code with 2 characters (2) a code with 6 characters. On this page, you will receive the second part of the code. The first part of the completion code will be on the next page.\n<br><br>\nThe second part of your completion code is: <b>EWEK22</b>\n<br><br>\nPlease note this down. Then, press 'Next' in order to find the first part of your completion code. Once the data has been saved, you will receive this code either in this window or in the original browser window where you started the experiment.\n <br><br>\n<h2 style='color: red;'>Note: this is <strong>NOT</strong> the full completion code. Copy this down and click 'Next' to get the full completion code on the next page.</h2>", "response": 0, "trial_type": "html-button-response", "trial_index": 59, "time_elapsed": 4181894, "internal_node_id": "0.0-6.0-6.0"}}, {"uniqueid": "w86964320:a65303087", "current_trial": 60, "dateTime": 1693584326480, "trialdata": {"success": true, "trial_type": "fullscreen", "trial_index": 60, "time_elapsed": 4182900, "internal_node_id": "0.0-7.0"}}], "questiondata": {"params": {"CODE": "C6DMOQA6", "MIN_TIME": 14, "inspectCost": 1, "startTime": "Fri Sep 01 2023 16:55:41 GMT+0200 (South Africa Standard Time)", "bonusRate": 0.002, "variance": "1_2_4_8_44", "branching": "31123"}, "final_score": 1860.2}, "eventdata": [{"eventtype": "initialized", "value": null, "timestamp": 1693580141172, "interval": 0}, {"eventtype": "window_resize", "value": [1028, 744], "timestamp": 1693580141172, "interval": 0}, {"eventtype": "window_resize", "value": [1028, 744], "timestamp": 1693580141685, "interval": 513}, {"eventtype": "window_resize", "value": [1536, 864], "timestamp": 1693580164340, "interval": 22655}, {"eventtype": "window_resize", "value": [1028, 744], "timestamp": 1693580248935, "interval": 84595}, {"eventtype": "focus", "value": "off", "timestamp": 1693580256904, "interval": 7969}, {"eventtype": "focus", "value": "on", "timestamp": 1693580334898, "interval": 77994}, {"eventtype": "window_resize", "value": [1536, 758], "timestamp": 1693580343319, "interval": 8421}, {"eventtype": "focus", "value": "off", "timestamp": 1693580399717, "interval": 56398}, {"eventtype": "focus", "value": "on", "timestamp": 1693580484406, "interval": 84689}, {"eventtype": "focus", "value": "off", "timestamp": 1693581764033, "interval": 1279627}, {"eventtype": "focus", "value": "on", "timestamp": 1693581764034, "interval": 1}, {"eventtype": "window_resize", "value": [1536, 864], "timestamp": 1693581766446, "interval": 2412}, {"eventtype": "window_resize", "value": [1536, 758], "timestamp": 1693582182837, "interval": 416391}, {"eventtype": "focus", "value": "off", "timestamp": 1693582184814, "interval": 1977}, {"eventtype": "focus", "value": "on", "timestamp": 1693582346874, "interval": 162060}, {"eventtype": "focus", "value": "off", "timestamp": 1693582381902, "interval": 35028}, {"eventtype": "focus", "value": "on", "timestamp": 1693582431406, "interval": 49504}, {"eventtype": "focus", "value": "off", "timestamp": 1693582449351, "interval": 17945}, {"eventtype": "focus", "value": "on", "timestamp": 1693582469767, "interval": 20416}, {"eventtype": "focus", "value": "off", "timestamp": 1693583113240, "interval": 643473}, {"eventtype": "focus", "value": "on", "timestamp": 1693583139510, "interval": 26270}, {"eventtype": "focus", "value": "off", "timestamp": 1693584259114, "interval": 1119604}, {"eventtype": "focus", "value": "on", "timestamp": 1693584271715, "interval": 12601}], "useragent": "Mozilla/5.0 (Windows NT 10.0; Win64; x64) AppleWebKit/537.36 (KHTML, like Gecko) Chrome/116.0.0.0 Safari/537.36", "mode": "live", "id": "w86964320:a65303087", "status": "user data saved", "Beginhit": "2023-09-01 14:55:38.609303", "Beginexp": "2023-09-01 14:56:06.271443", "Endhit": "2023-09-01 16:05:28.379754", "psiturkStatus": 3, "browser": "<redacted>", "platform": "windows", "language": "en-US"}