{"condition": 0, "counterbalance": 0, "assignmentId": "a26447084", "workerId": "w67427643", "hitId": "h64122319", "currenttrial": 73, "bonus": 0, "data": [{"uniqueid": "w67427643:a26447084", "current_trial": 0, "dateTime": 1691142264789, "trialdata": {"success": true, "trial_type": "fullscreen", "trial_index": 0, "time_elapsed": 87411, "internal_node_id": "0.0-0.0"}}, {"uniqueid": "w67427643:a26447084", "current_trial": 1, "dateTime": 1691142465632, "trialdata": {"view_history": [{"page_index": 0, "viewing_time": 200813}], "rt": 200818, "trial_id": "exp_instructions_control", "trial_type": "instructions", "trial_index": 1, "time_elapsed": 288256, "internal_node_id": "0.0-1.0"}}, {"uniqueid": "w67427643:a26447084", "current_trial": 2, "dateTime": 1691142471701, "trialdata": {"success": true, "trial_type": "fullscreen", "trial_index": 2, "time_elapsed": 294324, "internal_node_id": "0.0-2.0-0.0"}}, {"uniqueid": "w67427643:a26447084", "current_trial": 3, "dateTime": 1691143323560, "trialdata": {"view_history": [{"page_index": 0, "viewing_time": 195570}, {"page_index": 1, "viewing_time": 332734}, {"page_index": 2, "viewing_time": 93537}, {"page_index": 3, "viewing_time": 230008}], "rt": 851850, "trial_id": "mouselab_instructions_1_control", "trial_type": "instructions", "trial_index": 3, "time_elapsed": 1146184, "internal_node_id": "0.0-2.0-1.0"}}, {"uniqueid": "w67427643:a26447084", "current_trial": 4, "dateTime": 1691143384577, "trialdata": {"revealed_states": [], "clicked_states": ["12", "23"], "num_clicks_accrued": [0, 0, 0, 0, 0, 0, 0, 0, 0, 0, 0, 0, 0], "stateRewards": ["", 10, 10, 10, 10, -10, -10, -10, -10, 10, -10, 10, -10, -10, -10, 10, 10, -10, -10, 10, -10, -10, -10, 10, -10, 10, -10, -10, -10, -10, -10, 10, -10, -10], "withholdReward": false, "trial_id": "practice_1", "block": "test", "trialIndex": 0, "score": 32.5, "costs": -1, "simulationMode": [null, null, null, null, null], "rewards": [10, 10, 10, 10, -10], "path": ["0", "0", "1", "2", "3", "4", "6"], "rt": [31983, 3008, 4741, 3981, 1546], "actions": ["up", "up", "up", "right", "right"], "actionTimes": [33886, 37426, 42702, 47250, 49340], "queries": {"click": {"state": {"target": ["12", "23"], "time": [3609, 5706]}, "edge": {"target": [], "time": []}}, "mouseover": {"state": {"target": ["12", "23", "23", "18", "1"], "time": [3266, 4980, 14537, 27803, 28171]}, "edge": {"target": [], "time": []}}, "mouseout": {"state": {"target": ["0", "12", "23", "23", "23", "18", "1", "22", "21"], "time": [1033, 4744, 8383, 9703, 19504, 27834, 55737, 55932, 55986]}, "edge": {"target": [], "time": []}}}, "displayed_time": "49.84", "trialTime": 59625, "trial_type": "mouselab-mdp", "trial_index": 4, "time_elapsed": 1207199, "internal_node_id": "0.0-2.0-2.0-0.0"}}, {"uniqueid": "w67427643:a26447084", "current_trial": 5, "dateTime": 1691143449373, "trialdata": {"revealed_states": [], "clicked_states": ["1", "23", "12", "2", "24", "13"], "num_clicks_accrued": [0, 0, 0, 0, 0, 0, 0, 0, 0, 0, 0, 0, 0], "stateRewards": ["", -10, 10, -10, -10, -10, 10, 10, 10, 10, 10, -10, -10, -10, -10, -10, 10, 10, 10, -10, 10, 10, -10, -10, -10, 10, 10, -10, 10, -10, -10, 10, 10, -10], "withholdReward": false, "trial_id": "practice_2", "block": "test", "trialIndex": 1, "score": 10.5, "costs": -3, "simulationMode": [null, null, null, null, null], "rewards": [-10, 10, -10, 10, 10], "path": ["0", "0", "1", "2", "3", "8", "9"], "rt": [46743, 3290, 861, 1201, 1676], "actions": ["up", "up", "up", "left", "up"], "actionTimes": [51603, 55404, 56775, 58482, 60656], "queries": {"click": {"state": {"target": ["1", "23", "12", "2", "24", "13"], "time": [8854, 13562, 25130, 34787, 39923, 42752]}, "edge": {"target": [], "time": []}}, "mouseover": {"state": {"target": ["1", "23", "24", "23", "0", "12", "13", "12", "1", "12", "12", "13", "14", "13", "2", "10", "26", "25", "24", "13", "20"], "time": [7923, 13023, 18086, 22095, 22147, 22196, 22326, 22692, 23056, 23561, 24422, 31771, 32052, 32729, 34760, 38882, 38959, 39205, 39509, 42340, 47532]}, "edge": {"target": [], "time": []}}, "mouseout": {"state": {"target": ["0", "1", "23", "24", "23", "0", "12", "13", "12", "1", "12", "12", "13", "14", "13", "2", "10", "26", "25", "24", "13", "20"], "time": [7854, 12956, 17804, 22038, 22141, 22191, 22287, 22674, 22720, 23325, 23577, 31596, 31970, 32708, 33683, 38863, 38917, 38992, 39243, 40122, 47442, 47578]}, "edge": {"target": [], "time": []}}}, "displayed_time": "61.16", "trialTime": 64108, "trial_type": "mouselab-mdp", "trial_index": 5, "time_elapsed": 1271995, "internal_node_id": "0.0-2.0-2.0-1.0"}}, {"uniqueid": "w67427643:a26447084", "current_trial": 6, "dateTime": 1691143497269, "trialdata": {"view_history": [{"page_index": 0, "viewing_time": 42285}, {"page_index": 1, "viewing_time": 5597}], "rt": 47884, "trial_id": "mouselab_instructions_2_control", "trial_type": "instructions", "trial_index": 6, "time_elapsed": 1319893, "internal_node_id": "0.0-2.0-3.0"}}, {"uniqueid": "w67427643:a26447084", "current_trial": 7, "dateTime": 1691143826109, "trialdata": {"rt": 328821, "response": {"Q0": "The cost for clicking on nodes may vary between nodes.", "Q1": "The better I perform the higher my bonus will be.", "Q2": "No, the amount of cash at each node of the web may be different each time.", "Q3": "To get the highest total score.", "Q4": "Only before moving the spider.", "Q5": "10 seconds"}, "question_order": [0, 1, 2, 3, 4, 5], "correct": {"Q0": "The cost for clicking on nodes may vary between nodes.", "Q1": "The better I perform the higher my bonus will be.", "Q2": "No, the amount of cash at each node of the web may be different each time.", "Q3": "To get the highest total score.", "Q4": "Only before moving the spider.", "Q5": "3 seconds"}, "trial_id": "mouselab_quiz_control", "trial_type": "survey-multi-choice", "trial_index": 7, "time_elapsed": 1648733, "internal_node_id": "0.0-2.0-4.0"}}, {"uniqueid": "w67427643:a26447084", "current_trial": 8, "dateTime": 1691143843021, "trialdata": {"success": true, "trial_type": "fullscreen", "trial_index": 8, "time_elapsed": 1665645, "internal_node_id": "0.0-2.1-0.1"}}, {"uniqueid": "w67427643:a26447084", "current_trial": 9, "dateTime": 1691143895947, "trialdata": {"view_history": [{"page_index": 0, "viewing_time": 11919}, {"page_index": 1, "viewing_time": 13073}, {"page_index": 2, "viewing_time": 11228}, {"page_index": 3, "viewing_time": 16691}], "rt": 52912, "trial_id": "mouselab_instructions_1_control", "trial_type": "instructions", "trial_index": 9, "time_elapsed": 1718571, "internal_node_id": "0.0-2.1-1.1"}}, {"uniqueid": "w67427643:a26447084", "current_trial": 10, "dateTime": 1691143913487, "trialdata": {"revealed_states": [], "clicked_states": ["1"], "num_clicks_accrued": [0, 0, 0, 0, 0, 0, 0, 0, 0, 0, 0, 0, 0], "stateRewards": ["", 10, 10, 10, 10, -10, -10, -10, -10, 10, -10, 10, -10, -10, -10, 10, 10, -10, -10, 10, -10, -10, -10, 10, -10, 10, -10, -10, -10, -10, -10, 10, -10, -10], "withholdReward": false, "trial_id": "practice_1", "block": "test", "trialIndex": 2, "score": 33, "costs": -0.5, "simulationMode": [null, null, null, null, null], "rewards": [10, 10, 10, 10, -10], "path": ["0", "0", "1", "2", "3", "4", "6"], "rt": [6456, 882, 447, 701, 264], "actions": ["up", "up", "up", "right", "right"], "actionTimes": [9218, 10646, 11605, 12844, 13656], "queries": {"click": {"state": {"target": ["1"], "time": [4428]}, "edge": {"target": [], "time": []}}, "mouseover": {"state": {"target": ["1"], "time": [3916]}, "edge": {"target": [], "time": []}}, "mouseout": {"state": {"target": ["0", "1", "12"], "time": [1362, 15936, 15983]}, "edge": {"target": [], "time": []}}}, "displayed_time": "14.20", "trialTime": 16824, "trial_type": "mouselab-mdp", "trial_index": 10, "time_elapsed": 1736109, "internal_node_id": "0.0-2.1-2.1-0.1"}}, {"uniqueid": "w67427643:a26447084", "current_trial": 11, "dateTime": 1691143936702, "trialdata": {"revealed_states": [], "clicked_states": ["12", "1"], "num_clicks_accrued": [0, 0, 0, 0, 0, 0, 0, 0, 0, 0, 0, 0, 0], "stateRewards": ["", -10, 10, -10, -10, -10, 10, 10, 10, 10, 10, -10, -10, -10, -10, -10, 10, 10, 10, -10, 10, 10, -10, -10, -10, 10, 10, -10, 10, -10, -10, 10, 10, -10], "withholdReward": false, "trial_id": "practice_2", "block": "test", "trialIndex": 3, "score": -7.5, "costs": -1, "simulationMode": [null, null, null, null, null], "rewards": [-10, -10, 10, 10, -10], "path": ["0", "0", "23", "24", "25", "26", "27"], "rt": [11716, 316, 221, 1266, 163], "actions": ["left", "left", "left", "up", "up"], "actionTimes": [14497, 15352, 16125, 17959, 18689], "queries": {"click": {"state": {"target": ["12", "1"], "time": [4569, 8274]}, "edge": {"target": [], "time": []}}, "mouseover": {"state": {"target": ["12", "0", "1", "1", "0"], "time": [4191, 7463, 7566, 7897, 10198]}, "edge": {"target": [], "time": []}}, "mouseout": {"state": {"target": ["20", "19", "22", "22", "0", "12", "0", "1", "1", "1", "0"], "time": [1141, 1184, 1248, 1355, 4062, 7070, 7489, 7666, 8482, 9932, 13540]}, "edge": {"target": [], "time": []}}}, "displayed_time": "19.25", "trialTime": 22484, "trial_type": "mouselab-mdp", "trial_index": 11, "time_elapsed": 1759323, "internal_node_id": "0.0-2.1-2.1-1.1"}}, {"uniqueid": "w67427643:a26447084", "current_trial": 12, "dateTime": 1691143965121, "trialdata": {"view_history": [{"page_index": 0, "viewing_time": 26129}, {"page_index": 1, "viewing_time": 2275}], "rt": 28406, "trial_id": "mouselab_instructions_2_control", "trial_type": "instructions", "trial_index": 12, "time_elapsed": 1787744, "internal_node_id": "0.0-2.1-3.1"}}, {"uniqueid": "w67427643:a26447084", "current_trial": 13, "dateTime": 1691144069337, "trialdata": {"rt": 104200, "response": {"Q0": "The cost for clicking on nodes may vary between nodes.", "Q1": "The better I perform the higher my bonus will be.", "Q2": "No, the structure of the web will be different each time.", "Q3": "To get the highest total score.", "Q4": "Only before moving the spider.", "Q5": "10 seconds"}, "question_order": [0, 1, 2, 3, 4, 5], "correct": {"Q0": "The cost for clicking on nodes may vary between nodes.", "Q1": "The better I perform the higher my bonus will be.", "Q2": "No, the amount of cash at each node of the web may be different each time.", "Q3": "To get the highest total score.", "Q4": "Only before moving the spider.", "Q5": "3 seconds"}, "trial_id": "mouselab_quiz_control", "trial_type": "survey-multi-choice", "trial_index": 13, "time_elapsed": 1891961, "internal_node_id": "0.0-2.1-4.1"}}, {"uniqueid": "w67427643:a26447084", "current_trial": 14, "dateTime": 1691144086293, "trialdata": {"success": true, "trial_type": "fullscreen", "trial_index": 14, "time_elapsed": 1908917, "internal_node_id": "0.0-2.2-0.2"}}, {"uniqueid": "w67427643:a26447084", "current_trial": 15, "dateTime": 1691144110475, "trialdata": {"view_history": [{"page_index": 0, "viewing_time": 6056}, {"page_index": 1, "viewing_time": 4478}, {"page_index": 2, "viewing_time": 3298}, {"page_index": 3, "viewing_time": 10339}], "rt": 24172, "trial_id": "mouselab_instructions_1_control", "trial_type": "instructions", "trial_index": 15, "time_elapsed": 1933099, "internal_node_id": "0.0-2.2-1.2"}}, {"uniqueid": "w67427643:a26447084", "current_trial": 16, "dateTime": 1691144124376, "trialdata": {"revealed_states": [], "clicked_states": ["1"], "num_clicks_accrued": [0, 0, 0, 0, 0, 0, 0, 0, 0, 0, 0, 0, 0], "stateRewards": ["", 10, 10, 10, 10, -10, -10, -10, -10, 10, -10, 10, -10, -10, -10, 10, 10, -10, -10, 10, -10, -10, -10, 10, -10, 10, -10, -10, -10, -10, -10, 10, -10, -10], "withholdReward": false, "trial_id": "practice_1", "block": "test", "trialIndex": 4, "score": 33, "costs": -0.5, "simulationMode": [null, null, null, null, null], "rewards": [10, 10, 10, 10, -10], "path": ["0", "0", "1", "2", "3", "4", "6"], "rt": [4252, 388, 192, 878, 223], "actions": ["up", "up", "up", "right", "right"], "actionTimes": [6798, 7701, 8458, 9890, 10651], "queries": {"click": {"state": {"target": ["1"], "time": [3759]}, "edge": {"target": [], "time": []}}, "mouseover": {"state": {"target": ["1", "12"], "time": [3233, 5960]}, "edge": {"target": [], "time": []}}, "mouseout": {"state": {"target": ["0", "1", "1", "12", "13"], "time": [3206, 3941, 5874, 6158, 12693]}, "edge": {"target": [], "time": []}}}, "displayed_time": "11.22", "trialTime": 13176, "trial_type": "mouselab-mdp", "trial_index": 16, "time_elapsed": 1946998, "internal_node_id": "0.0-2.2-2.2-0.2"}}, {"uniqueid": "w67427643:a26447084", "current_trial": 17, "dateTime": 1691144143576, "trialdata": {"revealed_states": [], "clicked_states": ["1", "12"], "num_clicks_accrued": [0, 0, 0, 0, 0, 0, 0, 0, 0, 0, 0, 0, 0], "stateRewards": ["", -10, 10, -10, -10, -10, 10, 10, 10, 10, 10, -10, -10, -10, -10, -10, 10, 10, 10, -10, 10, 10, -10, -10, -10, 10, 10, -10, 10, -10, -10, 10, 10, -10], "withholdReward": false, "trial_id": "practice_2", "block": "test", "trialIndex": 5, "score": -27.5, "costs": -1, "simulationMode": [null, null, null, null, null], "rewards": [-10, -10, -10, -10, 10], "path": ["0", "0", "12", "13", "14", "19", "21"], "rt": [9663, 127, 6, 1063, 843], "actions": ["right", "right", "right", "down", "down"], "actionTimes": [11931, 12561, 13113, 14715, 16092], "queries": {"click": {"state": {"target": ["1", "12"], "time": [5393, 9436]}, "edge": {"target": [], "time": []}}, "mouseover": {"state": {"target": ["12", "1", "10", "1", "12"], "time": [3199, 4349, 4386, 5025, 8794]}, "edge": {"target": [], "time": []}}, "mouseout": {"state": {"target": ["19", "12", "0", "12", "1", "10", "1"], "time": [1141, 1220, 3161, 4314, 4380, 4928, 6788]}, "edge": {"target": [], "time": []}}}, "displayed_time": "16.62", "trialTime": 18448, "trial_type": "mouselab-mdp", "trial_index": 17, "time_elapsed": 1966198, "internal_node_id": "0.0-2.2-2.2-1.2"}}, {"uniqueid": "w67427643:a26447084", "current_trial": 18, "dateTime": 1691144158651, "trialdata": {"view_history": [{"page_index": 0, "viewing_time": 12450}, {"page_index": 1, "viewing_time": 2611}], "rt": 15062, "trial_id": "mouselab_instructions_2_control", "trial_type": "instructions", "trial_index": 18, "time_elapsed": 1981275, "internal_node_id": "0.0-2.2-3.2"}}, {"uniqueid": "w67427643:a26447084", "current_trial": 19, "dateTime": 1691144331891, "trialdata": {"rt": 173220, "response": {"Q0": "The cost for clicking on nodes may vary between nodes.", "Q1": "The better I perform the higher my bonus will be.", "Q2": "No, the structure of the web will be different each time.", "Q3": "To get the highest total score.", "Q4": "Only before moving the spider.", "Q5": "3 seconds"}, "question_order": [0, 1, 2, 3, 4, 5], "correct": {"Q0": "The cost for clicking on nodes may vary between nodes.", "Q1": "The better I perform the higher my bonus will be.", "Q2": "No, the amount of cash at each node of the web may be different each time.", "Q3": "To get the highest total score.", "Q4": "Only before moving the spider.", "Q5": "3 seconds"}, "trial_id": "mouselab_quiz_control", "trial_type": "survey-multi-choice", "trial_index": 19, "time_elapsed": 2154514, "internal_node_id": "0.0-2.2-4.2"}}, {"uniqueid": "w67427643:a26447084", "current_trial": 20, "dateTime": 1691144348361, "trialdata": {"success": true, "trial_type": "fullscreen", "trial_index": 20, "time_elapsed": 2170985, "internal_node_id": "0.0-2.3-0.3"}}, {"uniqueid": "w67427643:a26447084", "current_trial": 21, "dateTime": 1691144558879, "trialdata": {"view_history": [{"page_index": 0, "viewing_time": 105594}, {"page_index": 1, "viewing_time": 32015}, {"page_index": 2, "viewing_time": 25239}, {"page_index": 3, "viewing_time": 47657}], "rt": 210507, "trial_id": "mouselab_instructions_1_control", "trial_type": "instructions", "trial_index": 21, "time_elapsed": 2381502, "internal_node_id": "0.0-2.3-1.3"}}, {"uniqueid": "w67427643:a26447084", "current_trial": 22, "dateTime": 1691144571595, "trialdata": {"revealed_states": [], "clicked_states": ["1"], "num_clicks_accrued": [0, 0, 0, 0, 0, 0, 0, 0, 0, 0, 0, 0, 0], "stateRewards": ["", 10, 10, 10, 10, -10, -10, -10, -10, 10, -10, 10, -10, -10, -10, 10, 10, -10, -10, 10, -10, -10, -10, 10, -10, 10, -10, -10, -10, -10, -10, 10, -10, -10], "withholdReward": false, "trial_id": "practice_1", "block": "test", "trialIndex": 6, "score": 33, "costs": -0.5, "simulationMode": [null, null, null, null, null], "rewards": [10, 10, 10, 10, -10], "path": ["0", "0", "1", "2", "3", "4", "5"], "rt": [2983, 26, 902, 976, 651], "actions": ["up", "up", "up", "right", "up"], "actionTimes": [4938, 5510, 6966, 8458, 9650], "queries": {"click": {"state": {"target": ["1"], "time": [3112]}, "edge": {"target": [], "time": []}}, "mouseover": {"state": {"target": ["1"], "time": [2610]}, "edge": {"target": [], "time": []}}, "mouseout": {"state": {"target": ["0", "1"], "time": [2548, 3303]}, "edge": {"target": [], "time": []}}}, "displayed_time": "10.16", "trialTime": 11935, "trial_type": "mouselab-mdp", "trial_index": 22, "time_elapsed": 2394217, "internal_node_id": "0.0-2.3-2.3-0.3"}}, {"uniqueid": "w67427643:a26447084", "current_trial": 23, "dateTime": 1691144589689, "trialdata": {"revealed_states": [], "clicked_states": ["1"], "num_clicks_accrued": [0, 0, 0, 0, 0, 0, 0, 0, 0, 0, 0, 0, 0], "stateRewards": ["", -10, 10, -10, -10, -10, 10, 10, 10, 10, 10, -10, -10, -10, -10, -10, 10, 10, 10, -10, 10, 10, -10, -10, -10, 10, 10, -10, 10, -10, -10, 10, 10, -10], "withholdReward": false, "trial_id": "practice_2", "block": "test", "trialIndex": 7, "score": 13, "costs": -0.5, "simulationMode": [null, null, null, null, null, null], "rewards": [-10, 10, -10, 10, 10], "path": ["0", "0", "1", "2", "3", "8", "9"], "rt": [3474, 3511, 438, 468, 731, 1311], "actions": ["up", "up", "up", "up", "left", "up"], "actionTimes": [6167, 9694, 10671, 11690, 12983, 14863], "queries": {"click": {"state": {"target": ["1"], "time": [4875]}, "edge": {"target": [], "time": []}}, "mouseover": {"state": {"target": ["1"], "time": [4337]}, "edge": {"target": [], "time": []}}, "mouseout": {"state": {"target": ["1", "0", "0"], "time": [985, 1316, 4191]}, "edge": {"target": [], "time": []}}}, "displayed_time": "15.42", "trialTime": 17295, "trial_type": "mouselab-mdp", "trial_index": 23, "time_elapsed": 2412311, "internal_node_id": "0.0-2.3-2.3-1.3"}}, {"uniqueid": "w67427643:a26447084", "current_trial": 24, "dateTime": 1691144630222, "trialdata": {"view_history": [{"page_index": 0, "viewing_time": 38352}, {"page_index": 1, "viewing_time": 2167}], "rt": 40520, "trial_id": "mouselab_instructions_2_control", "trial_type": "instructions", "trial_index": 24, "time_elapsed": 2452846, "internal_node_id": "0.0-2.3-3.3"}}, {"uniqueid": "w67427643:a26447084", "current_trial": 25, "dateTime": 1691144809179, "trialdata": {"rt": 178941, "response": {"Q0": "The cost for clicking on nodes may vary between nodes.", "Q1": "The better I perform the higher my bonus will be.", "Q2": "No, the amount of cash at each node of the web may be different each time.", "Q3": "To get the highest total score.", "Q4": "Only before moving the spider.", "Q5": "3 seconds"}, "question_order": [0, 1, 2, 3, 4, 5], "correct": {"Q0": "The cost for clicking on nodes may vary between nodes.", "Q1": "The better I perform the higher my bonus will be.", "Q2": "No, the amount of cash at each node of the web may be different each time.", "Q3": "To get the highest total score.", "Q4": "Only before moving the spider.", "Q5": "3 seconds"}, "trial_id": "mouselab_quiz_control", "trial_type": "survey-multi-choice", "trial_index": 25, "time_elapsed": 2631803, "internal_node_id": "0.0-2.3-4.3"}}, {"uniqueid": "w67427643:a26447084", "current_trial": 26, "dateTime": 1691144814910, "trialdata": {"rt": 5715, "stimulus": "\n<h1> Get ready to start the game! </h1>\n\nThank you for reading the instructions. Get ready start with the 40 rounds of this game.\n<br><br>\nIf you need to take a break, feel free to take one after the end of a round, before continuing to the next one.\n<br><br>\nRemember, the more money the spider gets, the bigger your bonus will be!\n<br><br>\n<div style='text-align: center;'>Press <code>space</code> to begin.</div>\n\n<br><br>\n(If, at any point, the <code>space</code> key does not take you to the next page, click once on the text and try again.)", "response": " ", "trial_id": "mdp_ready", "trial_type": "html-keyboard-response", "trial_index": 26, "time_elapsed": 2637534, "internal_node_id": "0.0-4.0-0.0"}}, {"uniqueid": "w67427643:a26447084", "current_trial": 27, "dateTime": 1691144834646, "trialdata": {"revealed_states": [], "clicked_states": ["1"], "num_clicks_accrued": [0, 0, 0, 0, 0, 0, 0, 0, 0, 0, 0, 0, 0], "stateRewards": ["", 1, 1, 1, -3, -7, -1, -41, -10, 20, -72, -63, 1, -4, -2, 2, -66, 30, -84, -2, 49, 23, 71, -1, -4, 4, -12, 67, 5, 18, -16, 88, 56, -5], "withholdReward": false, "trial_id": "mdp_trial_1", "block": "test", "trialIndex": 8, "score": -2.4, "costs": -1.4, "simulationMode": [null, null, null, null, null], "rewards": [1, 1, 1, -3, -1], "path": ["0", "0", "1", "2", "3", "4", "6"], "rt": [6175, 1048, 746, 873, 705], "actions": ["up", "up", "up", "right", "right"], "actionTimes": [8493, 10038, 11341, 12730, 13948], "queries": {"click": {"state": {"target": ["1"], "time": [4190]}, "edge": {"target": [], "time": []}}, "mouseover": {"state": {"target": ["1", "12"], "time": [3684, 5504]}, "edge": {"target": [], "time": []}}, "mouseout": {"state": {"target": ["0", "1", "12"], "time": [3618, 5203, 7001]}, "edge": {"target": [], "time": []}}}, "displayed_time": "16.33", "trialTime": 18915, "trial_type": "mouselab-mdp", "trial_index": 27, "time_elapsed": 2657269, "internal_node_id": "0.0-4.0-1.0-0.0"}}, {"uniqueid": "w67427643:a26447084", "current_trial": 28, "dateTime": 1691144854203, "trialdata": {"revealed_states": [], "clicked_states": ["12"], "num_clicks_accrued": [0, 0, 0, 0, 0, 0, 0, 0, 0, 0, 0, 0, 0], "stateRewards": ["", 1, 3, -2, 15, 51, 15, -19, 11, 67, -45, -73, 2, 4, -2, -13, 36, 9, -28, 10, -30, 31, 16, 1, 2, -1, -16, 14, -22, 36, -1, 88, -5, 45], "withholdReward": false, "trial_id": "mdp_trial_2", "block": "test", "trialIndex": 9, "score": 43.6, "costs": -1.4, "simulationMode": [null, null, null, null, null], "rewards": [2, 4, -2, 10, 31], "path": ["0", "0", "12", "13", "14", "19", "21"], "rt": [4422, 500, 534, 1747, 146], "actions": ["right", "right", "right", "down", "down"], "actionTimes": [6447, 7482, 8544, 10788, 11437], "queries": {"click": {"state": {"target": ["12"], "time": [3186]}, "edge": {"target": [], "time": []}}, "mouseover": {"state": {"target": ["12"], "time": [2853]}, "edge": {"target": [], "time": []}}, "mouseout": {"state": {"target": ["1", "0"], "time": [896, 2779]}, "edge": {"target": [], "time": []}}}, "displayed_time": "16.03", "trialTime": 18609, "trial_type": "mouselab-mdp", "trial_index": 28, "time_elapsed": 2676827, "internal_node_id": "0.0-4.0-1.0-1.0"}}, {"uniqueid": "w67427643:a26447084", "current_trial": 29, "dateTime": 1691144872619, "trialdata": {"revealed_states": [], "clicked_states": [], "num_clicks_accrued": [0, 0, 0, 0, 0, 0, 0, 0, 0, 0, 0, 0, 0], "stateRewards": ["", 2, 3, 8, 14, 69, -27, 17, 2, -71, -65, -10, 2, -3, 7, 8, 65, -10, 65, -12, 73, -12, 13, -2, -2, 6, 10, -79, -69, -18, 10, -85, 67, 74], "withholdReward": false, "trial_id": "mdp_trial_3", "block": "test", "trialIndex": 10, "score": 5, "costs": 0, "simulationMode": [null, null, null, null, null], "rewards": [2, 3, 8, 2, -10], "path": ["0", "0", "1", "2", "3", "8", "11"], "rt": [6505, 575, 659, 1448, 437], "actions": ["up", "up", "up", "left", "left"], "actionTimes": [8521, 9610, 10778, 12766, 13723], "queries": {"click": {"state": {"target": [], "time": []}, "edge": {"target": [], "time": []}}, "mouseover": {"state": {"target": ["1", "1"], "time": [4496, 4727]}, "edge": {"target": [], "time": []}}, "mouseout": {"state": {"target": ["12", "1"], "time": [929, 4546]}, "edge": {"target": [], "time": []}}}, "displayed_time": "16.03", "trialTime": 17668, "trial_type": "mouselab-mdp", "trial_index": 29, "time_elapsed": 2695243, "internal_node_id": "0.0-4.0-1.0-2.0"}}, {"uniqueid": "w67427643:a26447084", "current_trial": 30, "dateTime": 1691144890773, "trialdata": {"revealed_states": [], "clicked_states": ["1", "12"], "num_clicks_accrued": [0, 0, 0, 0, 0, 0, 0, 0, 0, 0, 0, 0, 0], "stateRewards": ["", 1, 1, -7, -9, -44, 24, -83, -15, 44, -24, 72, -2, -3, 4, -5, 57, 55, 29, -11, 22, 12, -25, -1, 2, 7, 12, 33, -8, 47, -4, 8, 50, -4], "withholdReward": false, "trial_id": "mdp_trial_4", "block": "test", "trialIndex": 11, "score": -46.8, "costs": -2.8, "simulationMode": [null, null, null, null, null], "rewards": [1, 1, -7, -15, -24], "path": ["0", "0", "1", "2", "3", "8", "10"], "rt": [8890, 195, 230, 715, 944], "actions": ["up", "up", "up", "left", "down"], "actionTimes": [10950, 11655, 12447, 13680, 15160], "queries": {"click": {"state": {"target": ["1", "12"], "time": [4206, 7516]}, "edge": {"target": [], "time": []}}, "mouseover": {"state": {"target": ["1", "1", "12", "12", "22"], "time": [3304, 3852, 6586, 7089, 9040]}, "edge": {"target": [], "time": []}}, "mouseout": {"state": {"target": ["1", "1", "1", "12", "12"], "time": [880, 3446, 6539, 6655, 8976]}, "edge": {"target": [], "time": []}}}, "displayed_time": "16.07", "trialTime": 17392, "trial_type": "mouselab-mdp", "trial_index": 30, "time_elapsed": 2713396, "internal_node_id": "0.0-4.0-1.0-3.0"}}, {"uniqueid": "w67427643:a26447084", "current_trial": 31, "dateTime": 1691144920557, "trialdata": {"revealed_states": [], "clicked_states": ["23", "1", "12", "2"], "num_clicks_accrued": [0, 0, 0, 0, 0, 0, 0, 0, 0, 0, 0, 0, 0], "stateRewards": ["", -1, 3, 1, -7, 56, 76, 57, 3, 11, -9, 14, 1, -2, 2, 8, -77, -3, 79, -5, 88, 24, -66, -2, -1, 7, -7, -30, 14, -76, 11, -36, 28, -6], "withholdReward": false, "trial_id": "mdp_trial_5", "block": "test", "trialIndex": 12, "score": 66.4, "costs": -5.6, "simulationMode": [null, null, null, null, null], "rewards": [-1, 3, 1, -7, 76], "path": ["0", "0", "1", "2", "3", "4", "6"], "rt": [18700, 265, 354, 748, 1349], "actions": ["up", "up", "up", "right", "right"], "actionTimes": [20647, 21486, 22371, 23653, 25524], "queries": {"click": {"state": {"target": ["23", "1", "12", "2"], "time": [3883, 7587, 11866, 17030]}, "edge": {"target": [], "time": []}}, "mouseover": {"state": {"target": ["23", "2", "1", "12", "13", "15", "2", "10", "2"], "time": [3414, 6928, 7199, 11429, 14597, 16081, 16313, 16385, 16516]}, "edge": {"target": [], "time": []}}, "mouseout": {"state": {"target": ["19", "20", "19", "12", "0", "23", "2", "1", "1", "12", "12", "13", "15", "2", "10", "2"], "time": [90, 519, 555, 722, 3314, 4795, 7064, 7770, 8678, 12048, 14579, 14651, 16182, 16348, 16466, 17734]}, "edge": {"target": [], "time": []}}}, "displayed_time": "26.04", "trialTime": 28901, "trial_type": "mouselab-mdp", "trial_index": 31, "time_elapsed": 2743179, "internal_node_id": "0.0-4.0-1.0-4.0"}}, {"uniqueid": "w67427643:a26447084", "current_trial": 32, "dateTime": 1691144940190, "trialdata": {"revealed_states": [], "clicked_states": ["1", "2", "3"], "num_clicks_accrued": [0, 0, 0, 0, 0, 0, 0, 0, 0, 0, 0, 0, 0], "stateRewards": ["", -2, 2, 3, -7, 76, 63, 21, 15, 35, -8, -44, 1, 1, -2, -12, 23, 24, 76, -9, 46, 66, -49, -2, -1, 7, 12, 40, -71, -45, -6, 38, -49, 46], "withholdReward": false, "trial_id": "mdp_trial_6", "block": "test", "trialIndex": 13, "score": 67.8, "costs": -4.199999999999999, "simulationMode": [null, null, null, null, null], "rewards": [-2, 2, 3, -7, 76], "path": ["0", "0", "1", "2", "3", "4", "5"], "rt": [9281, 115, 124, 968, 1199], "actions": ["up", "up", "up", "right", "up"], "actionTimes": [11430, 12092, 12770, 14313, 16044], "queries": {"click": {"state": {"target": ["1", "2", "3"], "time": [3472, 5666, 8572]}, "edge": {"target": [], "time": []}}, "mouseover": {"state": {"target": ["1", "2", "7", "3"], "time": [2941, 5108, 7807, 8054]}, "edge": {"target": [], "time": []}}, "mouseout": {"state": {"target": ["0", "0", "1", "2", "7", "3"], "time": [982, 1230, 4926, 6742, 7875, 9311]}, "edge": {"target": [], "time": []}}}, "displayed_time": "16.60", "trialTime": 18724, "trial_type": "mouselab-mdp", "trial_index": 32, "time_elapsed": 2762812, "internal_node_id": "0.0-4.0-1.0-5.0"}}, {"uniqueid": "w67427643:a26447084", "current_trial": 33, "dateTime": 1691144962367, "trialdata": {"revealed_states": [], "clicked_states": ["1", "2"], "num_clicks_accrued": [0, 0, 0, 0, 0, 0, 0, 0, 0, 0, 0, 0, 0], "stateRewards": ["", 1, 2, 2, -15, -84, 28, -26, 13, 31, 86, 30, -2, 1, -1, -8, 66, -40, -1, -10, -32, 57, -17, 1, 2, -2, 9, -23, 77, 85, 12, -32, -62, -35], "withholdReward": false, "trial_id": "mdp_trial_7", "block": "test", "trialIndex": 14, "score": -96.8, "costs": -2.8, "simulationMode": [null, null, null, null, null], "rewards": [1, 2, 2, -15, -84], "path": ["0", "0", "1", "2", "3", "4", "5"], "rt": [6345, 94, 119, 627, 1187], "actions": ["up", "up", "up", "right", "up"], "actionTimes": [8456, 9066, 9757, 10916, 12610], "queries": {"click": {"state": {"target": ["1", "2"], "time": [3437, 5683]}, "edge": {"target": [], "time": []}}, "mouseover": {"state": {"target": ["1", "2"], "time": [3068, 5433]}, "edge": {"target": [], "time": []}}, "mouseout": {"state": {"target": ["0", "1", "2", "12", "0", "2"], "time": [2902, 5283, 6552, 17285, 17917, 18658]}, "edge": {"target": [], "time": []}}}, "displayed_time": "16.12", "trialTime": 21294, "trial_type": "mouselab-mdp", "trial_index": 33, "time_elapsed": 2784990, "internal_node_id": "0.0-4.0-1.0-6.0"}}, {"uniqueid": "w67427643:a26447084", "current_trial": 34, "dateTime": 1691144982308, "trialdata": {"revealed_states": [], "clicked_states": ["1"], "num_clicks_accrued": [0, 0, 0, 0, 0, 0, 0, 0, 0, 0, 0, 0, 0], "stateRewards": ["", 1, -3, -4, -11, -56, 61, -47, -16, -28, -9, 69, -2, -3, -4, -8, 40, -86, 59, -4, 80, 27, 54, -1, 3, -1, 8, 67, 23, 50, 6, 83, -43, -29], "withholdReward": false, "trial_id": "mdp_trial_8", "block": "test", "trialIndex": 15, "score": 45.6, "costs": -1.4, "simulationMode": [null, null, null, null, null], "rewards": [1, -3, -4, -16, 69], "path": ["0", "0", "1", "2", "3", "8", "11"], "rt": [9638, 638, 670, 507, 295], "actions": ["up", "up", "up", "left", "left"], "actionTimes": [11635, 12795, 14023, 15082, 15931], "queries": {"click": {"state": {"target": ["1"], "time": [4185]}, "edge": {"target": [], "time": []}}, "mouseover": {"state": {"target": ["0", "1", "23", "0", "23", "0"], "time": [2661, 2811, 5130, 7822, 8412, 10164]}, "edge": {"target": [], "time": []}}, "mouseout": {"state": {"target": ["0", "0", "1", "23", "0", "23"], "time": [2460, 2761, 4565, 7761, 8378, 10111]}, "edge": {"target": [], "time": []}}}, "displayed_time": "16.49", "trialTime": 18995, "trial_type": "mouselab-mdp", "trial_index": 34, "time_elapsed": 2804931, "internal_node_id": "0.0-4.0-1.0-7.0"}}, {"uniqueid": "w67427643:a26447084", "current_trial": 35, "dateTime": 1691145006480, "trialdata": {"revealed_states": [], "clicked_states": ["1", "2", "3", "4"], "num_clicks_accrued": [0, 0, 0, 0, 0, 0, 0, 0, 0, 0, 0, 0, 0], "stateRewards": ["", 1, 2, -3, 6, -88, 74, -45, 7, -46, 40, -77, 1, -4, 4, 3, 22, -25, -59, 8, -83, 19, -60, -1, -1, -1, -8, 26, -29, 64, -7, -88, -51, -55], "withholdReward": false, "trial_id": "mdp_trial_9", "block": "test", "trialIndex": 16, "score": 74.4, "costs": -5.6, "simulationMode": [null, null, null, null, null], "rewards": [1, 2, -3, 6, 74], "path": ["0", "0", "1", "2", "3", "4", "6"], "rt": [15005, 51, 85, 583, 356], "actions": ["up", "up", "up", "right", "right"], "actionTimes": [16250, 16800, 17439, 18550, 19421], "queries": {"click": {"state": {"target": ["1", "2", "3", "4"], "time": [2483, 4629, 7976, 13123]}, "edge": {"target": [], "time": []}}, "mouseover": {"state": {"target": ["1", "2", "3", "16", "4", "16"], "time": [2071, 3329, 5562, 8681, 12029, 14967]}, "edge": {"target": [], "time": []}}, "mouseout": {"state": {"target": ["0", "1", "2", "3", "16", "4", "16"], "time": [1883, 2655, 4806, 8581, 9112, 14924, 15038]}, "edge": {"target": [], "time": []}}}, "displayed_time": "19.96", "trialTime": 23132, "trial_type": "mouselab-mdp", "trial_index": 35, "time_elapsed": 2829103, "internal_node_id": "0.0-4.0-1.0-8.0"}}, {"uniqueid": "w67427643:a26447084", "current_trial": 36, "dateTime": 1691145027847, "trialdata": {"revealed_states": [], "clicked_states": ["1", "4"], "num_clicks_accrued": [0, 0, 0, 0, 0, 0, 0, 0, 0, 0, 0, 0, 0], "stateRewards": ["", 1, 2, 3, 16, 63, -25, 16, -4, -14, 82, -66, -1, -3, -3, -11, -14, 19, 46, 3, -34, -82, 66, -2, -3, 4, -5, -63, 77, -37, -1, -45, -41, 84], "withholdReward": false, "trial_id": "mdp_trial_10", "block": "test", "trialIndex": 17, "score": 82.2, "costs": -2.8, "simulationMode": [null, null, null, null, null], "rewards": [1, 2, 3, 16, 63], "path": ["0", "0", "1", "2", "3", "4", "5"], "rt": [8385, 121, 108, 614, 740], "actions": ["up", "up", "up", "right", "up"], "actionTimes": [10738, 11430, 12109, 13309, 14572], "queries": {"click": {"state": {"target": ["1", "4"], "time": [3621, 7093]}, "edge": {"target": [], "time": []}}, "mouseover": {"state": {"target": ["1", "2", "3", "4"], "time": [3126, 4527, 6326, 6726]}, "edge": {"target": [], "time": []}}, "mouseout": {"state": {"target": ["7", "1", "2", "3", "4"], "time": [908, 4495, 6166, 6543, 7291]}, "edge": {"target": [], "time": []}}}, "displayed_time": "18.33", "trialTime": 20381, "trial_type": "mouselab-mdp", "trial_index": 36, "time_elapsed": 2850470, "internal_node_id": "0.0-4.0-1.0-9.0"}}, {"uniqueid": "w67427643:a26447084", "current_trial": 37, "dateTime": 1691145050167, "trialdata": {"revealed_states": [], "clicked_states": ["1", "4", "5"], "num_clicks_accrued": [0, 0, 0, 0, 0, 0, 0, 0, 0, 0, 0, 0, 0], "stateRewards": ["", 2, -1, -1, 7, 11, -40, -22, -2, 69, 37, 8, -2, 4, -8, -12, -2, -72, -3, -12, 17, 63, 12, 1, 3, -7, 6, 25, 61, 61, -9, 28, -17, 27], "withholdReward": false, "trial_id": "mdp_trial_11", "block": "test", "trialIndex": 18, "score": 13.8, "costs": -4.199999999999999, "simulationMode": [null, null, null, null, null], "rewards": [2, -1, -1, 7, 11], "path": ["0", "0", "1", "2", "3", "4", "5"], "rt": [10954, 319, 329, 988, 944], "actions": ["up", "up", "up", "right", "up"], "actionTimes": [13487, 14351, 15192, 16702, 18158], "queries": {"click": {"state": {"target": ["1", "4", "5"], "time": [4599, 7058, 10343]}, "edge": {"target": [], "time": []}}, "mouseover": {"state": {"target": ["1", "2", "3", "4", "6", "5"], "time": [4208, 5326, 6200, 6684, 9043, 9922]}, "edge": {"target": [], "time": []}}, "mouseout": {"state": {"target": ["12", "0", "1", "2", "3", "4", "6", "5"], "time": [1256, 3145, 4788, 6109, 6674, 9006, 9125, 10518]}, "edge": {"target": [], "time": []}}}, "displayed_time": "18.68", "trialTime": 21362, "trial_type": "mouselab-mdp", "trial_index": 37, "time_elapsed": 2872789, "internal_node_id": "0.0-4.0-1.0-10.0"}}, {"uniqueid": "w67427643:a26447084", "current_trial": 38, "dateTime": 1691145069909, "trialdata": {"revealed_states": [], "clicked_states": ["5", "9", "1"], "num_clicks_accrued": [0, 0, 0, 0, 0, 0, 0, 0, 0, 0, 0, 0, 0], "stateRewards": ["", -2, 2, -2, -7, -50, -62, -45, 7, 36, -24, -72, -1, -1, 8, -1, -67, 20, -52, 2, 35, -50, 80, -1, 1, 6, -6, -70, 6, 88, 8, -47, 74, -19], "withholdReward": false, "trial_id": "mdp_trial_12", "block": "test", "trialIndex": 19, "score": 36.8, "costs": -4.199999999999999, "simulationMode": [null, null, null, null, null], "rewards": [-2, 2, -2, 7, 36], "path": ["0", "0", "1", "2", "3", "8", "9"], "rt": [9736, 293, 185, 637, 1283], "actions": ["up", "up", "up", "left", "up"], "actionTimes": [11949, 12748, 13453, 14643, 16484], "queries": {"click": {"state": {"target": ["5", "9", "1"], "time": [3611, 6696, 9993]}, "edge": {"target": [], "time": []}}, "mouseover": {"state": {"target": ["5", "4", "4", "9", "8", "10", "1"], "time": [3262, 4524, 5957, 6291, 7447, 9107, 9486]}, "edge": {"target": [], "time": []}}, "mouseout": {"state": {"target": ["0", "5", "4", "4", "9", "8", "10"], "time": [1364, 4491, 5290, 6025, 7442, 7559, 9241]}, "edge": {"target": [], "time": []}}}, "displayed_time": "17.01", "trialTime": 18704, "trial_type": "mouselab-mdp", "trial_index": 38, "time_elapsed": 2892532, "internal_node_id": "0.0-4.0-1.0-11.0"}}, {"uniqueid": "w67427643:a26447084", "current_trial": 39, "dateTime": 1691145088605, "trialdata": {"revealed_states": [], "clicked_states": ["21", "32"], "num_clicks_accrued": [0, 0, 0, 0, 0, 0, 0, 0, 0, 0, 0, 0, 0], "stateRewards": ["", 1, 2, -5, 14, 54, -14, -25, 16, -5, -87, 78, -1, 1, 3, -3, 52, 53, 53, -10, 73, -69, -48, 2, 3, 1, 8, -62, -7, 85, 7, 82, 52, -28], "withholdReward": false, "trial_id": "mdp_trial_13", "block": "test", "trialIndex": 20, "score": 62.2, "costs": -2.8, "simulationMode": [null, null, null, null, null], "rewards": [2, 3, 1, 7, 52], "path": ["0", "0", "23", "24", "25", "30", "32"], "rt": [8182, 322, 501, 648, 351], "actions": ["left", "left", "left", "down", "down"], "actionTimes": [10126, 10928, 11959, 13106, 13958], "queries": {"click": {"state": {"target": ["21", "32"], "time": [3308, 5528]}, "edge": {"target": [], "time": []}}, "mouseover": {"state": {"target": ["21", "32", "23", "23"], "time": [2963, 4751, 8118, 9068]}, "edge": {"target": [], "time": []}}, "mouseout": {"state": {"target": ["1", "0", "21", "32", "23", "23"], "time": [755, 2616, 4253, 6369, 8173, 9137]}, "edge": {"target": [], "time": []}}}, "displayed_time": "15.95", "trialTime": 17642, "trial_type": "mouselab-mdp", "trial_index": 39, "time_elapsed": 2911228, "internal_node_id": "0.0-4.0-1.0-12.0"}}, {"uniqueid": "w67427643:a26447084", "current_trial": 40, "dateTime": 1691145119248, "trialdata": {"revealed_states": [], "clicked_states": ["29", "27", "32", "5", "9"], "num_clicks_accrued": [0, 0, 0, 0, 0, 0, 0, 0, 0, 0, 0, 0, 0], "stateRewards": ["", -2, 1, -3, -16, -39, -52, 30, -7, -41, -59, 11, 2, 1, 8, 2, -11, -26, -42, -13, 87, -59, -48, -1, -1, -1, 16, -79, 31, 50, -1, -84, 34, -82], "withholdReward": false, "trial_id": "mdp_trial_14", "block": "test", "trialIndex": 21, "score": 56, "costs": -7, "simulationMode": [null, null, null, null, null], "rewards": [-1, -1, -1, 16, 50], "path": ["0", "0", "23", "24", "25", "26", "29"], "rt": [18730, 254, 277, 777, 813], "actions": ["left", "left", "left", "up", "left"], "actionTimes": [20302, 21088, 21904, 23207, 24541], "queries": {"click": {"state": {"target": ["29", "27", "32", "5", "9"], "time": [3019, 6281, 9215, 13179, 15722]}, "edge": {"target": [], "time": []}}, "mouseover": {"state": {"target": ["29", "27", "10", "28", "25", "30", "32", "25", "33", "24", "3", "5", "9", "28", "29", "25"], "time": [2671, 4174, 7174, 8492, 8576, 8660, 8838, 11588, 11722, 12095, 12605, 12814, 15388, 17987, 18535, 18840]}, "edge": {"target": [], "time": []}}, "mouseout": {"state": {"target": ["0", "29", "27", "10", "28", "25", "30", "32", "25", "33", "24", "3", "5", "9", "28", "29"], "time": [1001, 3924, 7031, 8473, 8542, 8625, 8742, 11436, 11641, 12054, 12141, 12659, 13365, 15909, 18056, 18756]}, "edge": {"target": [], "time": []}}}, "displayed_time": "25.11", "trialTime": 29705, "trial_type": "mouselab-mdp", "trial_index": 40, "time_elapsed": 2941870, "internal_node_id": "0.0-4.0-1.0-13.0"}}, {"uniqueid": "w67427643:a26447084", "current_trial": 41, "dateTime": 1691145138783, "trialdata": {"revealed_states": [], "clicked_states": ["5", "9"], "num_clicks_accrued": [0, 0, 0, 0, 0, 0, 0, 0, 0, 0, 0, 0, 0], "stateRewards": ["", -2, -1, -5, 10, -36, -70, 68, -9, 86, 71, -10, 2, -4, 7, -7, 66, 44, -66, -13, -69, 43, 15, -2, 2, 6, -13, 62, 57, 50, -10, -69, 42, -72], "withholdReward": false, "trial_id": "mdp_trial_15", "block": "test", "trialIndex": 22, "score": 66.2, "costs": -2.8, "simulationMode": [null, null, null, null, null], "rewards": [-2, -1, -5, -9, 86], "path": ["0", "0", "1", "2", "3", "8", "9"], "rt": [7715, 139, 197, 703, 704], "actions": ["up", "up", "up", "left", "up"], "actionTimes": [9423, 10118, 10857, 12074, 13331], "queries": {"click": {"state": {"target": ["5", "9"], "time": [2672, 5115]}, "edge": {"target": [], "time": []}}, "mouseover": {"state": {"target": ["7", "5", "9", "27", "11", "10", "2", "2"], "time": [2277, 2399, 3667, 6301, 6833, 7670, 7880, 8365]}, "edge": {"target": [], "time": []}}, "mouseout": {"state": {"target": ["25", "0", "7", "5", "9", "27", "11", "10", "2", "2", "1"], "time": [583, 889, 2311, 3551, 5801, 6716, 7663, 7708, 8033, 8433, 18147]}, "edge": {"target": [], "time": []}}}, "displayed_time": "16.54", "trialTime": 18532, "trial_type": "mouselab-mdp", "trial_index": 41, "time_elapsed": 2961406, "internal_node_id": "0.0-4.0-1.0-14.0"}}, {"uniqueid": "w67427643:a26447084", "current_trial": 42, "dateTime": 1691145165176, "trialdata": {"revealed_states": [], "clicked_states": ["11", "9", "5", "6", "33"], "num_clicks_accrued": [0, 0, 0, 0, 0, 0, 0, 0, 0, 0, 0, 0, 0], "stateRewards": ["", -1, -3, -5, -14, -13, -47, 79, 8, -60, -64, 41, -1, 2, 3, 13, -46, 61, -79, -11, -64, -65, 23, 1, -2, 6, -14, 46, 32, 21, 7, 75, -66, 15], "withholdReward": false, "trial_id": "mdp_trial_16", "block": "test", "trialIndex": 23, "score": 33, "costs": -7, "simulationMode": [null, null, null, null, null], "rewards": [-1, -3, -5, 8, 41], "path": ["0", "0", "1", "2", "3", "8", "11"], "rt": [17057, 50, 111, 516, 261], "actions": ["up", "up", "up", "left", "left"], "actionTimes": [19140, 19720, 20385, 21487, 22274], "queries": {"click": {"state": {"target": ["11", "9", "5", "6", "33"], "time": [4107, 6671, 8763, 11095, 14511]}, "edge": {"target": [], "time": []}}, "mouseover": {"state": {"target": ["1", "8", "11", "9", "5", "5", "6", "7", "1", "23", "30", "33", "30", "23", "10", "3", "2"], "time": [2677, 2781, 3164, 4927, 7615, 8200, 9782, 12350, 12583, 13798, 13932, 14105, 16699, 16815, 17230, 17562, 18314]}, "edge": {"target": [], "time": []}}, "mouseout": {"state": {"target": ["0", "1", "8", "11", "9", "9", "5", "5", "6", "7", "1", "23", "30", "33", "30", "23", "10", "3"], "time": [2672, 2716, 3002, 4798, 6854, 7493, 7816, 9599, 11933, 12467, 13714, 13881, 13998, 16664, 16732, 16865, 17268, 18213]}, "edge": {"target": [], "time": []}}}, "displayed_time": "22.80", "trialTime": 25472, "trial_type": "mouselab-mdp", "trial_index": 42, "time_elapsed": 2987798, "internal_node_id": "0.0-4.0-1.0-15.0"}}, {"uniqueid": "w67427643:a26447084", "current_trial": 43, "dateTime": 1691145185179, "trialdata": {"revealed_states": [], "clicked_states": ["17", "21"], "num_clicks_accrued": [0, 0, 0, 0, 0, 0, 0, 0, 0, 0, 0, 0, 0], "stateRewards": ["", -1, 3, 2, 9, 41, 4, -46, -12, -54, -87, -25, 2, 3, -1, 11, -77, 12, -33, -9, -32, 35, 72, 1, 3, -7, 4, 37, 65, -73, 6, 77, -43, 8], "withholdReward": false, "trial_id": "mdp_trial_17", "block": "test", "trialIndex": 24, "score": 27.2, "costs": -2.8, "simulationMode": [null, null, null, null, null], "rewards": [2, 3, -1, -9, 35], "path": ["0", "0", "12", "13", "14", "19", "21"], "rt": [8889, 52, 128, 645, 270], "actions": ["right", "right", "right", "down", "down"], "actionTimes": [11230, 11806, 12510, 13699, 14519], "queries": {"click": {"state": {"target": ["17", "21"], "time": [3973, 7209]}, "edge": {"target": [], "time": []}}, "mouseover": {"state": {"target": ["15", "17", "17", "21", "21"], "time": [3060, 3114, 3586, 6575, 6777]}, "edge": {"target": [], "time": []}}, "mouseout": {"state": {"target": ["2", "1", "15", "17", "17", "21", "21", "23"], "time": [1204, 1292, 3109, 3211, 6210, 6612, 8363, 18411]}, "edge": {"target": [], "time": []}}}, "displayed_time": "17.34", "trialTime": 18869, "trial_type": "mouselab-mdp", "trial_index": 43, "time_elapsed": 3007801, "internal_node_id": "0.0-4.0-1.0-16.0"}}, {"uniqueid": "w67427643:a26447084", "current_trial": 44, "dateTime": 1691145207171, "trialdata": {"revealed_states": [], "clicked_states": ["32"], "num_clicks_accrued": [0, 0, 0, 0, 0, 0, 0, 0, 0, 0, 0, 0, 0], "stateRewards": ["", 1, 1, -3, 2, 22, -25, -11, -5, 50, 49, 3, 1, -1, 8, 14, -85, -30, 57, -6, -39, -16, 59, -2, -1, 5, 5, 59, -16, 8, 4, 67, 56, -9], "withholdReward": false, "trial_id": "mdp_trial_18", "block": "test", "trialIndex": 25, "score": 60.6, "costs": -1.4, "simulationMode": [null, null, null, null, null], "rewards": [-2, -1, 5, 4, 56], "path": ["0", "0", "23", "24", "25", "30", "32"], "rt": [6829, 334, 357, 496, 297], "actions": ["left", "left", "left", "down", "down"], "actionTimes": [10560, 11394, 12251, 13314, 14151], "queries": {"click": {"state": {"target": ["32"], "time": [5170]}, "edge": {"target": [], "time": []}}, "mouseover": {"state": {"target": ["23", "32", "33", "25", "28", "23"], "time": [4361, 4812, 6257, 7472, 7572, 8237]}, "edge": {"target": [], "time": []}}, "mouseout": {"state": {"target": ["23", "23", "32", "33", "25", "28"], "time": [759, 4405, 5957, 7370, 7523, 7623]}, "edge": {"target": [], "time": []}}}, "displayed_time": "19.67", "trialTime": 21060, "trial_type": "mouselab-mdp", "trial_index": 44, "time_elapsed": 3029793, "internal_node_id": "0.0-4.0-1.0-17.0"}}, {"uniqueid": "w67427643:a26447084", "current_trial": 45, "dateTime": 1691145229725, "trialdata": {"revealed_states": [], "clicked_states": ["32", "21", "5", "9"], "num_clicks_accrued": [0, 0, 0, 0, 0, 0, 0, 0, 0, 0, 0, 0, 0], "stateRewards": ["", -1, -3, 3, 5, 56, 39, 50, -1, -80, 33, -46, 1, -2, -6, -8, 87, 48, 54, -11, -20, -64, -54, -2, 3, -7, -3, 12, 88, 35, -16, -46, -70, -3], "withholdReward": false, "trial_id": "mdp_trial_19", "block": "test", "trialIndex": 26, "score": 54.4, "costs": -5.6, "simulationMode": [null, null, null, null, null], "rewards": [-1, -3, 3, 5, 56], "path": ["0", "0", "1", "2", "3", "4", "5"], "rt": [12466, 61, 67, 511, 347], "actions": ["up", "up", "up", "right", "up"], "actionTimes": [14881, 15499, 16084, 17128, 18003], "queries": {"click": {"state": {"target": ["32", "21", "5", "9"], "time": [4357, 7202, 9463, 11484]}, "edge": {"target": [], "time": []}}, "mouseover": {"state": {"target": ["13", "32", "32", "21", "4", "5", "9", "3", "3"], "time": [3115, 3715, 3931, 6480, 8814, 8980, 10281, 12115, 12366]}, "edge": {"target": [], "time": []}}, "mouseout": {"state": {"target": ["23", "13", "32", "32", "21", "4", "5", "9", "3"], "time": [1210, 3196, 3837, 6474, 8592, 8930, 9645, 11668, 12310]}, "edge": {"target": [], "time": []}}}, "displayed_time": "18.56", "trialTime": 21138, "trial_type": "mouselab-mdp", "trial_index": 45, "time_elapsed": 3052347, "internal_node_id": "0.0-4.0-1.0-18.0"}}, {"uniqueid": "w67427643:a26447084", "current_trial": 46, "dateTime": 1691145250395, "trialdata": {"revealed_states": [], "clicked_states": ["5", "32", "27"], "num_clicks_accrued": [0, 0, 0, 0, 0, 0, 0, 0, 0, 0, 0, 0, 0], "stateRewards": ["", -1, 3, 1, -11, -22, -36, 19, -5, -70, -52, 50, -2, -4, 4, -2, -41, -83, 29, -2, 22, 10, -6, -2, 3, -2, 14, 54, 44, 77, -9, -65, -37, -40], "withholdReward": false, "trial_id": "mdp_trial_20", "block": "test", "trialIndex": 27, "score": 62.8, "costs": -4.199999999999999, "simulationMode": [null, null, null, null, null], "rewards": [-2, 3, -2, 14, 54], "path": ["0", "0", "23", "24", "25", "26", "27"], "rt": [8985, 7, 23, 1171, 3056], "actions": ["left", "left", "left", "up", "up"], "actionTimes": [10953, 11491, 12080, 13807, 17406], "queries": {"click": {"state": {"target": ["5", "32", "27"], "time": [3300, 5354, 7525]}, "edge": {"target": [], "time": []}}, "mouseover": {"state": {"target": ["5", "30", "32", "32", "27", "17", "16", "18", "12", "23"], "time": [2962, 3980, 4063, 4364, 6164, 8164, 8513, 9862, 9979, 10306]}, "edge": {"target": [], "time": []}}, "mouseout": {"state": {"target": ["3", "1", "5", "30", "32", "32", "27", "17", "16", "18", "12"], "time": [704, 1021, 3776, 4030, 4231, 5935, 8048, 8231, 9805, 9936, 10012]}, "edge": {"target": [], "time": []}}}, "displayed_time": "17.95", "trialTime": 19472, "trial_type": "mouselab-mdp", "trial_index": 46, "time_elapsed": 3073017, "internal_node_id": "0.0-4.0-1.0-19.0"}}, {"uniqueid": "w67427643:a26447084", "current_trial": 47, "dateTime": 1691145271317, "trialdata": {"revealed_states": [], "clicked_states": ["27", "16"], "num_clicks_accrued": [0, 0, 0, 0, 0, 0, 0, 0, 0, 0, 0, 0, 0], "stateRewards": ["", 2, -1, 4, -9, -43, 7, 54, -13, 38, -40, -83, -1, 2, -8, -10, 34, -33, 11, -14, -79, 65, 26, 1, 2, 4, 10, 21, 1, 86, 4, -53, 28, -29], "withholdReward": false, "trial_id": "mdp_trial_21", "block": "test", "trialIndex": 28, "score": 14.2, "costs": -2.8, "simulationMode": [null, null, null, null, null], "rewards": [-1, 2, -8, -10, 34], "path": ["0", "0", "12", "13", "14", "15", "16"], "rt": [12011, 48, 62, 771, 115], "actions": ["right", "right", "right", "up", "up"], "actionTimes": [13701, 14270, 14851, 16176, 16803], "queries": {"click": {"state": {"target": ["27", "16"], "time": [3011, 7158]}, "edge": {"target": [], "time": []}}, "mouseover": {"state": {"target": ["27", "27", "8", "3", "7", "18", "15", "16", "13", "14", "19", "21"], "time": [2300, 2616, 6000, 6055, 6106, 6186, 6411, 6579, 8119, 10014, 11250, 11318]}, "edge": {"target": [], "time": []}}, "mouseout": {"state": {"target": ["23", "0", "27", "27", "8", "3", "7", "18", "15", "16", "13", "14", "19"], "time": [577, 864, 2330, 5933, 6050, 6102, 6151, 6235, 6454, 8021, 9968, 11204, 11284]}, "edge": {"target": [], "time": []}}}, "displayed_time": "17.38", "trialTime": 19827, "trial_type": "mouselab-mdp", "trial_index": 47, "time_elapsed": 3093940, "internal_node_id": "0.0-4.0-1.0-20.0"}}, {"uniqueid": "w67427643:a26447084", "current_trial": 48, "dateTime": 1691145295094, "trialdata": {"revealed_states": [], "clicked_states": ["5", "16", "32"], "num_clicks_accrued": [0, 0, 0, 0, 0, 0, 0, 0, 0, 0, 0, 0, 0], "stateRewards": ["", 1, 1, -6, -2, 7, 77, 3, 16, -16, 66, 31, -1, 3, -8, -6, 33, -50, -48, 7, -60, -66, 36, 2, -3, 3, -7, -12, -61, -79, -4, 8, 74, -70], "withholdReward": false, "trial_id": "mdp_trial_22", "block": "test", "trialIndex": 29, "score": 67.8, "costs": -4.199999999999999, "simulationMode": [null, null, null, null, null], "rewards": [2, -3, 3, -4, 74], "path": ["0", "0", "23", "24", "25", "30", "32"], "rt": [13495, 795, 269, 744, 247], "actions": ["left", "left", "left", "down", "down"], "actionTimes": [16249, 17588, 18367, 19663, 20413], "queries": {"click": {"state": {"target": ["5", "16", "32"], "time": [5787, 10166, 13230]}, "edge": {"target": [], "time": []}}, "mouseover": {"state": {"target": ["1", "2", "3", "5", "4", "7", "6", "15", "16", "16", "25", "30", "32"], "time": [4992, 5050, 5082, 5408, 6760, 6910, 8175, 8441, 8722, 9608, 11677, 12191, 12426]}, "edge": {"target": [], "time": []}}, "mouseout": {"state": {"target": ["21", "1", "2", "3", "5", "4", "7", "6", "15", "16", "16", "25", "30"], "time": [706, 5044, 5076, 5128, 6728, 6861, 8115, 8374, 8669, 9291, 11560, 12160, 12324]}, "edge": {"target": [], "time": []}}}, "displayed_time": "20.91", "trialTime": 22611, "trial_type": "mouselab-mdp", "trial_index": 48, "time_elapsed": 3117716, "internal_node_id": "0.0-4.0-1.0-21.0"}}, {"uniqueid": "w67427643:a26447084", "current_trial": 49, "dateTime": 1691145313776, "trialdata": {"revealed_states": [], "clicked_states": ["27", "21"], "num_clicks_accrued": [0, 0, 0, 0, 0, 0, 0, 0, 0, 0, 0, 0, 0], "stateRewards": ["", 1, 1, -3, 7, 49, 78, 26, -5, 26, 48, -43, -1, -3, 2, -5, 4, -1, -60, 10, -35, 51, 81, -2, 1, -7, -5, -39, -86, -54, 4, -3, 74, 77], "withholdReward": false, "trial_id": "mdp_trial_23", "block": "test", "trialIndex": 30, "score": 56.2, "costs": -2.8, "simulationMode": [null, null, null, null, null], "rewards": [-1, -3, 2, 10, 51], "path": ["0", "0", "12", "13", "14", "19", "21"], "rt": [8811, 77, 84, 632, 239], "actions": ["right", "right", "right", "down", "down"], "actionTimes": [10883, 11503, 12145, 13308, 14082], "queries": {"click": {"state": {"target": ["27", "21"], "time": [3176, 7250]}, "edge": {"target": [], "time": []}}, "mouseover": {"state": {"target": ["27", "26", "32", "19", "21", "18", "5", "4", "7", "12"], "time": [2684, 5345, 5422, 6521, 6872, 7639, 8022, 9843, 9902, 10020]}, "edge": {"target": [], "time": []}}, "mouseout": {"state": {"target": ["32", "0", "27", "26", "32", "19", "21", "18", "5", "4", "7"], "time": [695, 1268, 5338, 5389, 5473, 6804, 7589, 7690, 9822, 9896, 9923]}, "edge": {"target": [], "time": []}}}, "displayed_time": "16.07", "trialTime": 17519, "trial_type": "mouselab-mdp", "trial_index": 49, "time_elapsed": 3136398, "internal_node_id": "0.0-4.0-1.0-22.0"}}, {"uniqueid": "w67427643:a26447084", "current_trial": 50, "dateTime": 1691145345017, "trialdata": {"revealed_states": [], "clicked_states": ["21", "9", "5", "32", "27", "16", "20"], "num_clicks_accrued": [0, 0, 0, 0, 0, 0, 0, 0, 0, 0, 0, 0, 0], "stateRewards": ["", 1, 1, 5, 6, -29, -7, 3, -16, 9, -46, 65, -1, 4, -1, -16, -63, -77, -87, 8, 80, -50, 43, -1, -1, -5, 5, -38, -71, -62, 9, 81, -50, -52], "withholdReward": false, "trial_id": "mdp_trial_24", "block": "test", "trialIndex": 31, "score": 80.2, "costs": -9.8, "simulationMode": [null, null, null, null, null], "rewards": [-1, 4, -1, 8, 80], "path": ["0", "0", "12", "13", "14", "19", "20"], "rt": [22300, 135, 284, 808, 980], "actions": ["right", "right", "right", "down", "right"], "actionTimes": [23901, 24578, 25427, 26751, 28256], "queries": {"click": {"state": {"target": ["21", "9", "5", "32", "27", "16", "20"], "time": [4122, 6629, 8969, 11287, 14281, 16362, 20298]}, "edge": {"target": [], "time": []}}, "mouseover": {"state": {"target": ["1", "2", "1", "12", "20", "21", "13", "7", "9", "9", "5", "3", "2", "24", "32", "26", "27", "16", "7", "2", "12", "13", "14", "20", "14", "12", "13", "14"], "time": [2170, 2225, 2813, 3114, 3297, 3702, 4927, 4960, 5011, 5406, 7905, 10075, 10130, 10324, 10541, 13654, 13936, 15410, 18661, 18968, 19322, 19379, 19555, 19854, 21281, 22368, 22472, 22634]}, "edge": {"target": [], "time": []}}, "mouseout": {"state": {"target": ["12", "1", "2", "1", "12", "20", "21", "13", "7", "9", "9", "5", "3", "2", "24", "32", "26", "27", "16", "7", "2", "12", "13", "14", "20", "14", "12", "13"], "time": [630, 2220, 2587, 2851, 3167, 3413, 4302, 4955, 5006, 5039, 6819, 10007, 10124, 10159, 10359, 13612, 13674, 14487, 18620, 18689, 19252, 19373, 19423, 19588, 21276, 21323, 22438, 22582]}, "edge": {"target": [], "time": []}}}, "displayed_time": "28.78", "trialTime": 30270, "trial_type": "mouselab-mdp", "trial_index": 50, "time_elapsed": 3167639, "internal_node_id": "0.0-4.0-1.0-23.0"}}, {"uniqueid": "w67427643:a26447084", "current_trial": 51, "dateTime": 1691145365571, "trialdata": {"revealed_states": [], "clicked_states": ["17", "33"], "num_clicks_accrued": [0, 0, 0, 0, 0, 0, 0, 0, 0, 0, 0, 0, 0], "stateRewards": ["", 2, -4, 1, -12, -59, -53, -74, 16, -88, -66, 66, 1, -2, 8, -9, -14, 22, 25, -1, -39, 47, -14, -1, -1, -2, 1, -4, 52, -26, 15, -7, 46, 43], "withholdReward": false, "trial_id": "mdp_trial_25", "block": "test", "trialIndex": 32, "score": 51.2, "costs": -2.8, "simulationMode": [null, null, null, null, null], "rewards": [-1, -1, -2, 15, 43], "path": ["0", "0", "23", "24", "25", "30", "33"], "rt": [10632, 453, 62, 796, 690], "actions": ["left", "left", "left", "down", "left"], "actionTimes": [12753, 13711, 14303, 15653, 16906], "queries": {"click": {"state": {"target": ["17", "33"], "time": [4994, 8888]}, "edge": {"target": [], "time": []}}, "mouseover": {"state": {"target": ["17", "15", "13", "12", "24", "33", "30", "32"], "time": [4654, 5959, 7418, 7920, 7958, 8550, 10336, 10786]}, "edge": {"target": [], "time": []}}, "mouseout": {"state": {"target": ["14", "17", "15", "13", "12", "24", "33", "30", "32"], "time": [1081, 5955, 6004, 7901, 7954, 7988, 10304, 10422, 11485]}, "edge": {"target": [], "time": []}}}, "displayed_time": "17.42", "trialTime": 19503, "trial_type": "mouselab-mdp", "trial_index": 51, "time_elapsed": 3188193, "internal_node_id": "0.0-4.0-1.0-24.0"}}, {"uniqueid": "w67427643:a26447084", "current_trial": 52, "dateTime": 1691145386540, "trialdata": {"revealed_states": [], "clicked_states": ["27", "16", "5", "21"], "num_clicks_accrued": [0, 0, 0, 0, 0, 0, 0, 0, 0, 0, 0, 0, 0], "stateRewards": ["", -2, 4, -3, -13, 63, -36, 62, 11, 78, 34, -51, 2, -2, 8, -6, -40, -18, 31, 9, 64, 39, 79, 1, 4, -4, 15, -12, 76, 73, -10, -77, 86, -4], "withholdReward": false, "trial_id": "mdp_trial_26", "block": "test", "trialIndex": 33, "score": 43.4, "costs": -5.6, "simulationMode": [null, null, null, null, null], "rewards": [-2, 4, -3, -13, 63], "path": ["0", "0", "1", "2", "3", "4", "5"], "rt": [12384, 37, 82, 782, 88], "actions": ["up", "up", "up", "right", "up"], "actionTimes": [14407, 14998, 15670, 16982, 17608], "queries": {"click": {"state": {"target": ["27", "16", "5", "21"], "time": [3182, 5490, 8447, 10683]}, "edge": {"target": [], "time": []}}, "mouseover": {"state": {"target": ["27", "1", "18", "16", "5", "2", "1", "22", "19", "21", "18"], "time": [2584, 4288, 4389, 4876, 8157, 9614, 9697, 9947, 10047, 10296, 11383]}, "edge": {"target": [], "time": []}}, "mouseout": {"state": {"target": ["0", "27", "1", "18", "16", "5", "2", "1", "22", "19", "21", "18"], "time": [1009, 4121, 4320, 4438, 7644, 8629, 9647, 9764, 9986, 10212, 11348, 11431]}, "edge": {"target": [], "time": []}}}, "displayed_time": "18.15", "trialTime": 19739, "trial_type": "mouselab-mdp", "trial_index": 52, "time_elapsed": 3209163, "internal_node_id": "0.0-4.0-1.0-25.0"}}, {"uniqueid": "w67427643:a26447084", "current_trial": 53, "dateTime": 1691145405908, "trialdata": {"revealed_states": [], "clicked_states": ["5", "32"], "num_clicks_accrued": [0, 0, 0, 0, 0, 0, 0, 0, 0, 0, 0, 0, 0], "stateRewards": ["", -1, -3, 1, 13, -64, -29, 12, -4, -33, 50, 56, 2, -3, 4, 11, -64, -58, -55, 12, 47, 38, -25, -2, 2, 5, -15, 85, 7, 84, 10, 8, 57, 26], "withholdReward": false, "trial_id": "mdp_trial_27", "block": "test", "trialIndex": 34, "score": 69.2, "costs": -2.8, "simulationMode": [null, null, null, null, null], "rewards": [-2, 2, 5, 10, 57], "path": ["0", "0", "23", "24", "25", "30", "32"], "rt": [7626, 497, 262, 674, 180], "actions": ["left", "left", "left", "down", "down"], "actionTimes": [9692, 10745, 11527, 12740, 13487], "queries": {"click": {"state": {"target": ["5", "32"], "time": [4309, 6336]}, "edge": {"target": [], "time": []}}, "mouseover": {"state": {"target": ["0", "7", "4", "5", "3", "24", "32"], "time": [2858, 3361, 3860, 3916, 4767, 4845, 5328]}, "edge": {"target": [], "time": []}}, "mouseout": {"state": {"target": ["0", "0", "7", "4", "5", "3", "24", "32"], "time": [1259, 3193, 3394, 3910, 4763, 4813, 4879, 6526]}, "edge": {"target": [], "time": []}}}, "displayed_time": "16.14", "trialTime": 18254, "trial_type": "mouselab-mdp", "trial_index": 53, "time_elapsed": 3228531, "internal_node_id": "0.0-4.0-1.0-26.0"}}, {"uniqueid": "w67427643:a26447084", "current_trial": 54, "dateTime": 1691145434732, "trialdata": {"revealed_states": [], "clicked_states": ["21", "9", "32", "27"], "num_clicks_accrued": [0, 0, 0, 0, 0, 0, 0, 0, 0, 0, 0, 0, 0], "stateRewards": ["", 1, 1, 4, 11, 83, -66, 18, -16, -23, 5, 25, 1, -3, 1, -12, 18, 24, -86, -11, -64, 36, 40, 2, 1, -6, 13, 55, 29, 72, -2, 81, -72, -41], "withholdReward": false, "trial_id": "mdp_trial_28", "block": "test", "trialIndex": 35, "score": 59.4, "costs": -5.6, "simulationMode": [null, null, null, null, null], "rewards": [2, 1, -6, 13, 55], "path": ["0", "0", "23", "24", "25", "26", "27"], "rt": [16626, 761, 205, 668, 177], "actions": ["left", "left", "left", "up", "up"], "actionTimes": [20747, 22065, 22787, 23950, 24661], "queries": {"click": {"state": {"target": ["21", "9", "32", "27"], "time": [5874, 10281, 14047, 16311]}, "edge": {"target": [], "time": []}}, "mouseover": {"state": {"target": ["19", "21", "9", "28", "32", "32", "30", "26", "27", "10", "16", "24", "30", "24", "25"], "time": [5211, 5428, 9272, 11163, 11312, 11557, 14729, 14930, 15345, 16898, 17432, 18645, 18684, 19232, 19553]}, "edge": {"target": [], "time": []}}, "mouseout": {"state": {"target": ["0", "19", "21", "9", "9", "28", "32", "32", "30", "26", "27", "10", "16", "24", "30", "24"], "time": [3082, 5393, 8826, 10474, 11062, 11195, 11445, 14697, 14762, 15130, 16873, 16946, 18560, 18679, 18712, 19286]}, "edge": {"target": [], "time": []}}}, "displayed_time": "25.20", "trialTime": 27594, "trial_type": "mouselab-mdp", "trial_index": 54, "time_elapsed": 3257354, "internal_node_id": "0.0-4.0-1.0-27.0"}}, {"uniqueid": "w67427643:a26447084", "current_trial": 55, "dateTime": 1691145453233, "trialdata": {"revealed_states": [], "clicked_states": ["5", "32"], "num_clicks_accrued": [0, 0, 0, 0, 0, 0, 0, 0, 0, 0, 0, 0, 0], "stateRewards": ["", -1, 2, 6, 11, 21, -21, -21, -6, 48, -71, 88, -1, -3, 3, 7, 64, 2, 9, -4, 37, -67, 72, 2, 2, -8, -8, -10, 71, -40, -3, 73, 80, 47], "withholdReward": false, "trial_id": "mdp_trial_29", "block": "test", "trialIndex": 36, "score": 70.2, "costs": -2.8, "simulationMode": [null, null, null, null, null], "rewards": [2, 2, -8, -3, 80], "path": ["0", "0", "23", "24", "25", "30", "32"], "rt": [7190, 409, 323, 526, 186], "actions": ["left", "left", "left", "down", "down"], "actionTimes": [9029, 9971, 10836, 11888, 12614], "queries": {"click": {"state": {"target": ["5", "32"], "time": [3279, 5470]}, "edge": {"target": [], "time": []}}, "mouseover": {"state": {"target": ["12", "5", "3", "10", "25", "30", "32", "24", "25"], "time": [2522, 2900, 3713, 3746, 3841, 3941, 4157, 7854, 7956]}, "edge": {"target": [], "time": []}}, "mouseout": {"state": {"target": ["25", "24", "23", "12", "5", "5", "3", "10", "25", "30", "32", "24", "25"], "time": [698, 745, 963, 2569, 3453, 3708, 3741, 3791, 3892, 3992, 5654, 7923, 8041]}, "edge": {"target": [], "time": []}}}, "displayed_time": "15.84", "trialTime": 17306, "trial_type": "mouselab-mdp", "trial_index": 55, "time_elapsed": 3275855, "internal_node_id": "0.0-4.0-1.0-28.0"}}, {"uniqueid": "w67427643:a26447084", "current_trial": 56, "dateTime": 1691145476971, "trialdata": {"revealed_states": [], "clicked_states": ["27", "16", "21", "5"], "num_clicks_accrued": [0, 0, 0, 0, 0, 0, 0, 0, 0, 0, 0, 0, 0], "stateRewards": ["", 1, -1, 4, -2, -75, -75, 84, -9, -60, -79, 59, 2, -4, 8, 9, -17, -82, 80, 14, -4, 49, 49, -1, 3, 6, -11, -33, 34, 55, 9, -57, 5, 59], "withholdReward": false, "trial_id": "mdp_trial_30", "block": "test", "trialIndex": 37, "score": 63.4, "costs": -5.6, "simulationMode": [null, null, null, null, null], "rewards": [2, -4, 8, 14, 49], "path": ["0", "0", "12", "13", "14", "19", "21"], "rt": [14466, 574, 13, 354, 286], "actions": ["right", "right", "right", "down", "down"], "actionTimes": [16287, 17390, 17974, 18887, 19702], "queries": {"click": {"state": {"target": ["27", "16", "21", "5"], "time": [3841, 7425, 9514, 12363]}, "edge": {"target": [], "time": []}}, "mouseover": {"state": {"target": ["23", "32", "32", "25", "26", "27", "16", "15", "21", "31", "23", "5", "4", "0", "12", "13", "14"], "time": [2428, 2484, 2811, 2978, 3017, 3277, 6678, 8180, 8546, 10597, 10637, 11957, 12965, 13883, 14290, 14818, 15322]}, "edge": {"target": [], "time": []}}, "mouseout": {"state": {"target": ["23", "32", "32", "25", "26", "27", "16", "15", "21", "31", "23", "5", "4", "0", "12", "13"], "time": [2479, 2530, 2928, 3012, 3212, 6179, 8145, 8213, 9744, 10630, 10667, 12960, 12995, 13912, 14759, 15010]}, "edge": {"target": [], "time": []}}}, "displayed_time": "20.20", "trialTime": 22629, "trial_type": "mouselab-mdp", "trial_index": 56, "time_elapsed": 3299593, "internal_node_id": "0.0-4.0-1.0-29.0"}}, {"uniqueid": "w67427643:a26447084", "current_trial": 57, "dateTime": 1691145495630, "trialdata": {"revealed_states": [], "clicked_states": ["21", "32"], "num_clicks_accrued": [0, 0, 0, 0, 0, 0, 0, 0, 0, 0, 0, 0, 0], "stateRewards": ["", -2, -1, -4, -15, -14, -67, 32, -3, -59, 63, 31, 2, -1, -7, -15, 71, -66, -27, -3, -54, -39, 72, 2, 1, 1, -13, 77, -40, 35, -9, 35, 75, 57], "withholdReward": false, "trial_id": "mdp_trial_31", "block": "test", "trialIndex": 38, "score": 67.2, "costs": -2.8, "simulationMode": [null, null, null, null, null], "rewards": [2, 1, 1, -9, 75], "path": ["0", "0", "23", "24", "25", "30", "32"], "rt": [8827, 118, 168, 552, 222], "actions": ["left", "left", "left", "down", "down"], "actionTimes": [10645, 11290, 12007, 13088, 13829], "queries": {"click": {"state": {"target": ["21", "32"], "time": [3936, 7003]}, "edge": {"target": [], "time": []}}, "mouseover": {"state": {"target": ["23", "2", "2", "12", "21", "32", "30", "28", "9", "28", "24"], "time": [2331, 2500, 2715, 2816, 3576, 5101, 7602, 7657, 7736, 9468, 9850]}, "edge": {"target": [], "time": []}}, "mouseout": {"state": {"target": ["14", "23", "2", "2", "12", "21", "32", "30", "28", "9", "28", "24"], "time": [573, 2381, 2535, 2784, 2851, 4585, 7216, 7652, 7702, 9399, 9547, 9898]}, "edge": {"target": [], "time": []}}}, "displayed_time": "15.83", "trialTime": 17245, "trial_type": "mouselab-mdp", "trial_index": 57, "time_elapsed": 3318253, "internal_node_id": "0.0-4.0-1.0-30.0"}}, {"uniqueid": "w67427643:a26447084", "current_trial": 58, "dateTime": 1691145519585, "trialdata": {"revealed_states": [], "clicked_states": ["27", "21", "5", "9", "32"], "num_clicks_accrued": [0, 0, 0, 0, 0, 0, 0, 0, 0, 0, 0, 0, 0], "stateRewards": ["", 1, 1, 1, 15, -76, 52, -32, 14, -57, 37, 49, 1, -4, -3, 6, 83, -76, 25, 9, 36, -1, -17, -1, 4, 4, -2, -22, -21, 58, -15, -57, 49, -24], "withholdReward": false, "trial_id": "mdp_trial_32", "block": "test", "trialIndex": 39, "score": 34, "costs": -7, "simulationMode": [null, null, null, null, null], "rewards": [-1, 4, 4, -15, 49], "path": ["0", "0", "23", "24", "25", "30", "32"], "rt": [14628, 35, 124, 279, 210], "actions": ["left", "left", "left", "down", "down"], "actionTimes": [16483, 17062, 17733, 18580, 19302], "queries": {"click": {"state": {"target": ["27", "21", "5", "9", "32"], "time": [3254, 5982, 9032, 11206, 13231]}, "edge": {"target": [], "time": []}}, "mouseover": {"state": {"target": ["28", "26", "27", "27", "8", "2", "0", "21", "5", "9", "30", "32", "12", "23"], "time": [2353, 2438, 2521, 2851, 4260, 4388, 4508, 5620, 8620, 10389, 11855, 12122, 15299, 15432]}, "edge": {"target": [], "time": []}}, "mouseout": {"state": {"target": ["24", "0", "28", "26", "27", "27", "8", "2", "0", "21", "5", "9", "30", "32", "12", "23"], "time": [731, 2103, 2405, 2488, 2554, 4169, 4304, 4422, 4537, 7969, 9209, 11623, 11888, 13429, 15351, 15475]}, "edge": {"target": [], "time": []}}}, "displayed_time": "19.81", "trialTime": 22805, "trial_type": "mouselab-mdp", "trial_index": 58, "time_elapsed": 3342209, "internal_node_id": "0.0-4.0-1.0-31.0"}}, {"uniqueid": "w67427643:a26447084", "current_trial": 59, "dateTime": 1691145558913, "trialdata": {"revealed_states": [], "clicked_states": ["32", "27", "9", "5", "16", "21", "17", "24"], "num_clicks_accrued": [0, 0, 0, 0, 0, 0, 0, 0, 0, 0, 0, 0, 0], "stateRewards": ["", -1, -2, 4, 9, 10, -75, 39, 16, -43, 88, -19, -1, 1, 2, 4, -31, 10, 73, 12, 41, -64, -81, -2, 2, -6, 1, -81, -1, -26, 3, -59, -3, -20], "withholdReward": false, "trial_id": "mdp_trial_33", "block": "test", "trialIndex": 40, "score": -36.2, "costs": -11.200000000000001, "simulationMode": [null, null, null, null, null], "rewards": [-1, 1, 2, 4, -31], "path": ["0", "0", "12", "13", "14", "15", "16"], "rt": [29737, 230, 76, 1447, 25], "actions": ["right", "right", "right", "up", "up"], "actionTimes": [31655, 32403, 32999, 34988, 35549], "queries": {"click": {"state": {"target": ["32", "27", "9", "5", "16", "21", "17", "24"], "time": [3337, 5355, 7433, 9465, 12275, 14321, 16150, 18236]}, "edge": {"target": [], "time": []}}, "mouseover": {"state": {"target": ["23", "30", "32", "32", "30", "27", "11", "9", "5", "14", "15", "16", "15", "14", "19", "21", "20", "17", "18", "31", "24", "23", "0", "23", "28", "28", "26", "2", "3", "2"], "time": [2633, 2767, 2823, 2934, 4139, 4451, 5869, 6502, 8168, 10036, 10236, 10440, 12958, 13018, 13058, 13535, 14901, 15385, 16985, 17135, 17471, 18901, 19019, 20919, 21003, 21411, 21901, 22268, 22325, 24340]}, "edge": {"target": [], "time": []}}, "mouseout": {"state": {"target": ["24", "23", "23", "30", "32", "32", "30", "27", "11", "9", "5", "5", "14", "15", "16", "15", "14", "19", "21", "20", "17", "18", "31", "24", "23", "0", "23", "28", "28", "26", "2", "3", "2"], "time": [760, 915, 2700, 2818, 2851, 4134, 4172, 5835, 5952, 7622, 9650, 9914, 10186, 10286, 12952, 12985, 13052, 13136, 14504, 14935, 16936, 17036, 17369, 18870, 18935, 19052, 20952, 21036, 21824, 22199, 22319, 24335, 24418]}, "edge": {"target": [], "time": []}}}, "displayed_time": "36.15", "trialTime": 37973, "trial_type": "mouselab-mdp", "trial_index": 59, "time_elapsed": 3381534, "internal_node_id": "0.0-4.0-1.0-32.0"}}, {"uniqueid": "w67427643:a26447084", "current_trial": 60, "dateTime": 1691145578578, "trialdata": {"revealed_states": [], "clicked_states": ["5"], "num_clicks_accrued": [0, 0, 0, 0, 0, 0, 0, 0, 0, 0, 0, 0, 0], "stateRewards": ["", 1, 1, 7, -11, 80, -20, -53, -14, 3, 31, 27, 2, -1, -8, -10, 33, 41, 86, 9, 78, -37, -13, -1, -2, -6, -8, -80, 75, 4, -16, -49, -74, 24], "withholdReward": false, "trial_id": "mdp_trial_34", "block": "test", "trialIndex": 41, "score": 76.6, "costs": -1.4, "simulationMode": [null, null, null, null, null], "rewards": [1, 1, 7, -11, 80], "path": ["0", "0", "1", "2", "3", "4", "5"], "rt": [6375, 280, 499, 779, 669], "actions": ["up", "up", "up", "right", "up"], "actionTimes": [8144, 8981, 10000, 11296, 12471], "queries": {"click": {"state": {"target": ["5"], "time": [3201]}, "edge": {"target": [], "time": []}}, "mouseover": {"state": {"target": ["2", "5", "9", "3"], "time": [2295, 2895, 4311, 7268]}, "edge": {"target": [], "time": []}}, "mouseout": {"state": {"target": ["0", "2", "5", "9"], "time": [2083, 2338, 3411, 7065]}, "edge": {"target": [], "time": []}}}, "displayed_time": "17.59", "trialTime": 18383, "trial_type": "mouselab-mdp", "trial_index": 60, "time_elapsed": 3401201, "internal_node_id": "0.0-4.0-1.0-33.0"}}, {"uniqueid": "w67427643:a26447084", "current_trial": 61, "dateTime": 1691145597027, "trialdata": {"revealed_states": [], "clicked_states": ["32"], "num_clicks_accrued": [0, 0, 0, 0, 0, 0, 0, 0, 0, 0, 0, 0, 0], "stateRewards": ["", -2, 1, -8, 12, -65, -79, 16, 7, -80, -17, -45, -2, 2, -5, -2, -85, 23, -4, -7, 48, 27, -76, 2, 3, 5, 2, 43, 71, -13, 7, -49, 59, -31], "withholdReward": false, "trial_id": "mdp_trial_35", "block": "test", "trialIndex": 42, "score": 74.6, "costs": -1.4, "simulationMode": [null, null, null, null, null], "rewards": [2, 3, 5, 7, 59], "path": ["0", "0", "23", "24", "25", "30", "32"], "rt": [4366, 286, 9, 886, 893], "actions": ["left", "left", "left", "down", "down"], "actionTimes": [6272, 7072, 7578, 9038, 10446], "queries": {"click": {"state": {"target": ["32"], "time": [3296]}, "edge": {"target": [], "time": []}}, "mouseover": {"state": {"target": ["32", "26", "27", "26"], "time": [2832, 4232, 4299, 5668]}, "edge": {"target": [], "time": []}}, "mouseout": {"state": {"target": ["3", "1", "32", "26", "27", "26"], "time": [675, 779, 4133, 4265, 5613, 5731]}, "edge": {"target": [], "time": []}}}, "displayed_time": "15.92", "trialTime": 17166, "trial_type": "mouselab-mdp", "trial_index": 61, "time_elapsed": 3419649, "internal_node_id": "0.0-4.0-1.0-34.0"}}, {"uniqueid": "w67427643:a26447084", "current_trial": 62, "dateTime": 1691145618860, "trialdata": {"revealed_states": [], "clicked_states": ["9", "32", "27"], "num_clicks_accrued": [0, 0, 0, 0, 0, 0, 0, 0, 0, 0, 0, 0, 0], "stateRewards": ["", 1, 4, 5, -5, 58, -80, 75, 6, 25, -39, 46, 2, -2, 4, 2, 59, 31, -22, -12, -61, 15, 72, 1, -2, -7, 8, 77, 76, -23, -7, 71, -15, -3], "withholdReward": false, "trial_id": "mdp_trial_36", "block": "test", "trialIndex": 43, "score": 72.8, "costs": -4.199999999999999, "simulationMode": [null, null, null, null, null], "rewards": [1, -2, -7, 8, 77], "path": ["0", "0", "23", "24", "25", "26", "27"], "rt": [12094, 621, 15, 1103, 109], "actions": ["left", "left", "left", "up", "up"], "actionTimes": [14488, 15638, 16213, 17905, 18525], "queries": {"click": {"state": {"target": ["9", "32", "27"], "time": [3517, 8602, 10705]}, "edge": {"target": [], "time": []}}, "mouseover": {"state": {"target": ["9", "1", "23", "30", "32", "26", "27", "16", "13"], "time": [3269, 4229, 7994, 8049, 8111, 9711, 10084, 11824, 13511]}, "edge": {"target": [], "time": []}}, "mouseout": {"state": {"target": ["24", "23", "0", "9", "9", "1", "23", "30", "32", "26", "27", "16"], "time": [955, 1086, 1275, 3701, 4095, 4277, 8044, 8078, 8792, 9912, 10914, 13344]}, "edge": {"target": [], "time": []}}}, "displayed_time": "19.10", "trialTime": 20477, "trial_type": "mouselab-mdp", "trial_index": 62, "time_elapsed": 3441482, "internal_node_id": "0.0-4.0-1.0-35.0"}}, {"uniqueid": "w67427643:a26447084", "current_trial": 63, "dateTime": 1691145645170, "trialdata": {"revealed_states": [], "clicked_states": ["27", "16", "21", "32", "5", "9"], "num_clicks_accrued": [0, 0, 0, 0, 0, 0, 0, 0, 0, 0, 0, 0, 0], "stateRewards": ["", -1, 3, -5, -2, -13, -9, -34, -7, -81, 32, 35, -2, -2, 1, -14, -32, 81, 7, 4, 82, 56, -8, -1, 3, -8, 6, -24, -24, -53, 2, 38, 61, 54], "withholdReward": false, "trial_id": "mdp_trial_37", "block": "test", "trialIndex": 44, "score": 48.6, "costs": -8.4, "simulationMode": [null, null, null, null, null], "rewards": [-1, 3, -8, 2, 61], "path": ["0", "0", "23", "24", "25", "30", "32"], "rt": [16971, 279, 227, 347, 156], "actions": ["left", "left", "left", "down", "down"], "actionTimes": [18931, 19752, 20499, 21386, 22062], "queries": {"click": {"state": {"target": ["27", "16", "21", "32", "5", "9"], "time": [3328, 5377, 7472, 9489, 13333, 15779]}, "edge": {"target": [], "time": []}}, "mouseover": {"state": {"target": ["28", "27", "27", "10", "16", "13", "19", "21", "32", "23", "1", "2", "5", "5", "9", "8", "10", "24", "30", "32", "30"], "time": [2533, 2589, 2878, 3868, 4251, 6035, 6154, 6468, 8286, 10303, 10768, 11219, 11567, 12362, 15186, 16949, 17003, 17118, 17286, 17534, 17984]}, "edge": {"target": [], "time": []}}, "mouseout": {"state": {"target": ["13", "12", "0", "28", "27", "27", "10", "16", "13", "19", "21", "32", "23", "1", "2", "5", "5", "9", "8", "10", "24", "30", "32", "30"], "time": [758, 831, 2496, 2584, 2617, 3516, 3917, 5567, 6071, 6236, 7920, 10119, 10437, 10804, 11270, 12143, 15068, 16943, 16976, 17052, 17235, 17387, 17855, 18200]}, "edge": {"target": [], "time": []}}}, "displayed_time": "22.57", "trialTime": 24958, "trial_type": "mouselab-mdp", "trial_index": 63, "time_elapsed": 3467792, "internal_node_id": "0.0-4.0-1.0-36.0"}}, {"uniqueid": "w67427643:a26447084", "current_trial": 64, "dateTime": 1691145682015, "trialdata": {"revealed_states": [], "clicked_states": ["5", "32", "21", "16", "27", "9", "10", "11", "6", "20"], "num_clicks_accrued": [0, 0, 0, 0, 0, 0, 0, 0, 0, 0, 0, 0, 0], "stateRewards": ["", -2, -3, -6, -7, 9, 16, 65, 5, -41, 20, -25, -1, -4, 1, -11, -49, -4, 71, 1, 39, -62, 52, -2, -3, 7, -9, -28, -70, 84, 8, 24, -58, 82], "withholdReward": false, "trial_id": "mdp_trial_38", "block": "test", "trialIndex": 45, "score": 22, "costs": -14.000000000000002, "simulationMode": [null, null, null, null, null], "rewards": [-1, -4, 1, 1, 39], "path": ["0", "0", "12", "13", "14", "19", "20"], "rt": [27452, 591, 129, 839, 662], "actions": ["right", "right", "right", "down", "right"], "actionTimes": [29385, 30495, 31147, 32508, 33698], "queries": {"click": {"state": {"target": ["5", "32", "21", "16", "27", "9", "10", "11", "6", "20"], "time": [3701, 6202, 8277, 10417, 12788, 15031, 17153, 20486, 22554, 26208]}, "edge": {"target": [], "time": []}}, "mouseover": {"state": {"target": ["5", "28", "24", "30", "32", "22", "21", "19", "14", "15", "16", "4", "8", "11", "27", "11", "9", "8", "10", "2", "11", "8", "3", "4", "6", "7", "12", "22", "19", "20", "13", "0", "12", "13", "14"], "time": [3276, 4290, 4322, 4500, 4615, 7293, 7652, 9201, 9256, 9556, 9701, 11000, 11056, 11105, 11200, 13684, 13833, 15601, 15799, 17900, 18300, 21067, 21150, 21250, 21801, 24100, 25208, 25414, 25580, 25863, 26749, 27878, 28189, 28265, 28348]}, "edge": {"target": [], "time": []}}, "mouseout": {"state": {"target": ["30", "23", "5", "28", "24", "30", "32", "22", "21", "19", "14", "15", "16", "4", "8", "11", "27", "11", "9", "8", "10", "2", "11", "11", "8", "3", "4", "6", "6", "7", "12", "22", "19", "20", "13", "0", "12", "13"], "time": [632, 813, 4190, 4316, 4351, 4549, 7084, 7400, 9166, 9250, 9290, 9606, 10967, 11050, 11100, 11150, 13617, 13716, 15551, 15651, 17733, 18083, 20674, 21033, 21117, 21183, 21683, 22733, 24017, 25011, 25347, 25465, 25731, 26389, 26781, 28096, 28232, 28316]}, "edge": {"target": [], "time": []}}}, "displayed_time": "34.24", "trialTime": 35484, "trial_type": "mouselab-mdp", "trial_index": 64, "time_elapsed": 3504638, "internal_node_id": "0.0-4.0-1.0-37.0"}}, {"uniqueid": "w67427643:a26447084", "current_trial": 65, "dateTime": 1691145701621, "trialdata": {"revealed_states": [], "clicked_states": ["5", "32"], "num_clicks_accrued": [0, 0, 0, 0, 0, 0, 0, 0, 0, 0, 0, 0, 0], "stateRewards": ["", -1, 3, 8, 10, -86, 61, -36, 10, 17, -60, 24, -1, -3, 3, 11, 50, 60, 33, -3, -20, 58, -6, 1, -4, -4, 13, -70, -71, 43, 14, 52, 82, -11], "withholdReward": false, "trial_id": "mdp_trial_39", "block": "test", "trialIndex": 46, "score": 86.2, "costs": -2.8, "simulationMode": [null, null, null, null, null], "rewards": [1, -4, -4, 14, 82], "path": ["0", "0", "23", "24", "25", "30", "32"], "rt": [8390, 532, 147, 405, 247], "actions": ["left", "left", "left", "down", "down"], "actionTimes": [10488, 11529, 12195, 13115, 13878], "queries": {"click": {"state": {"target": ["5", "32"], "time": [3386, 7192]}, "edge": {"target": [], "time": []}}, "mouseover": {"state": {"target": ["5", "25", "32", "25", "26", "27", "26", "25"], "time": [3017, 4009, 4509, 8273, 8540, 8833, 9590, 9685]}, "edge": {"target": [], "time": []}}, "mouseout": {"state": {"target": ["14", "13", "12", "5", "25", "32", "25", "26", "27", "26"], "time": [810, 855, 1077, 3925, 4043, 8108, 8490, 8690, 9572, 9677]}, "edge": {"target": [], "time": []}}}, "displayed_time": "16.10", "trialTime": 18414, "trial_type": "mouselab-mdp", "trial_index": 65, "time_elapsed": 3524244, "internal_node_id": "0.0-4.0-1.0-38.0"}}, {"uniqueid": "w67427643:a26447084", "current_trial": 66, "dateTime": 1691145722911, "trialdata": {"revealed_states": [], "clicked_states": ["9", "32", "21"], "num_clicks_accrued": [0, 0, 0, 0, 0, 0, 0, 0, 0, 0, 0, 0, 0], "stateRewards": ["", -1, 4, 3, 12, -27, 34, -33, 3, -63, 1, 6, 2, 2, -6, -11, -77, -85, 68, -6, 51, 81, -60, -2, -2, 1, 15, 20, 15, 68, -10, -14, 6, -4], "withholdReward": false, "trial_id": "mdp_trial_40", "block": "test", "trialIndex": 47, "score": 68.8, "costs": -4.199999999999999, "simulationMode": [null, null, null, null, null], "rewards": [2, 2, -6, -6, 81], "path": ["0", "0", "12", "13", "14", "19", "21"], "rt": [10442, 280, 487, 1218, 129], "actions": ["right", "right", "right", "down", "down"], "actionTimes": [12619, 13407, 14431, 16162, 16790], "queries": {"click": {"state": {"target": ["9", "32", "21"], "time": [3764, 6456, 8680]}, "edge": {"target": [], "time": []}}, "mouseover": {"state": {"target": ["3", "9", "9", "28", "30", "32", "21", "16", "13", "14"], "time": [3023, 3206, 3405, 4356, 4506, 4673, 7590, 9590, 11223, 11406]}, "edge": {"target": [], "time": []}}, "mouseout": {"state": {"target": ["25", "23", "3", "9", "9", "28", "30", "32", "21", "16", "13"], "time": [1054, 1129, 3089, 3239, 4256, 4389, 4589, 7024, 9324, 11122, 11309]}, "edge": {"target": [], "time": []}}}, "displayed_time": "17.31", "trialTime": 20054, "trial_type": "mouselab-mdp", "trial_index": 66, "time_elapsed": 3545534, "internal_node_id": "0.0-4.0-1.0-39.0"}}, {"uniqueid": "w67427643:a26447084", "current_trial": 67, "dateTime": 1691145818866, "trialdata": {"rt": 95612, "response": {"Q0": "$-16 to 16", "Q1": "$-32 to $32", "Q2": "$-88 to $88", "Q3": "The cost for clicking on nodes varied between nodes.", "Q4": "Very motivated"}, "question_order": [0, 1, 2, 3, 4], "trial_id": "final_quiz_control", "trial_type": "survey-multi-choice", "trial_index": 67, "time_elapsed": 3641489, "internal_node_id": "0.0-4.0-2.0"}}, {"uniqueid": "w67427643:a26447084", "current_trial": 68, "dateTime": 1691145933934, "trialdata": {"rt": 115011, "response": {"Q0": "clicked on the furthest nodes to decide on the direction the spider will take", "Q1": "I realised that clicking on closer nodes was wasting time", "Q2": "It was not difficult at all"}, "trial_id": "self_report_control", "trial_type": "survey-text", "trial_index": 68, "time_elapsed": 3756557, "internal_node_id": "0.0-4.0-3.0"}}, {"uniqueid": "w67427643:a26447084", "current_trial": 69, "dateTime": 1691145972042, "trialdata": {"rt": 38091, "response": {"gender": "female", "age": "28", "colorblind": "0", "effort": "0"}, "trial_type": "survey-html-form", "trial_index": 69, "time_elapsed": 3794666, "internal_node_id": "0.0-4.0-4.0"}}, {"uniqueid": "w67427643:a26447084", "current_trial": 70, "dateTime": 1691145989932, "trialdata": {"rt": 17856, "response": {"Q0": "no", "Q1": "no", "Q2": "it was fun"}, "trial_type": "survey-text", "trial_index": 70, "time_elapsed": 3812555, "internal_node_id": "0.0-4.0-5.0"}}, {"uniqueid": "w67427643:a26447084", "current_trial": 71, "dateTime": 1691145992676, "trialdata": {"rt": 2713, "stimulus": "Press 'Finish HIT' in order to reach the completion code. Once the data has been saved, you will receive the code either in this window or in the original browser window where you started the experiment.\n", "response": 0, "trial_type": "html-button-response", "trial_index": 71, "time_elapsed": 3815299, "internal_node_id": "0.0-5.0"}}, {"uniqueid": "w67427643:a26447084", "current_trial": 72, "dateTime": 1691145993702, "trialdata": {"success": true, "trial_type": "fullscreen", "trial_index": 72, "time_elapsed": 3816325, "internal_node_id": "0.0-6.0"}}], "questiondata": {"params": {"CODE": "C6DMOQA6", "MIN_TIME": 14, "inspectCost": 1, "startTime": "Fri Aug 04 2023 11:42:40 GMT+0200 (South Africa Standard Time)", "bonusRate": 0.002, "variance": "1_2_4_8_44", "branching": "31123"}}, "eventdata": [{"eventtype": "initialized", "value": null, "timestamp": 1691142159344, "interval": 0}, {"eventtype": "window_resize", "value": [1029, 526], "timestamp": 1691142159344, "interval": 0}, {"eventtype": "window_resize", "value": [1029, 526], "timestamp": 1691142160510, "interval": 1166}, {"eventtype": "window_resize", "value": [1120, 538], "timestamp": 1691142177031, "interval": 16521}, {"eventtype": "window_resize", "value": [1029, 526], "timestamp": 1691142182777, "interval": 5746}, {"eventtype": "focus", "value": "off", "timestamp": 1691142187598, "interval": 4821}, {"eventtype": "focus", "value": "on", "timestamp": 1691142191863, "interval": 4265}, {"eventtype": "window_resize", "value": [1120, 538], "timestamp": 1691142230774, "interval": 38911}, {"eventtype": "window_resize", "value": [1029, 526], "timestamp": 1691142237785, "interval": 7011}, {"eventtype": "window_resize", "value": [1120, 538], "timestamp": 1691142239782, "interval": 1997}, {"eventtype": "window_resize", "value": [1019, 489], "timestamp": 1691142248779, "interval": 8997}, {"eventtype": "focus", "value": "off", "timestamp": 1691142251727, "interval": 2948}, {"eventtype": "window_resize", "value": [1120, 538], "timestamp": 1691142254788, "interval": 3061}, {"eventtype": "window_resize", "value": [1245, 597], "timestamp": 1691142255784, "interval": 996}, {"eventtype": "window_resize", "value": [1400, 672], "timestamp": 1691142256789, "interval": 1005}, {"eventtype": "focus", "value": "on", "timestamp": 1691142258311, "interval": 1522}, {"eventtype": "window_resize", "value": [1400, 787], "timestamp": 1691142263167, "interval": 4856}, {"eventtype": "focus", "value": "off", "timestamp": 1691143839377, "interval": 1576210}, {"eventtype": "focus", "value": "on", "timestamp": 1691143839378, "interval": 1}, {"eventtype": "window_resize", "value": [1400, 672], "timestamp": 1691143839612, "interval": 234}, {"eventtype": "window_resize", "value": [1400, 787], "timestamp": 1691143842255, "interval": 2643}, {"eventtype": "focus", "value": "off", "timestamp": 1691144083295, "interval": 241040}, {"eventtype": "focus", "value": "on", "timestamp": 1691144083295, "interval": 0}, {"eventtype": "window_resize", "value": [1400, 672], "timestamp": 1691144083528, "interval": 233}, {"eventtype": "window_resize", "value": [1400, 787], "timestamp": 1691144085570, "interval": 2042}, {"eventtype": "focus", "value": "off", "timestamp": 1691144345037, "interval": 259467}, {"eventtype": "focus", "value": "on", "timestamp": 1691144345038, "interval": 1}, {"eventtype": "window_resize", "value": [1400, 672], "timestamp": 1691144345267, "interval": 229}, {"eventtype": "window_resize", "value": [1400, 787], "timestamp": 1691144347625, "interval": 2358}, {"eventtype": "focus", "value": "off", "timestamp": 1691145908542, "interval": 1560917}, {"eventtype": "window_resize", "value": [1400, 786], "timestamp": 1691145908789, "interval": 247}, {"eventtype": "window_resize", "value": [1400, 787], "timestamp": 1691145909779, "interval": 990}, {"eventtype": "focus", "value": "on", "timestamp": 1691145911249, "interval": 1470}, {"eventtype": "focus", "value": "off", "timestamp": 1691145914408, "interval": 3159}, {"eventtype": "focus", "value": "on", "timestamp": 1691145914677, "interval": 269}, {"eventtype": "window_resize", "value": [1400, 787], "timestamp": 1691145914714, "interval": 37}, {"eventtype": "window_resize", "value": [1400, 787], "timestamp": 1691145914945, "interval": 231}, {"eventtype": "window_resize", "value": [1400, 672], "timestamp": 1691145993004, "interval": 78059}], "useragent": "Mozilla/5.0 (Windows NT 10.0; Win64; x64) AppleWebKit/537.36 (KHTML, like Gecko) Chrome/115.0.0.0 Safari/537.36 Edg/115.0.1901.188", "mode": "live", "id": "w67427643:a26447084", "status": "user data saved", "Beginhit": "2023-08-04 09:42:14.17394", "Beginexp": "2023-08-04 09:44:26.55071", "Endhit": "2023-08-04 10:46:38.664722", "psiturkStatus": 3, "browser": "<redacted>", "platform": "windows", "language": "en-US"}