{"condition": 1, "counterbalance": 0, "assignmentId": "a18438026", "workerId": "w25346192", "hitId": "h67808084", "currenttrial": 56, "bonus": 0, "data": [{"uniqueid": "w25346192:a18438026", "current_trial": 0, "dateTime": 1691159549641, "trialdata": {"success": true, "trial_type": "fullscreen", "trial_index": 0, "time_elapsed": 3090, "internal_node_id": "0.0-0.0"}}, {"uniqueid": "w25346192:a18438026", "current_trial": 1, "dateTime": 1691159575841, "trialdata": {"view_history": [{"page_index": 0, "viewing_time": 26175}], "rt": 26179, "trial_id": "exp_instructions_misaligned", "trial_type": "instructions", "trial_index": 1, "time_elapsed": 29290, "internal_node_id": "0.0-1.0"}}, {"uniqueid": "w25346192:a18438026", "current_trial": 2, "dateTime": 1691159582453, "trialdata": {"success": true, "trial_type": "fullscreen", "trial_index": 2, "time_elapsed": 35903, "internal_node_id": "0.0-2.0-0.0"}}, {"uniqueid": "w25346192:a18438026", "current_trial": 3, "dateTime": 1691159985769, "trialdata": {"view_history": [{"page_index": 0, "viewing_time": 181012}, {"page_index": 1, "viewing_time": 114280}, {"page_index": 2, "viewing_time": 44824}, {"page_index": 3, "viewing_time": 63190}], "rt": 403308, "trial_id": "mouselab_instructions_1_misaligned", "trial_type": "instructions", "trial_index": 3, "time_elapsed": 439218, "internal_node_id": "0.0-2.0-1.0"}}, {"uniqueid": "w25346192:a18438026", "current_trial": 4, "dateTime": 1691160022213, "trialdata": {"revealed_states": [], "clicked_states": ["32", "21", "5", "9"], "num_clicks_accrued": [0, 0, 0, 0, 0, 0, 0, 0, 0, 0, 0, 0, 0], "stateRewards": ["", -10, 10, -10, 10, 10, 10, 10, -10, 10, 10, -10, 10, 10, -10, -10, -10, -10, 10, -10, -10, -10, 10, 10, 10, -10, 10, -10, -10, 10, 10, -10, -10, 10], "withholdReward": false, "trial_id": "practice_1", "block": "test", "trialIndex": 0, "score": -8.5, "costs": -2, "simulationMode": [null, null, null, null, null], "rewards": [10, 10, -10, -10, -10], "path": ["0", "0", "12", "13", "14", "19", "21"], "rt": [13765, 413, 480, 622, 442], "actions": ["right", "right", "right", "down", "down"], "actionTimes": [20189, 21115, 22146, 23329, 24335], "queries": {"click": {"state": {"target": ["32", "21", "5", "9"], "time": [12288, 14412, 16066, 17490]}, "edge": {"target": [], "time": []}}, "mouseover": {"state": {"target": ["1", "2", "2", "23", "24", "32", "21", "5", "9", "2"], "time": [10310, 10712, 11099, 11190, 11247, 11529, 13916, 15386, 16821, 18576]}, "edge": {"target": [], "time": []}}, "mouseout": {"state": {"target": ["0", "1", "2", "2", "23", "24", "32", "21", "5", "9", "9", "2", "2", "17"], "time": [9689, 10670, 10752, 11157, 11233, 11437, 13422, 14973, 16542, 17592, 18492, 18644, 30612, 32510]}, "edge": {"target": [], "time": []}}}, "displayed_time": "24.88", "trialTime": 33574, "trial_type": "mouselab-mdp", "trial_index": 4, "time_elapsed": 475657, "internal_node_id": "0.0-2.0-2.0-0.0"}}, {"uniqueid": "w25346192:a18438026", "current_trial": 5, "dateTime": 1691160040164, "trialdata": {"revealed_states": [], "clicked_states": [], "num_clicks_accrued": [0, 0, 0, 0, 0, 0, 0, 0, 0, 0, 0, 0, 0], "stateRewards": ["", -10, -10, -10, -10, 10, -10, -10, -10, -10, 10, 10, 10, -10, -10, 10, 10, -10, -10, 10, -10, 10, 10, -10, -10, 10, -10, 10, -10, -10, -10, 10, 10, 10], "withholdReward": false, "trial_id": "practice_2", "block": "test", "trialIndex": 1, "score": -26.5, "costs": 0, "simulationMode": [null, null, null, null, null], "rewards": [-10, -10, -10, -10, 10], "path": ["0", "0", "1", "2", "3", "4", "5"], "rt": [1793, 225, 315, 624, 1078], "actions": ["up", "up", "up", "right", "up"], "actionTimes": [6866, 7636, 8519, 9701, 11337], "queries": {"click": {"state": {"target": [], "time": []}, "edge": {"target": [], "time": []}}, "mouseover": {"state": {"target": [], "time": []}, "edge": {"target": [], "time": []}}, "mouseout": {"state": {"target": ["14", "12", "0"], "time": [2702, 3063, 3571]}, "edge": {"target": [], "time": []}}}, "displayed_time": "11.91", "trialTime": 16274, "trial_type": "mouselab-mdp", "trial_index": 5, "time_elapsed": 493611, "internal_node_id": "0.0-2.0-2.0-1.0"}}, {"uniqueid": "w25346192:a18438026", "current_trial": 6, "dateTime": 1691160068315, "trialdata": {"view_history": [{"page_index": 0, "viewing_time": 20815}, {"page_index": 1, "viewing_time": 7314}], "rt": 28131, "trial_id": "mouselab_instructions_2_misaligned", "trial_type": "instructions", "trial_index": 6, "time_elapsed": 521765, "internal_node_id": "0.0-2.0-3.0"}}, {"uniqueid": "w25346192:a18438026", "current_trial": 7, "dateTime": 1691160124332, "trialdata": {"rt": 55994, "response": {"Q0": "The cost for clicking on nodes may vary between nodes.", "Q1": "The better I perform the higher my bonus will be.", "Q2": "No, the amount of cash at each node of the web may be different each time.", "Q3": "To get the highest total score.", "Q4": "Only before moving the spider.", "Q5": "3 seconds"}, "question_order": [0, 1, 2, 3, 4, 5], "correct": {"Q0": "The cost for clicking on nodes may vary between nodes.", "Q1": "The better I perform the higher my bonus will be.", "Q2": "No, the amount of cash at each node of the web may be different each time.", "Q3": "To get the highest total score.", "Q4": "Only before moving the spider.", "Q5": "3 seconds"}, "trial_id": "mouselab_quiz_misaligned", "trial_type": "survey-multi-choice", "trial_index": 7, "time_elapsed": 577782, "internal_node_id": "0.0-2.0-4.0"}}, {"uniqueid": "w25346192:a18438026", "current_trial": 8, "dateTime": 1691160144151, "trialdata": {"rt": 19773, "stimulus": "\n<h1> Get ready to start the game! </h1>\n\nThank you for reading the instructions. Get ready start with the 40 rounds of this game.\n<br><br>\nIf you need to take a break, feel free to take one after the end of a round, before continuing to the next one.\n<br><br>\nRemember, the more money the spider gets, the bigger your bonus will be!\n<br><br>\n<div style='text-align: center;'>Press <code>space</code> to begin.</div>\n\n<br><br>\n(If, at any point, the <code>space</code> key does not take you to the next page, click once on the text and try again.)", "response": " ", "trial_id": "mdp_ready", "trial_type": "html-keyboard-response", "trial_index": 8, "time_elapsed": 597600, "internal_node_id": "0.0-4.0-0.0"}}, {"uniqueid": "w25346192:a18438026", "current_trial": 9, "dateTime": 1691160175081, "trialdata": {"revealed_states": [], "clicked_states": ["32", "9", "27"], "num_clicks_accrued": [0, 0, 0, 0, 0, 0, 0, 0, 0, 0, 0, 0, 0], "stateRewards": ["", 2, -1, -1, -9, -81, -30, 55, -6, 78, 25, 62, 2, 4, -1, 9, -85, 1, -19, 1, -60, 12, -34, 1, 4, -1, -13, -24, -16, -83, -8, 16, 43, 9], "withholdReward": false, "trial_id": "mdp_trial_1", "block": "test", "trialIndex": 2, "score": 11.55, "costs": -6.449999999999999, "simulationMode": [null, null, null, null, null], "rewards": [2, 4, -1, 1, 12], "path": ["0", "0", "12", "13", "14", "19", "21"], "rt": [14051, 581, 168, 417, 206], "actions": ["right", "right", "right", "down", "down"], "actionTimes": [17188, 18359, 19079, 20051, 20815], "queries": {"click": {"state": {"target": ["32", "9", "27"], "time": [5180, 9112, 12640]}, "edge": {"target": [], "time": []}}, "mouseover": {"state": {"target": ["23", "32", "9", "27", "13", "20", "19"], "time": [4012, 4643, 6695, 10238, 13823, 14579, 14845]}, "edge": {"target": [], "time": []}}, "mouseout": {"state": {"target": ["0", "23", "32", "9", "27", "13", "20", "19", "13", "17"], "time": [1569, 4061, 5294, 9837, 13616, 14113, 14630, 14924, 26230, 26284]}, "edge": {"target": [], "time": []}}}, "displayed_time": "21.37", "trialTime": 29206, "trial_type": "mouselab-mdp", "trial_index": 9, "time_elapsed": 628528, "internal_node_id": "0.0-4.0-1.0-0.0"}}, {"uniqueid": "w25346192:a18438026", "current_trial": 10, "dateTime": 1691160208030, "trialdata": {"revealed_states": [], "clicked_states": ["21", "27", "9", "5"], "num_clicks_accrued": [0, 0, 0, 0, 0, 0, 0, 0, 0, 0, 0, 0, 0], "stateRewards": ["", 1, 2, -3, -5, 66, -50, -47, -5, 1, 28, -27, 1, 1, -1, -6, 37, -25, 56, 1, -82, -66, -40, -1, -4, -7, 15, -61, -23, 26, 10, 14, -56, 29], "withholdReward": false, "trial_id": "mdp_trial_2", "block": "test", "trialIndex": 3, "score": -66.6, "costs": -8.6, "simulationMode": [null, null, null, null, null, null], "rewards": [-1, -4, -7, 10, -56], "path": ["0", "0", "23", "24", "25", "30", "32"], "rt": [14522, 1096, 497, 130, 564, 80], "actions": ["left", "left", "left", "left", "down", "down"], "actionTimes": [20522, 21641, 22709, 23413, 24532, 25164], "queries": {"click": {"state": {"target": ["21", "27", "9", "5"], "time": [7826, 11897, 15345, 18854]}, "edge": {"target": [], "time": []}}, "mouseover": {"state": {"target": ["0", "21", "16", "27", "9", "1", "5", "26"], "time": [6965, 7411, 9288, 10066, 13293, 16954, 18331, 19875]}, "edge": {"target": [], "time": []}}, "mouseout": {"state": {"target": ["16", "0", "0", "21", "16", "27", "9", "1", "5"], "time": [3277, 4084, 7021, 7973, 9527, 12645, 16594, 18020, 19562]}, "edge": {"target": [], "time": []}}}, "displayed_time": "25.76", "trialTime": 31124, "trial_type": "mouselab-mdp", "trial_index": 10, "time_elapsed": 661473, "internal_node_id": "0.0-4.0-1.0-1.0"}}, {"uniqueid": "w25346192:a18438026", "current_trial": 11, "dateTime": 1691160244015, "trialdata": {"revealed_states": [], "clicked_states": ["9", "21", "16", "5", "27"], "num_clicks_accrued": [0, 0, 0, 0, 0, 0, 0, 0, 0, 0, 0, 0, 0], "stateRewards": ["", 1, 4, -8, -5, -15, -7, 21, 13, -30, 40, -65, 1, 1, 5, -14, 35, 27, -38, -11, 36, -58, -47, -2, 4, -3, 13, -16, -49, 22, 15, -56, -44, -10], "withholdReward": false, "trial_id": "mdp_trial_3", "block": "test", "trialIndex": 4, "score": -72.75, "costs": -10.75, "simulationMode": [null, null, null, null, null, null], "rewards": [1, 1, 5, -11, -58], "path": ["0", "0", "12", "13", "14", "19", "21"], "rt": [18734, 1160, 140, 59, 128, 33], "actions": ["right", "right", "right", "right", "down", "down"], "actionTimes": [23950, 25129, 25833, 26456, 27145, 27736], "queries": {"click": {"state": {"target": ["9", "21", "16", "5", "27"], "time": [7034, 10301, 13660, 18161, 21914]}, "edge": {"target": [], "time": []}}, "mouseover": {"state": {"target": ["9", "21", "15", "16", "29", "27", "8", "5", "27"], "time": [6342, 7826, 11052, 11661, 14915, 15241, 16586, 16962, 19380]}, "edge": {"target": [], "time": []}}, "mouseout": {"state": {"target": ["26", "9", "21", "15", "16", "29", "27", "8", "5"], "time": [1448, 7659, 10958, 11332, 13778, 15024, 16546, 16625, 18943]}, "edge": {"target": [], "time": []}}}, "displayed_time": "28.29", "trialTime": 33833, "trial_type": "mouselab-mdp", "trial_index": 11, "time_elapsed": 697463, "internal_node_id": "0.0-4.0-1.0-2.0"}}, {"uniqueid": "w25346192:a18438026", "current_trial": 12, "dateTime": 1691160266669, "trialdata": {"revealed_states": [], "clicked_states": [], "num_clicks_accrued": [0, 0, 0, 0, 0, 0, 0, 0, 0, 0, 0, 0, 0], "stateRewards": ["", -1, 3, 8, 9, -53, 20, -84, 2, -28, -62, -31, -1, -2, -7, 2, 51, 58, 45, -4, -17, -41, 36, 2, -2, -7, -15, 29, -54, -37, -16, -43, 65, -17], "withholdReward": false, "trial_id": "mdp_trial_4", "block": "test", "trialIndex": 5, "score": 7, "costs": 0, "simulationMode": [null, null, null, null, null], "rewards": [2, -2, -7, -15, 29], "path": ["0", "0", "23", "24", "25", "26", "27"], "rt": [1550, 820, 179, 874, 61], "actions": ["left", "left", "left", "up", "up"], "actionTimes": [5809, 7189, 7948, 9376, 9980], "queries": {"click": {"state": {"target": [], "time": []}, "edge": {"target": [], "time": []}}, "mouseover": {"state": {"target": [], "time": []}, "edge": {"target": [], "time": []}}, "mouseout": {"state": {"target": ["27", "28", "0", "12", "22"], "time": [1400, 1450, 14949, 15004, 18199]}, "edge": {"target": [], "time": []}}}, "displayed_time": "18.27", "trialTime": 20015, "trial_type": "mouselab-mdp", "trial_index": 12, "time_elapsed": 720114, "internal_node_id": "0.0-4.0-1.0-3.0"}}, {"uniqueid": "w25346192:a18438026", "current_trial": 13, "dateTime": 1691160289718, "trialdata": {"revealed_states": [], "clicked_states": [], "num_clicks_accrued": [0, 0, 0, 0, 0, 0, 0, 0, 0, 0, 0, 0, 0], "stateRewards": ["", -2, 1, -5, 2, -68, 80, 33, 10, 67, -59, 20, -1, -3, 3, 14, 74, -2, 24, -16, 63, 80, 46, -1, 4, 6, 12, 83, -38, -43, -4, 43, 14, -79], "withholdReward": false, "trial_id": "mdp_trial_5", "block": "test", "trialIndex": 6, "score": 71, "costs": 0, "simulationMode": [null, null, null, null, null], "rewards": [-2, 1, -5, 10, 67], "path": ["0", "0", "1", "2", "3", "8", "9"], "rt": [1046, 216, 286, 449, 645], "actions": ["up", "up", "up", "left", "up"], "actionTimes": [4354, 5155, 5991, 7005, 8232], "queries": {"click": {"state": {"target": [], "time": []}, "edge": {"target": [], "time": []}}, "mouseover": {"state": {"target": [], "time": []}, "edge": {"target": [], "time": []}}, "mouseout": {"state": {"target": ["0", "0", "12"], "time": [1676, 14211, 14261]}, "edge": {"target": [], "time": []}}}, "displayed_time": "17.32", "trialTime": 20815, "trial_type": "mouselab-mdp", "trial_index": 13, "time_elapsed": 743165, "internal_node_id": "0.0-4.0-1.0-4.0"}}, {"uniqueid": "w25346192:a18438026", "current_trial": 14, "dateTime": 1691160313703, "trialdata": {"revealed_states": [], "clicked_states": [], "num_clicks_accrued": [0, 0, 0, 0, 0, 0, 0, 0, 0, 0, 0, 0, 0], "stateRewards": ["", 2, -3, 5, -14, -63, -9, -24, -11, -54, -43, 68, 2, -2, -4, 7, -64, 30, 47, 12, -74, 11, 86, 1, -3, 3, 10, -71, -42, -52, -1, -29, -16, 69], "withholdReward": false, "trial_id": "mdp_trial_6", "block": "test", "trialIndex": 7, "score": -61, "costs": 0, "simulationMode": [null, null, null, null, null], "rewards": [2, -2, -4, 7, -64], "path": ["0", "0", "12", "13", "14", "15", "16"], "rt": [4701, 9, 553, 547, 398], "actions": ["right", "right", "right", "up", "up"], "actionTimes": [8902, 9982, 11102, 12186, 13136], "queries": {"click": {"state": {"target": [], "time": []}, "edge": {"target": [], "time": []}}, "mouseover": {"state": {"target": ["17"], "time": [6186]}, "edge": {"target": [], "time": []}}, "mouseout": {"state": {"target": ["19", "22", "12", "17"], "time": [1422, 1460, 1819, 6235]}, "edge": {"target": [], "time": []}}}, "displayed_time": "18.20", "trialTime": 21774, "trial_type": "mouselab-mdp", "trial_index": 14, "time_elapsed": 767148, "internal_node_id": "0.0-4.0-1.0-5.0"}}, {"uniqueid": "w25346192:a18438026", "current_trial": 15, "dateTime": 1691160337923, "trialdata": {"revealed_states": [], "clicked_states": [], "num_clicks_accrued": [0, 0, 0, 0, 0, 0, 0, 0, 0, 0, 0, 0, 0], "stateRewards": ["", 1, -1, 1, 13, 31, -56, 72, 2, 41, 5, 63, -2, -3, -2, 3, -71, -26, 52, 13, -31, 24, -67, 2, -2, 5, 4, 66, 43, 72, 9, 86, -26, 44], "withholdReward": false, "trial_id": "mdp_trial_7", "block": "test", "trialIndex": 8, "score": 44, "costs": 0, "simulationMode": [null, null, null, null, null], "rewards": [1, -1, 1, 2, 41], "path": ["0", "0", "1", "2", "3", "8", "9"], "rt": [2129, 196, 250, 399, 620], "actions": ["up", "up", "up", "left", "up"], "actionTimes": [6654, 7409, 8302, 9245, 10439], "queries": {"click": {"state": {"target": [], "time": []}, "edge": {"target": [], "time": []}}, "mouseover": {"state": {"target": [], "time": []}, "edge": {"target": [], "time": []}}, "mouseout": {"state": {"target": ["20", "22"], "time": [1713, 2131]}, "edge": {"target": [], "time": []}}}, "displayed_time": "18.53", "trialTime": 21713, "trial_type": "mouselab-mdp", "trial_index": 15, "time_elapsed": 791369, "internal_node_id": "0.0-4.0-1.0-6.0"}}, {"uniqueid": "w25346192:a18438026", "current_trial": 16, "dateTime": 1691160367690, "trialdata": {"revealed_states": [], "clicked_states": [], "num_clicks_accrued": [0, 0, 0, 0, 0, 0, 0, 0, 0, 0, 0, 0, 0], "stateRewards": ["", 1, 1, -3, 7, 49, 78, 26, -5, 26, 48, -43, -1, -3, 2, -5, 4, -1, -60, 10, -35, 51, 81, -2, 1, -7, -5, -39, -86, -54, 4, -3, 74, 77], "withholdReward": false, "trial_id": "mdp_trial_8", "block": "test", "trialIndex": 9, "score": 59, "costs": 0, "simulationMode": [null, null, null, null, null], "rewards": [-1, -3, 2, 10, 51], "path": ["0", "0", "12", "13", "14", "19", "21"], "rt": [3235, 251, 261, 135, 230], "actions": ["right", "right", "right", "down", "down"], "actionTimes": [12290, 13109, 13906, 14592, 15370], "queries": {"click": {"state": {"target": [], "time": []}, "edge": {"target": [], "time": []}}, "mouseover": {"state": {"target": [], "time": []}, "edge": {"target": [], "time": []}}, "mouseout": {"state": {"target": ["0"], "time": [7463]}, "edge": {"target": [], "time": []}}}, "displayed_time": "23.06", "trialTime": 27216, "trial_type": "mouselab-mdp", "trial_index": 16, "time_elapsed": 821135, "internal_node_id": "0.0-4.0-1.0-7.0"}}, {"uniqueid": "w25346192:a18438026", "current_trial": 17, "dateTime": 1691160400291, "trialdata": {"revealed_states": [], "clicked_states": [], "num_clicks_accrued": [0, 0, 0, 0, 0, 0, 0, 0, 0, 0, 0, 0, 0], "stateRewards": ["", 1, 2, 2, -15, -84, 28, -26, 13, 31, 86, 30, -2, 1, -1, -8, 66, -40, -1, -10, -32, 57, -17, 1, 2, -2, 9, -23, 77, 85, 12, -32, -62, -35], "withholdReward": false, "trial_id": "mdp_trial_9", "block": "test", "trialIndex": 10, "score": -49, "costs": 0, "simulationMode": [null, null, null, null, null], "rewards": [1, 2, -2, 12, -62], "path": ["0", "0", "23", "24", "25", "30", "32"], "rt": [3700, 113, 150, 239, 49], "actions": ["left", "left", "left", "down", "down"], "actionTimes": [9136, 9814, 10519, 11309, 11912], "queries": {"click": {"state": {"target": [], "time": []}, "edge": {"target": [], "time": []}}, "mouseover": {"state": {"target": [], "time": []}, "edge": {"target": [], "time": []}}, "mouseout": {"state": {"target": ["0"], "time": [3936]}, "edge": {"target": [], "time": []}}}, "displayed_time": "19.44", "trialTime": 30227, "trial_type": "mouselab-mdp", "trial_index": 17, "time_elapsed": 853739, "internal_node_id": "0.0-4.0-1.0-8.0"}}, {"uniqueid": "w25346192:a18438026", "current_trial": 18, "dateTime": 1691160426334, "trialdata": {"revealed_states": [], "clicked_states": [], "num_clicks_accrued": [0, 0, 0, 0, 0, 0, 0, 0, 0, 0, 0, 0, 0], "stateRewards": ["", -2, 3, -5, -7, 66, 43, -60, -4, -70, -75, 4, -1, 2, 2, -13, 54, 11, -40, -1, 77, 32, 15, -2, 3, -8, -9, -35, 83, -27, 6, -74, -34, 44], "withholdReward": false, "trial_id": "mdp_trial_10", "block": "test", "trialIndex": 11, "score": -78, "costs": 0, "simulationMode": [null, null, null, null, null], "rewards": [-2, 3, -5, -4, -70], "path": ["0", "0", "1", "2", "3", "8", "9"], "rt": [2996, 55, 226, 323, 300], "actions": ["up", "up", "up", "left", "up"], "actionTimes": [6019, 6634, 7418, 8294, 9156], "queries": {"click": {"state": {"target": [], "time": []}, "edge": {"target": [], "time": []}}, "mouseover": {"state": {"target": [], "time": []}, "edge": {"target": [], "time": []}}, "mouseout": {"state": {"target": ["0"], "time": [1364]}, "edge": {"target": [], "time": []}}}, "displayed_time": "17.03", "trialTime": 23342, "trial_type": "mouselab-mdp", "trial_index": 18, "time_elapsed": 879781, "internal_node_id": "0.0-4.0-1.0-9.0"}}, {"uniqueid": "w25346192:a18438026", "current_trial": 19, "dateTime": 1691160447972, "trialdata": {"revealed_states": [], "clicked_states": [], "num_clicks_accrued": [0, 0, 0, 0, 0, 0, 0, 0, 0, 0, 0, 0, 0], "stateRewards": ["", -1, 2, -2, 13, -56, -28, 10, 14, 53, -80, -29, 1, -3, -3, -14, 14, 9, -40, -9, 18, 18, 48, 1, 1, 1, -9, 64, -39, -9, 7, -52, -78, 7], "withholdReward": false, "trial_id": "mdp_trial_11", "block": "test", "trialIndex": 12, "score": -44, "costs": 0, "simulationMode": [null, null, null, null, null], "rewards": [-1, 2, -2, 13, -56], "path": ["0", "0", "1", "2", "3", "4", "5"], "rt": [1824, 150, 241, 611, 1512], "actions": ["up", "up", "up", "right", "up"], "actionTimes": [4925, 5644, 6441, 7603, 9685], "queries": {"click": {"state": {"target": [], "time": []}, "edge": {"target": [], "time": []}}, "mouseover": {"state": {"target": [], "time": []}, "edge": {"target": [], "time": []}}, "mouseout": {"state": {"target": ["0"], "time": [1547]}, "edge": {"target": [], "time": []}}}, "displayed_time": "17.11", "trialTime": 18982, "trial_type": "mouselab-mdp", "trial_index": 19, "time_elapsed": 901421, "internal_node_id": "0.0-4.0-1.0-10.0"}}, {"uniqueid": "w25346192:a18438026", "current_trial": 20, "dateTime": 1691160470186, "trialdata": {"revealed_states": [], "clicked_states": [], "num_clicks_accrued": [0, 0, 0, 0, 0, 0, 0, 0, 0, 0, 0, 0, 0], "stateRewards": ["", 1, 1, 4, 11, 83, -66, 18, -16, -23, 5, 25, 1, -3, 1, -12, 18, 24, -86, -11, -64, 36, 40, 2, 1, -6, 13, 55, 29, 72, -2, 81, -72, -41], "withholdReward": false, "trial_id": "mdp_trial_12", "block": "test", "trialIndex": 13, "score": 39, "costs": 0, "simulationMode": [null, null, null, null, null], "rewards": [2, 1, -6, 13, 29], "path": ["0", "0", "23", "24", "25", "26", "28"], "rt": [1502, 1230, 329, 676, 549], "actions": ["left", "left", "left", "up", "right"], "actionTimes": [5369, 7162, 8029, 9258, 10424], "queries": {"click": {"state": {"target": [], "time": []}, "edge": {"target": [], "time": []}}, "mouseover": {"state": {"target": [], "time": []}, "edge": {"target": [], "time": []}}, "mouseout": {"state": {"target": ["0"], "time": [2275]}, "edge": {"target": [], "time": []}}}, "displayed_time": "17.87", "trialTime": 19747, "trial_type": "mouselab-mdp", "trial_index": 20, "time_elapsed": 923616, "internal_node_id": "0.0-4.0-1.0-11.0"}}, {"uniqueid": "w25346192:a18438026", "current_trial": 21, "dateTime": 1691160502559, "trialdata": {"revealed_states": [], "clicked_states": [], "num_clicks_accrued": [0, 0, 0, 0, 0, 0, 0, 0, 0, 0, 0, 0, 0], "stateRewards": ["", 1, -2, 4, 7, -43, -83, -60, -5, -86, -80, 83, -1, -2, 6, 11, -15, 21, 13, 9, 29, -49, 11, -1, 4, -6, -11, 87, 40, 63, -8, -39, -11, 62], "withholdReward": false, "trial_id": "mdp_trial_13", "block": "test", "trialIndex": 14, "score": 41, "costs": 0, "simulationMode": [null, null, null, null, null], "rewards": [-1, -2, 6, 9, 29], "path": ["0", "0", "12", "13", "14", "19", "20"], "rt": [1806, 1179, 301, 26, 428], "actions": ["right", "right", "right", "down", "right"], "actionTimes": [7778, 9960, 10824, 14299, 15355], "queries": {"click": {"state": {"target": [], "time": []}, "edge": {"target": [], "time": []}}, "mouseover": {"state": {"target": [], "time": []}, "edge": {"target": [], "time": []}}, "mouseout": {"state": {"target": ["0"], "time": [4379]}, "edge": {"target": [], "time": []}}}, "displayed_time": "19.98", "trialTime": 29544, "trial_type": "mouselab-mdp", "trial_index": 21, "time_elapsed": 956005, "internal_node_id": "0.0-4.0-1.0-12.0"}}, {"uniqueid": "w25346192:a18438026", "current_trial": 22, "dateTime": 1691160532789, "trialdata": {"revealed_states": [], "clicked_states": [], "num_clicks_accrued": [0, 0, 0, 0, 0, 0, 0, 0, 0, 0, 0, 0, 0], "stateRewards": ["", 1, 1, -2, 7, -31, -6, 76, 1, -36, -16, -53, 2, 1, 7, 13, -47, -10, 47, -7, 72, 46, -56, -2, -2, -2, 11, -80, 44, 38, 16, 67, 85, -78], "withholdReward": false, "trial_id": "mdp_trial_14", "block": "test", "trialIndex": 15, "score": -15, "costs": 0, "simulationMode": [null, null, null, null, null], "rewards": [1, 1, -2, 1, -16], "path": ["0", "0", "1", "2", "3", "8", "10"], "rt": [2677, 209, 307, 589, 207], "actions": ["up", "up", "up", "left", "down"], "actionTimes": [11998, 12755, 13620, 14748, 15516], "queries": {"click": {"state": {"target": [], "time": []}, "edge": {"target": [], "time": []}}, "mouseover": {"state": {"target": [], "time": []}, "edge": {"target": [], "time": []}}, "mouseout": {"state": {"target": [], "time": []}, "edge": {"target": [], "time": []}}}, "displayed_time": "23.33", "trialTime": 27711, "trial_type": "mouselab-mdp", "trial_index": 22, "time_elapsed": 986238, "internal_node_id": "0.0-4.0-1.0-13.0"}}, {"uniqueid": "w25346192:a18438026", "current_trial": 23, "dateTime": 1691160554428, "trialdata": {"revealed_states": [], "clicked_states": [], "num_clicks_accrued": [0, 0, 0, 0, 0, 0, 0, 0, 0, 0, 0, 0, 0], "stateRewards": ["", 2, 4, -3, 16, -58, 30, -35, 11, -60, 47, 27, -2, -1, -7, -16, 23, -70, 68, -10, -65, -43, -34, -2, 1, 7, 9, -63, 34, -31, -8, -12, -86, 59], "withholdReward": false, "trial_id": "mdp_trial_15", "block": "test", "trialIndex": 16, "score": -16, "costs": 0, "simulationMode": [null, null, null, null, null], "rewards": [-2, 1, 7, 9, -31], "path": ["0", "0", "23", "24", "25", "26", "29"], "rt": [1892, 293, 345, 261, 176], "actions": ["left", "left", "left", "up", "left"], "actionTimes": [5018, 5916, 6925, 7745, 8478], "queries": {"click": {"state": {"target": [], "time": []}, "edge": {"target": [], "time": []}}, "mouseover": {"state": {"target": [], "time": []}, "edge": {"target": [], "time": []}}, "mouseout": {"state": {"target": ["0"], "time": [1354]}, "edge": {"target": [], "time": []}}}, "displayed_time": "17.13", "trialTime": 18655, "trial_type": "mouselab-mdp", "trial_index": 23, "time_elapsed": 1007872, "internal_node_id": "0.0-4.0-1.0-14.0"}}, {"uniqueid": "w25346192:a18438026", "current_trial": 24, "dateTime": 1691160576528, "trialdata": {"revealed_states": [], "clicked_states": [], "num_clicks_accrued": [0, 0, 0, 0, 0, 0, 0, 0, 0, 0, 0, 0, 0], "stateRewards": ["", -2, -4, -6, 12, -58, -70, -80, 2, 16, -88, -62, 1, 2, -5, 11, 77, -35, -44, -5, 18, -83, 87, 1, -3, -5, 13, -44, -21, -86, 10, -52, 8, 29], "withholdReward": false, "trial_id": "mdp_trial_16", "block": "test", "trialIndex": 17, "score": -80, "costs": 0, "simulationMode": [null, null, null, null, null], "rewards": [-2, -4, -6, 12, -80], "path": ["0", "0", "1", "2", "3", "4", "7"], "rt": [2237, 223, 210, 478, 275], "actions": ["up", "up", "up", "right", "down"], "actionTimes": [5186, 5980, 6751, 7801, 8623], "queries": {"click": {"state": {"target": [], "time": []}, "edge": {"target": [], "time": []}}, "mouseover": {"state": {"target": [], "time": []}, "edge": {"target": [], "time": []}}, "mouseout": {"state": {"target": ["0"], "time": [1353]}, "edge": {"target": [], "time": []}}}, "displayed_time": "16.95", "trialTime": 19370, "trial_type": "mouselab-mdp", "trial_index": 24, "time_elapsed": 1029971, "internal_node_id": "0.0-4.0-1.0-15.0"}}, {"uniqueid": "w25346192:a18438026", "current_trial": 25, "dateTime": 1691160605640, "trialdata": {"revealed_states": [], "clicked_states": [], "num_clicks_accrued": [0, 0, 0, 0, 0, 0, 0, 0, 0, 0, 0, 0, 0], "stateRewards": ["", 2, 3, -3, 4, 72, -28, 34, -12, 57, -64, -15, 2, 1, -4, -15, 2, 49, 31, -1, -42, -58, 31, -2, 1, -2, -13, -75, -19, -22, -6, 61, 10, -56], "withholdReward": false, "trial_id": "mdp_trial_17", "block": "test", "trialIndex": 18, "score": 1, "costs": 0, "simulationMode": [null, null, null, null, null], "rewards": [-2, 1, -2, -6, 10], "path": ["0", "0", "23", "24", "25", "30", "32"], "rt": [2345, 9, 84, 393, 111], "actions": ["left", "left", "left", "down", "down"], "actionTimes": [5820, 6466, 7107, 8057, 8728], "queries": {"click": {"state": {"target": [], "time": []}, "edge": {"target": [], "time": []}}, "mouseover": {"state": {"target": [], "time": []}, "edge": {"target": [], "time": []}}, "mouseout": {"state": {"target": ["0"], "time": [1451]}, "edge": {"target": [], "time": []}}}, "displayed_time": "17.48", "trialTime": 26370, "trial_type": "mouselab-mdp", "trial_index": 25, "time_elapsed": 1059084, "internal_node_id": "0.0-4.0-1.0-16.0"}}, {"uniqueid": "w25346192:a18438026", "current_trial": 26, "dateTime": 1691160631081, "trialdata": {"revealed_states": [], "clicked_states": [], "num_clicks_accrued": [0, 0, 0, 0, 0, 0, 0, 0, 0, 0, 0, 0, 0], "stateRewards": ["", 1, 4, 5, 8, -55, -11, 8, 16, -37, 77, -22, -2, 3, -8, -10, 45, 87, -67, 4, 17, -33, -22, -1, -3, 7, 6, -39, -85, 75, -1, 7, -48, 45], "withholdReward": false, "trial_id": "mdp_trial_18", "block": "test", "trialIndex": 19, "score": 28, "costs": 0, "simulationMode": [null, null, null, null, null], "rewards": [-2, 3, -8, -10, 45], "path": ["0", "0", "12", "13", "14", "15", "16"], "rt": [1644, 11, 119, 422, 146], "actions": ["right", "right", "right", "up", "up"], "actionTimes": [7466, 8035, 8728, 9690, 10400], "queries": {"click": {"state": {"target": [], "time": []}, "edge": {"target": [], "time": []}}, "mouseover": {"state": {"target": [], "time": []}, "edge": {"target": [], "time": []}}, "mouseout": {"state": {"target": ["0"], "time": [4192]}, "edge": {"target": [], "time": []}}}, "displayed_time": "19.83", "trialTime": 22677, "trial_type": "mouselab-mdp", "trial_index": 26, "time_elapsed": 1084527, "internal_node_id": "0.0-4.0-1.0-17.0"}}, {"uniqueid": "w25346192:a18438026", "current_trial": 27, "dateTime": 1691160655415, "trialdata": {"revealed_states": [], "clicked_states": [], "num_clicks_accrued": [0, 0, 0, 0, 0, 0, 0, 0, 0, 0, 0, 0, 0], "stateRewards": ["", 1, -4, 6, -3, 40, 76, -51, 5, -24, -63, 44, -2, -2, 8, 1, 76, -85, -58, 10, 59, 20, 11, -2, 3, -3, 3, -82, -10, 54, -7, -57, -6, -32], "withholdReward": false, "trial_id": "mdp_trial_19", "block": "test", "trialIndex": 20, "score": 40, "costs": 0, "simulationMode": [null, null, null, null, null], "rewards": [1, -4, 6, -3, 40], "path": ["0", "0", "1", "2", "3", "4", "5"], "rt": [1994, 7, 103, 304, 137], "actions": ["up", "up", "up", "right", "up"], "actionTimes": [6708, 7279, 7930, 8813, 9516], "queries": {"click": {"state": {"target": [], "time": []}, "edge": {"target": [], "time": []}}, "mouseover": {"state": {"target": [], "time": []}, "edge": {"target": [], "time": []}}, "mouseout": {"state": {"target": ["0"], "time": [2876]}, "edge": {"target": [], "time": []}}}, "displayed_time": "18.72", "trialTime": 21004, "trial_type": "mouselab-mdp", "trial_index": 27, "time_elapsed": 1108862, "internal_node_id": "0.0-4.0-1.0-18.0"}}, {"uniqueid": "w25346192:a18438026", "current_trial": 28, "dateTime": 1691160678512, "trialdata": {"revealed_states": [], "clicked_states": [], "num_clicks_accrued": [0, 0, 0, 0, 0, 0, 0, 0, 0, 0, 0, 0, 0], "stateRewards": ["", -2, 4, -5, -12, 85, -24, -18, -15, -78, -22, 26, -1, -1, 2, 14, -45, 52, -23, 7, -33, 24, -6, -2, -4, 5, -7, -16, 36, -39, 5, 71, -87, -23], "withholdReward": false, "trial_id": "mdp_trial_20", "block": "test", "trialIndex": 21, "score": 31, "costs": 0, "simulationMode": [null, null, null, null, null], "rewards": [-1, -1, 2, 7, 24], "path": ["0", "0", "12", "13", "14", "19", "21"], "rt": [2249, 188, 215, 47, 224], "actions": ["right", "right", "right", "down", "down"], "actionTimes": [6079, 6828, 7590, 8183, 9013], "queries": {"click": {"state": {"target": [], "time": []}, "edge": {"target": [], "time": []}}, "mouseover": {"state": {"target": [], "time": []}, "edge": {"target": [], "time": []}}, "mouseout": {"state": {"target": ["0"], "time": [2085]}, "edge": {"target": [], "time": []}}}, "displayed_time": "17.84", "trialTime": 19966, "trial_type": "mouselab-mdp", "trial_index": 28, "time_elapsed": 1131961, "internal_node_id": "0.0-4.0-1.0-19.0"}}, {"uniqueid": "w25346192:a18438026", "current_trial": 29, "dateTime": 1691160701706, "trialdata": {"revealed_states": [], "clicked_states": [], "num_clicks_accrued": [0, 0, 0, 0, 0, 0, 0, 0, 0, 0, 0, 0, 0], "stateRewards": ["", -1, 1, 8, -3, -24, 11, -65, -6, -77, 48, 44, -2, 1, -2, -7, -55, -35, 33, 8, -28, 19, -53, -1, -1, -5, -5, -70, 10, 44, 8, -58, -70, 51], "withholdReward": false, "trial_id": "mdp_trial_21", "block": "test", "trialIndex": 22, "score": 52, "costs": 0, "simulationMode": [null, null, null, null, null], "rewards": [-1, -1, -5, 8, 51], "path": ["0", "0", "23", "24", "25", "30", "33"], "rt": [1566, 256, 216, 246, 472], "actions": ["left", "left", "left", "down", "left"], "actionTimes": [5449, 6247, 7010, 7796, 8814], "queries": {"click": {"state": {"target": [], "time": []}, "edge": {"target": [], "time": []}}, "mouseover": {"state": {"target": [], "time": []}, "edge": {"target": [], "time": []}}, "mouseout": {"state": {"target": ["0"], "time": [2082]}, "edge": {"target": [], "time": []}}}, "displayed_time": "17.89", "trialTime": 20220, "trial_type": "mouselab-mdp", "trial_index": 29, "time_elapsed": 1155154, "internal_node_id": "0.0-4.0-1.0-20.0"}}, {"uniqueid": "w25346192:a18438026", "current_trial": 30, "dateTime": 1691160736154, "trialdata": {"revealed_states": [], "clicked_states": [], "num_clicks_accrued": [0, 0, 0, 0, 0, 0, 0, 0, 0, 0, 0, 0, 0], "stateRewards": ["", -2, -3, 4, 1, 33, -53, 15, 9, -12, 61, -6, -2, 4, 6, -11, 47, -43, -7, -11, 46, 23, -28, -1, -1, 3, -10, 11, 76, -76, 10, 18, -38, 87], "withholdReward": false, "trial_id": "mdp_trial_22", "block": "test", "trialIndex": 23, "score": -46, "costs": 0, "simulationMode": [null, null, null, null, null], "rewards": [-2, 4, 6, -11, -43], "path": ["0", "0", "12", "13", "14", "15", "17"], "rt": [1841, 149, 359, 1192, 155], "actions": ["right", "right", "right", "up", "right"], "actionTimes": [7137, 7842, 8758, 10512, 11220], "queries": {"click": {"state": {"target": [], "time": []}, "edge": {"target": [], "time": []}}, "mouseover": {"state": {"target": [], "time": []}, "edge": {"target": [], "time": []}}, "mouseout": {"state": {"target": ["0"], "time": [3628]}, "edge": {"target": [], "time": []}}}, "displayed_time": "19.30", "trialTime": 31223, "trial_type": "mouselab-mdp", "trial_index": 30, "time_elapsed": 1189601, "internal_node_id": "0.0-4.0-1.0-21.0"}}, {"uniqueid": "w25346192:a18438026", "current_trial": 31, "dateTime": 1691160764381, "trialdata": {"revealed_states": [], "clicked_states": [], "num_clicks_accrued": [0, 0, 0, 0, 0, 0, 0, 0, 0, 0, 0, 0, 0], "stateRewards": ["", 1, -2, 7, -14, 88, -56, -44, -14, 64, -51, -57, -2, 3, -4, -9, -11, 19, -77, -1, 68, 75, -67, -1, 1, -2, 5, -37, 70, -34, -10, -72, 63, -41], "withholdReward": false, "trial_id": "mdp_trial_23", "block": "test", "trialIndex": 24, "score": 56, "costs": 0, "simulationMode": [null, null, null, null, null], "rewards": [1, -2, 7, -14, 64], "path": ["0", "0", "1", "2", "3", "8", "9"], "rt": [2094, 142, 155, 94, 898], "actions": ["up", "up", "up", "left", "up"], "actionTimes": [5196, 5892, 6597, 7232, 8693], "queries": {"click": {"state": {"target": [], "time": []}, "edge": {"target": [], "time": []}}, "mouseover": {"state": {"target": [], "time": []}, "edge": {"target": [], "time": []}}, "mouseout": {"state": {"target": ["0"], "time": [1425]}, "edge": {"target": [], "time": []}}}, "displayed_time": "17.11", "trialTime": 25237, "trial_type": "mouselab-mdp", "trial_index": 31, "time_elapsed": 1217829, "internal_node_id": "0.0-4.0-1.0-22.0"}}, {"uniqueid": "w25346192:a18438026", "current_trial": 32, "dateTime": 1691160799359, "trialdata": {"revealed_states": [], "clicked_states": [], "num_clicks_accrued": [0, 0, 0, 0, 0, 0, 0, 0, 0, 0, 0, 0, 0], "stateRewards": ["", -2, 1, -8, 12, -65, -79, 16, 7, -80, -17, -45, -2, 2, -5, -2, -85, 23, -4, -7, 48, 27, -76, 2, 3, 5, 2, 43, 71, -13, 7, -49, 59, -31], "withholdReward": false, "trial_id": "mdp_trial_24", "block": "test", "trialIndex": 25, "score": -62, "costs": 0, "simulationMode": [null, null, null, null, null], "rewards": [-2, 1, -8, 12, -65], "path": ["0", "0", "1", "2", "3", "4", "5"], "rt": [2785, 326, 210, 22, 31], "actions": ["up", "up", "up", "right", "up"], "actionTimes": [6193, 7072, 7818, 8391, 8993], "queries": {"click": {"state": {"target": [], "time": []}, "edge": {"target": [], "time": []}}, "mouseover": {"state": {"target": [], "time": []}, "edge": {"target": [], "time": []}}, "mouseout": {"state": {"target": ["0"], "time": [1378]}, "edge": {"target": [], "time": []}}}, "displayed_time": "17.41", "trialTime": 31917, "trial_type": "mouselab-mdp", "trial_index": 32, "time_elapsed": 1252807, "internal_node_id": "0.0-4.0-1.0-23.0"}}, {"uniqueid": "w25346192:a18438026", "current_trial": 33, "dateTime": 1691160828128, "trialdata": {"revealed_states": [], "clicked_states": ["16"], "num_clicks_accrued": [0, 0, 0, 0, 0, 0, 0, 0, 0, 0, 0, 0, 0], "stateRewards": ["", 1, -3, -2, 14, 49, -40, -39, 2, 26, -61, 73, 1, -4, -8, 12, 79, 29, -65, -13, 55, -26, 27, -1, 3, 3, 9, -17, -60, -18, -8, 35, -88, 69], "withholdReward": false, "trial_id": "mdp_trial_25", "block": "test", "trialIndex": 26, "score": 28.85, "costs": -2.15, "simulationMode": [null, null, null, null, null, null], "rewards": [1, -4, -8, -13, 55], "path": ["0", "0", "12", "13", "14", "19", "20"], "rt": [4538, 3032, 231, 207, 15, 269], "actions": ["right", "right", "right", "right", "down", "right"], "actionTimes": [13854, 16909, 17698, 18455, 19056, 19885], "queries": {"click": {"state": {"target": ["16"], "time": [11676]}, "edge": {"target": [], "time": []}}, "mouseover": {"state": {"target": ["18", "16"], "time": [10596, 11056]}, "edge": {"target": [], "time": []}}, "mouseout": {"state": {"target": ["0", "18", "16"], "time": [7098, 10648, 13002]}, "edge": {"target": [], "time": []}}}, "displayed_time": "23.32", "trialTime": 25380, "trial_type": "mouselab-mdp", "trial_index": 33, "time_elapsed": 1281574, "internal_node_id": "0.0-4.0-1.0-24.0"}}, {"uniqueid": "w25346192:a18438026", "current_trial": 34, "dateTime": 1691160850815, "trialdata": {"revealed_states": [], "clicked_states": [], "num_clicks_accrued": [0, 0, 0, 0, 0, 0, 0, 0, 0, 0, 0, 0, 0], "stateRewards": ["", -1, 4, -3, 3, 57, -61, 5, -11, 23, -1, 34, -2, -4, -1, -13, 27, 38, -36, 4, -45, 21, 88, 1, -2, -1, 1, -69, -5, -78, -12, -9, 38, -54], "withholdReward": false, "trial_id": "mdp_trial_26", "block": "test", "trialIndex": 27, "score": -79, "costs": 0, "simulationMode": [null, null, null, null, null], "rewards": [1, -2, -1, 1, -78], "path": ["0", "0", "23", "24", "25", "26", "29"], "rt": [2004, 135, 181, 733, 1598], "actions": ["left", "left", "left", "up", "left"], "actionTimes": [6457, 7148, 7884, 9171, 12608], "queries": {"click": {"state": {"target": [], "time": []}, "edge": {"target": [], "time": []}}, "mouseover": {"state": {"target": [], "time": []}, "edge": {"target": [], "time": []}}, "mouseout": {"state": {"target": [], "time": []}, "edge": {"target": [], "time": []}}}, "displayed_time": "18.47", "trialTime": 19647, "trial_type": "mouselab-mdp", "trial_index": 34, "time_elapsed": 1304259, "internal_node_id": "0.0-4.0-1.0-25.0"}}, {"uniqueid": "w25346192:a18438026", "current_trial": 35, "dateTime": 1691160878541, "trialdata": {"revealed_states": [], "clicked_states": [], "num_clicks_accrued": [0, 0, 0, 0, 0, 0, 0, 0, 0, 0, 0, 0, 0], "stateRewards": ["", 2, 4, 7, -6, -76, -81, 2, 5, -66, -3, 36, -2, -4, 6, -2, -69, 4, -49, -6, 67, 38, -67, 2, 1, 1, 6, -68, -21, 52, -16, -16, 6, -70], "withholdReward": false, "trial_id": "mdp_trial_27", "block": "test", "trialIndex": 28, "score": 9, "costs": 0, "simulationMode": [null, null, null, null, null], "rewards": [2, 4, 7, -6, 2], "path": ["0", "0", "1", "2", "3", "4", "7"], "rt": [1657, 88, 156, 1246, 176], "actions": ["up", "up", "up", "right", "down"], "actionTimes": [9935, 10568, 11276, 13073, 13801], "queries": {"click": {"state": {"target": [], "time": []}, "edge": {"target": [], "time": []}}, "mouseover": {"state": {"target": [], "time": []}, "edge": {"target": [], "time": []}}, "mouseout": {"state": {"target": ["0"], "time": [6528]}, "edge": {"target": [], "time": []}}}, "displayed_time": "22.28", "trialTime": 24863, "trial_type": "mouselab-mdp", "trial_index": 35, "time_elapsed": 1331987, "internal_node_id": "0.0-4.0-1.0-26.0"}}, {"uniqueid": "w25346192:a18438026", "current_trial": 36, "dateTime": 1691160900785, "trialdata": {"revealed_states": [], "clicked_states": [], "num_clicks_accrued": [0, 0, 0, 0, 0, 0, 0, 0, 0, 0, 0, 0, 0], "stateRewards": ["", 1, 1, 6, -14, -40, 37, 16, -13, 33, -68, 49, 2, 4, 3, 6, 55, 27, 32, 10, -65, 20, -87, 2, 1, -6, -5, -42, 12, 29, -8, 16, 76, -33], "withholdReward": false, "trial_id": "mdp_trial_28", "block": "test", "trialIndex": 29, "score": -44, "costs": 0, "simulationMode": [null, null, null, null, null], "rewards": [2, 1, -6, -8, -33], "path": ["0", "0", "23", "24", "25", "30", "33"], "rt": [1818, 113, 228, 318, 234], "actions": ["left", "left", "left", "down", "left"], "actionTimes": [5374, 6049, 6836, 7709, 8488], "queries": {"click": {"state": {"target": [], "time": []}, "edge": {"target": [], "time": []}}, "mouseover": {"state": {"target": [], "time": []}, "edge": {"target": [], "time": []}}, "mouseout": {"state": {"target": ["0"], "time": [1809]}, "edge": {"target": [], "time": []}}}, "displayed_time": "17.56", "trialTime": 19186, "trial_type": "mouselab-mdp", "trial_index": 36, "time_elapsed": 1354234, "internal_node_id": "0.0-4.0-1.0-27.0"}}, {"uniqueid": "w25346192:a18438026", "current_trial": 37, "dateTime": 1691160937886, "trialdata": {"revealed_states": [], "clicked_states": [], "num_clicks_accrued": [0, 0, 0, 0, 0, 0, 0, 0, 0, 0, 0, 0, 0], "stateRewards": ["", 2, -3, -5, 5, 11, -9, -33, 6, 67, 6, -30, -1, -2, -6, 13, 55, 13, 72, -14, 75, 21, -66, -2, -4, 6, 15, -1, -35, 60, 2, 51, -73, 12], "withholdReward": false, "trial_id": "mdp_trial_29", "block": "test", "trialIndex": 30, "score": -30, "costs": 0, "simulationMode": [null, null, null, null, null], "rewards": [2, -3, -5, 6, -30], "path": ["0", "0", "1", "2", "3", "8", "11"], "rt": [1807, 47, 1435, 178, 107], "actions": ["up", "up", "up", "left", "left"], "actionTimes": [18301, 18914, 20918, 21660, 22338], "queries": {"click": {"state": {"target": [], "time": []}, "edge": {"target": [], "time": []}}, "mouseover": {"state": {"target": [], "time": []}, "edge": {"target": [], "time": []}}, "mouseout": {"state": {"target": ["0"], "time": [14589]}, "edge": {"target": [], "time": []}}}, "displayed_time": "30.50", "trialTime": 34043, "trial_type": "mouselab-mdp", "trial_index": 37, "time_elapsed": 1391330, "internal_node_id": "0.0-4.0-1.0-28.0"}}, {"uniqueid": "w25346192:a18438026", "current_trial": 38, "dateTime": 1691160975319, "trialdata": {"revealed_states": [], "clicked_states": [], "num_clicks_accrued": [0, 0, 0, 0, 0, 0, 0, 0, 0, 0, 0, 0, 0], "stateRewards": ["", 1, -1, 1, -14, -10, 67, -28, -11, 72, 40, -65, -1, 1, 1, -2, 8, -55, 34, -10, 61, 33, -15, 2, -4, 7, 4, -75, 63, -21, -16, 61, 19, 21], "withholdReward": false, "trial_id": "mdp_trial_30", "block": "test", "trialIndex": 31, "score": -23, "costs": 0, "simulationMode": [null, null, null, null, null], "rewards": [1, -1, 1, -14, -10], "path": ["0", "0", "1", "2", "3", "4", "5"], "rt": [2477, 779, 192, 227, 337], "actions": ["up", "up", "up", "right", "up"], "actionTimes": [15171, 16510, 17247, 18025, 18927], "queries": {"click": {"state": {"target": [], "time": []}, "edge": {"target": [], "time": []}}, "mouseover": {"state": {"target": [], "time": []}, "edge": {"target": [], "time": []}}, "mouseout": {"state": {"target": ["0"], "time": [10750]}, "edge": {"target": [], "time": []}}}, "displayed_time": "26.70", "trialTime": 34428, "trial_type": "mouselab-mdp", "trial_index": 38, "time_elapsed": 1428767, "internal_node_id": "0.0-4.0-1.0-29.0"}}, {"uniqueid": "w25346192:a18438026", "current_trial": 39, "dateTime": 1691161000320, "trialdata": {"revealed_states": [], "clicked_states": [], "num_clicks_accrued": [0, 0, 0, 0, 0, 0, 0, 0, 0, 0, 0, 0, 0], "stateRewards": ["", 1, 4, 5, -5, 58, -80, 75, 6, 25, -39, 46, 2, -2, 4, 2, 59, 31, -22, -12, -61, 15, 72, 1, -2, -7, 8, 77, 76, -23, -7, 71, -15, -3], "withholdReward": false, "trial_id": "mdp_trial_31", "block": "test", "trialIndex": 32, "score": 37, "costs": 0, "simulationMode": [null, null, null, null, null], "rewards": [2, -2, 4, 2, 31], "path": ["0", "0", "12", "13", "14", "15", "17"], "rt": [3642, 71, 530, 806, 709], "actions": ["right", "right", "right", "up", "right"], "actionTimes": [7011, 7760, 9315, 10671, 11928], "queries": {"click": {"state": {"target": [], "time": []}, "edge": {"target": [], "time": []}}, "mouseover": {"state": {"target": [], "time": []}, "edge": {"target": [], "time": []}}, "mouseout": {"state": {"target": ["0"], "time": [1470]}, "edge": {"target": [], "time": []}}}, "displayed_time": "17.37", "trialTime": 21936, "trial_type": "mouselab-mdp", "trial_index": 39, "time_elapsed": 1453768, "internal_node_id": "0.0-4.0-1.0-30.0"}}, {"uniqueid": "w25346192:a18438026", "current_trial": 40, "dateTime": 1691161028962, "trialdata": {"revealed_states": [], "clicked_states": [], "num_clicks_accrued": [0, 0, 0, 0, 0, 0, 0, 0, 0, 0, 0, 0, 0], "stateRewards": ["", 1, -2, -3, 14, -42, -87, -37, -11, -50, 33, -44, -2, 4, -7, 13, 48, -75, -66, 12, 23, -2, 82, 1, -4, 3, 12, 51, -15, -26, -11, -52, -29, 82], "withholdReward": false, "trial_id": "mdp_trial_32", "block": "test", "trialIndex": 33, "score": 71, "costs": 0, "simulationMode": [null, null, null, null, null], "rewards": [1, -4, 3, -11, 82], "path": ["0", "0", "23", "24", "25", "30", "33"], "rt": [3235, 62, 104, 198, 183], "actions": ["left", "left", "left", "down", "left"], "actionTimes": [11196, 11802, 12467, 13210, 13938], "queries": {"click": {"state": {"target": [], "time": []}, "edge": {"target": [], "time": []}}, "mouseover": {"state": {"target": ["0"], "time": [9708]}, "edge": {"target": [], "time": []}}, "mouseout": {"state": {"target": ["0", "0"], "time": [5922, 9893]}, "edge": {"target": [], "time": []}}}, "displayed_time": "21.96", "trialTime": 25510, "trial_type": "mouselab-mdp", "trial_index": 40, "time_elapsed": 1482410, "internal_node_id": "0.0-4.0-1.0-31.0"}}, {"uniqueid": "w25346192:a18438026", "current_trial": 41, "dateTime": 1691161055631, "trialdata": {"revealed_states": [], "clicked_states": [], "num_clicks_accrued": [0, 0, 0, 0, 0, 0, 0, 0, 0, 0, 0, 0, 0], "stateRewards": ["", 1, 1, 7, -11, 80, -20, -53, -14, 3, 31, 27, 2, -1, -8, -10, 33, 41, 86, 9, 78, -37, -13, -1, -2, -6, -8, -80, 75, 4, -16, -49, -74, 24], "withholdReward": false, "trial_id": "mdp_trial_33", "block": "test", "trialIndex": 34, "score": -13, "costs": 0, "simulationMode": [null, null, null, null, null], "rewards": [-1, -2, -6, -8, 4], "path": ["0", "0", "23", "24", "25", "26", "29"], "rt": [3520, 526, 321, 154, 249], "actions": ["left", "left", "left", "up", "left"], "actionTimes": [7842, 9094, 10175, 10867, 11684], "queries": {"click": {"state": {"target": [], "time": []}, "edge": {"target": [], "time": []}}, "mouseover": {"state": {"target": [], "time": []}, "edge": {"target": [], "time": []}}, "mouseout": {"state": {"target": ["0"], "time": [1812]}, "edge": {"target": [], "time": []}}}, "displayed_time": "18.33", "trialTime": 23458, "trial_type": "mouselab-mdp", "trial_index": 41, "time_elapsed": 1509075, "internal_node_id": "0.0-4.0-1.0-32.0"}}, {"uniqueid": "w25346192:a18438026", "current_trial": 42, "dateTime": 1691161081934, "trialdata": {"revealed_states": [], "clicked_states": [], "num_clicks_accrued": [0, 0, 0, 0, 0, 0, 0, 0, 0, 0, 0, 0, 0], "stateRewards": ["", 1, -2, -8, -13, 4, 34, -84, -4, -49, 88, -70, -1, 3, -4, 10, -77, 13, -34, 15, -21, -16, 27, 1, -2, 8, -8, -6, 38, -26, 6, -15, 66, -3], "withholdReward": false, "trial_id": "mdp_trial_34", "block": "test", "trialIndex": 35, "score": -62, "costs": 0, "simulationMode": [null, null, null, null, null], "rewards": [1, -2, -8, -4, -49], "path": ["0", "0", "1", "2", "3", "8", "9"], "rt": [2652, 15, 105, 46, 124], "actions": ["up", "up", "up", "left", "up"], "actionTimes": [9707, 10289, 10962, 11556, 12264], "queries": {"click": {"state": {"target": [], "time": []}, "edge": {"target": [], "time": []}}, "mouseover": {"state": {"target": [], "time": []}, "edge": {"target": [], "time": []}}, "mouseout": {"state": {"target": ["0"], "time": [5085]}, "edge": {"target": [], "time": []}}}, "displayed_time": "21.06", "trialTime": 22594, "trial_type": "mouselab-mdp", "trial_index": 42, "time_elapsed": 1535379, "internal_node_id": "0.0-4.0-1.0-33.0"}}, {"uniqueid": "w25346192:a18438026", "current_trial": 43, "dateTime": 1691161105511, "trialdata": {"revealed_states": [], "clicked_states": [], "num_clicks_accrued": [0, 0, 0, 0, 0, 0, 0, 0, 0, 0, 0, 0, 0], "stateRewards": ["", -2, 2, -2, -7, -50, -62, -45, 7, 36, -24, -72, -1, -1, 8, -1, -67, 20, -52, 2, 35, -50, 80, -1, 1, 6, -6, -70, 6, 88, 8, -47, 74, -19], "withholdReward": false, "trial_id": "mdp_trial_35", "block": "test", "trialIndex": 36, "score": -47, "costs": 0, "simulationMode": [null, null, null, null, null], "rewards": [-1, -1, 8, -1, -52], "path": ["0", "0", "12", "13", "14", "15", "18"], "rt": [1669, 566, 1827, 1745, 117], "actions": ["right", "right", "right", "up", "left"], "actionTimes": [6213, 7357, 9727, 12030, 12706], "queries": {"click": {"state": {"target": [], "time": []}, "edge": {"target": [], "time": []}}, "mouseover": {"state": {"target": [], "time": []}, "edge": {"target": [], "time": []}}, "mouseout": {"state": {"target": ["0"], "time": [2365]}, "edge": {"target": [], "time": []}}}, "displayed_time": "18.55", "trialTime": 19857, "trial_type": "mouselab-mdp", "trial_index": 43, "time_elapsed": 1558956, "internal_node_id": "0.0-4.0-1.0-34.0"}}, {"uniqueid": "w25346192:a18438026", "current_trial": 44, "dateTime": 1691161147784, "trialdata": {"revealed_states": [], "clicked_states": [], "num_clicks_accrued": [0, 0, 0, 0, 0, 0, 0, 0, 0, 0, 0, 0, 0], "stateRewards": ["", -2, -3, -5, 8, 27, 11, 43, -6, -24, -87, 69, -2, 1, 1, 9, 19, 48, -37, 9, -14, 45, 62, 1, 2, 1, 16, -81, -41, 22, 4, -6, -63, 47], "withholdReward": false, "trial_id": "mdp_trial_36", "block": "test", "trialIndex": 37, "score": -55, "costs": 0, "simulationMode": [null, null, null, null, null], "rewards": [1, 2, 1, 4, -63], "path": ["0", "0", "23", "24", "25", "30", "32"], "rt": [1790, 790, 490, 272, 156], "actions": ["left", "left", "left", "down", "down"], "actionTimes": [5092, 6471, 7527, 8347, 9054], "queries": {"click": {"state": {"target": [], "time": []}, "edge": {"target": [], "time": []}}, "mouseover": {"state": {"target": [], "time": []}, "edge": {"target": [], "time": []}}, "mouseout": {"state": {"target": ["0"], "time": [1384]}, "edge": {"target": [], "time": []}}}, "displayed_time": "17.30", "trialTime": 38757, "trial_type": "mouselab-mdp", "trial_index": 44, "time_elapsed": 1601232, "internal_node_id": "0.0-4.0-1.0-35.0"}}, {"uniqueid": "w25346192:a18438026", "current_trial": 45, "dateTime": 1691161492884, "trialdata": {"revealed_states": [], "clicked_states": [], "num_clicks_accrued": [0, 0, 0, 0, 0, 0, 0, 0, 0, 0, 0, 0, 0], "stateRewards": ["", 1, -1, 4, -2, -75, -75, 84, -9, -60, -79, 59, 2, -4, 8, 9, -17, -82, 80, 14, -4, 49, 49, -1, 3, 6, -11, -33, 34, 55, 9, -57, 5, 59], "withholdReward": false, "trial_id": "mdp_trial_37", "block": "test", "trialIndex": 38, "score": -2, "costs": 0, "simulationMode": [null, null, null, null, null], "rewards": [2, -4, 8, 9, -17], "path": ["0", "0", "12", "13", "14", "15", "16"], "rt": [5392, 13475, 333, 37901, 82005], "actions": ["right", "right", "right", "up", "up"], "actionTimes": [21752, 39851, 40879, 79528, 338519], "queries": {"click": {"state": {"target": [], "time": []}, "edge": {"target": [], "time": []}}, "mouseover": {"state": {"target": [], "time": []}, "edge": {"target": [], "time": []}}, "mouseout": {"state": {"target": ["0", "7", "7"], "time": [14244, 310621, 332479]}, "edge": {"target": [], "time": []}}}, "displayed_time": "339.69", "trialTime": 342124, "trial_type": "mouselab-mdp", "trial_index": 45, "time_elapsed": 1946333, "internal_node_id": "0.0-4.0-1.0-36.0"}}, {"uniqueid": "w25346192:a18438026", "current_trial": 46, "dateTime": 1691161522387, "trialdata": {"revealed_states": [], "clicked_states": [], "num_clicks_accrued": [0, 0, 0, 0, 0, 0, 0, 0, 0, 0, 0, 0, 0], "stateRewards": ["", -1, 3, -5, -2, -13, -9, -34, -7, -81, 32, 35, -2, -2, 1, -14, -32, 81, 7, 4, 82, 56, -8, -1, 3, -8, 6, -24, -24, -53, 2, 38, 61, 54], "withholdReward": false, "trial_id": "mdp_trial_38", "block": "test", "trialIndex": 39, "score": -24, "costs": 0, "simulationMode": [null, null, null, null, null], "rewards": [-1, 3, -8, 6, -24], "path": ["0", "0", "23", "24", "25", "26", "28"], "rt": [2044, 388, 692, 1112, 379], "actions": ["left", "left", "left", "up", "right"], "actionTimes": [11831, 12874, 14127, 16537, 17515], "queries": {"click": {"state": {"target": [], "time": []}, "edge": {"target": [], "time": []}}, "mouseover": {"state": {"target": [], "time": []}, "edge": {"target": [], "time": []}}, "mouseout": {"state": {"target": [], "time": []}, "edge": {"target": [], "time": []}}}, "displayed_time": "23.79", "trialTime": 25923, "trial_type": "mouselab-mdp", "trial_index": 46, "time_elapsed": 1975833, "internal_node_id": "0.0-4.0-1.0-37.0"}}, {"uniqueid": "w25346192:a18438026", "current_trial": 47, "dateTime": 1691161557576, "trialdata": {"revealed_states": [], "clicked_states": [], "num_clicks_accrued": [0, 0, 0, 0, 0, 0, 0, 0, 0, 0, 0, 0, 0], "stateRewards": ["", 2, -4, 4, 9, 69, 9, -75, 12, -86, 66, 25, -1, 3, 2, -13, -88, -3, 1, 4, -69, 49, -84, 2, -1, 4, 2, -18, -81, -52, -15, -69, -54, 25], "withholdReward": false, "trial_id": "mdp_trial_39", "block": "test", "trialIndex": 40, "score": 80, "costs": 0, "simulationMode": [null, null, null, null, null], "rewards": [2, -4, 4, 9, 69], "path": ["0", "0", "1", "2", "3", "4", "5"], "rt": [2623, 267, 275, 19, 177], "actions": ["up", "up", "up", "right", "up"], "actionTimes": [17070, 17926, 18755, 19361, 20119], "queries": {"click": {"state": {"target": [], "time": []}, "edge": {"target": [], "time": []}}, "mouseover": {"state": {"target": [], "time": []}, "edge": {"target": [], "time": []}}, "mouseout": {"state": {"target": [], "time": []}, "edge": {"target": [], "time": []}}}, "displayed_time": "28.46", "trialTime": 30888, "trial_type": "mouselab-mdp", "trial_index": 47, "time_elapsed": 2011021, "internal_node_id": "0.0-4.0-1.0-38.0"}}, {"uniqueid": "w25346192:a18438026", "current_trial": 48, "dateTime": 1691161580802, "trialdata": {"revealed_states": [], "clicked_states": [], "num_clicks_accrued": [0, 0, 0, 0, 0, 0, 0, 0, 0, 0, 0, 0, 0], "stateRewards": ["", 2, 4, 4, 9, -88, -10, 44, 16, -54, 64, 78, 1, 2, 5, 16, 80, 36, 7, -4, 9, -47, -70, -1, -3, 6, -16, 11, 80, 28, 8, -1, 34, -17], "withholdReward": false, "trial_id": "mdp_trial_40", "block": "test", "trialIndex": 41, "score": -28, "costs": 0, "simulationMode": [null, null, null, null, null], "rewards": [2, 4, 4, 16, -54], "path": ["0", "0", "1", "2", "3", "8", "9"], "rt": [1248, 317, 168, 99, 513], "actions": ["up", "up", "up", "left", "up"], "actionTimes": [5039, 5916, 6668, 7329, 8436], "queries": {"click": {"state": {"target": [], "time": []}, "edge": {"target": [], "time": []}}, "mouseover": {"state": {"target": [], "time": []}, "edge": {"target": [], "time": []}}, "mouseout": {"state": {"target": [], "time": []}, "edge": {"target": [], "time": []}}}, "displayed_time": "17.80", "trialTime": 19732, "trial_type": "mouselab-mdp", "trial_index": 48, "time_elapsed": 2034248, "internal_node_id": "0.0-4.0-1.0-39.0"}}, {"uniqueid": "w25346192:a18438026", "current_trial": 49, "dateTime": 1691161653129, "trialdata": {"rt": 71890, "response": {"Q0": "$-2 to $2", "Q1": "$-16 to $16", "Q2": "$-88 to $88", "Q3": "The cost for clicking on nodes varied between nodes.", "Q4": "Very motivated"}, "question_order": [0, 1, 2, 3, 4], "trial_id": "final_quiz_control", "trial_type": "survey-multi-choice", "trial_index": 49, "time_elapsed": 2106577, "internal_node_id": "0.0-4.0-2.0"}}, {"uniqueid": "w25346192:a18438026", "current_trial": 50, "dateTime": 1691161744112, "trialdata": {"rt": 89080, "response": {"Q0": "i checked the end values", "Q1": "i chose not to view the nodes", "Q2": "it was very difficult as checking the nodes value also costed"}, "trial_id": "self_report_control", "trial_type": "survey-text", "trial_index": 50, "time_elapsed": 2197560, "internal_node_id": "0.0-4.0-3.0"}}, {"uniqueid": "w25346192:a18438026", "current_trial": 51, "dateTime": 1691161807143, "trialdata": {"rt": 62982, "response": {"Q0": "Disagree", "Q1": "Disagree", "Q2": "Disagree", "Q3": "Strongly agree", "Q4": "Disagree", "Q5": "Agree", "Q6": "Strongly disagree"}, "question_order": [0, 1, 2, 3, 4, 5, 6], "trial_id": "self_report_2", "trial_type": "survey-multi-choice", "trial_index": 51, "time_elapsed": 2260593, "internal_node_id": "0.0-4.0-4.0"}}, {"uniqueid": "w25346192:a18438026", "current_trial": 52, "dateTime": 1691161847391, "trialdata": {"rt": 40085, "response": {"gender": "female", "age": "25", "colorblind": "0", "effort": "0"}, "trial_type": "survey-html-form", "trial_index": 52, "time_elapsed": 2300841, "internal_node_id": "0.0-4.0-5.0"}}, {"uniqueid": "w25346192:a18438026", "current_trial": 53, "dateTime": 1691161886627, "trialdata": {"rt": 39193, "response": {"Q0": "no", "Q1": "i had not participated before", "Q2": ""}, "trial_type": "survey-text", "trial_index": 53, "time_elapsed": 2340076, "internal_node_id": "0.0-4.0-6.0"}}, {"uniqueid": "w25346192:a18438026", "current_trial": 54, "dateTime": 1691161891342, "trialdata": {"rt": 4643, "stimulus": "Press 'Finish HIT' in order to reach the completion code. Once the data has been saved, you will receive the code either in this window or in the original browser window where you started the experiment.\n", "response": 0, "trial_type": "html-button-response", "trial_index": 54, "time_elapsed": 2344792, "internal_node_id": "0.0-5.0"}}, {"uniqueid": "w25346192:a18438026", "current_trial": 55, "dateTime": 1691161892361, "trialdata": {"success": true, "trial_type": "fullscreen", "trial_index": 55, "time_elapsed": 2345810, "internal_node_id": "0.0-6.0"}}], "questiondata": {"params": {"CODE": "C6DMOQA6", "MIN_TIME": 14, "inspectCost": 1, "startTime": "Fri Aug 04 2023 16:32:03 GMT+0200 (South Africa Standard Time)", "bonusRate": 0.002, "variance": "1_2_4_8_44", "branching": "31123"}, "final_score": -290.95}, "eventdata": [{"eventtype": "initialized", "value": null, "timestamp": 1691159521840, "interval": 0}, {"eventtype": "window_resize", "value": [1366, 670], "timestamp": 1691159521840, "interval": 0}, {"eventtype": "window_resize", "value": [1366, 670], "timestamp": 1691159522859, "interval": 1019}, {"eventtype": "focus", "value": "off", "timestamp": 1691159546113, "interval": 23254}, {"eventtype": "focus", "value": "on", "timestamp": 1691159546201, "interval": 88}, {"eventtype": "window_resize", "value": [1366, 768], "timestamp": 1691159549250, "interval": 3049}, {"eventtype": "focus", "value": "off", "timestamp": 1691161233522, "interval": 1684272}, {"eventtype": "focus", "value": "on", "timestamp": 1691161407193, "interval": 173671}, {"eventtype": "focus", "value": "off", "timestamp": 1691161407207, "interval": 14}, {"eventtype": "focus", "value": "on", "timestamp": 1691161407208, "interval": 1}, {"eventtype": "focus", "value": "off", "timestamp": 1691161407209, "interval": 1}, {"eventtype": "focus", "value": "on", "timestamp": 1691161407209, "interval": 0}, {"eventtype": "window_resize", "value": [1366, 670], "timestamp": 1691161419742, "interval": 12533}, {"eventtype": "focus", "value": "off", "timestamp": 1691161433643, "interval": 13901}, {"eventtype": "focus", "value": "on", "timestamp": 1691161461110, "interval": 27467}], "useragent": "Mozilla/5.0 (Windows NT 10.0; Win64; x64) AppleWebKit/537.36 (KHTML, like Gecko) Chrome/114.0.0.0 Safari/537.36", "mode": "live", "id": "w25346192:a18438026", "status": "user data saved", "Beginhit": "2023-08-04 14:31:18.561593", "Beginexp": "2023-08-04 14:32:37.123913", "Endhit": "2023-08-04 15:11:42.301327", "psiturkStatus": 3, "browser": "<redacted>", "platform": "windows", "language": "en-ZA"}