{"condition": 0, "counterbalance": 0, "assignmentId": "a25810874", "workerId": "w51630855", "hitId": "h86454302", "currenttrial": 39, "bonus": 0, "data": [{"uniqueid": "w51630855:a25810874", "current_trial": 0, "dateTime": 1691159571082, "trialdata": {"success": true, "trial_type": "fullscreen", "trial_index": 0, "time_elapsed": 6735, "internal_node_id": "0.0-0.0"}}, {"uniqueid": "w51630855:a25810874", "current_trial": 1, "dateTime": 1691159606391, "trialdata": {"view_history": [{"page_index": 0, "viewing_time": 35301}], "rt": 35302, "trial_id": "exp_instructions_control", "trial_type": "instructions", "trial_index": 1, "time_elapsed": 42044, "internal_node_id": "0.0-1.0"}}, {"uniqueid": "w51630855:a25810874", "current_trial": 2, "dateTime": 1691159611097, "trialdata": {"success": true, "trial_type": "fullscreen", "trial_index": 2, "time_elapsed": 46749, "internal_node_id": "0.0-2.0-0.0"}}, {"uniqueid": "w51630855:a25810874", "current_trial": 3, "dateTime": 1691159890655, "trialdata": {"view_history": [{"page_index": 0, "viewing_time": 111083}, {"page_index": 1, "viewing_time": 91820}, {"page_index": 2, "viewing_time": 22787}, {"page_index": 3, "viewing_time": 53863}], "rt": 279553, "trial_id": "mouselab_instructions_1_control", "trial_type": "instructions", "trial_index": 3, "time_elapsed": 326308, "internal_node_id": "0.0-2.0-1.0"}}, {"uniqueid": "w51630855:a25810874", "current_trial": 4, "dateTime": 1691159947275, "trialdata": {"revealed_states": [], "clicked_states": ["24", "30", "32", "33", "2", "3", "4", "5", "12", "13"], "num_clicks_accrued": [0, 0, 0, 0, 0, 0, 0, 0, 0, 0, 0, 0, 0], "stateRewards": ["", -10, 10, 10, -10, 10, -10, -10, 10, 10, 10, -10, 10, 10, -10, -10, -10, 10, 10, -10, 10, -10, 10, -10, -10, 10, -10, -10, 10, 10, 10, -10, 10, -10], "withholdReward": false, "trial_id": "practice_1", "block": "test", "trialIndex": 0, "score": 8.5, "costs": -5, "simulationMode": [null, null, null, null, null], "rewards": [10, 10, -10, -10, 10], "path": ["0", "0", "12", "13", "14", "15", "17"], "rt": [34064, 2403, 5708, 3578, 1547], "actions": ["right", "right", "right", "up", "right"], "actionTimes": [37401, 40314, 46537, 50656, 52741], "queries": {"click": {"state": {"target": ["24", "30", "32", "33", "2", "3", "4", "5", "12", "13"], "time": [7545, 12618, 16041, 18785, 20698, 22676, 27844, 29736, 32388, 34116]}, "edge": {"target": [], "time": []}}, "mouseover": {"state": {"target": ["23", "24", "26", "25", "30", "32", "33", "2", "7", "2", "3", "4", "5", "7", "12", "13"], "time": [6766, 7050, 10671, 11416, 12225, 14073, 18263, 19676, 20086, 20208, 22209, 25024, 29332, 31446, 32059, 33440]}, "edge": {"target": [], "time": []}}, "mouseout": {"state": {"target": ["0", "0", "23", "24", "26", "25", "30", "32", "33", "2", "7", "2", "2", "2", "3", "4", "5", "4", "7", "12", "13", "14", "12"], "time": [1512, 6711, 6904, 10328, 11335, 12176, 13953, 16055, 19520, 19762, 20111, 21708, 21903, 22106, 24927, 29146, 31373, 31438, 31470, 33329, 41794, 44890, 45017]}, "edge": {"target": [], "time": []}}}, "displayed_time": "53.26", "trialTime": 56395, "trial_type": "mouselab-mdp", "trial_index": 4, "time_elapsed": 382928, "internal_node_id": "0.0-2.0-2.0-0.0"}}, {"uniqueid": "w51630855:a25810874", "current_trial": 5, "dateTime": 1691159964366, "trialdata": {"revealed_states": [], "clicked_states": [], "num_clicks_accrued": [0, 0, 0, 0, 0, 0, 0, 0, 0, 0, 0, 0, 0], "stateRewards": ["", -10, 10, -10, 10, 10, -10, 10, -10, -10, 10, 10, -10, 10, -10, 10, -10, 10, -10, 10, 10, 10, -10, 10, -10, -10, -10, -10, -10, -10, -10, 10, -10, -10], "withholdReward": false, "trial_id": "practice_2", "block": "test", "trialIndex": 1, "score": 13.5, "costs": 0, "simulationMode": [null, null, null, null, null], "rewards": [-10, 10, -10, 10, 10], "path": ["0", "0", "12", "13", "14", "15", "17"], "rt": [3314, 1934, 1538, 2242, 699], "actions": ["right", "right", "right", "up", "right"], "actionTimes": [6179, 8648, 10717, 13472, 14713], "queries": {"click": {"state": {"target": [], "time": []}, "edge": {"target": [], "time": []}}, "mouseover": {"state": {"target": ["0"], "time": [3361]}, "edge": {"target": [], "time": []}}, "mouseout": {"state": {"target": ["0", "0"], "time": [2334, 3401]}, "edge": {"target": [], "time": []}}}, "displayed_time": "15.25", "trialTime": 16920, "trial_type": "mouselab-mdp", "trial_index": 5, "time_elapsed": 400018, "internal_node_id": "0.0-2.0-2.0-1.0"}}, {"uniqueid": "w51630855:a25810874", "current_trial": 6, "dateTime": 1691160005192, "trialdata": {"view_history": [{"page_index": 0, "viewing_time": 29990}, {"page_index": 1, "viewing_time": 10831}], "rt": 40822, "trial_id": "mouselab_instructions_2_control", "trial_type": "instructions", "trial_index": 6, "time_elapsed": 440845, "internal_node_id": "0.0-2.0-3.0"}}, {"uniqueid": "w51630855:a25810874", "current_trial": 7, "dateTime": 1691160060007, "trialdata": {"rt": 54810, "response": {"Q0": "The cost for clicking on nodes may vary between nodes.", "Q1": "The better I perform the higher my bonus will be.", "Q2": "No, the amount of cash at each node of the web may be different each time.", "Q3": "To get the highest total score.", "Q4": "Only before moving the spider.", "Q5": "3 seconds"}, "question_order": [0, 1, 2, 3, 4, 5], "correct": {"Q0": "The cost for clicking on nodes may vary between nodes.", "Q1": "The better I perform the higher my bonus will be.", "Q2": "No, the amount of cash at each node of the web may be different each time.", "Q3": "To get the highest total score.", "Q4": "Only before moving the spider.", "Q5": "3 seconds"}, "trial_id": "mouselab_quiz_control", "trial_type": "survey-multi-choice", "trial_index": 7, "time_elapsed": 495660, "internal_node_id": "0.0-2.0-4.0"}}, {"uniqueid": "w51630855:a25810874", "current_trial": 8, "dateTime": 1691160079082, "trialdata": {"rt": 19060, "stimulus": "\n<h1> Get ready to start the game! </h1>\n\nThank you for reading the instructions. Get ready start with the 40 rounds of this game.\n<br><br>\nIf you need to take a break, feel free to take one after the end of a round, before continuing to the next one.\n<br><br>\nRemember, the more money the spider gets, the bigger your bonus will be!\n<br><br>\n<div style='text-align: center;'>Press <code>space</code> to begin.</div>\n\n<br><br>\n(If, at any point, the <code>space</code> key does not take you to the next page, click once on the text and try again.)", "response": " ", "trial_id": "mdp_ready", "trial_type": "html-keyboard-response", "trial_index": 8, "time_elapsed": 514735, "internal_node_id": "0.0-4.0-0.0"}}, {"uniqueid": "w51630855:a25810874", "current_trial": 9, "dateTime": 1691160102559, "trialdata": {"revealed_states": [], "clicked_states": [], "num_clicks_accrued": [0, 0, 0, 0, 0, 0, 0, 0, 0, 0, 0, 0, 0], "stateRewards": ["", -1, 1, 8, -3, -24, 11, -65, -6, -77, 48, 44, -2, 1, -2, -7, -55, -35, 33, 8, -28, 19, -53, -1, -1, -5, -5, -70, 10, 44, 8, -58, -70, 51], "withholdReward": false, "trial_id": "mdp_trial_1", "block": "test", "trialIndex": 2, "score": -45, "costs": 0, "simulationMode": [null, null, null, null, null], "rewards": [-2, 1, -2, -7, -35], "path": ["0", "0", "12", "13", "14", "15", "17"], "rt": [9006, 1649, 1928, 1028, 593], "actions": ["right", "right", "right", "up", "right"], "actionTimes": [13113, 15275, 17738, 19288, 20420], "queries": {"click": {"state": {"target": [], "time": []}, "edge": {"target": [], "time": []}}, "mouseover": {"state": {"target": ["0"], "time": [4916]}, "edge": {"target": [], "time": []}}, "mouseout": {"state": {"target": ["3", "2", "1", "0", "0"], "time": [1986, 2154, 2275, 3559, 4980]}, "edge": {"target": [], "time": []}}}, "displayed_time": "20.96", "trialTime": 23310, "trial_type": "mouselab-mdp", "trial_index": 9, "time_elapsed": 538211, "internal_node_id": "0.0-4.0-1.0-0.0"}}, {"uniqueid": "w51630855:a25810874", "current_trial": 10, "dateTime": 1691160120253, "trialdata": {"revealed_states": [], "clicked_states": [], "num_clicks_accrued": [0, 0, 0, 0, 0, 0, 0, 0, 0, 0, 0, 0, 0], "stateRewards": ["", 2, 3, 8, 11, 25, -80, 6, -4, -56, 84, -23, -2, -4, -3, 4, -51, -9, -61, -15, -64, 67, -35, 1, -1, -7, -6, 83, 59, -15, 12, -79, 56, 41], "withholdReward": false, "trial_id": "mdp_trial_2", "block": "test", "trialIndex": 3, "score": 70, "costs": 0, "simulationMode": [null, null, null, null, null], "rewards": [1, -1, -7, -6, 83], "path": ["0", "0", "23", "24", "25", "26", "27"], "rt": [4805, 980, 1696, 957, 611], "actions": ["left", "left", "left", "up", "up"], "actionTimes": [7235, 8732, 10965, 12459, 13613], "queries": {"click": {"state": {"target": [], "time": []}, "edge": {"target": [], "time": []}}, "mouseover": {"state": {"target": ["23", "23", "24", "23"], "time": [3580, 4405, 4816, 5154]}, "edge": {"target": [], "time": []}}, "mouseout": {"state": {"target": ["0", "23", "23", "24"], "time": [3524, 3750, 4695, 5041]}, "edge": {"target": [], "time": []}}}, "displayed_time": "16.44", "trialTime": 17529, "trial_type": "mouselab-mdp", "trial_index": 10, "time_elapsed": 555905, "internal_node_id": "0.0-4.0-1.0-1.0"}}, {"uniqueid": "w51630855:a25810874", "current_trial": 11, "dateTime": 1691160138514, "trialdata": {"revealed_states": [], "clicked_states": ["1"], "num_clicks_accrued": [0, 0, 0, 0, 0, 0, 0, 0, 0, 0, 0, 0, 0], "stateRewards": ["", -1, -4, 8, 8, -68, 47, 24, -7, -61, 49, -69, -1, -1, 8, -7, 42, 1, -45, -11, 10, -63, -6, 1, 4, 6, -16, 79, -37, -58, -12, 81, 18, -53], "withholdReward": false, "trial_id": "mdp_trial_3", "block": "test", "trialIndex": 4, "score": -66.4, "costs": -1.4, "simulationMode": [null, null, null, null, null], "rewards": [-1, -4, 8, -7, -61], "path": ["0", "0", "1", "2", "3", "8", "9"], "rt": [4324, 2076, 1024, 1633, 321], "actions": ["up", "up", "up", "left", "up"], "actionTimes": [7418, 10019, 11584, 13760, 14614], "queries": {"click": {"state": {"target": ["1"], "time": [4832]}, "edge": {"target": [], "time": []}}, "mouseover": {"state": {"target": ["1", "23"], "time": [4432, 5809]}, "edge": {"target": [], "time": []}}, "mouseout": {"state": {"target": ["23", "23", "1", "23"], "time": [2229, 2292, 5753, 5834]}, "edge": {"target": [], "time": []}}}, "displayed_time": "17.11", "trialTime": 18081, "trial_type": "mouselab-mdp", "trial_index": 11, "time_elapsed": 574166, "internal_node_id": "0.0-4.0-1.0-2.0"}}, {"uniqueid": "w51630855:a25810874", "current_trial": 12, "dateTime": 1691160160705, "trialdata": {"revealed_states": [], "clicked_states": [], "num_clicks_accrued": [0, 0, 0, 0, 0, 0, 0, 0, 0, 0, 0, 0, 0], "stateRewards": ["", -1, -4, -1, -5, -28, -23, -15, -15, -38, 59, -87, 2, 2, -5, 9, -55, -39, -71, -6, 85, -85, -11, -1, -2, 5, -10, 1, 25, 41, -4, 69, -35, 86], "withholdReward": false, "trial_id": "mdp_trial_4", "block": "test", "trialIndex": 5, "score": 78, "costs": 0, "simulationMode": [null, null, null, null, null], "rewards": [2, 2, -5, -6, 85], "path": ["0", "0", "12", "13", "14", "19", "20"], "rt": [2376, 702, 986, 392, 373], "actions": ["right", "right", "right", "down", "right"], "actionTimes": [4976, 6203, 7721, 8627, 9541], "queries": {"click": {"state": {"target": [], "time": []}, "edge": {"target": [], "time": []}}, "mouseover": {"state": {"target": ["0"], "time": [3453]}, "edge": {"target": [], "time": []}}, "mouseout": {"state": {"target": ["0", "0"], "time": [2231, 3468]}, "edge": {"target": [], "time": []}}}, "displayed_time": "16.61", "trialTime": 22014, "trial_type": "mouselab-mdp", "trial_index": 12, "time_elapsed": 596357, "internal_node_id": "0.0-4.0-1.0-3.0"}}, {"uniqueid": "w51630855:a25810874", "current_trial": 13, "dateTime": 1691160181037, "trialdata": {"revealed_states": [], "clicked_states": [], "num_clicks_accrued": [0, 0, 0, 0, 0, 0, 0, 0, 0, 0, 0, 0, 0], "stateRewards": ["", 1, -3, 4, 13, -72, 52, 5, 5, -58, 5, 14, 2, 1, 3, -14, -86, -4, 73, 6, -58, -50, 49, 2, -3, -4, 2, 33, -41, 42, -11, 81, 45, 53], "withholdReward": false, "trial_id": "mdp_trial_5", "block": "test", "trialIndex": 6, "score": 37, "costs": 0, "simulationMode": [null, null, null, null, null], "rewards": [2, -3, -4, -11, 53], "path": ["0", "0", "23", "24", "25", "30", "33"], "rt": [3775, 1179, 587, 584, 1128], "actions": ["left", "left", "left", "down", "left"], "actionTimes": [7954, 9660, 10769, 11865, 13526], "queries": {"click": {"state": {"target": [], "time": []}, "edge": {"target": [], "time": []}}, "mouseover": {"state": {"target": ["0"], "time": [5197]}, "edge": {"target": [], "time": []}}, "mouseout": {"state": {"target": ["0", "0"], "time": [3044, 5271]}, "edge": {"target": [], "time": []}}}, "displayed_time": "18.19", "trialTime": 20159, "trial_type": "mouselab-mdp", "trial_index": 13, "time_elapsed": 616690, "internal_node_id": "0.0-4.0-1.0-4.0"}}, {"uniqueid": "w51630855:a25810874", "current_trial": 14, "dateTime": 1691160199343, "trialdata": {"revealed_states": [], "clicked_states": [], "num_clicks_accrued": [0, 0, 0, 0, 0, 0, 0, 0, 0, 0, 0, 0, 0], "stateRewards": ["", 1, 2, -3, -5, 66, -50, -47, -5, 1, 28, -27, 1, 1, -1, -6, 37, -25, 56, 1, -82, -66, -40, -1, -4, -7, 15, -61, -23, 26, 10, 14, -56, 29], "withholdReward": false, "trial_id": "mdp_trial_6", "block": "test", "trialIndex": 7, "score": 51, "costs": 0, "simulationMode": [null, null, null, null, null], "rewards": [1, 1, -1, -6, 56], "path": ["0", "0", "12", "13", "14", "15", "18"], "rt": [3206, 685, 1811, 684, 893], "actions": ["right", "right", "right", "up", "left"], "actionTimes": [5508, 6715, 9058, 10280, 11707], "queries": {"click": {"state": {"target": [], "time": []}, "edge": {"target": [], "time": []}}, "mouseover": {"state": {"target": ["0", "22", "19"], "time": [2908, 4313, 4346]}, "edge": {"target": [], "time": []}}, "mouseout": {"state": {"target": ["0", "12", "12", "0", "22", "19"], "time": [1534, 1624, 1809, 2978, 4330, 4352]}, "edge": {"target": [], "time": []}}}, "displayed_time": "16.32", "trialTime": 18132, "trial_type": "mouselab-mdp", "trial_index": 14, "time_elapsed": 634996, "internal_node_id": "0.0-4.0-1.0-5.0"}}, {"uniqueid": "w51630855:a25810874", "current_trial": 15, "dateTime": 1691160218973, "trialdata": {"revealed_states": [], "clicked_states": [], "num_clicks_accrued": [0, 0, 0, 0, 0, 0, 0, 0, 0, 0, 0, 0, 0], "stateRewards": ["", 2, -3, -2, 14, -4, 85, 46, 15, -28, 41, 31, -1, -1, -1, 5, 62, 79, 57, 12, -73, -64, 86, -1, 1, -3, -5, 68, 11, -32, 8, -80, -21, -56], "withholdReward": false, "trial_id": "mdp_trial_7", "block": "test", "trialIndex": 8, "score": 57, "costs": 0, "simulationMode": [null, null, null, null, null], "rewards": [2, -3, -2, 14, 46], "path": ["0", "0", "1", "2", "3", "4", "7"], "rt": [9484, 499, 1270, 744, 311], "actions": ["up", "up", "up", "right", "down"], "actionTimes": [11732, 12768, 14571, 15829, 16680], "queries": {"click": {"state": {"target": [], "time": []}, "edge": {"target": [], "time": []}}, "mouseover": {"state": {"target": ["0", "32"], "time": [2973, 5022]}, "edge": {"target": [], "time": []}}, "mouseout": {"state": {"target": ["0", "0", "32"], "time": [1567, 3043, 7305]}, "edge": {"target": [], "time": []}}}, "displayed_time": "17.22", "trialTime": 19450, "trial_type": "mouselab-mdp", "trial_index": 15, "time_elapsed": 654626, "internal_node_id": "0.0-4.0-1.0-6.0"}}, {"uniqueid": "w51630855:a25810874", "current_trial": 16, "dateTime": 1691160238829, "trialdata": {"revealed_states": [], "clicked_states": ["32", "7", "10"], "num_clicks_accrued": [0, 0, 0, 0, 0, 0, 0, 0, 0, 0, 0, 0, 0], "stateRewards": ["", -2, -1, -4, -15, -14, -67, 32, -3, -59, 63, 31, 2, -1, -7, -15, 71, -66, -27, -3, -54, -39, 72, 2, 1, 1, -13, 77, -40, 35, -9, 35, 75, 57], "withholdReward": false, "trial_id": "mdp_trial_8", "block": "test", "trialIndex": 9, "score": 48.8, "costs": -4.199999999999999, "simulationMode": [null, null, null, null, null], "rewards": [-2, -1, -4, -3, 63], "path": ["0", "0", "1", "2", "3", "8", "10"], "rt": [10847, 185, 292, 292, 268], "actions": ["up", "up", "up", "left", "down"], "actionTimes": [12820, 13537, 14359, 15177, 15986], "queries": {"click": {"state": {"target": ["32", "7", "10"], "time": [4132, 7679, 9588]}, "edge": {"target": [], "time": []}}, "mouseover": {"state": {"target": ["0", "30", "32", "31", "23", "0", "12", "7", "4", "7", "2", "10", "2"], "time": [2603, 3596, 3789, 5065, 5176, 5241, 5402, 6873, 7122, 7347, 8310, 8577, 10311]}, "edge": {"target": [], "time": []}}, "mouseout": {"state": {"target": ["0", "0", "30", "32", "31", "23", "0", "12", "7", "4", "7", "2", "10", "2", "7"], "time": [1576, 2660, 3701, 4143, 5103, 5208, 5315, 6621, 7058, 7302, 8268, 8384, 10282, 10359, 10537]}, "edge": {"target": [], "time": []}}}, "displayed_time": "16.52", "trialTime": 19689, "trial_type": "mouselab-mdp", "trial_index": 16, "time_elapsed": 674481, "internal_node_id": "0.0-4.0-1.0-7.0"}}, {"uniqueid": "w51630855:a25810874", "current_trial": 17, "dateTime": 1691160261890, "trialdata": {"revealed_states": [], "clicked_states": ["11", "9"], "num_clicks_accrued": [0, 0, 0, 0, 0, 0, 0, 0, 0, 0, 0, 0, 0], "stateRewards": ["", 1, -3, -1, 9, -34, -40, 22, -7, 45, 53, -11, 2, 4, 5, 15, 21, 37, -49, -3, 80, -28, -34, 1, -3, 1, 1, -40, -6, -5, -16, -85, -86, 59], "withholdReward": false, "trial_id": "mdp_trial_9", "block": "test", "trialIndex": 10, "score": 32.2, "costs": -2.8, "simulationMode": [null, null, null, null, null], "rewards": [1, -3, -1, -7, 45], "path": ["0", "0", "1", "2", "3", "8", "9"], "rt": [10845, 224, 327, 583, 437], "actions": ["up", "up", "up", "left", "up"], "actionTimes": [13769, 14522, 15373, 16496, 17467], "queries": {"click": {"state": {"target": ["11", "9"], "time": [5460, 8754]}, "edge": {"target": [], "time": []}}, "mouseover": {"state": {"target": ["1", "10", "11", "9", "3", "2", "2", "1", "23"], "time": [3970, 4202, 5123, 6317, 9966, 10054, 10887, 10920, 10944]}, "edge": {"target": [], "time": []}}, "mouseout": {"state": {"target": ["12", "22", "0", "0", "1", "10", "11", "9", "3", "2", "2", "1", "23"], "time": [1233, 1482, 1587, 1798, 3978, 4977, 6221, 9772, 10022, 10088, 10904, 10928, 10961]}, "edge": {"target": [], "time": []}}}, "displayed_time": "18.00", "trialTime": 22896, "trial_type": "mouselab-mdp", "trial_index": 17, "time_elapsed": 697542, "internal_node_id": "0.0-4.0-1.0-8.0"}}, {"uniqueid": "w51630855:a25810874", "current_trial": 18, "dateTime": 1691160279284, "trialdata": {"revealed_states": [], "clicked_states": [], "num_clicks_accrued": [0, 0, 0, 0, 0, 0, 0, 0, 0, 0, 0, 0, 0], "stateRewards": ["", -2, 1, 6, -2, -10, -78, -69, 14, -15, 7, -1, 1, -1, -2, 13, 77, 32, 87, 5, -74, 30, -26, 1, 3, 4, 12, 39, 54, -43, 2, 10, 23, 13], "withholdReward": false, "trial_id": "mdp_trial_10", "block": "test", "trialIndex": 11, "score": -75, "costs": 0, "simulationMode": [null, null, null, null, null], "rewards": [-2, 1, 6, -2, -78], "path": ["0", "0", "1", "2", "3", "4", "6"], "rt": [2776, 350, 1113, 370, 362], "actions": ["up", "up", "up", "right", "right"], "actionTimes": [4548, 5420, 7066, 7972, 8848], "queries": {"click": {"state": {"target": [], "time": []}, "edge": {"target": [], "time": []}}, "mouseover": {"state": {"target": [], "time": []}, "edge": {"target": [], "time": []}}, "mouseout": {"state": {"target": ["0"], "time": [2426]}, "edge": {"target": [], "time": []}}}, "displayed_time": "15.79", "trialTime": 17211, "trial_type": "mouselab-mdp", "trial_index": 18, "time_elapsed": 714936, "internal_node_id": "0.0-4.0-1.0-9.0"}}, {"uniqueid": "w51630855:a25810874", "current_trial": 19, "dateTime": 1691160299895, "trialdata": {"revealed_states": [], "clicked_states": ["5", "10", "28", "32"], "num_clicks_accrued": [0, 0, 0, 0, 0, 0, 0, 0, 0, 0, 0, 0, 0], "stateRewards": ["", 1, 1, -7, -9, -44, 24, -83, -15, 44, -24, 72, -2, -3, 4, -5, 57, 55, 29, -11, 22, 12, -25, -1, 2, 7, 12, 33, -8, 47, -4, 8, 50, -4], "withholdReward": false, "trial_id": "mdp_trial_11", "block": "test", "trialIndex": 12, "score": 48.4, "costs": -5.6, "simulationMode": [null, null, null, null, null], "rewards": [-1, 2, 7, -4, 50], "path": ["0", "0", "23", "24", "25", "30", "32"], "rt": [12604, 599, 467, 368, 479], "actions": ["left", "left", "left", "down", "down"], "actionTimes": [14276, 15398, 16400, 17299, 18310], "queries": {"click": {"state": {"target": ["5", "10", "28", "32"], "time": [2751, 4661, 7228, 10465]}, "edge": {"target": [], "time": []}}, "mouseover": {"state": {"target": ["1", "2", "3", "5", "9", "8", "10", "28", "28", "24", "25", "30", "32"], "time": [2023, 2072, 2130, 2435, 3200, 3991, 4372, 5840, 6891, 9386, 9653, 9951, 10040]}, "edge": {"target": [], "time": []}}, "mouseout": {"state": {"target": ["12", "1", "2", "3", "5", "9", "8", "10", "28", "28", "24", "25", "30", "32"], "time": [1137, 2055, 2104, 2136, 3089, 3968, 4032, 5203, 6723, 9346, 9523, 9691, 9966, 10471]}, "edge": {"target": [], "time": []}}}, "displayed_time": "18.85", "trialTime": 20436, "trial_type": "mouselab-mdp", "trial_index": 19, "time_elapsed": 735547, "internal_node_id": "0.0-4.0-1.0-10.0"}}, {"uniqueid": "w51630855:a25810874", "current_trial": 20, "dateTime": 1691160317936, "trialdata": {"revealed_states": [], "clicked_states": ["29", "28", "27"], "num_clicks_accrued": [0, 0, 0, 0, 0, 0, 0, 0, 0, 0, 0, 0, 0], "stateRewards": ["", 2, 3, -1, 16, -78, -11, 46, 2, -20, 79, -67, 2, 3, 2, 11, -83, -42, -58, -11, -67, -22, 55, 2, -1, -1, -16, -83, -82, 23, -11, -29, 13, 13], "withholdReward": false, "trial_id": "mdp_trial_12", "block": "test", "trialIndex": 13, "score": 2.8000000000000007, "costs": -4.199999999999999, "simulationMode": [null, null, null, null, null], "rewards": [2, -1, -1, -16, 23], "path": ["0", "0", "23", "24", "25", "26", "29"], "rt": [10396, 195, 315, 415, 206], "actions": ["left", "left", "left", "up", "left"], "actionTimes": [12310, 13036, 13890, 14841, 15582], "queries": {"click": {"state": {"target": ["29", "28", "27"], "time": [3449, 5934, 8146]}, "edge": {"target": [], "time": []}}, "mouseover": {"state": {"target": ["23", "26", "29", "26", "28", "28", "27", "26", "24", "31"], "time": [2392, 2667, 2901, 3859, 4056, 5477, 6606, 8938, 9002, 9075]}, "edge": {"target": [], "time": []}}, "mouseout": {"state": {"target": ["0", "23", "26", "29", "26", "28", "28", "27", "26", "24", "31"], "time": [1375, 2418, 2780, 3454, 3909, 5364, 6410, 8906, 8945, 9026, 10611]}, "edge": {"target": [], "time": []}}}, "displayed_time": "16.11", "trialTime": 17871, "trial_type": "mouselab-mdp", "trial_index": 20, "time_elapsed": 753589, "internal_node_id": "0.0-4.0-1.0-11.0"}}, {"uniqueid": "w51630855:a25810874", "current_trial": 21, "dateTime": 1691160335600, "trialdata": {"revealed_states": [], "clicked_states": [], "num_clicks_accrued": [0, 0, 0, 0, 0, 0, 0, 0, 0, 0, 0, 0, 0], "stateRewards": ["", 2, 1, -3, 7, 46, 11, -36, 16, 71, 5, 1, 2, -2, -8, -3, -4, 6, 55, 7, 68, -54, 2, 1, 1, 6, -6, 42, -4, -84, -11, -65, 63, 25], "withholdReward": false, "trial_id": "mdp_trial_13", "block": "test", "trialIndex": 14, "score": -5, "costs": 0, "simulationMode": [null, null, null, null, null], "rewards": [2, -2, -8, -3, 6], "path": ["0", "0", "12", "13", "14", "15", "17"], "rt": [1305, 379, 375, 453, 411], "actions": ["right", "right", "right", "up", "right"], "actionTimes": [3117, 4018, 4932, 5926, 6851], "queries": {"click": {"state": {"target": [], "time": []}, "edge": {"target": [], "time": []}}, "mouseover": {"state": {"target": ["0"], "time": [2231]}, "edge": {"target": [], "time": []}}, "mouseout": {"state": {"target": ["0", "12", "18", "15", "17"], "time": [2270, 10266, 10894, 10943, 10984]}, "edge": {"target": [], "time": []}}}, "displayed_time": "15.83", "trialTime": 17499, "trial_type": "mouselab-mdp", "trial_index": 21, "time_elapsed": 771253, "internal_node_id": "0.0-4.0-1.0-12.0"}}, {"uniqueid": "w51630855:a25810874", "current_trial": 22, "dateTime": 1691160357605, "trialdata": {"revealed_states": [], "clicked_states": ["20", "18", "7"], "num_clicks_accrued": [0, 0, 0, 0, 0, 0, 0, 0, 0, 0, 0, 0, 0], "stateRewards": ["", -1, 1, -5, -6, -78, 47, -13, 12, 48, -88, 20, 2, -3, -2, 13, -20, 37, -57, 14, -38, 30, 31, -2, -2, 8, 2, -23, 78, 28, 12, -74, -88, 8], "withholdReward": false, "trial_id": "mdp_trial_14", "block": "test", "trialIndex": 15, "score": 50.8, "costs": -4.199999999999999, "simulationMode": [null, null, null, null, null], "rewards": [-1, 1, -5, 12, 48], "path": ["0", "0", "1", "2", "3", "8", "9"], "rt": [13244, 520, 618, 1019, 325], "actions": ["up", "up", "up", "left", "up"], "actionTimes": [15054, 16110, 17241, 18791, 19646], "queries": {"click": {"state": {"target": ["20", "18", "7"], "time": [3495, 6521, 8369]}, "edge": {"target": [], "time": []}}, "mouseover": {"state": {"target": ["22", "21", "19", "20", "17", "15", "18", "1", "7", "12", "29", "27", "10", "29"], "time": [2357, 2608, 2896, 3188, 4207, 5966, 6183, 7426, 7855, 10785, 12344, 12391, 12732, 13798]}, "edge": {"target": [], "time": []}}, "mouseout": {"state": {"target": ["17", "0", "22", "21", "19", "20", "17", "15", "18", "1", "7", "7", "7", "12", "29", "27", "10", "29"], "time": [670, 2245, 2398, 2679, 2986, 3947, 5926, 6006, 7256, 7607, 9222, 9920, 10542, 10793, 12360, 12399, 13750, 13806]}, "edge": {"target": [], "time": []}}}, "displayed_time": "20.17", "trialTime": 21836, "trial_type": "mouselab-mdp", "trial_index": 22, "time_elapsed": 793257, "internal_node_id": "0.0-4.0-1.0-13.0"}}, {"uniqueid": "w51630855:a25810874", "current_trial": 23, "dateTime": 1691160375569, "trialdata": {"revealed_states": [], "clicked_states": ["33"], "num_clicks_accrued": [0, 0, 0, 0, 0, 0, 0, 0, 0, 0, 0, 0, 0], "stateRewards": ["", 1, -1, 1, 13, 31, -56, 72, 2, 41, 5, 63, -2, -3, -2, 3, -71, -26, 52, 13, -31, 24, -67, 2, -2, 5, 4, 66, 43, 72, 9, 86, -26, 44], "withholdReward": false, "trial_id": "mdp_trial_15", "block": "test", "trialIndex": 16, "score": 56.6, "costs": -1.4, "simulationMode": [null, null, null, null, null], "rewards": [2, -2, 5, 9, 44], "path": ["0", "0", "23", "24", "25", "30", "33"], "rt": [5799, 175, 376, 130, 904], "actions": ["left", "left", "left", "down", "left"], "actionTimes": [8581, 9290, 10192, 10862, 12304], "queries": {"click": {"state": {"target": ["33"], "time": [5588]}, "edge": {"target": [], "time": []}}, "mouseover": {"state": {"target": ["0", "31", "30", "33", "30", "31", "24", "23"], "time": [3652, 4475, 4806, 5167, 6209, 6289, 7510, 7846]}, "edge": {"target": [], "time": []}}, "mouseout": {"state": {"target": ["25", "24", "23", "13", "12", "0", "31", "30", "33", "30", "31", "24", "23"], "time": [1876, 1890, 1906, 2206, 2303, 3717, 4482, 4973, 5593, 6257, 7468, 7791, 7879]}, "edge": {"target": [], "time": []}}}, "displayed_time": "16.79", "trialTime": 17794, "trial_type": "mouselab-mdp", "trial_index": 23, "time_elapsed": 811222, "internal_node_id": "0.0-4.0-1.0-14.0"}}, {"uniqueid": "w51630855:a25810874", "current_trial": 24, "dateTime": 1691160397519, "trialdata": {"revealed_states": [], "clicked_states": ["27", "31", "17"], "num_clicks_accrued": [0, 0, 0, 0, 0, 0, 0, 0, 0, 0, 0, 0, 0], "stateRewards": ["", -2, -3, 1, -7, 39, -67, 16, 5, -20, 73, 66, -1, 4, 5, -3, 23, -68, -87, -8, 3, -3, 17, 1, -4, -2, -13, -32, 34, 61, -5, -11, -18, 12], "withholdReward": false, "trial_id": "mdp_trial_16", "block": "test", "trialIndex": 17, "score": -82.2, "costs": -4.199999999999999, "simulationMode": [null, null, null, null, null], "rewards": [-2, -3, 1, -7, -67], "path": ["0", "0", "1", "2", "3", "4", "6"], "rt": [11444, 1104, 384, 1127, 733], "actions": ["up", "up", "up", "right", "right"], "actionTimes": [13409, 15042, 15955, 17616, 18890], "queries": {"click": {"state": {"target": ["27", "31", "17"], "time": [3208, 4785, 6775]}, "edge": {"target": [], "time": []}}, "mouseover": {"state": {"target": ["27", "28", "24", "31", "30", "31", "0", "12", "15", "17", "16", "15", "13"], "time": [2891, 3607, 3826, 3882, 4108, 4385, 5338, 5370, 5539, 6450, 7426, 8986, 9091]}, "edge": {"target": [], "time": []}}, "mouseout": {"state": {"target": ["0", "27", "28", "24", "31", "30", "31", "0", "12", "15", "17", "16", "15", "13"], "time": [1566, 3523, 3803, 3851, 4022, 4290, 5255, 5354, 5391, 5804, 7237, 8928, 9021, 9131]}, "edge": {"target": [], "time": []}}}, "displayed_time": "19.42", "trialTime": 21784, "trial_type": "mouselab-mdp", "trial_index": 24, "time_elapsed": 833172, "internal_node_id": "0.0-4.0-1.0-15.0"}}, {"uniqueid": "w51630855:a25810874", "current_trial": 25, "dateTime": 1691160418212, "trialdata": {"revealed_states": [], "clicked_states": ["7", "10"], "num_clicks_accrued": [0, 0, 0, 0, 0, 0, 0, 0, 0, 0, 0, 0, 0], "stateRewards": ["", 1, 1, -5, 10, -31, 73, 14, -8, -23, 63, -70, -1, 2, 8, 7, 25, -59, 27, -10, -40, -71, -15, -2, 3, -8, -5, -19, 77, -34, 7, 67, 63, 19], "withholdReward": false, "trial_id": "mdp_trial_17", "block": "test", "trialIndex": 18, "score": 49.2, "costs": -2.8, "simulationMode": [null, null, null, null, null], "rewards": [1, 1, -5, -8, 63], "path": ["0", "0", "1", "2", "3", "8", "10"], "rt": [6971, 104, 149, 432, 106], "actions": ["up", "up", "up", "left", "down"], "actionTimes": [9211, 9851, 10529, 11496, 12137], "queries": {"click": {"state": {"target": ["7", "10"], "time": [4636, 6508]}, "edge": {"target": [], "time": []}}, "mouseover": {"state": {"target": ["1", "1", "2", "2", "7", "2", "10", "28", "24", "31"], "time": [3216, 3677, 3830, 4168, 4217, 5064, 5194, 7566, 8133, 8157]}, "edge": {"target": [], "time": []}}, "mouseout": {"state": {"target": ["0", "0", "1", "1", "2", "2", "7", "2", "10", "28", "24", "31"], "time": [1465, 3121, 3444, 3750, 4057, 4185, 5031, 5113, 7397, 8117, 8149, 8165]}, "edge": {"target": [], "time": []}}}, "displayed_time": "16.25", "trialTime": 20520, "trial_type": "mouselab-mdp", "trial_index": 25, "time_elapsed": 853865, "internal_node_id": "0.0-4.0-1.0-16.0"}}, {"uniqueid": "w51630855:a25810874", "current_trial": 26, "dateTime": 1691160435202, "trialdata": {"revealed_states": [], "clicked_states": [], "num_clicks_accrued": [0, 0, 0, 0, 0, 0, 0, 0, 0, 0, 0, 0, 0], "stateRewards": ["", -2, 2, -5, 1, 42, -63, -58, -6, 2, 16, 81, -2, 4, 7, -10, 33, 3, -33, -2, -52, -84, -27, 2, -3, -3, 15, -74, -14, -5, -5, -84, 79, -31], "withholdReward": false, "trial_id": "mdp_trial_18", "block": "test", "trialIndex": 19, "score": -3, "costs": 0, "simulationMode": [null, null, null, null, null], "rewards": [2, -3, -3, 15, -14], "path": ["0", "0", "23", "24", "25", "26", "28"], "rt": [5688, 14, 332, 601, 465], "actions": ["left", "left", "left", "up", "right"], "actionTimes": [7788, 8343, 9210, 10344, 11343], "queries": {"click": {"state": {"target": [], "time": []}, "edge": {"target": [], "time": []}}, "mouseover": {"state": {"target": ["23", "23", "24", "23", "23", "24", "30", "33", "32"], "time": [2794, 2980, 3060, 3681, 4271, 4932, 5546, 5854, 6991]}, "edge": {"target": [], "time": []}}, "mouseout": {"state": {"target": ["0", "23", "23", "24", "23", "23", "24", "30", "33", "32"], "time": [2730, 2843, 3020, 3650, 3738, 4893, 5450, 5757, 6950, 7033]}, "edge": {"target": [], "time": []}}}, "displayed_time": "16.11", "trialTime": 16823, "trial_type": "mouselab-mdp", "trial_index": 26, "time_elapsed": 870855, "internal_node_id": "0.0-4.0-1.0-17.0"}}, {"uniqueid": "w51630855:a25810874", "current_trial": 27, "dateTime": 1691160453024, "trialdata": {"revealed_states": [], "clicked_states": ["27", "33", "18", "7"], "num_clicks_accrued": [0, 0, 0, 0, 0, 0, 0, 0, 0, 0, 0, 0, 0], "stateRewards": ["", -1, -2, -8, 8, -27, -82, 19, -14, -62, 4, 1, -2, 2, 6, 10, 73, -51, -2, 2, 73, -48, 54, -1, 2, -4, 11, -25, 47, 86, 15, 33, 43, -42], "withholdReward": false, "trial_id": "mdp_trial_19", "block": "test", "trialIndex": 20, "score": 10.399999999999999, "costs": -5.6, "simulationMode": [null, null, null, null, null], "rewards": [-1, -2, -8, 8, 19], "path": ["0", "0", "1", "2", "3", "4", "7"], "rt": [10542, 166, 311, 179, 120], "actions": ["up", "up", "up", "right", "down"], "actionTimes": [12772, 13448, 14296, 15014, 15652], "queries": {"click": {"state": {"target": ["27", "33", "18", "7"], "time": [3320, 4956, 6902, 9832]}, "edge": {"target": [], "time": []}}, "mouseover": {"state": {"target": ["28", "27", "26", "33", "30", "31", "22", "19", "14", "15", "18", "12", "0", "7", "12"], "time": [2666, 2988, 3632, 3972, 5425, 5448, 5548, 5642, 5893, 6417, 6506, 7879, 8040, 8814, 11043]}, "edge": {"target": [], "time": []}}, "mouseout": {"state": {"target": ["0", "28", "27", "26", "33", "30", "31", "22", "19", "14", "15", "18", "12", "0", "7", "12"], "time": [1544, 2674, 3616, 3641, 5400, 5441, 5465, 5586, 5765, 5917, 6466, 7613, 7951, 8099, 10972, 11059]}, "edge": {"target": [], "time": []}}}, "displayed_time": "16.24", "trialTime": 17649, "trial_type": "mouselab-mdp", "trial_index": 27, "time_elapsed": 888676, "internal_node_id": "0.0-4.0-1.0-18.0"}}, {"uniqueid": "w51630855:a25810874", "current_trial": 28, "dateTime": 1691160469937, "trialdata": {"revealed_states": [], "clicked_states": [], "num_clicks_accrued": [0, 0, 0, 0, 0, 0, 0, 0, 0, 0, 0, 0, 0], "stateRewards": ["", -1, 3, 8, 9, -53, 20, -84, 2, -28, -62, -31, -1, -2, -7, 2, 51, 58, 45, -4, -17, -41, 36, 2, -2, -7, -15, 29, -54, -37, -16, -43, 65, -17], "withholdReward": false, "trial_id": "mdp_trial_20", "block": "test", "trialIndex": 21, "score": -16, "costs": 0, "simulationMode": [null, null, null, null, null], "rewards": [-1, 3, 8, 2, -28], "path": ["0", "0", "1", "2", "3", "8", "9"], "rt": [1976, 369, 273, 576, 830], "actions": ["up", "up", "up", "left", "up"], "actionTimes": [3762, 4646, 5449, 6555, 7924], "queries": {"click": {"state": {"target": [], "time": []}, "edge": {"target": [], "time": []}}, "mouseover": {"state": {"target": ["0"], "time": [2438]}, "edge": {"target": [], "time": []}}, "mouseout": {"state": {"target": ["0"], "time": [2469]}, "edge": {"target": [], "time": []}}}, "displayed_time": "15.80", "trialTime": 16741, "trial_type": "mouselab-mdp", "trial_index": 28, "time_elapsed": 905590, "internal_node_id": "0.0-4.0-1.0-19.0"}}, {"uniqueid": "w51630855:a25810874", "current_trial": 29, "dateTime": 1691160486890, "trialdata": {"revealed_states": [], "clicked_states": [], "num_clicks_accrued": [0, 0, 0, 0, 0, 0, 0, 0, 0, 0, 0, 0, 0], "stateRewards": ["", -1, 4, 3, 12, -27, 34, -33, 3, -63, 1, 6, 2, 2, -6, -11, -77, -85, 68, -6, 51, 81, -60, -2, -2, 1, 15, 20, 15, 68, -10, -14, 6, -4], "withholdReward": false, "trial_id": "mdp_trial_21", "block": "test", "trialIndex": 22, "score": 80, "costs": 0, "simulationMode": [null, null, null, null, null], "rewards": [-2, -2, 1, 15, 68], "path": ["0", "0", "23", "24", "25", "26", "29"], "rt": [4897, 41, 128, 1553, 335], "actions": ["left", "left", "left", "up", "left"], "actionTimes": [6444, 7017, 7672, 9766, 10646], "queries": {"click": {"state": {"target": [], "time": []}, "edge": {"target": [], "time": []}}, "mouseover": {"state": {"target": ["23", "24", "25", "30", "31"], "time": [2006, 2061, 2361, 4178, 5937]}, "edge": {"target": [], "time": []}}, "mouseout": {"state": {"target": ["0", "23", "24", "25", "30", "31"], "time": [1157, 2036, 2068, 3918, 5912, 5985]}, "edge": {"target": [], "time": []}}}, "displayed_time": "15.56", "trialTime": 16793, "trial_type": "mouselab-mdp", "trial_index": 29, "time_elapsed": 922542, "internal_node_id": "0.0-4.0-1.0-20.0"}}, {"uniqueid": "w51630855:a25810874", "current_trial": 30, "dateTime": 1691160504346, "trialdata": {"revealed_states": [], "clicked_states": [], "num_clicks_accrued": [0, 0, 0, 0, 0, 0, 0, 0, 0, 0, 0, 0, 0], "stateRewards": ["", -2, 2, 8, -6, -25, 3, 87, 2, -62, -2, 74, -2, -1, 2, -1, 79, 49, -37, -14, 5, 67, -9, -1, 2, -2, 5, 15, 38, 32, -14, -38, -38, 30], "withholdReward": false, "trial_id": "mdp_trial_22", "block": "test", "trialIndex": 23, "score": -52, "costs": 0, "simulationMode": [null, null, null, null, null], "rewards": [-2, 2, 8, 2, -62], "path": ["0", "0", "1", "2", "3", "8", "9"], "rt": [1517, 137, 212, 36, 1156], "actions": ["up", "up", "up", "left", "up"], "actionTimes": [3497, 4173, 4915, 5489, 7161], "queries": {"click": {"state": {"target": [], "time": []}, "edge": {"target": [], "time": []}}, "mouseover": {"state": {"target": [], "time": []}, "edge": {"target": [], "time": []}}, "mouseout": {"state": {"target": ["0"], "time": [2500]}, "edge": {"target": [], "time": []}}}, "displayed_time": "16.00", "trialTime": 17276, "trial_type": "mouselab-mdp", "trial_index": 30, "time_elapsed": 939999, "internal_node_id": "0.0-4.0-1.0-21.0"}}, {"uniqueid": "w51630855:a25810874", "current_trial": 31, "dateTime": 1691160521833, "trialdata": {"revealed_states": [], "clicked_states": ["11"], "num_clicks_accrued": [0, 0, 0, 0, 0, 0, 0, 0, 0, 0, 0, 0, 0], "stateRewards": ["", 2, 4, -5, 7, 81, 35, 6, 11, 14, -72, 42, -1, 2, 3, -7, -77, -44, -40, -15, -85, 51, -32, -2, -1, -5, 7, -74, 47, 52, 16, -49, 48, -46], "withholdReward": false, "trial_id": "mdp_trial_23", "block": "test", "trialIndex": 24, "score": 52.6, "costs": -1.4, "simulationMode": [null, null, null, null, null], "rewards": [2, 4, -5, 11, 42], "path": ["0", "0", "1", "2", "3", "8", "11"], "rt": [5366, 158, 187, 21, 562], "actions": ["up", "up", "up", "left", "left"], "actionTimes": [7316, 8002, 8730, 9280, 10371], "queries": {"click": {"state": {"target": ["11"], "time": [3413]}, "edge": {"target": [], "time": []}}, "mouseover": {"state": {"target": ["1", "2", "8", "11", "10", "23"], "time": [2485, 2543, 2959, 3115, 3904, 5958]}, "edge": {"target": [], "time": []}}, "mouseout": {"state": {"target": ["0", "1", "2", "8", "11", "11", "10", "23"], "time": [2420, 2517, 2581, 3042, 3418, 3809, 5893, 5996]}, "edge": {"target": [], "time": []}}}, "displayed_time": "15.96", "trialTime": 17319, "trial_type": "mouselab-mdp", "trial_index": 31, "time_elapsed": 957485, "internal_node_id": "0.0-4.0-1.0-22.0"}}, {"uniqueid": "w51630855:a25810874", "current_trial": 32, "dateTime": 1691160538787, "trialdata": {"revealed_states": [], "clicked_states": ["29", "33"], "num_clicks_accrued": [0, 0, 0, 0, 0, 0, 0, 0, 0, 0, 0, 0, 0], "stateRewards": ["", 1, 3, -2, 15, 51, 15, -19, 11, 67, -45, -73, 2, 4, -2, -13, 36, 9, -28, 10, -30, 31, 16, 1, 2, -1, -16, 14, -22, 36, -1, 88, -5, 45], "withholdReward": false, "trial_id": "mdp_trial_24", "block": "test", "trialIndex": 25, "score": 43.2, "costs": -2.8, "simulationMode": [null, null, null, null, null], "rewards": [1, 2, -1, -1, 45], "path": ["0", "0", "23", "24", "25", "30", "33"], "rt": [7496, 193, 102, 97, 570], "actions": ["left", "left", "left", "down", "left"], "actionTimes": [9136, 9839, 10482, 11109, 12216], "queries": {"click": {"state": {"target": ["29", "33"], "time": [4119, 6910]}, "edge": {"target": [], "time": []}}, "mouseover": {"state": {"target": ["25", "29", "26", "25", "30", "33"], "time": [2827, 3812, 4479, 4697, 4746, 5079]}, "edge": {"target": [], "time": []}}, "mouseout": {"state": {"target": ["0", "25", "29", "26", "25", "30", "33"], "time": [2335, 3619, 4416, 4609, 4714, 4819, 7338]}, "edge": {"target": [], "time": []}}}, "displayed_time": "15.65", "trialTime": 16777, "trial_type": "mouselab-mdp", "trial_index": 32, "time_elapsed": 974440, "internal_node_id": "0.0-4.0-1.0-23.0"}}, {"uniqueid": "w51630855:a25810874", "current_trial": 33, "dateTime": 1691160556435, "trialdata": {"revealed_states": [], "clicked_states": ["32"], "num_clicks_accrued": [0, 0, 0, 0, 0, 0, 0, 0, 0, 0, 0, 0, 0], "stateRewards": ["", 1, -1, -7, -7, -22, 15, -13, 13, 26, -32, 38, -1, 1, -7, -4, 16, -62, 86, 12, -54, 56, 64, -2, -1, 6, 14, -57, 37, 62, -6, -25, 50, -70], "withholdReward": false, "trial_id": "mdp_trial_25", "block": "test", "trialIndex": 26, "score": 45.6, "costs": -1.4, "simulationMode": [null, null, null, null, null], "rewards": [-2, -1, 6, -6, 50], "path": ["0", "0", "23", "24", "25", "30", "32"], "rt": [4514, 113, 205, 82, 173], "actions": ["left", "left", "left", "down", "down"], "actionTimes": [6458, 7106, 7848, 8458, 9167], "queries": {"click": {"state": {"target": ["32"], "time": [3321]}, "edge": {"target": [], "time": []}}, "mouseover": {"state": {"target": ["23", "24", "30", "32", "30", "29", "26", "24", "31"], "time": [2469, 2559, 2737, 2923, 3703, 4035, 5545, 5625, 5641]}, "edge": {"target": [], "time": []}}, "mouseout": {"state": {"target": ["32", "0", "23", "24", "30", "32", "30", "29", "26", "24", "31"], "time": [1019, 2453, 2511, 2607, 2794, 3632, 3711, 5489, 5585, 5634, 5657]}, "edge": {"target": [], "time": []}}}, "displayed_time": "15.96", "trialTime": 17470, "trial_type": "mouselab-mdp", "trial_index": 33, "time_elapsed": 992087, "internal_node_id": "0.0-4.0-1.0-24.0"}}, {"uniqueid": "w51630855:a25810874", "current_trial": 34, "dateTime": 1691160573989, "trialdata": {"revealed_states": [], "clicked_states": ["29", "11"], "num_clicks_accrued": [0, 0, 0, 0, 0, 0, 0, 0, 0, 0, 0, 0, 0], "stateRewards": ["", -2, 4, -7, -3, -76, 39, -28, 10, 14, 12, 60, 2, -3, 6, -10, 88, -34, -41, -3, 72, -13, -56, 1, 3, 2, 8, -51, 23, -57, 1, 14, -46, -16], "withholdReward": false, "trial_id": "mdp_trial_26", "block": "test", "trialIndex": 27, "score": 62.2, "costs": -2.8, "simulationMode": [null, null, null, null, null], "rewards": [-2, 4, -7, 10, 60], "path": ["0", "0", "1", "2", "3", "8", "11"], "rt": [7958, 193, 85, 262, 185], "actions": ["up", "up", "up", "left", "left"], "actionTimes": [10531, 11236, 11862, 12657, 13383], "queries": {"click": {"state": {"target": ["29", "11"], "time": [4488, 6279]}, "edge": {"target": [], "time": []}}, "mouseover": {"state": {"target": ["23", "24", "26", "29", "26", "11", "10"], "time": [3455, 3544, 4004, 4166, 4947, 5553, 6917]}, "edge": {"target": [], "time": []}}, "mouseout": {"state": {"target": ["0", "23", "24", "26", "29", "26", "11", "10"], "time": [3376, 3504, 3939, 4046, 4899, 4973, 6764, 8558]}, "edge": {"target": [], "time": []}}}, "displayed_time": "16.59", "trialTime": 17375, "trial_type": "mouselab-mdp", "trial_index": 34, "time_elapsed": 1009641, "internal_node_id": "0.0-4.0-1.0-25.0"}}, {"uniqueid": "w51630855:a25810874", "current_trial": 35, "dateTime": 1691160591215, "trialdata": {"revealed_states": [], "clicked_states": ["10", "6"], "num_clicks_accrued": [0, 0, 0, 0, 0, 0, 0, 0, 0, 0, 0, 0, 0], "stateRewards": ["", 1, -1, 8, -3, 38, 85, -20, -4, 8, 23, 73, 2, -4, 6, -13, 44, 7, -28, -11, -77, 45, -69, 1, -1, -7, -11, 75, -51, -87, 7, 36, -53, -26], "withholdReward": false, "trial_id": "mdp_trial_27", "block": "test", "trialIndex": 28, "score": 87.2, "costs": -2.8, "simulationMode": [null, null, null, null, null], "rewards": [1, -1, 8, -3, 85], "path": ["0", "0", "1", "2", "3", "4", "6"], "rt": [6791, 122, 221, 28, 122], "actions": ["up", "up", "up", "right", "right"], "actionTimes": [8814, 9476, 10226, 10783, 11427], "queries": {"click": {"state": {"target": ["10", "6"], "time": [3072, 5636]}, "edge": {"target": [], "time": []}}, "mouseover": {"state": {"target": ["1", "2", "10", "2", "4", "6", "5", "3", "10", "28", "25"], "time": [2439, 2547, 2781, 3440, 3561, 3854, 6209, 7663, 7694, 7703, 7720]}, "edge": {"target": [], "time": []}}, "mouseout": {"state": {"target": ["1", "2", "10", "2", "4", "6", "5", "3", "10", "28", "25"], "time": [2448, 2643, 3419, 3456, 3642, 6128, 7623, 7678, 7702, 7718, 7735]}, "edge": {"target": [], "time": []}}}, "displayed_time": "16.04", "trialTime": 17047, "trial_type": "mouselab-mdp", "trial_index": 35, "time_elapsed": 1026868, "internal_node_id": "0.0-4.0-1.0-26.0"}}, {"uniqueid": "w51630855:a25810874", "current_trial": 36, "dateTime": 1691160609396, "trialdata": {"revealed_states": [], "clicked_states": ["9"], "num_clicks_accrued": [0, 0, 0, 0, 0, 0, 0, 0, 0, 0, 0, 0, 0], "stateRewards": ["", -1, 2, -7, -12, -62, 12, -13, 5, 77, -71, 83, 1, -4, 7, 15, -42, -87, -4, 5, -25, 44, 88, -1, 4, -5, -8, 14, 51, 8, -5, 83, -24, -19], "withholdReward": false, "trial_id": "mdp_trial_28", "block": "test", "trialIndex": 29, "score": 74.6, "costs": -1.4, "simulationMode": [null, null, null, null, null], "rewards": [-1, 2, -7, 5, 77], "path": ["0", "0", "1", "2", "3", "8", "9"], "rt": [5020, 106, 113, 322, 548], "actions": ["up", "up", "up", "left", "up"], "actionTimes": [7362, 8009, 8637, 9493, 10561], "queries": {"click": {"state": {"target": ["9"], "time": [3416]}, "edge": {"target": [], "time": []}}, "mouseover": {"state": {"target": ["1", "10", "8", "9", "8", "10", "28", "1", "13"], "time": [2684, 2755, 2982, 3111, 3820, 3925, 5145, 5686, 5808]}, "edge": {"target": [], "time": []}}, "mouseout": {"state": {"target": ["33", "30", "0", "1", "10", "8", "9", "8", "10", "28", "1", "13"], "time": [1352, 1367, 1965, 2706, 2797, 3015, 3771, 3876, 4894, 5614, 5720, 5880]}, "edge": {"target": [], "time": []}}}, "displayed_time": "16.36", "trialTime": 18010, "trial_type": "mouselab-mdp", "trial_index": 36, "time_elapsed": 1045048, "internal_node_id": "0.0-4.0-1.0-27.0"}}, {"uniqueid": "w51630855:a25810874", "current_trial": 37, "dateTime": 1691160627613, "trialdata": {"revealed_states": [], "clicked_states": ["9", "5"], "num_clicks_accrued": [0, 0, 0, 0, 0, 0, 0, 0, 0, 0, 0, 0, 0], "stateRewards": ["", -2, 1, -5, 2, -68, 80, 33, 10, 67, -59, 20, -1, -3, 3, 14, 74, -2, 24, -16, 63, 80, 46, -1, 4, 6, 12, 83, -38, -43, -4, 43, 14, -79], "withholdReward": false, "trial_id": "mdp_trial_29", "block": "test", "trialIndex": 30, "score": 68.2, "costs": -2.8, "simulationMode": [null, null, null, null, null], "rewards": [-2, 1, -5, 10, 67], "path": ["0", "0", "1", "2", "3", "8", "9"], "rt": [6499, 69, 151, 145, 118], "actions": ["up", "up", "up", "left", "up"], "actionTimes": [9328, 9918, 10598, 11278, 11935], "queries": {"click": {"state": {"target": ["9", "5"], "time": [4563, 7346]}, "edge": {"target": [], "time": []}}, "mouseover": {"state": {"target": ["1", "2", "8", "9", "5", "4", "18", "13"], "time": [3723, 3786, 3826, 4224, 5037, 7749, 7822, 7862]}, "edge": {"target": [], "time": []}}, "mouseout": {"state": {"target": ["22", "0", "0", "1", "2", "8", "9", "5", "4", "18", "13"], "time": [1624, 1923, 3447, 3771, 3797, 3868, 4973, 7725, 7765, 7848, 7878]}, "edge": {"target": [], "time": []}}}, "displayed_time": "16.84", "trialTime": 18040, "trial_type": "mouselab-mdp", "trial_index": 37, "time_elapsed": 1063266, "internal_node_id": "0.0-4.0-1.0-28.0"}}, {"uniqueid": "w51630855:a25810874", "current_trial": 38, "dateTime": 1691160645787, "trialdata": {"revealed_states": [], "clicked_states": ["29", "11"], "num_clicks_accrued": [0, 0, 0, 0, 0, 0, 0, 0, 0, 0, 0, 0, 0], "stateRewards": ["", -2, 2, 5, -14, -56, 64, 84, -5, 52, 39, 85, -2, 1, 7, 8, 21, 29, -78, -9, -10, -69, 10, -2, -1, -7, 15, 72, 20, 41, -2, 52, 80, 22], "withholdReward": false, "trial_id": "mdp_trial_30", "block": "test", "trialIndex": 31, "score": 82.2, "costs": -2.8, "simulationMode": [null, null, null, null, null], "rewards": [-2, 2, 5, -5, 85], "path": ["0", "0", "1", "2", "3", "8", "11"], "rt": [6955, 42, 23, 120, 75], "actions": ["up", "up", "up", "left", "left"], "actionTimes": [9893, 10446, 10994, 11641, 12246], "queries": {"click": {"state": {"target": ["29", "11"], "time": [3998, 6634]}, "edge": {"target": [], "time": []}}, "mouseover": {"state": {"target": ["23", "28", "26", "29", "27", "11", "10", "23"], "time": [3316, 3373, 3406, 3560, 4495, 5086, 7224, 8960]}, "edge": {"target": [], "time": []}}, "mouseout": {"state": {"target": ["19", "13", "12", "23", "28", "26", "29", "27", "11", "10", "23"], "time": [2030, 2074, 2157, 3333, 3381, 3463, 4406, 4519, 7070, 8919, 8975]}, "edge": {"target": [], "time": []}}}, "displayed_time": "16.95", "trialTime": 18000, "trial_type": "mouselab-mdp", "trial_index": 38, "time_elapsed": 1081439, "internal_node_id": "0.0-4.0-1.0-29.0"}}], "questiondata": {"params": {"CODE": "C6DMOQA6", "MIN_TIME": 14, "inspectCost": 1, "startTime": "Fri Aug 04 2023 16:32:35 GMT+0200 (South Africa Standard Time)", "bonusRate": 0.002, "variance": "1_2_4_8_44", "branching": "31123"}}, "eventdata": [{"eventtype": "initialized", "value": null, "timestamp": 1691159554578, "interval": 0}, {"eventtype": "window_resize", "value": [1470, 840], "timestamp": 1691159554578, "interval": 0}, {"eventtype": "window_resize", "value": [1470, 840], "timestamp": 1691159555182, "interval": 604}, {"eventtype": "window_resize", "value": [1470, 920], "timestamp": 1691159570383, "interval": 15201}, {"eventtype": "focus", "value": "off", "timestamp": 1691160687558, "interval": 1117175}, {"eventtype": "focus", "value": "on", "timestamp": 1691160692613, "interval": 5055}, {"eventtype": "window_resize", "value": [1470, 840], "timestamp": 1691160699766, "interval": 7153}, {"eventtype": "window_resize", "value": [1324, 778], "timestamp": 1691160710677, "interval": 10911}, {"eventtype": "window_resize", "value": [1470, 840], "timestamp": 1691160711885, "interval": 1208}, {"eventtype": "focus", "value": "off", "timestamp": 1691160735875, "interval": 23990}, {"eventtype": "focus", "value": "on", "timestamp": 1691160735900, "interval": 25}, {"eventtype": "focus", "value": "off", "timestamp": 1691160756081, "interval": 20181}, {"eventtype": "focus", "value": "on", "timestamp": 1691160768193, "interval": 12112}, {"eventtype": "focus", "value": "on", "timestamp": 1691160768195, "interval": 2}], "useragent": "Mozilla/5.0 (Macintosh; Intel Mac OS X 10_15_7) AppleWebKit/605.1.15 (KHTML, like Gecko) Version/16.6 Safari/605.1.15", "mode": "live", "id": "w51630855:a25810874", "status": "user data saved", "Beginhit": "2023-08-04 14:32:28.920265", "Beginexp": "2023-08-04 14:32:51.660056", "Endhit": null, "psiturkStatus": 6, "browser": "<redacted>", "platform": "macos", "language": "en-GB", "excludeReason": "dataincomplete"}