{"condition": 1, "counterbalance": 0, "assignmentId": "a44280008", "workerId": "w71163117", "hitId": "h84737090", "currenttrial": 56, "bonus": 0, "data": [{"uniqueid": "w71163117:a44280008", "current_trial": 0, "dateTime": 1691159274946, "trialdata": {"success": true, "trial_type": "fullscreen", "trial_index": 0, "time_elapsed": 39709, "internal_node_id": "0.0-0.0"}}, {"uniqueid": "w71163117:a44280008", "current_trial": 1, "dateTime": 1691159304816, "trialdata": {"view_history": [{"page_index": 0, "viewing_time": 29865}], "rt": 29866, "trial_id": "exp_instructions_misaligned", "trial_type": "instructions", "trial_index": 1, "time_elapsed": 69580, "internal_node_id": "0.0-1.0"}}, {"uniqueid": "w71163117:a44280008", "current_trial": 2, "dateTime": 1691159309151, "trialdata": {"success": true, "trial_type": "fullscreen", "trial_index": 2, "time_elapsed": 73915, "internal_node_id": "0.0-2.0-0.0"}}, {"uniqueid": "w71163117:a44280008", "current_trial": 3, "dateTime": 1691159580311, "trialdata": {"view_history": [{"page_index": 0, "viewing_time": 51792}, {"page_index": 1, "viewing_time": 108012}, {"page_index": 2, "viewing_time": 39062}, {"page_index": 3, "viewing_time": 72290}], "rt": 271155, "trial_id": "mouselab_instructions_1_misaligned", "trial_type": "instructions", "trial_index": 3, "time_elapsed": 345075, "internal_node_id": "0.0-2.0-1.0"}}, {"uniqueid": "w71163117:a44280008", "current_trial": 4, "dateTime": 1691159623482, "trialdata": {"revealed_states": [], "clicked_states": ["33", "31", "27", "25"], "num_clicks_accrued": [0, 0, 0, 0, 0, 0, 0, 0, 0, 0, 0, 0, 0], "stateRewards": ["", -10, 10, -10, 10, -10, -10, -10, 10, -10, 10, 10, 10, -10, -10, 10, -10, 10, -10, -10, -10, -10, -10, 10, 10, -10, -10, 10, -10, -10, 10, 10, -10, 10], "withholdReward": false, "trial_id": "practice_1", "block": "test", "trialIndex": 0, "score": 31.5, "costs": -2, "simulationMode": [null, null, null, null, null], "rewards": [10, 10, -10, 10, 10], "path": ["0", "0", "23", "24", "25", "30", "33"], "rt": [27004, 246, 710, 1209, 452], "actions": ["left", "left", "left", "down", "left"], "actionTimes": [31127, 31886, 33116, 34849, 35823], "queries": {"click": {"state": {"target": ["33", "31", "27", "25"], "time": [7935, 18373, 22781, 25421]}, "edge": {"target": [], "time": []}}, "mouseover": {"state": {"target": ["23", "31", "32", "32", "33", "32", "30", "25", "25", "33", "33", "30", "31", "30", "25", "26", "27", "26", "25"], "time": [6299, 6571, 6635, 6819, 7186, 8900, 11333, 11371, 11650, 14535, 14820, 16201, 18166, 19325, 21791, 21907, 22476, 24491, 24857]}, "edge": {"target": [], "time": []}}, "mouseout": {"state": {"target": ["0", "23", "31", "32", "32", "33", "32", "30", "25", "25", "33", "33", "30", "31", "30", "25", "26", "27", "26", "25"], "time": [6251, 6569, 6582, 6650, 6850, 8701, 11319, 11369, 11418, 14485, 14549, 15500, 18069, 19158, 21711, 21874, 22308, 23976, 24794, 26058]}, "edge": {"target": [], "time": []}}}, "displayed_time": "36.34", "trialTime": 42680, "trial_type": "mouselab-mdp", "trial_index": 4, "time_elapsed": 388239, "internal_node_id": "0.0-2.0-2.0-0.0"}}, {"uniqueid": "w71163117:a44280008", "current_trial": 5, "dateTime": 1691159641260, "trialdata": {"revealed_states": [], "clicked_states": ["9"], "num_clicks_accrued": [0, 0, 0, 0, 0, 0, 0, 0, 0, 0, 0, 0, 0], "stateRewards": ["", -10, 10, -10, 10, -10, 10, 10, 10, 10, 10, -10, 10, 10, -10, -10, 10, -10, -10, 10, 10, -10, 10, 10, -10, -10, -10, 10, -10, -10, -10, -10, 10, 10], "withholdReward": false, "trial_id": "practice_2", "block": "test", "trialIndex": 1, "score": 13, "costs": -0.5, "simulationMode": [null, null, null, null, null], "rewards": [-10, 10, -10, 10, 10], "path": ["0", "0", "1", "2", "3", "8", "9"], "rt": [6720, 156, 187, 361, 904], "actions": ["up", "up", "up", "left", "up"], "actionTimes": [9616, 10282, 10981, 11851, 13276], "queries": {"click": {"state": {"target": ["9"], "time": [6400]}, "edge": {"target": [], "time": []}}, "mouseover": {"state": {"target": ["1", "2", "3", "9", "9"], "time": [3774, 4175, 4239, 4489, 6090]}, "edge": {"target": [], "time": []}}, "mouseout": {"state": {"target": ["23", "1", "2", "3", "9", "9", "8", "10", "23"], "time": [939, 4089, 4188, 4425, 5773, 7374, 16192, 16224, 16691]}, "edge": {"target": [], "time": []}}}, "displayed_time": "13.79", "trialTime": 17472, "trial_type": "mouselab-mdp", "trial_index": 5, "time_elapsed": 406023, "internal_node_id": "0.0-2.0-2.0-1.0"}}, {"uniqueid": "w71163117:a44280008", "current_trial": 6, "dateTime": 1691159679462, "trialdata": {"view_history": [{"page_index": 0, "viewing_time": 28096}, {"page_index": 1, "viewing_time": 10097}], "rt": 38193, "trial_id": "mouselab_instructions_2_misaligned", "trial_type": "instructions", "trial_index": 6, "time_elapsed": 444226, "internal_node_id": "0.0-2.0-3.0"}}, {"uniqueid": "w71163117:a44280008", "current_trial": 7, "dateTime": 1691159717287, "trialdata": {"rt": 37821, "response": {"Q0": "The cost for clicking on nodes may vary between nodes.", "Q1": "The better I perform the higher my bonus will be.", "Q2": "No, the amount of cash at each node of the web may be different each time.", "Q3": "To get the highest total score.", "Q4": "Only before moving the spider.", "Q5": "3 seconds"}, "question_order": [0, 1, 2, 3, 4, 5], "correct": {"Q0": "The cost for clicking on nodes may vary between nodes.", "Q1": "The better I perform the higher my bonus will be.", "Q2": "No, the amount of cash at each node of the web may be different each time.", "Q3": "To get the highest total score.", "Q4": "Only before moving the spider.", "Q5": "3 seconds"}, "trial_id": "mouselab_quiz_misaligned", "trial_type": "survey-multi-choice", "trial_index": 7, "time_elapsed": 482051, "internal_node_id": "0.0-2.0-4.0"}}, {"uniqueid": "w71163117:a44280008", "current_trial": 8, "dateTime": 1691159761368, "trialdata": {"rt": 44073, "stimulus": "\n<h1> Get ready to start the game! </h1>\n\nThank you for reading the instructions. Get ready start with the 40 rounds of this game.\n<br><br>\nIf you need to take a break, feel free to take one after the end of a round, before continuing to the next one.\n<br><br>\nRemember, the more money the spider gets, the bigger your bonus will be!\n<br><br>\n<div style='text-align: center;'>Press <code>space</code> to begin.</div>\n\n<br><br>\n(If, at any point, the <code>space</code> key does not take you to the next page, click once on the text and try again.)", "response": " ", "trial_id": "mdp_ready", "trial_type": "html-keyboard-response", "trial_index": 8, "time_elapsed": 526132, "internal_node_id": "0.0-4.0-0.0"}}, {"uniqueid": "w71163117:a44280008", "current_trial": 9, "dateTime": 1691159789494, "trialdata": {"revealed_states": [], "clicked_states": ["32", "25", "33", "29"], "num_clicks_accrued": [0, 0, 0, 0, 0, 0, 0, 0, 0, 0, 0, 0, 0], "stateRewards": ["", 2, 2, 3, -15, 23, -14, 73, -7, -32, -20, -6, 1, 1, -5, -12, 73, 6, -84, 11, -81, -57, 13, -2, -1, -4, -8, -52, -58, 49, 13, 5, -41, -41], "withholdReward": false, "trial_id": "mdp_trial_1", "block": "test", "trialIndex": 2, "score": 26.6, "costs": -7.4, "simulationMode": [null, null, null, null, null], "rewards": [-2, -1, -4, -8, 49], "path": ["0", "0", "23", "24", "25", "26", "29"], "rt": [17350, 270, 190, 491, 268], "actions": ["left", "left", "left", "up", "left"], "actionTimes": [21379, 22169, 22873, 23874, 24667], "queries": {"click": {"state": {"target": ["32", "25", "33", "29"], "time": [5561, 8492, 11119, 16217]}, "edge": {"target": [], "time": []}}, "mouseover": {"state": {"target": ["23", "24", "31", "32", "30", "25", "30", "33", "30", "25", "29", "29", "27", "27"], "time": [4499, 4645, 4845, 5179, 6631, 6730, 9929, 10319, 11687, 12854, 13187, 14770, 17185, 17354]}, "edge": {"target": [], "time": []}}, "mouseout": {"state": {"target": ["0", "23", "24", "31", "32", "30", "25", "30", "33", "30", "25", "29", "29", "27"], "time": [4465, 4531, 4781, 4916, 6497, 6683, 9778, 10097, 11622, 12821, 12872, 14086, 16671, 17269]}, "edge": {"target": [], "time": []}}}, "displayed_time": "25.18", "trialTime": 27836, "trial_type": "mouselab-mdp", "trial_index": 9, "time_elapsed": 554258, "internal_node_id": "0.0-4.0-1.0-0.0"}}, {"uniqueid": "w71163117:a44280008", "current_trial": 10, "dateTime": 1691159823393, "trialdata": {"revealed_states": [], "clicked_states": ["21", "22"], "num_clicks_accrued": [0, 0, 0, 0, 0, 0, 0, 0, 0, 0, 0, 0, 0], "stateRewards": ["", -1, 1, 8, -8, -49, 62, -78, 16, 28, -81, 78, -2, -3, -1, -4, 67, 49, -2, -13, -16, -39, 83, 1, -4, 4, -5, -20, 7, 84, 7, -32, -59, 19], "withholdReward": false, "trial_id": "mdp_trial_2", "block": "test", "trialIndex": 3, "score": 59.7, "costs": -4.3, "simulationMode": [null, null, null, null, null], "rewards": [-2, -3, -1, -13, 83], "path": ["0", "0", "12", "13", "14", "19", "22"], "rt": [9446, 153, 211, 754, 272], "actions": ["right", "right", "right", "down", "left"], "actionTimes": [22997, 23671, 24397, 25670, 26456], "queries": {"click": {"state": {"target": ["21", "22"], "time": [15088, 18760]}, "edge": {"target": [], "time": []}}, "mouseover": {"state": {"target": ["21", "22", "19", "20"], "time": [14415, 16029, 19578, 20280]}, "edge": {"target": [], "time": []}}, "mouseout": {"state": {"target": ["27", "2", "1", "0", "21", "22", "19", "20"], "time": [11559, 11713, 11878, 14014, 15663, 19229, 19681, 22311]}, "edge": {"target": [], "time": []}}}, "displayed_time": "27.56", "trialTime": 33582, "trial_type": "mouselab-mdp", "trial_index": 10, "time_elapsed": 588157, "internal_node_id": "0.0-4.0-1.0-1.0"}}, {"uniqueid": "w71163117:a44280008", "current_trial": 11, "dateTime": 1691159852508, "trialdata": {"revealed_states": [], "clicked_states": ["16"], "num_clicks_accrued": [0, 0, 0, 0, 0, 0, 0, 0, 0, 0, 0, 0, 0], "stateRewards": ["", 1, 1, 1, 15, -76, 52, -32, 14, -57, 37, 49, 1, -4, -3, 6, 83, -76, 25, 9, 36, -1, -17, -1, 4, 4, -2, -22, -21, 58, -15, -57, 49, -24], "withholdReward": false, "trial_id": "mdp_trial_3", "block": "test", "trialIndex": 4, "score": 80.85, "costs": -2.15, "simulationMode": [null, null, null, null, null], "rewards": [1, -4, -3, 6, 83], "path": ["0", "0", "12", "13", "14", "15", "16"], "rt": [8054, 166, 152, 501, 396], "actions": ["right", "right", "right", "up", "up"], "actionTimes": [14231, 14920, 15590, 16604, 17519], "queries": {"click": {"state": {"target": ["16"], "time": [7582]}, "edge": {"target": [], "time": []}}, "mouseover": {"state": {"target": ["18", "16", "17", "17"], "time": [6868, 7119, 8518, 12002]}, "edge": {"target": [], "time": []}}, "mouseout": {"state": {"target": ["14", "13", "12", "0", "18", "16", "17"], "time": [2502, 3337, 4035, 6818, 6885, 8434, 11573]}, "edge": {"target": [], "time": []}}}, "displayed_time": "20.19", "trialTime": 28765, "trial_type": "mouselab-mdp", "trial_index": 11, "time_elapsed": 617271, "internal_node_id": "0.0-4.0-1.0-2.0"}}, {"uniqueid": "w71163117:a44280008", "current_trial": 12, "dateTime": 1691159883541, "trialdata": {"revealed_states": [], "clicked_states": ["5", "6", "9", "11", "10"], "num_clicks_accrued": [0, 0, 0, 0, 0, 0, 0, 0, 0, 0, 0, 0, 0], "stateRewards": ["", -2, -3, 1, -14, 48, -49, 67, -1, -35, -48, 3, -2, 1, -4, -5, 86, -84, 39, 1, 48, 41, -42, -1, -4, 2, -7, 18, -86, 17, 7, -9, 57, -69], "withholdReward": false, "trial_id": "mdp_trial_4", "block": "test", "trialIndex": 5, "score": 19.25, "costs": -10.75, "simulationMode": [null, null, null, null, null], "rewards": [-2, -3, 1, -14, 48], "path": ["0", "0", "1", "2", "3", "4", "5"], "rt": [20512, 20, 216, 883, 446], "actions": ["up", "up", "up", "right", "up"], "actionTimes": [22858, 23394, 24138, 25537, 26502], "queries": {"click": {"state": {"target": ["5", "6", "9", "11", "10"], "time": [3370, 6987, 10645, 14004, 18193]}, "edge": {"target": [], "time": []}}, "mouseover": {"state": {"target": ["7", "4", "5", "6", "4", "9", "11", "10", "3", "5", "5", "3", "2", "10", "3", "5"], "time": [2733, 2752, 3032, 4499, 7519, 8214, 12418, 16417, 16501, 16551, 17317, 17366, 17469, 17583, 18815, 18884]}, "edge": {"target": [], "time": []}}, "mouseout": {"state": {"target": ["17", "15", "13", "12", "0", "7", "4", "5", "6", "4", "9", "11", "10", "3", "5", "5", "3", "2", "10", "3", "5", "5", "2"], "time": [710, 743, 1062, 1411, 2681, 2750, 2764, 4282, 7482, 7850, 12284, 14449, 16480, 16514, 16565, 17331, 17398, 17480, 18763, 18849, 28376, 28418, 28520]}, "edge": {"target": [], "time": []}}}, "displayed_time": "27.02", "trialTime": 30679, "trial_type": "mouselab-mdp", "trial_index": 12, "time_elapsed": 648304, "internal_node_id": "0.0-4.0-1.0-3.0"}}, {"uniqueid": "w71163117:a44280008", "current_trial": 13, "dateTime": 1691159901194, "trialdata": {"revealed_states": [], "clicked_states": ["21", "16"], "num_clicks_accrued": [0, 0, 0, 0, 0, 0, 0, 0, 0, 0, 0, 0, 0], "stateRewards": ["", 1, 1, -7, -9, -44, 24, -83, -15, 44, -24, 72, -2, -3, 4, -5, 57, 55, 29, -11, 22, 12, -25, -1, 2, 7, 12, 33, -8, 47, -4, 8, 50, -4], "withholdReward": false, "trial_id": "mdp_trial_5", "block": "test", "trialIndex": 6, "score": 46.7, "costs": -4.3, "simulationMode": [null, null, null, null, null], "rewards": [-2, -3, 4, -5, 57], "path": ["0", "0", "12", "13", "14", "15", "16"], "rt": [7567, 410, 239, 435, 531], "actions": ["right", "right", "right", "up", "up"], "actionTimes": [8585, 9526, 10279, 11233, 12275], "queries": {"click": {"state": {"target": ["21", "16"], "time": [1935, 4786]}, "edge": {"target": [], "time": []}}, "mouseover": {"state": {"target": ["22", "21", "19", "14", "15", "16", "17", "17"], "time": [1480, 1583, 2599, 2635, 2682, 2749, 5614, 6763]}, "edge": {"target": [], "time": []}}, "mouseout": {"state": {"target": ["1", "0", "22", "21", "19", "14", "15", "16", "17", "17"], "time": [366, 1431, 1515, 2566, 2633, 2666, 2717, 5530, 6165, 7766]}, "edge": {"target": [], "time": []}}}, "displayed_time": "15.02", "trialTime": 17344, "trial_type": "mouselab-mdp", "trial_index": 13, "time_elapsed": 665957, "internal_node_id": "0.0-4.0-1.0-4.0"}}, {"uniqueid": "w71163117:a44280008", "current_trial": 14, "dateTime": 1691160027518, "trialdata": {"revealed_states": [], "clicked_states": ["27", "33", "5", "9", "17", "20", "21", "22"], "num_clicks_accrued": [0, 0, 0, 0, 0, 0, 0, 0, 0, 0, 0, 0, 0], "stateRewards": ["", -2, -4, -6, 12, -58, -70, -80, 2, 16, -88, -62, 1, 2, -5, 11, 77, -35, -44, -5, 18, -83, 87, 1, -3, -5, 13, -44, -21, -86, 10, -52, 8, 29], "withholdReward": false, "trial_id": "mdp_trial_6", "block": "test", "trialIndex": 7, "score": 62.8, "costs": -17.2, "simulationMode": [null, null, null, null, null], "rewards": [1, 2, -5, -5, 87], "path": ["0", "0", "12", "13", "14", "19", "22"], "rt": [34044, 73, 121, 454, 370], "actions": ["right", "right", "right", "down", "left"], "actionTimes": [115724, 116308, 116942, 117906, 118789], "queries": {"click": {"state": {"target": ["27", "33", "5", "9", "17", "20", "21", "22"], "time": [83360, 87025, 91304, 95092, 99331, 103553, 107872, 111743]}, "edge": {"target": [], "time": []}}, "mouseover": {"state": {"target": ["26", "27", "29", "33", "30", "28", "10", "3", "5", "9", "17", "20", "21", "22"], "time": [82892, 83075, 84107, 86640, 90607, 90738, 90772, 90805, 91026, 94790, 99009, 102899, 107416, 111352]}, "edge": {"target": [], "time": []}}, "mouseout": {"state": {"target": ["0", "26", "27", "29", "33", "30", "28", "10", "3", "5", "5", "9", "5", "17", "20", "21", "22"], "time": [82175, 82925, 83990, 86523, 87505, 90705, 90755, 90789, 90859, 91806, 94639, 95472, 95888, 99852, 104037, 108349, 112481]}, "edge": {"target": [], "time": []}}}, "displayed_time": "119.30", "trialTime": 125998, "trial_type": "mouselab-mdp", "trial_index": 14, "time_elapsed": 792282, "internal_node_id": "0.0-4.0-1.0-5.0"}}, {"uniqueid": "w71163117:a44280008", "current_trial": 15, "dateTime": 1691160181860, "trialdata": {"revealed_states": [], "clicked_states": ["22", "21", "20", "17"], "num_clicks_accrued": [0, 0, 0, 0, 0, 0, 0, 0, 0, 0, 0, 0, 0], "stateRewards": ["", -1, -3, -5, -14, -13, -47, 79, 8, -60, -64, 41, -1, 2, 3, 13, -46, 61, -79, -11, -64, -65, 23, 1, -2, 6, -14, 46, 32, 21, 7, 75, -66, 15], "withholdReward": false, "trial_id": "mdp_trial_7", "block": "test", "trialIndex": 8, "score": 69.4, "costs": -8.6, "simulationMode": [null, null, null, null, null], "rewards": [-1, 2, 3, 13, 61], "path": ["0", "0", "12", "13", "14", "15", "17"], "rt": [15002, 11, 46, 863, 148], "actions": ["right", "right", "right", "up", "right"], "actionTimes": [148734, 149254, 149823, 151223, 151895], "queries": {"click": {"state": {"target": ["22", "21", "20", "17"], "time": [134803, 137728, 140725, 144558]}, "edge": {"target": [], "time": []}}, "mouseover": {"state": {"target": ["0", "22", "22", "21", "21", "21", "20", "17", "16"], "time": [134164, 134241, 134476, 135216, 135659, 137460, 138210, 144224, 145343]}, "edge": {"target": [], "time": []}}, "mouseout": {"state": {"target": ["13", "12", "1", "10", "0", "0", "22", "22", "21", "21", "21", "20", "17"], "time": [132432, 132446, 132498, 132801, 133493, 134194, 134291, 135174, 135474, 137208, 138157, 141191, 145023]}, "edge": {"target": [], "time": []}}}, "displayed_time": "152.41", "trialTime": 154007, "trial_type": "mouselab-mdp", "trial_index": 15, "time_elapsed": 946624, "internal_node_id": "0.0-4.0-1.0-6.0"}}, {"uniqueid": "w71163117:a44280008", "current_trial": 16, "dateTime": 1691160247074, "trialdata": {"revealed_states": [], "clicked_states": ["32", "33", "27"], "num_clicks_accrued": [0, 0, 0, 0, 0, 0, 0, 0, 0, 0, 0, 0, 0], "stateRewards": ["", -1, 3, 8, 9, -53, 20, -84, 2, -28, -62, -31, -1, -2, -7, 2, 51, 58, 45, -4, -17, -41, 36, 2, -2, -7, -15, 29, -54, -37, -16, -43, 65, -17], "withholdReward": false, "trial_id": "mdp_trial_8", "block": "test", "trialIndex": 9, "score": 35.55, "costs": -6.449999999999999, "simulationMode": [null, null, null, null, null], "rewards": [2, -2, -7, -16, 65], "path": ["0", "0", "23", "24", "25", "30", "32"], "rt": [12772, 85, 49, 396, 3], "actions": ["left", "left", "left", "down", "down"], "actionTimes": [55814, 56415, 57010, 57925, 58449], "queries": {"click": {"state": {"target": ["32", "33", "27"], "time": [44576, 48314, 51835]}, "edge": {"target": [], "time": []}}, "mouseover": {"state": {"target": ["0", "25", "30", "32", "33", "25", "26", "27", "26"], "time": [43461, 43861, 44095, 44328, 45113, 48777, 49347, 49446, 52662]}, "edge": {"target": [], "time": []}}, "mouseout": {"state": {"target": ["16", "18", "1", "0", "25", "30", "32", "33", "25", "26", "27"], "time": [769, 42271, 42444, 43497, 44046, 44177, 45062, 48712, 48797, 49394, 52344]}, "edge": {"target": [], "time": []}}}, "displayed_time": "58.98", "trialTime": 64860, "trial_type": "mouselab-mdp", "trial_index": 16, "time_elapsed": 1011837, "internal_node_id": "0.0-4.0-1.0-7.0"}}, {"uniqueid": "w71163117:a44280008", "current_trial": 17, "dateTime": 1691160283776, "trialdata": {"revealed_states": [], "clicked_states": ["21", "16", "20", "17", "33", "32"], "num_clicks_accrued": [0, 0, 0, 0, 0, 0, 0, 0, 0, 0, 0, 0, 0], "stateRewards": ["", -2, 2, 3, -7, 76, 63, 21, 15, 35, -8, -44, 1, 1, -2, -12, 23, 24, 76, -9, 46, 66, -49, -2, -1, 7, 12, 40, -71, -45, -6, 38, -49, 46], "withholdReward": false, "trial_id": "mdp_trial_9", "block": "test", "trialIndex": 10, "score": 44.1, "costs": -12.9, "simulationMode": [null, null, null, null, null], "rewards": [1, 1, -2, -9, 66], "path": ["0", "0", "12", "13", "14", "19", "21"], "rt": [26580, 166, 173, 468, 143], "actions": ["right", "right", "right", "down", "down"], "actionTimes": [31376, 32065, 32753, 33732, 34390], "queries": {"click": {"state": {"target": ["21", "16", "20", "17", "33", "32"], "time": [6296, 9628, 14468, 19085, 22165, 27080]}, "edge": {"target": [], "time": []}}, "mouseover": {"state": {"target": ["12", "13", "14", "19", "21", "19", "14", "15", "16", "15", "14", "20", "19", "22", "14", "17", "15", "0", "31", "30", "33", "32", "30", "32"], "time": [5255, 5303, 5642, 5773, 5858, 6860, 8638, 8670, 8872, 10071, 12875, 13938, 15105, 15540, 18489, 18788, 20196, 20995, 21495, 21762, 21928, 25514, 26511, 26860]}, "edge": {"target": [], "time": []}}, "mouseout": {"state": {"target": ["26", "0", "0", "12", "13", "14", "19", "21", "19", "14", "15", "16", "15", "14", "20", "19", "22", "14", "17", "15", "0", "31", "30", "33", "32", "30", "32"], "time": [3221, 3689, 4405, 5287, 5607, 5723, 5821, 6770, 8622, 8654, 8707, 10054, 10124, 13839, 15073, 15155, 18454, 18503, 20181, 20212, 21043, 21527, 21861, 23131, 26466, 26811, 28480]}, "edge": {"target": [], "time": []}}}, "displayed_time": "34.92", "trialTime": 36250, "trial_type": "mouselab-mdp", "trial_index": 17, "time_elapsed": 1048539, "internal_node_id": "0.0-4.0-1.0-8.0"}}, {"uniqueid": "w71163117:a44280008", "current_trial": 18, "dateTime": 1691160311641, "trialdata": {"revealed_states": [], "clicked_states": ["5", "9", "11", "6", "20"], "num_clicks_accrued": [0, 0, 0, 0, 0, 0, 0, 0, 0, 0, 0, 0, 0], "stateRewards": ["", 2, 4, 4, -8, -36, -33, 38, 16, -51, 57, 57, 1, 3, 4, -6, 45, 68, 87, 1, 63, 24, -55, -2, 2, -6, -13, -63, -50, 8, 2, 80, 6, 60], "withholdReward": false, "trial_id": "mdp_trial_10", "block": "test", "trialIndex": 11, "score": 61.25, "costs": -10.75, "simulationMode": [null, null, null, null, null], "rewards": [1, 3, 4, 1, 63], "path": ["0", "0", "12", "13", "14", "19", "20"], "rt": [19386, 332, 219, 426, 232], "actions": ["right", "right", "right", "down", "right"], "actionTimes": [22481, 23322, 24059, 25002, 25751], "queries": {"click": {"state": {"target": ["5", "9", "11", "6", "20"], "time": [4576, 8102, 11263, 14786, 18149]}, "edge": {"target": [], "time": []}}, "mouseover": {"state": {"target": ["1", "2", "5", "9", "11", "8", "3", "4", "6", "18", "13", "20", "21"], "time": [4070, 4102, 4219, 5302, 10249, 11749, 11818, 12672, 13003, 15705, 15740, 17355, 20322]}, "edge": {"target": [], "time": []}}, "mouseout": {"state": {"target": ["0", "1", "2", "5", "9", "11", "8", "3", "4", "6", "18", "13", "20", "21"], "time": [3772, 4088, 4137, 5152, 8617, 11735, 11782, 12649, 12690, 15399, 15721, 15790, 20070, 21704]}, "edge": {"target": [], "time": []}}}, "displayed_time": "26.26", "trialTime": 27473, "trial_type": "mouselab-mdp", "trial_index": 18, "time_elapsed": 1076404, "internal_node_id": "0.0-4.0-1.0-9.0"}}, {"uniqueid": "w71163117:a44280008", "current_trial": 19, "dateTime": 1691160338083, "trialdata": {"revealed_states": [], "clicked_states": ["32", "11", "22", "16", "17"], "num_clicks_accrued": [0, 0, 0, 0, 0, 0, 0, 0, 0, 0, 0, 0, 0], "stateRewards": ["", -1, -2, 8, -6, -79, -6, 87, 9, -5, -66, -38, 2, 2, 5, -6, -82, 74, 85, -8, 67, -30, -15, 1, -2, -2, -2, 87, 64, 49, 7, 2, -38, -9], "withholdReward": false, "trial_id": "mdp_trial_11", "block": "test", "trialIndex": 12, "score": 66.25, "costs": -10.75, "simulationMode": [null, null, null, null, null], "rewards": [2, 2, 5, -6, 74], "path": ["0", "0", "12", "13", "14", "15", "17"], "rt": [19808, 16, 64, 1077, 200], "actions": ["right", "right", "right", "up", "right"], "actionTimes": [20712, 21241, 21842, 23436, 24160], "queries": {"click": {"state": {"target": ["32", "11", "22", "16", "17"], "time": [1947, 5765, 9585, 13602, 16905]}, "edge": {"target": [], "time": []}}, "mouseover": {"state": {"target": ["31", "32", "27", "11", "11", "2", "1", "0", "22", "19", "20", "19", "22", "15", "16", "17", "17", "15", "18"], "time": [1345, 1491, 3442, 5258, 5461, 6291, 6509, 6541, 7058, 7111, 7411, 8226, 9259, 12944, 13026, 15126, 15459, 17680, 18390]}, "edge": {"target": [], "time": []}}, "mouseout": {"state": {"target": ["21", "0", "31", "32", "27", "11", "11", "2", "1", "0", "22", "19", "20", "19", "22", "22", "15", "16", "17", "17", "15"], "time": [208, 1298, 1377, 2375, 5212, 5340, 6207, 6494, 6525, 6558, 7093, 7210, 7592, 9126, 10080, 12894, 12976, 14860, 15177, 17306, 17696]}, "edge": {"target": [], "time": []}}}, "displayed_time": "24.68", "trialTime": 25983, "trial_type": "mouselab-mdp", "trial_index": 19, "time_elapsed": 1102846, "internal_node_id": "0.0-4.0-1.0-10.0"}}, {"uniqueid": "w71163117:a44280008", "current_trial": 20, "dateTime": 1691160382222, "trialdata": {"revealed_states": [], "clicked_states": ["18", "16", "17", "20", "21", "22", "31", "32", "33", "29", "27"], "num_clicks_accrued": [0, 0, 0, 0, 0, 0, 0, 0, 0, 0, 0, 0, 0], "stateRewards": ["", -1, 3, 1, -11, -22, -36, 19, -5, -70, -52, 50, -2, -4, 4, -2, -41, -83, 29, -2, 22, 10, -6, -2, 3, -2, 14, 54, 44, 77, -9, -65, -37, -40], "withholdReward": false, "trial_id": "mdp_trial_12", "block": "test", "trialIndex": 13, "score": 66.35000000000001, "costs": -23.649999999999995, "simulationMode": [null, null, null, null, null], "rewards": [-2, 3, -2, 14, 77], "path": ["0", "0", "23", "24", "25", "26", "29"], "rt": [36684, 79, 191, 690, 124], "actions": ["left", "left", "left", "up", "left"], "actionTimes": [38424, 39021, 39735, 40933, 41548], "queries": {"click": {"state": {"target": ["18", "16", "17", "20", "21", "22", "31", "32", "33", "29", "27"], "time": [3423, 6306, 9362, 12550, 15565, 18682, 22640, 26040, 29121, 32459, 35390]}, "edge": {"target": [], "time": []}}, "mouseover": {"state": {"target": ["12", "13", "14", "15", "16", "18", "16", "17", "20", "21", "22", "31", "32", "32", "33", "29", "27", "28"], "time": [2299, 2647, 2765, 2835, 3065, 3184, 3867, 7315, 10198, 13081, 16498, 22476, 24924, 25509, 26890, 29824, 33041, 36161]}, "edge": {"target": [], "time": []}}, "mouseout": {"state": {"target": ["18", "0", "12", "13", "14", "15", "16", "18", "16", "17", "20", "21", "22", "31", "32", "32", "33", "29", "27"], "time": [1032, 2266, 2351, 2717, 2802, 2847, 3101, 3781, 6924, 9799, 12914, 16132, 19381, 23423, 25342, 26557, 29724, 32956, 36046]}, "edge": {"target": [], "time": []}}}, "displayed_time": "42.06", "trialTime": 43796, "trial_type": "mouselab-mdp", "trial_index": 20, "time_elapsed": 1146985, "internal_node_id": "0.0-4.0-1.0-11.0"}}, {"uniqueid": "w71163117:a44280008", "current_trial": 21, "dateTime": 1691160428530, "trialdata": {"revealed_states": [], "clicked_states": ["16", "9", "5", "6", "27", "29", "33", "32", "31", "28"], "num_clicks_accrued": [0, 0, 0, 0, 0, 0, 0, 0, 0, 0, 0, 0, 0], "stateRewards": ["", 1, 4, -8, -13, -13, -87, -77, -10, -44, 54, 42, 2, -3, -4, 12, -9, -80, 52, 9, 84, -2, -65, 1, -4, -5, -6, 8, 80, 32, 13, -59, -5, -13], "withholdReward": false, "trial_id": "mdp_trial_13", "block": "test", "trialIndex": 14, "score": 44.5, "costs": -21.499999999999996, "simulationMode": [null, null, null, null, null], "rewards": [1, -4, -5, -6, 80], "path": ["0", "0", "23", "24", "25", "26", "28"], "rt": [37707, 1050, 250, 613, 345], "actions": ["left", "left", "left", "up", "right"], "actionTimes": [39647, 41212, 41980, 43110, 43978], "queries": {"click": {"state": {"target": ["16", "9", "5", "6", "27", "29", "33", "32", "31", "28"], "time": [2779, 5913, 9281, 13750, 18583, 21962, 25797, 29035, 32274, 35619]}, "edge": {"target": [], "time": []}}, "mouseover": {"state": {"target": ["18", "16", "4", "3", "9", "5", "7", "6", "7", "1", "23", "24", "26", "27", "29", "33", "32", "31", "24", "28", "23", "0", "21", "22"], "time": [2431, 2498, 3317, 3566, 3926, 6850, 13063, 13616, 15115, 17130, 17763, 17792, 18137, 18385, 19769, 22418, 26912, 29517, 32904, 33284, 36101, 36335, 37711, 39061]}, "edge": {"target": [], "time": []}}, "mouseout": {"state": {"target": ["28", "18", "16", "4", "3", "9", "5", "7", "6", "7", "1", "23", "24", "26", "27", "27", "29", "33", "32", "31", "24", "28", "23", "0", "21"], "time": [1231, 2445, 3233, 3348, 3597, 6465, 9750, 13480, 15080, 15131, 17739, 17781, 18052, 18235, 18591, 19669, 22335, 26271, 29436, 32791, 32984, 36018, 36117, 36401, 38996]}, "edge": {"target": [], "time": []}}}, "displayed_time": "44.49", "trialTime": 45911, "trial_type": "mouselab-mdp", "trial_index": 21, "time_elapsed": 1193293, "internal_node_id": "0.0-4.0-1.0-12.0"}}, {"uniqueid": "w71163117:a44280008", "current_trial": 22, "dateTime": 1691160475240, "trialdata": {"revealed_states": [], "clicked_states": ["1", "12", "23", "24", "27", "29", "33", "32", "31", "22", "21", "20", "17"], "num_clicks_accrued": [0, 0, 0, 0, 0, 0, 0, 0, 0, 0, 0, 0, 0], "stateRewards": ["", 2, -2, 7, -11, -76, -65, -23, 16, -58, 30, 81, 1, 2, 7, 14, 9, 55, -2, 6, 11, -15, 31, -1, -1, -3, 2, 15, 2, 46, 15, 18, 45, -34], "withholdReward": false, "trial_id": "mdp_trial_14", "block": "test", "trialIndex": 15, "score": 60.05, "costs": -18.95, "simulationMode": [null, null, null, null, null], "rewards": [1, 2, 7, 14, 55], "path": ["0", "0", "12", "13", "14", "15", "17"], "rt": [40041, 250, 197, 394, 173], "actions": ["right", "right", "right", "up", "right"], "actionTimes": [41549, 42318, 43032, 43946, 44643], "queries": {"click": {"state": {"target": ["1", "12", "23", "24", "27", "29", "33", "32", "31", "22", "21", "20", "17"], "time": [3159, 4859, 7000, 9113, 11207, 14074, 17878, 20703, 23973, 28066, 31448, 34687, 37701]}, "edge": {"target": [], "time": []}}, "mouseover": {"state": {"target": ["1", "12", "23", "24", "25", "26", "27", "29", "33", "33", "32", "31", "24", "0", "12", "13", "22", "21", "20", "20", "17", "16"], "time": [2687, 4389, 5806, 8806, 10655, 10758, 10891, 12587, 15156, 17739, 18737, 22083, 24651, 26949, 27250, 27517, 27700, 28752, 31917, 32215, 35699, 38333]}, "edge": {"target": [], "time": []}}, "mouseout": {"state": {"target": ["22", "0", "1", "12", "23", "23", "24", "25", "26", "27", "29", "33", "33", "32", "31", "24", "0", "12", "13", "22", "21", "20", "20", "17"], "time": [638, 1255, 4175, 5155, 7387, 8655, 9855, 10705, 10854, 12521, 14689, 17524, 18403, 21432, 24617, 24685, 26987, 27483, 27632, 28649, 31850, 31999, 35252, 38266]}, "edge": {"target": [], "time": []}}}, "displayed_time": "45.15", "trialTime": 46316, "trial_type": "mouselab-mdp", "trial_index": 22, "time_elapsed": 1240003, "internal_node_id": "0.0-4.0-1.0-13.0"}}, {"uniqueid": "w71163117:a44280008", "current_trial": 23, "dateTime": 1691160493862, "trialdata": {"revealed_states": [], "clicked_states": ["1", "23", "12", "16", "17"], "num_clicks_accrued": [0, 0, 0, 0, 0, 0, 0, 0, 0, 0, 0, 0, 0], "stateRewards": ["", -2, 4, -5, -12, 85, -24, -18, -15, -78, -22, 26, -1, -1, 2, 14, -45, 52, -23, 7, -33, 24, -6, -2, -4, 5, -7, -16, 36, -39, 5, 71, -87, -23], "withholdReward": false, "trial_id": "mdp_trial_15", "block": "test", "trialIndex": 16, "score": 62.45, "costs": -3.55, "simulationMode": [null, null, null, null, null], "rewards": [-1, -1, 2, 14, 52], "path": ["0", "0", "12", "13", "14", "15", "17"], "rt": [11504, 311, 153, 761, 468], "actions": ["right", "right", "right", "up", "right"], "actionTimes": [12847, 13683, 14358, 15651, 16638], "queries": {"click": {"state": {"target": ["1", "23", "12", "16", "17"], "time": [1994, 3315, 4370, 5790, 8889]}, "edge": {"target": [], "time": []}}, "mouseover": {"state": {"target": ["1", "23", "0", "12", "15", "16", "17", "20"], "time": [1785, 3018, 3799, 3983, 5255, 5508, 6557, 10605]}, "edge": {"target": [], "time": []}}, "mouseout": {"state": {"target": ["16", "0", "0", "1", "1", "23", "0", "12", "15", "16", "17"], "time": [602, 700, 1468, 2057, 2701, 3783, 3850, 5186, 5304, 6149, 10020]}, "edge": {"target": [], "time": []}}}, "displayed_time": "17.15", "trialTime": 18255, "trial_type": "mouselab-mdp", "trial_index": 23, "time_elapsed": 1258625, "internal_node_id": "0.0-4.0-1.0-14.0"}}, {"uniqueid": "w71163117:a44280008", "current_trial": 24, "dateTime": 1691160513230, "trialdata": {"revealed_states": [], "clicked_states": ["12", "1", "23", "21"], "num_clicks_accrued": [0, 0, 0, 0, 0, 0, 0, 0, 0, 0, 0, 0, 0], "stateRewards": ["", -1, -3, 1, -4, -48, -63, -49, -2, -84, -19, 65, 2, -2, -2, -12, -4, 59, 9, 6, 75, 69, -13, -1, -3, -3, -2, -37, -68, -36, 13, 32, 18, -14], "withholdReward": false, "trial_id": "mdp_trial_16", "block": "test", "trialIndex": 17, "score": 71.6, "costs": -1.4, "simulationMode": [null, null, null, null, null], "rewards": [2, -2, -2, 6, 69], "path": ["0", "0", "12", "13", "14", "19", "21"], "rt": [9634, 145, 470, 300, 355], "actions": ["right", "right", "right", "down", "down"], "actionTimes": [11217, 11878, 12871, 13687, 14559], "queries": {"click": {"state": {"target": ["12", "1", "23", "21"], "time": [3207, 4279, 5278, 6641]}, "edge": {"target": [], "time": []}}, "mouseover": {"state": {"target": ["12", "22", "21", "22", "12", "1", "23", "21", "21", "19", "22"], "time": [2105, 2370, 2486, 2639, 2922, 3700, 4871, 6202, 6452, 7368, 7700]}, "edge": {"target": [], "time": []}}, "mouseout": {"state": {"target": ["20", "19", "22", "12", "0", "12", "22", "21", "22", "12", "1", "23", "21", "21", "19", "22"], "time": [720, 769, 802, 1068, 1301, 2137, 2438, 2603, 2651, 3617, 4786, 5853, 6267, 6703, 7602, 10469]}, "edge": {"target": [], "time": []}}}, "displayed_time": "15.59", "trialTime": 18973, "trial_type": "mouselab-mdp", "trial_index": 24, "time_elapsed": 1277994, "internal_node_id": "0.0-4.0-1.0-15.0"}}, {"uniqueid": "w71163117:a44280008", "current_trial": 25, "dateTime": 1691160537680, "trialdata": {"revealed_states": [], "clicked_states": ["23", "1", "12", "3", "25", "27", "29", "32"], "num_clicks_accrued": [0, 0, 0, 0, 0, 0, 0, 0, 0, 0, 0, 0, 0], "stateRewards": ["", 2, -4, -4, 13, -80, 62, 13, -11, 57, -13, -44, 1, 4, 3, -4, -29, -88, 15, 16, -58, 68, -45, -1, -3, -1, -9, -44, -86, -19, -7, -36, 59, 66], "withholdReward": false, "trial_id": "mdp_trial_17", "block": "test", "trialIndex": 18, "score": 39.4, "costs": -7.6, "simulationMode": [null, null, null, null, null], "rewards": [-1, -3, -1, -7, 59], "path": ["0", "0", "23", "24", "25", "30", "32"], "rt": [18182, 351, 200, 149, 37], "actions": ["left", "left", "left", "down", "down"], "actionTimes": [19631, 20479, 21194, 21862, 22416], "queries": {"click": {"state": {"target": ["23", "1", "12", "3", "25", "27", "29", "32"], "time": [2083, 2956, 3976, 5587, 7845, 9184, 12267, 15716]}, "edge": {"target": [], "time": []}}, "mouseover": {"state": {"target": ["23", "1", "1", "12", "2", "3", "24", "25", "26", "27", "29", "30", "30", "32", "31"], "time": [1909, 2441, 2742, 3391, 4559, 5294, 6535, 7493, 8657, 8791, 10247, 13475, 13707, 14542, 18042]}, "edge": {"target": [], "time": []}}, "mouseout": {"state": {"target": ["22", "0", "23", "1", "1", "1", "12", "2", "3", "24", "25", "26", "27", "29", "30", "30", "32"], "time": [725, 1725, 2391, 2474, 2966, 3312, 4443, 5211, 6292, 6775, 8591, 8709, 10127, 12830, 13576, 13775, 16144]}, "edge": {"target": [], "time": []}}}, "displayed_time": "22.94", "trialTime": 24043, "trial_type": "mouselab-mdp", "trial_index": 25, "time_elapsed": 1302444, "internal_node_id": "0.0-4.0-1.0-16.0"}}, {"uniqueid": "w71163117:a44280008", "current_trial": 26, "dateTime": 1691160567512, "trialdata": {"revealed_states": [], "clicked_states": ["23", "1", "12", "20", "22", "21", "16", "18", "17"], "num_clicks_accrued": [0, 0, 0, 0, 0, 0, 0, 0, 0, 0, 0, 0, 0], "stateRewards": ["", -2, -1, -5, 10, -36, -70, 68, -9, 86, 71, -10, 2, -4, 7, -7, 66, 44, -66, -13, -69, 43, 15, -2, 2, 6, -13, 62, 57, 50, -10, -69, 42, -72], "withholdReward": false, "trial_id": "mdp_trial_18", "block": "test", "trialIndex": 19, "score": 51.85, "costs": -12.15, "simulationMode": [null, null, null, null, null], "rewards": [2, -4, 7, -7, 66], "path": ["0", "0", "12", "13", "14", "15", "16"], "rt": [23404, 272, 148, 317, 44], "actions": ["right", "right", "right", "up", "up"], "actionTimes": [24675, 25470, 26131, 26962, 27524], "queries": {"click": {"state": {"target": ["23", "1", "12", "20", "22", "21", "16", "18", "17"], "time": [1857, 2887, 4110, 6060, 9114, 12210, 15287, 18358, 21493]}, "edge": {"target": [], "time": []}}, "mouseover": {"state": {"target": ["23", "1", "12", "19", "20", "19", "22", "21", "19", "14", "15", "16", "18", "15", "17"], "time": [1673, 2237, 3575, 5322, 5473, 6614, 7531, 9831, 12631, 12679, 12963, 13245, 15682, 18913, 19681]}, "edge": {"target": [], "time": []}}, "mouseout": {"state": {"target": ["31", "0", "23", "1", "12", "19", "20", "19", "22", "21", "19", "14", "15", "16", "18", "15", "17"], "time": [539, 1490, 2155, 3339, 4521, 5339, 6482, 7396, 9464, 12597, 12663, 12729, 13081, 15631, 18882, 18981, 21965]}, "edge": {"target": [], "time": []}}}, "displayed_time": "28.05", "trialTime": 29405, "trial_type": "mouselab-mdp", "trial_index": 26, "time_elapsed": 1332275, "internal_node_id": "0.0-4.0-1.0-17.0"}}, {"uniqueid": "w71163117:a44280008", "current_trial": 27, "dateTime": 1691160584845, "trialdata": {"revealed_states": [], "clicked_states": ["23", "1", "12", "9"], "num_clicks_accrued": [0, 0, 0, 0, 0, 0, 0, 0, 0, 0, 0, 0, 0], "stateRewards": ["", 2, -1, -1, 7, 11, -40, -22, -2, 69, 37, 8, -2, 4, -8, -12, -2, -72, -3, -12, 17, 63, 12, 1, 3, -7, 6, 25, 61, 61, -9, 28, -17, 27], "withholdReward": false, "trial_id": "mdp_trial_19", "block": "test", "trialIndex": 20, "score": 65.6, "costs": -1.4, "simulationMode": [null, null, null, null, null], "rewards": [2, -1, -1, -2, 69], "path": ["0", "0", "1", "2", "3", "8", "9"], "rt": [8817, 319, 51, 398, 160], "actions": ["up", "up", "up", "left", "up"], "actionTimes": [10265, 11100, 11665, 12596, 13275], "queries": {"click": {"state": {"target": ["23", "1", "12", "9"], "time": [2073, 2798, 3903, 5723]}, "edge": {"target": [], "time": []}}, "mouseover": {"state": {"target": ["23", "1", "12", "2", "8", "9", "8", "10"], "time": [1779, 2413, 3378, 5179, 5299, 5481, 6145, 7329]}, "edge": {"target": [], "time": []}}, "mouseout": {"state": {"target": ["0", "23", "1", "12", "1", "2", "8", "9", "8"], "time": [1649, 2311, 3146, 4314, 4863, 5214, 5347, 6130, 6200]}, "edge": {"target": [], "time": []}}}, "displayed_time": "15.46", "trialTime": 16909, "trial_type": "mouselab-mdp", "trial_index": 27, "time_elapsed": 1349609, "internal_node_id": "0.0-4.0-1.0-18.0"}}, {"uniqueid": "w71163117:a44280008", "current_trial": 28, "dateTime": 1691160601368, "trialdata": {"revealed_states": [], "clicked_states": ["23", "1", "12", "6"], "num_clicks_accrued": [0, 0, 0, 0, 0, 0, 0, 0, 0, 0, 0, 0, 0], "stateRewards": ["", 1, 2, -3, 6, -88, 74, -45, 7, -46, 40, -77, 1, -4, 4, 3, 22, -25, -59, 8, -83, 19, -60, -1, -1, -1, -8, 26, -29, 64, -7, -88, -51, -55], "withholdReward": false, "trial_id": "mdp_trial_20", "block": "test", "trialIndex": 21, "score": 78.6, "costs": -1.4, "simulationMode": [null, null, null, null, null], "rewards": [1, 2, -3, 6, 74], "path": ["0", "0", "1", "2", "3", "4", "6"], "rt": [9437, 327, 33, 131, 27], "actions": ["up", "up", "up", "right", "right"], "actionTimes": [10683, 11520, 12075, 12721, 13269], "queries": {"click": {"state": {"target": ["23", "1", "12", "6"], "time": [1672, 2716, 3912, 6512]}, "edge": {"target": [], "time": []}}, "mouseover": {"state": {"target": ["23", "1", "12", "7", "6", "5"], "time": [1470, 2053, 3600, 5854, 6240, 8436]}, "edge": {"target": [], "time": []}}, "mouseout": {"state": {"target": ["10", "23", "1", "12", "1", "7", "6"], "time": [587, 1970, 3190, 4252, 5823, 5870, 8320]}, "edge": {"target": [], "time": []}}}, "displayed_time": "15.26", "trialTime": 16132, "trial_type": "mouselab-mdp", "trial_index": 28, "time_elapsed": 1366132, "internal_node_id": "0.0-4.0-1.0-19.0"}}, {"uniqueid": "w71163117:a44280008", "current_trial": 29, "dateTime": 1691160637738, "trialdata": {"revealed_states": [], "clicked_states": ["1", "23", "12", "9", "11", "10", "7", "6", "5", "27"], "num_clicks_accrued": [0, 0, 0, 0, 0, 0, 0, 0, 0, 0, 0, 0, 0], "stateRewards": ["", 1, 2, -8, 9, 18, -83, -11, 6, -64, -48, 17, -2, -2, -5, -3, -24, -3, -86, -2, 48, -41, -22, -2, 4, 7, 8, 81, 13, -48, 10, 61, 19, 57], "withholdReward": false, "trial_id": "mdp_trial_21", "block": "test", "trialIndex": 22, "score": 83.7, "costs": -14.3, "simulationMode": [null, null, null, null, null], "rewards": [-2, 4, 7, 8, 81], "path": ["0", "0", "23", "24", "25", "26", "27"], "rt": [30138, 320, 198, 373, 24], "actions": ["left", "left", "left", "up", "up"], "actionTimes": [31506, 32340, 33056, 33944, 34464], "queries": {"click": {"state": {"target": ["1", "23", "12", "9", "11", "10", "7", "6", "5", "27"], "time": [3112, 3975, 4876, 6584, 9848, 13119, 16864, 20057, 23222, 27422]}, "edge": {"target": [], "time": []}}, "mouseover": {"state": {"target": ["1", "1", "23", "0", "12", "8", "9", "11", "10", "2", "7", "6", "6", "5", "8", "27", "29"], "time": [2262, 2677, 3719, 4361, 4509, 6040, 6292, 7345, 10275, 14837, 15538, 17386, 18272, 21687, 26922, 27179, 30205]}, "edge": {"target": [], "time": []}}, "mouseout": {"state": {"target": ["5", "2", "1", "0", "0", "1", "1", "23", "23", "0", "12", "1", "8", "9", "11", "10", "2", "7", "6", "6", "5", "5", "8", "27", "27"], "time": [625, 693, 725, 792, 2191, 2326, 3458, 4036, 4310, 4409, 5092, 5909, 6243, 7159, 10224, 13575, 15486, 17337, 17604, 20455, 23230, 26636, 26957, 27970, 30040]}, "edge": {"target": [], "time": []}}}, "displayed_time": "34.99", "trialTime": 35971, "trial_type": "mouselab-mdp", "trial_index": 29, "time_elapsed": 1402501, "internal_node_id": "0.0-4.0-1.0-20.0"}}, {"uniqueid": "w71163117:a44280008", "current_trial": 30, "dateTime": 1691160705460, "trialdata": {"revealed_states": [], "clicked_states": ["23", "1", "12", "11", "33", "21", "16", "17", "5", "7", "27", "29", "28", "31", "32", "22", "20", "18"], "num_clicks_accrued": [0, 0, 0, 0, 0, 0, 0, 0, 0, 0, 0, 0, 0], "stateRewards": ["", 2, -3, 5, 11, -79, 54, 11, -9, -78, 33, 22, -2, -1, 2, 14, 43, 34, 1, 10, 49, -65, 39, -1, 1, -1, 3, -16, -2, 11, 2, 12, 48, -65], "withholdReward": false, "trial_id": "mdp_trial_22", "block": "test", "trialIndex": 23, "score": 26.500000000000014, "costs": -31.49999999999999, "simulationMode": [null, null, null, null, null], "rewards": [-2, -1, 2, 10, 49], "path": ["0", "0", "12", "13", "14", "19", "20"], "rt": [60623, 320, 174, 340, 459], "actions": ["right", "right", "right", "down", "right"], "actionTimes": [61875, 62705, 63393, 64241, 65209], "queries": {"click": {"state": {"target": ["23", "1", "12", "11", "33", "21", "16", "17", "5", "7", "27", "29", "28", "31", "32", "22", "20", "18"], "time": [1689, 2317, 3112, 4620, 8312, 12819, 16633, 20115, 23371, 28042, 32061, 35364, 38529, 41731, 44978, 50481, 54098, 58111]}, "edge": {"target": [], "time": []}}, "mouseover": {"state": {"target": ["23", "1", "12", "10", "11", "26", "33", "30", "21", "13", "15", "16", "17", "14", "18", "5", "4", "3", "3", "4", "10", "7", "2", "27", "29", "26", "28", "31", "32", "22", "19", "20", "14", "17", "15", "18", "16"], "time": [1472, 2020, 2687, 3903, 4236, 7870, 8073, 8706, 12639, 16072, 16104, 16424, 19255, 21456, 21790, 22274, 26823, 26854, 27038, 27106, 27541, 27873, 31364, 31765, 34701, 35749, 36032, 39699, 42581, 50199, 53285, 53751, 54884, 55250, 56650, 57250, 59899]}, "edge": {"target": [], "time": []}}, "mouseout": {"state": {"target": ["29", "30", "31", "0", "0", "23", "1", "12", "1", "10", "11", "26", "33", "33", "30", "21", "13", "15", "16", "17", "14", "18", "5", "5", "4", "3", "3", "4", "10", "7", "7", "2", "27", "27", "29", "26", "28", "31", "32", "32", "22", "22", "19", "20", "14", "17", "15", "18", "16"], "time": [269, 401, 618, 685, 1352, 1938, 2620, 3452, 3654, 4085, 5034, 7885, 8395, 8671, 8740, 13054, 16088, 16121, 16976, 20371, 21505, 21806, 23446, 23759, 26837, 26871, 27092, 27241, 27555, 28550, 31348, 31381, 32139, 32765, 35734, 35800, 38901, 42097, 45348, 45616, 51017, 53002, 53351, 54816, 55201, 55266, 56716, 59569, 59917]}, "edge": {"target": [], "time": []}}}, "displayed_time": "65.72", "trialTime": 67308, "trial_type": "mouselab-mdp", "trial_index": 30, "time_elapsed": 1470223, "internal_node_id": "0.0-4.0-1.0-21.0"}}, {"uniqueid": "w71163117:a44280008", "current_trial": 31, "dateTime": 1691160742435, "trialdata": {"revealed_states": [], "clicked_states": ["23", "1", "12", "17", "18", "16", "22", "21", "20", "5"], "num_clicks_accrued": [0, 0, 0, 0, 0, 0, 0, 0, 0, 0, 0, 0, 0], "stateRewards": ["", 1, 3, -2, 15, 51, 15, -19, 11, 67, -45, -73, 2, 4, -2, -13, 36, 9, -28, 10, -30, 31, 16, 1, 2, -1, -16, 14, -22, 36, -1, 88, -5, 45], "withholdReward": false, "trial_id": "mdp_trial_23", "block": "test", "trialIndex": 24, "score": 53.7, "costs": -14.3, "simulationMode": [null, null, null, null, null], "rewards": [1, 3, -2, 15, 51], "path": ["0", "0", "1", "2", "3", "4", "5"], "rt": [30522, 221, 112, 29, 224], "actions": ["up", "up", "up", "right", "up"], "actionTimes": [32161, 32897, 33531, 34081, 34827], "queries": {"click": {"state": {"target": ["23", "1", "12", "17", "18", "16", "22", "21", "20", "5"], "time": [2202, 2903, 3726, 5193, 8769, 12927, 16371, 19744, 23043, 27808]}, "edge": {"target": [], "time": []}}, "mouseover": {"state": {"target": ["0", "23", "1", "12", "12", "14", "17", "17", "16", "15", "18", "13", "13", "20", "16", "15", "22", "15", "15", "19", "21", "21", "20", "19", "12", "4", "5"], "time": [1811, 1961, 2591, 3294, 3543, 4725, 4810, 5060, 6593, 8427, 8577, 10311, 10655, 12328, 12726, 13292, 13945, 17094, 17676, 17760, 17826, 17928, 21187, 26536, 26935, 27269, 27534]}, "edge": {"target": [], "time": []}}, "mouseout": {"state": {"target": ["18", "12", "0", "0", "23", "1", "12", "12", "14", "17", "17", "16", "15", "18", "18", "13", "13", "20", "16", "15", "22", "15", "16", "15", "19", "21", "21", "20", "19", "12", "4", "5", "5"], "time": [959, 1005, 1227, 1875, 2440, 3228, 3327, 4012, 4759, 4825, 6475, 6842, 8460, 8922, 9911, 10376, 11894, 12542, 13275, 13341, 16976, 17127, 17342, 17710, 17794, 17876, 21042, 25971, 26867, 26966, 27318, 29567, 30583]}, "edge": {"target": [], "time": []}}}, "displayed_time": "35.34", "trialTime": 36525, "trial_type": "mouselab-mdp", "trial_index": 31, "time_elapsed": 1507199, "internal_node_id": "0.0-4.0-1.0-22.0"}}, {"uniqueid": "w71163117:a44280008", "current_trial": 32, "dateTime": 1691160774386, "trialdata": {"revealed_states": [], "clicked_states": ["23", "1", "12", "15", "19", "26", "30", "3", "9", "11", "10"], "num_clicks_accrued": [0, 0, 0, 0, 0, 0, 0, 0, 0, 0, 0, 0, 0], "stateRewards": ["", -2, 2, 8, -6, -25, 3, 87, 2, -62, -2, 74, -2, -1, 2, -1, 79, 49, -37, -14, 5, 67, -9, -1, 2, -2, 5, 15, 38, 32, -14, -38, -38, 30], "withholdReward": false, "trial_id": "mdp_trial_24", "block": "test", "trialIndex": 25, "score": 71.15, "costs": -12.850000000000001, "simulationMode": [null, null, null, null, null], "rewards": [-2, 2, 8, 2, 74], "path": ["0", "0", "1", "2", "3", "8", "11"], "rt": [24840, 45, 402, 358, 53], "actions": ["up", "up", "up", "left", "left"], "actionTimes": [26709, 27275, 28198, 29071, 29632], "queries": {"click": {"state": {"target": ["23", "1", "12", "15", "19", "26", "30", "3", "9", "11", "10"], "time": [2392, 3272, 3868, 5756, 8089, 10655, 12814, 14837, 16601, 19411, 22306]}, "edge": {"target": [], "time": []}}, "mouseover": {"state": {"target": ["23", "1", "12", "18", "15", "14", "19", "26", "25", "30", "24", "3", "10", "28", "10", "8", "9", "8", "11", "10", "3"], "time": [2235, 2748, 3732, 5216, 5402, 7202, 7332, 10368, 11065, 11181, 13233, 14249, 15380, 15497, 15847, 16146, 16231, 16978, 18496, 20145, 22879]}, "edge": {"target": [], "time": []}}, "mouseout": {"state": {"target": ["3", "2", "1", "0", "23", "1", "12", "18", "15", "14", "19", "26", "25", "30", "24", "3", "10", "28", "10", "8", "9", "8", "11", "10", "3", "1"], "time": [1149, 1234, 1385, 2016, 2667, 3584, 4982, 5316, 7165, 7266, 8381, 11050, 11135, 13199, 13266, 15364, 15413, 15835, 15881, 16197, 16945, 17027, 19763, 22811, 22897, 30515]}, "edge": {"target": [], "time": []}}}, "displayed_time": "30.15", "trialTime": 31524, "trial_type": "mouselab-mdp", "trial_index": 32, "time_elapsed": 1539149, "internal_node_id": "0.0-4.0-1.0-23.0"}}, {"uniqueid": "w71163117:a44280008", "current_trial": 33, "dateTime": 1691160801745, "trialdata": {"revealed_states": [], "clicked_states": ["23", "1", "12", "26", "30", "8", "9", "11", "10", "5"], "num_clicks_accrued": [0, 0, 0, 0, 0, 0, 0, 0, 0, 0, 0, 0, 0], "stateRewards": ["", 1, 1, -6, -2, 7, 77, 3, 16, -16, 66, 31, -1, 3, -8, -6, 33, -50, -48, 7, -60, -66, 36, 2, -3, 3, -7, -12, -61, -79, -4, 8, 74, -70], "withholdReward": false, "trial_id": "mdp_trial_25", "block": "test", "trialIndex": 26, "score": 65.5, "costs": -12.500000000000002, "simulationMode": [null, null, null, null, null], "rewards": [1, 1, -6, 16, 66], "path": ["0", "0", "1", "2", "3", "8", "10"], "rt": [20836, 407, 134, 318, 179], "actions": ["up", "up", "up", "left", "down"], "actionTimes": [22424, 23345, 23999, 24834, 25528], "queries": {"click": {"state": {"target": ["23", "1", "12", "26", "30", "8", "9", "11", "10", "5"], "time": [2276, 2963, 3690, 5450, 6534, 7989, 10342, 13248, 16421, 19491]}, "edge": {"target": [], "time": []}}, "mouseover": {"state": {"target": ["23", "1", "12", "24", "26", "25", "30", "30", "2", "8", "3", "4", "9", "11", "10", "3", "5", "3"], "time": [2075, 2609, 3336, 4485, 4554, 5901, 5937, 6319, 7301, 7636, 8394, 8769, 9601, 10934, 13967, 16885, 17201, 20501]}, "edge": {"target": [], "time": []}}, "mouseout": {"state": {"target": ["0", "23", "1", "12", "24", "26", "25", "30", "30", "2", "8", "3", "4", "9", "11", "10", "3", "5", "5", "3"], "time": [1076, 2457, 3287, 3868, 4503, 5885, 5935, 6002, 6870, 7569, 8369, 8434, 9351, 10885, 13684, 16855, 16902, 19867, 20485, 20552]}, "edge": {"target": [], "time": []}}}, "displayed_time": "26.05", "trialTime": 26947, "trial_type": "mouselab-mdp", "trial_index": 33, "time_elapsed": 1566509, "internal_node_id": "0.0-4.0-1.0-24.0"}}, {"uniqueid": "w71163117:a44280008", "current_trial": 34, "dateTime": 1691160831123, "trialdata": {"revealed_states": [], "clicked_states": ["23", "1", "12", "3", "9", "10", "11", "5", "6"], "num_clicks_accrued": [0, 0, 0, 0, 0, 0, 0, 0, 0, 0, 0, 0, 0], "stateRewards": ["", -1, 3, 8, 10, -86, 61, -36, 10, 17, -60, 24, -1, -3, 3, 11, 50, 60, 33, -3, -20, 58, -6, 1, -4, -4, 13, -70, -71, 43, 14, 52, 82, -11], "withholdReward": false, "trial_id": "mdp_trial_26", "block": "test", "trialIndex": 27, "score": 70.05, "costs": -10.950000000000001, "simulationMode": [null, null, null, null, null], "rewards": [-1, 3, 8, 10, 61], "path": ["0", "0", "1", "2", "3", "4", "6"], "rt": [22572, 254, 425, 71, 181], "actions": ["up", "up", "up", "right", "right"], "actionTimes": [23733, 24502, 25435, 26019, 26715], "queries": {"click": {"state": {"target": ["23", "1", "12", "3", "9", "10", "11", "5", "6"], "time": [1728, 2383, 3035, 4124, 5877, 9197, 12338, 15633, 19145]}, "edge": {"target": [], "time": []}}, "mouseover": {"state": {"target": ["23", "1", "12", "2", "3", "2", "8", "9", "10", "11", "8", "5", "5", "6", "6", "7", "7", "7"], "time": [1523, 2170, 2737, 3487, 3737, 4504, 5404, 5488, 7795, 11427, 12710, 14509, 14745, 16542, 17125, 19609, 22147, 22545]}, "edge": {"target": [], "time": []}}, "mouseout": {"state": {"target": ["1", "23", "1", "12", "1", "2", "3", "2", "8", "9", "10", "11", "8", "5", "5", "5", "6", "6", "6", "7", "7"], "time": [555, 1738, 2636, 3388, 3454, 3705, 4470, 4578, 5436, 6194, 9409, 12675, 12726, 14592, 15719, 15996, 16625, 19249, 19559, 21494, 22312]}, "edge": {"target": [], "time": []}}}, "displayed_time": "27.23", "trialTime": 28965, "trial_type": "mouselab-mdp", "trial_index": 34, "time_elapsed": 1595886, "internal_node_id": "0.0-4.0-1.0-25.0"}}, {"uniqueid": "w71163117:a44280008", "current_trial": 35, "dateTime": 1691160870673, "trialdata": {"revealed_states": [], "clicked_states": ["12", "1", "23", "17", "16", "22", "20", "21", "18", "27", "33"], "num_clicks_accrued": [0, 0, 0, 0, 0, 0, 0, 0, 0, 0, 0, 0, 0], "stateRewards": ["", -2, -4, -8, 8, 63, -50, -19, -7, -17, -31, 31, 1, 3, -5, 12, -35, -63, -29, -4, -17, -75, -79, -2, -3, -2, 8, -3, -85, 10, -2, -82, -82, 56], "withholdReward": false, "trial_id": "mdp_trial_27", "block": "test", "trialIndex": 28, "score": 30.55, "costs": -16.45, "simulationMode": [null, null, null, null, null], "rewards": [-2, -3, -2, -2, 56], "path": ["0", "0", "23", "24", "25", "30", "33"], "rt": [32983, 248, 105, 246, 55], "actions": ["left", "left", "left", "down", "left"], "actionTimes": [34830, 35595, 36216, 36972, 37549], "queries": {"click": {"state": {"target": ["12", "1", "23", "17", "16", "22", "20", "21", "18", "27", "33"], "time": [3192, 3876, 5184, 6787, 9903, 13078, 16373, 19700, 22913, 26733, 30464]}, "edge": {"target": [], "time": []}}, "mouseover": {"state": {"target": ["1", "12", "1", "23", "0", "13", "14", "17", "14", "15", "16", "18", "22", "21", "20", "21", "19", "13", "18", "18", "1", "27", "33", "9", "30"], "time": [2451, 3000, 3681, 4467, 5749, 6132, 6434, 6514, 7239, 8374, 8906, 10340, 11906, 15005, 15320, 18671, 20789, 21637, 22186, 22305, 26038, 26507, 30262, 32759, 33925]}, "edge": {"target": [], "time": []}}, "mouseout": {"state": {"target": ["12", "0", "1", "12", "1", "23", "0", "12", "13", "14", "17", "14", "15", "16", "18", "22", "21", "20", "21", "19", "13", "18", "18", "1", "27", "33", "33", "33", "9"], "time": [14, 1252, 2516, 3515, 4200, 5226, 5801, 6102, 6402, 6465, 7156, 7570, 8537, 10241, 11477, 13470, 15023, 16704, 20721, 21589, 21937, 22237, 23353, 26071, 27793, 30532, 30926, 32360, 33842]}, "edge": {"target": [], "time": []}}}, "displayed_time": "38.06", "trialTime": 39102, "trial_type": "mouselab-mdp", "trial_index": 35, "time_elapsed": 1635437, "internal_node_id": "0.0-4.0-1.0-26.0"}}, {"uniqueid": "w71163117:a44280008", "current_trial": 36, "dateTime": 1691160890584, "trialdata": {"revealed_states": [], "clicked_states": ["1", "23", "12", "17", "5", "9"], "num_clicks_accrued": [0, 0, 0, 0, 0, 0, 0, 0, 0, 0, 0, 0, 0], "stateRewards": ["", -1, 3, -4, -14, 78, 67, 2, 13, -32, 28, 39, -2, 1, -4, -4, -4, -42, -86, 11, 64, -29, -32, -1, -4, 2, -7, 5, 68, -61, 2, -21, 85, 50], "withholdReward": false, "trial_id": "mdp_trial_28", "block": "test", "trialIndex": 29, "score": 56.3, "costs": -5.699999999999999, "simulationMode": [null, null, null, null, null, null], "rewards": [-1, 3, -4, -14, 78], "path": ["0", "0", "1", "2", "3", "4", "5"], "rt": [11035, 1707, 331, 673, 132, 135], "actions": ["up", "up", "up", "up", "right", "up"], "actionTimes": [12532, 14241, 15090, 16282, 16924, 17576], "queries": {"click": {"state": {"target": ["1", "23", "12", "17", "5", "9"], "time": [2023, 2622, 3194, 5514, 8335, 11238]}, "edge": {"target": [], "time": []}}, "mouseover": {"state": {"target": ["1", "23", "0", "12", "13", "14", "17", "13", "12", "7", "4", "5", "4", "3", "9", "9"], "time": [1893, 2477, 2838, 2960, 4391, 4524, 4759, 5926, 6242, 6843, 7042, 7378, 8995, 10095, 10158, 10357]}, "edge": {"target": [], "time": []}}, "mouseout": {"state": {"target": ["30", "0", "1", "23", "0", "12", "13", "14", "17", "13", "12", "7", "4", "5", "5", "4", "3", "9"], "time": [628, 1677, 2228, 2810, 2902, 4343, 4445, 4559, 5878, 5963, 6258, 6933, 7115, 8547, 8879, 9575, 10127, 10191]}, "edge": {"target": [], "time": []}}}, "displayed_time": "18.09", "trialTime": 19461, "trial_type": "mouselab-mdp", "trial_index": 36, "time_elapsed": 1655348, "internal_node_id": "0.0-4.0-1.0-27.0"}}, {"uniqueid": "w71163117:a44280008", "current_trial": 37, "dateTime": 1691160907860, "trialdata": {"revealed_states": [], "clicked_states": ["23", "1", "12", "28", "27"], "num_clicks_accrued": [0, 0, 0, 0, 0, 0, 0, 0, 0, 0, 0, 0, 0], "stateRewards": ["", -1, -3, 4, -10, -5, 79, -87, -2, 53, 29, -20, -2, -1, -5, 10, 27, 86, 46, -16, -29, 40, 3, 2, 4, -1, -6, 37, 79, -29, 7, 86, -62, 29], "withholdReward": false, "trial_id": "mdp_trial_29", "block": "test", "trialIndex": 30, "score": 74.45, "costs": -3.55, "simulationMode": [null, null, null, null, null], "rewards": [2, 4, -1, -6, 79], "path": ["0", "0", "23", "24", "25", "26", "28"], "rt": [9874, 425, 379, 682, 107], "actions": ["left", "left", "left", "up", "right"], "actionTimes": [11048, 11981, 12868, 14071, 14697], "queries": {"click": {"state": {"target": ["23", "1", "12", "28", "27"], "time": [1791, 2427, 3164, 4888, 7778]}, "edge": {"target": [], "time": []}}, "mouseover": {"state": {"target": ["23", "23", "1", "12", "31", "25", "27", "28", "27"], "time": [1252, 1620, 2150, 2786, 4066, 4116, 4435, 4666, 6782]}, "edge": {"target": [], "time": []}}, "mouseout": {"state": {"target": ["9", "8", "23", "0", "23", "23", "1", "12", "31", "25", "27", "28", "27"], "time": [7, 176, 567, 851, 1436, 2031, 2734, 3617, 4083, 4150, 4516, 6450, 15423]}, "edge": {"target": [], "time": []}}}, "displayed_time": "15.21", "trialTime": 16847, "trial_type": "mouselab-mdp", "trial_index": 37, "time_elapsed": 1672624, "internal_node_id": "0.0-4.0-1.0-28.0"}}, {"uniqueid": "w71163117:a44280008", "current_trial": 38, "dateTime": 1691160933519, "trialdata": {"revealed_states": [], "clicked_states": ["23", "1", "12", "7", "10", "28", "31"], "num_clicks_accrued": [0, 0, 0, 0, 0, 0, 0, 0, 0, 0, 0, 0, 0], "stateRewards": ["", 1, -2, -2, 10, -31, -77, 35, 9, -47, 8, 48, -2, 1, -4, -3, -26, -50, 43, -11, 76, -38, 17, 1, -1, 6, 10, 15, -9, 12, -8, 85, 11, -55], "withholdReward": false, "trial_id": "mdp_trial_30", "block": "test", "trialIndex": 31, "score": 75.15, "costs": -7.85, "simulationMode": [null, null, null, null, null], "rewards": [1, -1, 6, -8, 85], "path": ["0", "0", "23", "24", "25", "30", "31"], "rt": [19063, 107, 123, 242, 253], "actions": ["left", "left", "left", "down", "right"], "actionTimes": [20562, 21178, 21807, 22563, 23342], "queries": {"click": {"state": {"target": ["23", "1", "12", "7", "10", "28", "31"], "time": [2116, 2918, 3503, 5108, 8142, 11395, 14497]}, "edge": {"target": [], "time": []}}, "mouseover": {"state": {"target": ["23", "1", "12", "7", "10", "28", "24", "31", "32"], "time": [1950, 2536, 3244, 4572, 7170, 10567, 11735, 12783, 17705]}, "edge": {"target": [], "time": []}}, "mouseout": {"state": {"target": ["26", "24", "23", "0", "23", "1", "12", "1", "7", "1", "10", "28", "24", "31", "32", "31"], "time": [603, 850, 900, 1553, 2386, 3198, 3685, 4503, 5338, 5387, 8451, 11686, 12153, 14818, 18035, 18102]}, "edge": {"target": [], "time": []}}}, "displayed_time": "23.86", "trialTime": 25179, "trial_type": "mouselab-mdp", "trial_index": 38, "time_elapsed": 1698283, "internal_node_id": "0.0-4.0-1.0-29.0"}}, {"uniqueid": "w71163117:a44280008", "current_trial": 39, "dateTime": 1691160967836, "trialdata": {"revealed_states": [], "clicked_states": ["23", "1", "12", "7", "10", "28", "31", "22", "18", "16"], "num_clicks_accrued": [0, 0, 0, 0, 0, 0, 0, 0, 0, 0, 0, 0, 0], "stateRewards": ["", 2, -1, 5, 8, 75, -35, -77, 1, -9, -81, -58, 1, 2, -7, 5, 77, -16, 19, 16, -10, -18, 40, -2, 3, 7, -5, 64, 1, -62, 10, 27, 10, 65], "withholdReward": false, "trial_id": "mdp_trial_31", "block": "test", "trialIndex": 32, "score": 63.7, "costs": -14.3, "simulationMode": [null, null, null, null, null], "rewards": [1, 2, -7, 5, 77], "path": ["0", "0", "12", "13", "14", "15", "16"], "rt": [27475, 521, 270, 479, 41], "actions": ["right", "right", "right", "up", "up"], "actionTimes": [28836, 29881, 30662, 31656, 32220], "queries": {"click": {"state": {"target": ["23", "1", "12", "7", "10", "28", "31", "22", "18", "16"], "time": [2410, 3188, 3840, 5333, 8412, 11564, 14823, 18586, 21381, 24597]}, "edge": {"target": [], "time": []}}, "mouseover": {"state": {"target": ["0", "23", "23", "1", "12", "7", "10", "28", "28", "24", "31", "22", "13", "18", "13", "13", "16", "17"], "time": [1924, 2060, 2178, 2777, 3475, 5109, 6911, 9374, 10197, 12125, 12460, 18041, 19426, 20226, 21931, 22592, 23892, 27843]}, "edge": {"target": [], "time": []}}, "mouseout": {"state": {"target": ["0", "0", "23", "23", "1", "12", "1", "7", "7", "1", "10", "28", "28", "24", "31", "22", "13", "18", "13", "13", "18", "16", "16"], "time": [1010, 1977, 2128, 2708, 3397, 4060, 4425, 5435, 5775, 5842, 8842, 9459, 12109, 12175, 15409, 19393, 19508, 21876, 22076, 22609, 23825, 24704, 25442]}, "edge": {"target": [], "time": []}}}, "displayed_time": "32.73", "trialTime": 33887, "trial_type": "mouselab-mdp", "trial_index": 39, "time_elapsed": 1732600, "internal_node_id": "0.0-4.0-1.0-30.0"}}, {"uniqueid": "w71163117:a44280008", "current_trial": 40, "dateTime": 1691160986555, "trialdata": {"revealed_states": [], "clicked_states": ["1", "23", "12", "18", "7"], "num_clicks_accrued": [0, 0, 0, 0, 0, 0, 0, 0, 0, 0, 0, 0, 0], "stateRewards": ["", 2, 3, -2, -8, -8, -41, 74, 15, -23, -80, 1, 1, 3, 3, -15, -63, -78, 67, 13, 75, -41, 86, 2, -2, 6, -3, -8, -49, 50, -6, 83, 74, 80], "withholdReward": false, "trial_id": "mdp_trial_32", "block": "test", "trialIndex": 33, "score": 55.45, "costs": -3.55, "simulationMode": [null, null, null, null, null], "rewards": [1, 3, 3, -15, 67], "path": ["0", "0", "12", "13", "14", "15", "18"], "rt": [10037, 1162, 231, 383, 677], "actions": ["right", "right", "right", "up", "left"], "actionTimes": [12096, 13770, 14520, 15424, 16618], "queries": {"click": {"state": {"target": ["1", "23", "12", "18", "7"], "time": [3199, 3901, 4575, 6407, 9232]}, "edge": {"target": [], "time": []}}, "mouseover": {"state": {"target": ["1", "23", "0", "12", "13", "18", "13", "13", "7"], "time": [3074, 3558, 4099, 4175, 5628, 6222, 6790, 8007, 8624]}, "edge": {"target": [], "time": []}}, "mouseout": {"state": {"target": ["17", "15", "12", "1", "23", "0", "12", "13", "18", "13", "13", "7"], "time": [673, 722, 1059, 3441, 4074, 4141, 4909, 5641, 6740, 7923, 8060, 9755]}, "edge": {"target": [], "time": []}}}, "displayed_time": "17.12", "trialTime": 18287, "trial_type": "mouselab-mdp", "trial_index": 40, "time_elapsed": 1751318, "internal_node_id": "0.0-4.0-1.0-31.0"}}, {"uniqueid": "w71163117:a44280008", "current_trial": 41, "dateTime": 1691161003787, "trialdata": {"revealed_states": [], "clicked_states": ["23", "1", "12", "18", "22"], "num_clicks_accrued": [0, 0, 0, 0, 0, 0, 0, 0, 0, 0, 0, 0, 0], "stateRewards": ["", -2, -3, -6, -7, 9, 16, 65, 5, -41, 20, -25, -1, -4, 1, -11, -49, -4, 71, 1, 39, -62, 52, -2, -3, 7, -9, -28, -70, 84, 8, 24, -58, 82], "withholdReward": false, "trial_id": "mdp_trial_33", "block": "test", "trialIndex": 34, "score": 52.45, "costs": -3.55, "simulationMode": [null, null, null, null, null, null], "rewards": [-1, -4, 1, -11, 71], "path": ["0", "0", "12", "13", "14", "15", "18"], "rt": [7919, 1532, 428, 130, 280, 396], "actions": ["right", "right", "right", "right", "up", "left"], "actionTimes": [9069, 10604, 11557, 12205, 13005, 13923], "queries": {"click": {"state": {"target": ["23", "1", "12", "18", "22"], "time": [1745, 2253, 2781, 4289, 7531]}, "edge": {"target": [], "time": []}}, "mouseover": {"state": {"target": ["23", "1", "12", "13", "15", "18", "13", "22", "22", "13", "16"], "time": [1501, 2107, 2516, 3656, 3744, 4075, 4623, 4771, 6057, 8057, 8266]}, "edge": {"target": [], "time": []}}, "mouseout": {"state": {"target": ["12", "0", "23", "1", "12", "13", "15", "18", "18", "13", "22", "22", "22", "13", "18", "16"], "time": [284, 767, 1884, 2446, 3058, 3690, 3993, 4300, 4590, 4665, 4842, 7773, 8041, 8091, 8201, 8278]}, "edge": {"target": [], "time": []}}}, "displayed_time": "15.16", "trialTime": 16764, "trial_type": "mouselab-mdp", "trial_index": 41, "time_elapsed": 1768551, "internal_node_id": "0.0-4.0-1.0-32.0"}}, {"uniqueid": "w71163117:a44280008", "current_trial": 42, "dateTime": 1691161087099, "trialdata": {"revealed_states": [], "clicked_states": ["23", "1", "12", "18", "22", "28", "27", "29", "33", "32", "31", "11", "9", "10", "5", "6", "7", "16", "17", "20", "21"], "num_clicks_accrued": [0, 0, 0, 0, 0, 0, 0, 0, 0, 0, 0, 0, 0], "stateRewards": ["", 1, 4, -8, -5, -15, -7, 21, 13, -30, 40, -65, 1, 1, 5, -14, 35, 27, -38, -11, 36, -58, -47, -2, 4, -3, 13, -16, -49, 22, 15, -56, -44, -10], "withholdReward": false, "trial_id": "mdp_trial_34", "block": "test", "trialIndex": 35, "score": 12.050000000000011, "costs": -37.94999999999999, "simulationMode": [null, null, null, null, null], "rewards": [1, 4, -8, 13, 40], "path": ["0", "0", "1", "2", "3", "8", "10"], "rt": [72709, 164, 2720, 420, 556], "actions": ["up", "up", "up", "left", "down"], "actionTimes": [74495, 75177, 78414, 79335, 80418], "queries": {"click": {"state": {"target": ["23", "1", "12", "18", "22", "28", "27", "29", "33", "32", "31", "11", "9", "10", "5", "6", "7", "16", "17", "20", "21"], "time": [2467, 3187, 3710, 4964, 8346, 11467, 14574, 17670, 21044, 24237, 27384, 30834, 34282, 37486, 41687, 44883, 48017, 51667, 55206, 58920, 62381]}, "edge": {"target": [], "time": []}}, "mouseover": {"state": {"target": ["0", "23", "1", "12", "18", "16", "18", "13", "15", "14", "22", "0", "24", "28", "28", "24", "26", "27", "26", "29", "33", "30", "32", "31", "31", "24", "11", "9", "9", "8", "10", "10", "3", "5", "6", "7", "16", "17", "20", "21"], "time": [2224, 2291, 2859, 3434, 4390, 4512, 4740, 5438, 6103, 6571, 6687, 9303, 9853, 9920, 10220, 11772, 13746, 14088, 14875, 15088, 20257, 21637, 23255, 24826, 25060, 29942, 30492, 31625, 33358, 34593, 35074, 36175, 37793, 37875, 44126, 45246, 51358, 52458, 56760, 61476]}, "edge": {"target": [], "time": []}}, "mouseout": {"state": {"target": ["16", "0", "0", "0", "23", "1", "12", "18", "16", "18", "13", "15", "14", "22", "0", "24", "28", "28", "24", "26", "27", "26", "29", "33", "30", "32", "31", "31", "24", "11", "9", "9", "8", "10", "10", "3", "5", "5", "6", "7", "16", "17", "20", "21", "20"], "time": [875, 1057, 2074, 2240, 2792, 3374, 4323, 4424, 4657, 5372, 5990, 6154, 6603, 8887, 9537, 9886, 10104, 11688, 13674, 14024, 14803, 14987, 17937, 21322, 21703, 24335, 24910, 29908, 29959, 30902, 32664, 34558, 34642, 35541, 37758, 37811, 41867, 44043, 45105, 51260, 52109, 56042, 61393, 62692, 63524]}, "edge": {"target": [], "time": []}}}, "displayed_time": "80.93", "trialTime": 82860, "trial_type": "mouselab-mdp", "trial_index": 42, "time_elapsed": 1851863, "internal_node_id": "0.0-4.0-1.0-33.0"}}, {"uniqueid": "w71163117:a44280008", "current_trial": 43, "dateTime": 1691161119426, "trialdata": {"revealed_states": [], "clicked_states": ["23", "1", "12", "7", "9", "27", "32", "31", "22"], "num_clicks_accrued": [0, 0, 0, 0, 0, 0, 0, 0, 0, 0, 0, 0, 0], "stateRewards": ["", 2, -3, 5, -14, -63, -9, -24, -11, -54, -43, 68, 2, -2, -4, 7, -64, 30, 47, 12, -74, 11, 86, 1, -3, 3, 10, -71, -42, -52, -1, -29, -16, 69], "withholdReward": false, "trial_id": "mdp_trial_35", "block": "test", "trialIndex": 36, "score": 81.85, "costs": -12.15, "simulationMode": [null, null, null, null, null], "rewards": [2, -2, -4, 12, 86], "path": ["0", "0", "12", "13", "14", "19", "22"], "rt": [25497, 32, 132, 240, 241], "actions": ["right", "right", "right", "down", "left"], "actionTimes": [27324, 27879, 28545, 29304, 30054], "queries": {"click": {"state": {"target": ["23", "1", "12", "7", "9", "27", "32", "31", "22"], "time": [2527, 3141, 3600, 5716, 9290, 12501, 15758, 19173, 22944]}, "edge": {"target": [], "time": []}}, "mouseover": {"state": {"target": ["0", "23", "1", "12", "0", "7", "7", "4", "3", "9", "9", "27", "26", "25", "30", "32", "31", "22", "22", "19", "20", "19"], "time": [1965, 2328, 2962, 3361, 4478, 4813, 5013, 8104, 8436, 8704, 9122, 11337, 13038, 13087, 13369, 13654, 17778, 22613, 22828, 25796, 25946, 26598]}, "edge": {"target": [], "time": []}}, "mouseout": {"state": {"target": ["0", "23", "1", "12", "0", "7", "7", "4", "3", "9", "9", "27", "26", "25", "30", "32", "31", "22", "22", "19", "20"], "time": [2079, 2694, 3328, 3812, 4495, 4861, 5764, 8370, 8451, 8856, 10936, 13003, 13070, 13337, 13419, 17496, 22412, 22694, 25764, 25860, 26511]}, "edge": {"target": [], "time": []}}}, "displayed_time": "30.56", "trialTime": 31868, "trial_type": "mouselab-mdp", "trial_index": 43, "time_elapsed": 1884190, "internal_node_id": "0.0-4.0-1.0-34.0"}}, {"uniqueid": "w71163117:a44280008", "current_trial": 44, "dateTime": 1691161141183, "trialdata": {"revealed_states": [], "clicked_states": ["12", "1", "23", "17", "21", "20"], "num_clicks_accrued": [0, 0, 0, 0, 0, 0, 0, 0, 0, 0, 0, 0, 0], "stateRewards": ["", -2, 4, -7, -3, -76, 39, -28, 10, 14, 12, 60, 2, -3, 6, -10, 88, -34, -41, -3, 72, -13, -56, 1, 3, 2, 8, -51, 23, -57, 1, 14, -46, -16], "withholdReward": false, "trial_id": "mdp_trial_36", "block": "test", "trialIndex": 37, "score": 68.3, "costs": -5.699999999999999, "simulationMode": [null, null, null, null, null], "rewards": [2, -3, 6, -3, 72], "path": ["0", "0", "12", "13", "14", "19", "20"], "rt": [14159, 263, 502, 456, 126], "actions": ["right", "right", "right", "down", "right"], "actionTimes": [16164, 16956, 17977, 18952, 19585], "queries": {"click": {"state": {"target": ["12", "1", "23", "17", "21", "20"], "time": [3604, 4327, 5033, 6221, 9259, 12384]}, "edge": {"target": [], "time": []}}, "mouseover": {"state": {"target": ["12", "13", "12", "1", "23", "0", "15", "17", "20", "21", "20", "20", "19", "14", "16"], "time": [2961, 3113, 3294, 4015, 4714, 5349, 5714, 5980, 7381, 8698, 10131, 11364, 12866, 13183, 13824]}, "edge": {"target": [], "time": []}}, "mouseout": {"state": {"target": ["19", "22", "12", "0", "12", "13", "12", "1", "1", "23", "0", "12", "15", "17", "20", "21", "20", "20", "19", "14"], "time": [777, 828, 913, 1743, 2994, 3243, 3931, 4376, 4624, 5331, 5381, 5663, 5813, 7048, 8583, 9647, 10179, 12832, 12881, 13232]}, "edge": {"target": [], "time": []}}}, "displayed_time": "20.09", "trialTime": 21325, "trial_type": "mouselab-mdp", "trial_index": 44, "time_elapsed": 1905946, "internal_node_id": "0.0-4.0-1.0-35.0"}}, {"uniqueid": "w71163117:a44280008", "current_trial": 45, "dateTime": 1691161175085, "trialdata": {"revealed_states": [], "clicked_states": ["1", "23", "12", "9", "5", "6", "29", "27", "33"], "num_clicks_accrued": [0, 0, 0, 0, 0, 0, 0, 0, 0, 0, 0, 0, 0], "stateRewards": ["", 2, -1, 3, -12, -83, 6, -33, 9, 28, 24, -50, -2, -1, -2, -5, -87, 37, 82, 12, 80, -5, 10, -2, -3, -6, 9, 22, -1, 16, 9, 77, -62, 58], "withholdReward": false, "trial_id": "mdp_trial_37", "block": "test", "trialIndex": 38, "score": 43.85, "costs": -12.15, "simulationMode": [null, null, null, null, null], "rewards": [-2, -3, -6, 9, 58], "path": ["0", "0", "23", "24", "25", "30", "33"], "rt": [26171, 410, 122, 207, 64], "actions": ["left", "left", "left", "down", "left"], "actionTimes": [28950, 29876, 30522, 31239, 31811], "queries": {"click": {"state": {"target": ["1", "23", "12", "9", "5", "6", "29", "27", "33"], "time": [4386, 5105, 5839, 6755, 10664, 14717, 17966, 21195, 24781]}, "edge": {"target": [], "time": []}}, "mouseover": {"state": {"target": ["1", "2", "1", "23", "0", "12", "10", "8", "9", "8", "3", "5", "6", "2", "28", "29", "26", "27", "26", "25", "33", "32"], "time": [3590, 3640, 3955, 4808, 5410, 5508, 6260, 6292, 6539, 7372, 7689, 8009, 12706, 15272, 16906, 17238, 20155, 20497, 23405, 23755, 24548, 25172]}, "edge": {"target": [], "time": []}}, "mouseout": {"state": {"target": ["16", "18", "0", "1", "2", "1", "23", "0", "12", "10", "8", "9", "8", "3", "5", "5", "6", "2", "28", "29", "26", "27", "27", "27", "26", "25", "33"], "time": [2175, 2224, 3525, 3624, 3939, 4739, 5391, 5457, 6195, 6289, 6472, 7338, 7389, 7757, 11190, 11576, 15188, 15522, 16956, 19739, 20291, 21206, 21589, 23301, 23722, 23849, 25125]}, "edge": {"target": [], "time": []}}}, "displayed_time": "32.31", "trialTime": 33459, "trial_type": "mouselab-mdp", "trial_index": 45, "time_elapsed": 1939848, "internal_node_id": "0.0-4.0-1.0-36.0"}}, {"uniqueid": "w71163117:a44280008", "current_trial": 46, "dateTime": 1691161217480, "trialdata": {"revealed_states": [], "clicked_states": ["23", "1", "12", "20", "21", "22", "16", "17", "18", "5", "9", "29"], "num_clicks_accrued": [0, 0, 0, 0, 0, 0, 0, 0, 0, 0, 0, 0, 0], "stateRewards": ["", -2, 2, 2, -6, 9, 37, 50, -13, -7, -18, -75, -2, -4, 4, 7, 23, -57, -66, -7, -81, -48, -76, 1, 1, -8, 1, 51, -2, 70, 14, 59, 71, -37], "withholdReward": false, "trial_id": "mdp_trial_38", "block": "test", "trialIndex": 39, "score": 46.400000000000006, "costs": -18.599999999999998, "simulationMode": [null, null, null, null, null], "rewards": [1, 1, -8, 1, 70], "path": ["0", "0", "23", "24", "25", "26", "29"], "rt": [34433, 562, 1590, 296, 116], "actions": ["left", "left", "left", "up", "left"], "actionTimes": [35886, 36963, 39074, 39865, 40498], "queries": {"click": {"state": {"target": ["23", "1", "12", "20", "21", "22", "16", "17", "18", "5", "9", "29"], "time": [2153, 2630, 3153, 4623, 7879, 11122, 14539, 17789, 21375, 25073, 28418, 31612]}, "edge": {"target": [], "time": []}}, "mouseover": {"state": {"target": ["23", "1", "12", "19", "20", "21", "21", "19", "14", "22", "22", "15", "16", "17", "18", "7", "4", "5", "9", "11", "29", "29", "33"], "time": [2014, 2480, 2962, 3895, 4034, 5361, 6828, 8611, 8646, 10046, 10450, 14137, 14248, 16164, 20748, 24432, 24469, 24913, 28217, 28934, 29049, 29514, 34130]}, "edge": {"target": [], "time": []}}, "mouseout": {"state": {"target": ["32", "0", "23", "1", "12", "19", "20", "21", "21", "19", "14", "22", "22", "15", "16", "17", "18", "7", "4", "5", "9", "11", "29", "29", "33"], "time": [694, 1799, 2329, 2830, 3612, 3985, 5295, 5378, 8580, 8629, 8693, 10130, 11533, 14160, 16095, 18112, 23599, 24467, 24681, 27848, 28916, 28949, 29298, 32089, 35090]}, "edge": {"target": [], "time": []}}}, "displayed_time": "41.02", "trialTime": 41887, "trial_type": "mouselab-mdp", "trial_index": 46, "time_elapsed": 1982244, "internal_node_id": "0.0-4.0-1.0-37.0"}}, {"uniqueid": "w71163117:a44280008", "current_trial": 47, "dateTime": 1691161243149, "trialdata": {"revealed_states": [], "clicked_states": ["23", "1", "12", "16", "21", "5"], "num_clicks_accrued": [0, 0, 0, 0, 0, 0, 0, 0, 0, 0, 0, 0, 0], "stateRewards": ["", -1, 1, 6, -6, 70, 66, 67, -16, -75, -35, 37, -1, 4, 4, -6, 47, -9, 63, 15, 21, -63, 13, 1, 3, -6, 10, 79, -29, 18, -15, 9, -67, -19], "withholdReward": false, "trial_id": "mdp_trial_39", "block": "test", "trialIndex": 40, "score": 64.3, "costs": -5.699999999999999, "simulationMode": [null, null, null, null, null], "rewards": [-1, 1, 6, -6, 70], "path": ["0", "0", "1", "2", "3", "4", "5"], "rt": [13602, 345, 67, 113, 337], "actions": ["up", "up", "up", "right", "up"], "actionTimes": [20669, 21535, 22118, 22748, 23610], "queries": {"click": {"state": {"target": ["23", "1", "12", "16", "21", "5"], "time": [7741, 8241, 8884, 10006, 13273, 16498]}, "edge": {"target": [], "time": []}}, "mouseover": {"state": {"target": ["23", "1", "12", "15", "16", "21", "20", "20", "15", "4", "5", "9", "9"], "time": [7519, 7933, 8687, 9401, 9834, 12104, 13666, 14800, 14883, 15234, 15468, 18050, 18385]}, "edge": {"target": [], "time": []}}, "mouseout": {"state": {"target": ["24", "23", "0", "0", "23", "1", "12", "15", "16", "16", "21", "20", "20", "15", "4", "5", "9"], "time": [6163, 6211, 6529, 7384, 7901, 8635, 9333, 9417, 10058, 10283, 13616, 13701, 14834, 14900, 15250, 18003, 18084]}, "edge": {"target": [], "time": []}}}, "displayed_time": "24.12", "trialTime": 25202, "trial_type": "mouselab-mdp", "trial_index": 47, "time_elapsed": 2007913, "internal_node_id": "0.0-4.0-1.0-38.0"}}, {"uniqueid": "w71163117:a44280008", "current_trial": 48, "dateTime": 1691161293054, "trialdata": {"revealed_states": [], "clicked_states": ["23", "1", "12", "9", "5", "21", "17", "16", "29", "33", "32", "27", "20", "28"], "num_clicks_accrued": [0, 0, 0, 0, 0, 0, 0, 0, 0, 0, 0, 0, 0], "stateRewards": ["", 2, -4, 1, -12, -59, -53, -74, 16, -88, -66, 66, 1, -2, 8, -9, -14, 22, 25, -1, -39, 47, -14, -1, -1, -2, 1, -4, 52, -26, 15, -7, 46, 43], "withholdReward": false, "trial_id": "mdp_trial_40", "block": "test", "trialIndex": 41, "score": 26.100000000000005, "costs": -22.899999999999995, "simulationMode": [null, null, null, null, null], "rewards": [-1, -1, -2, 1, 52], "path": ["0", "0", "23", "24", "25", "26", "28"], "rt": [43003, 69, 221, 502, 187], "actions": ["left", "left", "left", "up", "right"], "actionTimes": [44674, 45263, 45997, 47012, 47714], "queries": {"click": {"state": {"target": ["23", "1", "12", "9", "5", "21", "17", "16", "29", "33", "32", "27", "20", "28"], "time": [2371, 3235, 3956, 5108, 8424, 12587, 16360, 19734, 22909, 26084, 29622, 32917, 37009, 40444]}, "edge": {"target": [], "time": []}}, "mouseover": {"state": {"target": ["23", "1", "12", "8", "9", "5", "5", "6", "13", "19", "21", "20", "17", "17", "17", "16", "1", "24", "25", "29", "29", "27", "27", "26", "33", "32", "30", "25", "26", "27", "10", "1", "13", "20", "20", "19", "0", "28", "24"], "time": [2190, 2769, 3672, 4537, 4979, 5986, 6155, 11721, 11854, 12078, 12147, 13077, 13604, 14012, 14647, 18791, 20213, 20479, 20512, 20794, 20968, 23345, 23680, 23966, 24065, 27895, 30094, 30128, 30162, 30728, 34474, 34742, 34843, 35427, 36311, 38976, 39308, 39892, 43527]}, "edge": {"target": [], "time": []}}, "mouseout": {"state": {"target": ["9", "8", "10", "1", "23", "1", "12", "1", "8", "9", "9", "5", "5", "6", "13", "19", "21", "20", "17", "17", "17", "16", "1", "24", "25", "29", "29", "27", "27", "26", "33", "32", "30", "25", "26", "27", "10", "1", "13", "20", "20", "19", "0", "28"], "time": [599, 819, 916, 1199, 2569, 3552, 4386, 4453, 4553, 5119, 5519, 6018, 9586, 11737, 12012, 12113, 13028, 13245, 13658, 14496, 18454, 20146, 20228, 20495, 20561, 20861, 23313, 23561, 23963, 23978, 27762, 30081, 30110, 30160, 30496, 34427, 34492, 34760, 35060, 35525, 38926, 38993, 39326, 43442]}, "edge": {"target": [], "time": []}}}, "displayed_time": "48.23", "trialTime": 49473, "trial_type": "mouselab-mdp", "trial_index": 48, "time_elapsed": 2057817, "internal_node_id": "0.0-4.0-1.0-39.0"}}, {"uniqueid": "w71163117:a44280008", "current_trial": 49, "dateTime": 1691161354772, "trialdata": {"rt": 61711, "response": {"Q0": "$-2 to $2", "Q1": "$-32 to $32", "Q2": "$-88 to $88", "Q3": "The cost for clicking on nodes varied between nodes.", "Q4": "Very motivated"}, "question_order": [0, 1, 2, 3, 4], "trial_id": "final_quiz_control", "trial_type": "survey-multi-choice", "trial_index": 49, "time_elapsed": 2119535, "internal_node_id": "0.0-4.0-2.0"}}, {"uniqueid": "w71163117:a44280008", "current_trial": 50, "dateTime": 1691161542150, "trialdata": {"rt": 187360, "response": {"Q0": "Clicked the first nodes closest to the start as I realised I got money this way. And then clicked the nodes on the edge to find one with the largest value. If my money was going too far into the negative I would stop clicking the nodes.", "Q1": "Realised that I always got money by clicking the first nodes so always did this as the first step. Mostly just clicked the edge nodes at random from there.", "Q2": "It was difficult to find a pattern based on the first nodes for example or anything else, so it was difficult to develop a strategy other than to do it mostly at random."}, "trial_id": "self_report_control", "trial_type": "survey-text", "trial_index": 50, "time_elapsed": 2306913, "internal_node_id": "0.0-4.0-3.0"}}, {"uniqueid": "w71163117:a44280008", "current_trial": 51, "dateTime": 1691161605343, "trialdata": {"rt": 63184, "response": {"Q0": "Agree", "Q1": "Agree", "Q2": "Disagree", "Q3": "Neither disagree nor agree", "Q4": "Agree", "Q5": "Agree", "Q6": "Disagree"}, "question_order": [0, 1, 2, 3, 4, 5, 6], "trial_id": "self_report_2", "trial_type": "survey-multi-choice", "trial_index": 51, "time_elapsed": 2370107, "internal_node_id": "0.0-4.0-4.0"}}, {"uniqueid": "w71163117:a44280008", "current_trial": 52, "dateTime": 1691161639781, "trialdata": {"rt": 34430, "response": {"gender": "female", "age": "22", "colorblind": "0", "effort": "0"}, "trial_type": "survey-html-form", "trial_index": 52, "time_elapsed": 2404545, "internal_node_id": "0.0-4.0-5.0"}}, {"uniqueid": "w71163117:a44280008", "current_trial": 53, "dateTime": 1691161679210, "trialdata": {"rt": 39422, "response": {"Q0": "Not really, the practice games helped understand", "Q1": "No.", "Q2": "-"}, "trial_type": "survey-text", "trial_index": 53, "time_elapsed": 2443974, "internal_node_id": "0.0-4.0-6.0"}}, {"uniqueid": "w71163117:a44280008", "current_trial": 54, "dateTime": 1691161684815, "trialdata": {"rt": 5592, "stimulus": "Press 'Finish HIT' in order to reach the completion code. Once the data has been saved, you will receive the code either in this window or in the original browser window where you started the experiment.\n", "response": 0, "trial_type": "html-button-response", "trial_index": 54, "time_elapsed": 2449579, "internal_node_id": "0.0-5.0"}}, {"uniqueid": "w71163117:a44280008", "current_trial": 55, "dateTime": 1691161685822, "trialdata": {"success": true, "trial_type": "fullscreen", "trial_index": 55, "time_elapsed": 2450586, "internal_node_id": "0.0-6.0"}}], "questiondata": {"params": {"CODE": "C6DMOQA6", "MIN_TIME": 14, "inspectCost": 1, "startTime": "Fri Aug 04 2023 15:27:14 GMT+0100 (British Summer Time)", "bonusRate": 0.002, "variance": "1_2_4_8_44", "branching": "31123"}, "final_score": 2234.35}, "eventdata": [{"eventtype": "initialized", "value": null, "timestamp": 1691159234179, "interval": 0}, {"eventtype": "window_resize", "value": [718, 821], "timestamp": 1691159234179, "interval": 0}, {"eventtype": "window_resize", "value": [718, 821], "timestamp": 1691159234525, "interval": 346}, {"eventtype": "window_resize", "value": [718, 777], "timestamp": 1691159240429, "interval": 5904}, {"eventtype": "window_resize", "value": [720, 721], "timestamp": 1691159242606, "interval": 2177}, {"eventtype": "window_resize", "value": [1440, 821], "timestamp": 1691159244230, "interval": 1624}, {"eventtype": "focus", "value": "off", "timestamp": 1691159250963, "interval": 6733}, {"eventtype": "focus", "value": "on", "timestamp": 1691159270104, "interval": 19141}, {"eventtype": "window_resize", "value": [1440, 900], "timestamp": 1691159274167, "interval": 4063}, {"eventtype": "window_resize", "value": [1440, 821], "timestamp": 1691161685053, "interval": 2410886}], "useragent": "Mozilla/5.0 (Macintosh; Intel Mac OS X 10_15_7) AppleWebKit/537.36 (KHTML, like Gecko) Chrome/112.0.0.0 Safari/537.36", "mode": "live", "id": "w71163117:a44280008", "status": "user data saved", "Beginhit": "2023-08-04 14:27:13.216184", "Beginexp": "2023-08-04 14:27:55.031167", "Endhit": "2023-08-04 15:08:06.724206", "psiturkStatus": 3, "browser": "<redacted>", "platform": "macos", "language": "en-GB"}