{"condition": 0, "counterbalance": 0, "assignmentId": "a29935661", "workerId": "w52701828", "hitId": "h47243293", "currenttrial": 61, "bonus": 0, "data": [{"uniqueid": "w52701828:a29935661", "current_trial": 0, "dateTime": 1693564864675, "trialdata": {"success": true, "trial_type": "fullscreen", "trial_index": 0, "time_elapsed": 6087, "internal_node_id": "0.0-0.0"}}, {"uniqueid": "w52701828:a29935661", "current_trial": 1, "dateTime": 1693564897843, "trialdata": {"view_history": [{"page_index": 0, "viewing_time": 33155}], "rt": 33157, "trial_id": "exp_instructions_control", "trial_type": "instructions", "trial_index": 1, "time_elapsed": 39256, "internal_node_id": "0.0-1.0"}}, {"uniqueid": "w52701828:a29935661", "current_trial": 2, "dateTime": 1693565189250, "trialdata": {"view_history": [{"page_index": 0, "viewing_time": 105642}, {"page_index": 1, "viewing_time": 76392}, {"page_index": 2, "viewing_time": 84280}, {"page_index": 3, "viewing_time": 25080}], "rt": 291394, "trial_id": "mouselab_instructions_1_control", "trial_type": "instructions", "trial_index": 2, "time_elapsed": 330662, "internal_node_id": "0.0-2.0-1.0"}}, {"uniqueid": "w52701828:a29935661", "current_trial": 3, "dateTime": 1693565358244, "trialdata": {"revealed_states": [], "clicked_states": ["23", "24", "25", "30", "26", "27", "28", "29", "1", "12", "13", "14", "19", "21", "20", "22", "15", "18", "16", "17", "2", "3", "8", "9", "11", "10", "4", "5", "6", "7", "31", "33", "32"], "num_clicks_accrued": [0, 0, 0, 0, 0, 0, 0, 0, 0, 0, 0, 0, 0], "stateRewards": ["", 10, 10, -10, 10, -10, -10, -10, -10, -10, -10, 10, 10, 10, 10, -10, 10, -10, -10, 10, -10, -10, -10, 10, 10, 10, 10, -10, 10, 10, 10, -10, -10, 10], "withholdReward": false, "trial_id": "practice_1", "block": "test", "trialIndex": 0, "score": -3, "costs": -16.5, "simulationMode": [null, null, null, null, null], "rewards": [10, 10, -10, -10, 10], "path": ["0", "0", "1", "2", "3", "8", "11"], "rt": [145931, 1989, 1657, 1980, 1375], "actions": ["up", "up", "up", "left", "left"], "actionTimes": [152213, 154697, 156881, 159387, 161281], "queries": {"click": {"state": {"target": ["23", "24", "25", "30", "26", "27", "28", "29", "1", "12", "13", "14", "19", "21", "20", "22", "15", "18", "16", "17", "2", "3", "8", "9", "11", "10", "4", "5", "6", "7", "31", "33", "32"], "time": [11550, 15785, 19767, 21289, 24008, 28154, 31402, 33184, 35489, 37069, 40258, 43291, 51090, 53530, 55177, 57258, 59738, 61130, 62650, 65684, 68098, 70234, 73563, 75834, 77362, 79522, 81898, 83114, 84811, 86563, 89195, 91363, 93699]}, "edge": {"target": [], "time": []}}, "mouseover": {"state": {"target": ["23", "24", "0", "12", "12", "24", "25", "30", "26", "28", "25", "28", "27", "28", "26", "28", "26", "29", "26", "25", "31", "1", "12", "13", "18", "14", "19", "19", "21", "20", "19", "22", "15", "18", "16", "17", "15", "2", "7", "3", "8", "9", "11", "10", "2", "7", "4", "5", "6", "7", "31", "31", "30", "33", "30", "32", "0", "28", "24", "23", "21", "22", "0", "23", "23", "21", "21", "0", "0", "1", "2", "1", "0", "21", "1", "0", "0", "23", "12"], "time": [10870, 13386, 14004, 14022, 14099, 15201, 19352, 20801, 23650, 24934, 25664, 26802, 27950, 29903, 30133, 31120, 32685, 32818, 33749, 33970, 34233, 35186, 36172, 38717, 42398, 43034, 44335, 46551, 53136, 54453, 55850, 56132, 59118, 60483, 61466, 63168, 66283, 67885, 68717, 69752, 73301, 74717, 76886, 78905, 81067, 81186, 81485, 82700, 84436, 86369, 88220, 88621, 90586, 90820, 92535, 93237, 96935, 98869, 98972, 99154, 107853, 108053, 108388, 110706, 111608, 114481, 114810, 119111, 119481, 119863, 120615, 121200, 121250, 133855, 134119, 136855, 142471, 143888, 149905]}, "edge": {"target": [], "time": []}}, "mouseout": {"state": {"target": ["14", "22", "13", "12", "0", "23", "24", "23", "0", "12", "12", "23", "24", "25", "25", "30", "25", "26", "28", "25", "28", "27", "28", "26", "28", "26", "29", "26", "25", "31", "1", "12", "13", "18", "14", "19", "14", "19", "21", "20", "19", "22", "15", "18", "16", "17", "15", "2", "7", "3", "8", "9", "11", "10", "2", "7", "4", "5", "6", "7", "31", "31", "30", "33", "30", "32", "0", "28", "24", "23", "21", "22", "0", "23", "23", "21", "21", "0", "0", "1", "2", "1", "0", "21", "1", "0", "0", "23", "12"], "time": [null, 233, 633, 1850, 6499, 13151, 13986, 14001, 14019, 14053, 14114, 15002, 16498, 20250, 20767, 21387, 23051, 24901, 25598, 26514, 27667, 29050, 30069, 31068, 32532, 32752, 33716, 33833, 34051, 34568, 36067, 38703, 41752, 42802, 43966, 45587, 46500, 53003, 53695, 55817, 55951, 57682, 59879, 61299, 63050, 66250, 66550, 68650, 69500, 72370, 74395, 76385, 78836, 81052, 81118, 81420, 82569, 83935, 86053, 87197, 88468, 90556, 90668, 92284, 92637, 94218, 97636, 98903, 99019, 99917, 107905, 108100, 109804, 111090, 111658, 114562, 114876, 119148, 119798, 120433, 121151, 121215, 121265, 133879, 134133, 136921, 142672, 144504, 150105]}, "edge": {"target": [], "time": []}}}, "displayed_time": "161.81", "trialTime": 167763, "trial_type": "mouselab-mdp", "trial_index": 3, "time_elapsed": 499654, "internal_node_id": "0.0-2.0-2.0-0.0"}}, {"uniqueid": "w52701828:a29935661", "current_trial": 4, "dateTime": 1693565390759, "trialdata": {"revealed_states": [], "clicked_states": ["23", "1"], "num_clicks_accrued": [0, 0, 0, 0, 0, 0, 0, 0, 0, 0, 0, 0, 0], "stateRewards": ["", 10, -10, 10, 10, 10, -10, 10, 10, -10, -10, -10, 10, 10, 10, 10, 10, -10, -10, 10, -10, 10, -10, -10, 10, 10, 10, -10, 10, 10, 10, -10, 10, 10], "withholdReward": false, "trial_id": "practice_2", "block": "test", "trialIndex": 1, "score": 12.5, "costs": -1, "simulationMode": [null, null, null, null, null], "rewards": [10, -10, 10, 10, -10], "path": ["0", "0", "1", "2", "3", "8", "10"], "rt": [7216, 5816, 4397, 840, 1566], "actions": ["up", "up", "up", "left", "down"], "actionTimes": [12597, 18938, 23837, 25196, 27271], "queries": {"click": {"state": {"target": ["23", "1"], "time": [7740, 10227]}, "edge": {"target": [], "time": []}}, "mouseover": {"state": {"target": ["23", "24", "23", "0", "1", "12"], "time": [5988, 6039, 6435, 7984, 9706, 10852]}, "edge": {"target": [], "time": []}}, "mouseout": {"state": {"target": ["23", "24", "23", "0", "1", "12", "2", "2", "7", "12"], "time": [6004, 6121, 7968, 8030, 10804, 10910, 14956, 15669, 16654, 30525]}, "edge": {"target": [], "time": []}}}, "displayed_time": "27.79", "trialTime": 31808, "trial_type": "mouselab-mdp", "trial_index": 4, "time_elapsed": 532168, "internal_node_id": "0.0-2.0-2.0-1.0"}}, {"uniqueid": "w52701828:a29935661", "current_trial": 5, "dateTime": 1693565406196, "trialdata": {"view_history": [{"page_index": 0, "viewing_time": 6238}, {"page_index": 1, "viewing_time": 9192}], "rt": 15430, "trial_id": "mouselab_instructions_2_control", "trial_type": "instructions", "trial_index": 5, "time_elapsed": 547609, "internal_node_id": "0.0-2.0-3.0"}}, {"uniqueid": "w52701828:a29935661", "current_trial": 6, "dateTime": 1693565455451, "trialdata": {"rt": 49242, "response": {"Q0": "The cost for clicking on nodes may vary between nodes.", "Q1": "The better I perform the higher my bonus will be.", "Q2": "No, the amount of cash at each node of the web may be different each time.", "Q3": "To get the highest total score.", "Q4": "Only before moving the spider.", "Q5": "10 seconds"}, "question_order": [0, 1, 2, 3, 4, 5], "correct": {"Q0": "The cost for clicking on nodes may vary between nodes.", "Q1": "The better I perform the higher my bonus will be.", "Q2": "No, the amount of cash at each node of the web may be different each time.", "Q3": "To get the highest total score.", "Q4": "Only before moving the spider.", "Q5": "3 seconds"}, "trial_id": "mouselab_quiz_control", "trial_type": "survey-multi-choice", "trial_index": 6, "time_elapsed": 596864, "internal_node_id": "0.0-2.0-4.0"}}, {"uniqueid": "w52701828:a29935661", "current_trial": 7, "dateTime": 1693565462052, "trialdata": {"success": true, "trial_type": "fullscreen", "trial_index": 7, "time_elapsed": 603464, "internal_node_id": "0.0-2.1-0.1-0.1"}}, {"uniqueid": "w52701828:a29935661", "current_trial": 8, "dateTime": 1693565514831, "trialdata": {"view_history": [{"page_index": 0, "viewing_time": 8422}, {"page_index": 1, "viewing_time": 12152}, {"page_index": 2, "viewing_time": 4424}, {"page_index": 3, "viewing_time": 27776}], "rt": 52774, "trial_id": "mouselab_instructions_1_control", "trial_type": "instructions", "trial_index": 8, "time_elapsed": 656244, "internal_node_id": "0.0-2.1-1.1"}}, {"uniqueid": "w52701828:a29935661", "current_trial": 9, "dateTime": 1693565543016, "trialdata": {"revealed_states": [], "clicked_states": ["1", "12", "13", "14"], "num_clicks_accrued": [0, 0, 0, 0, 0, 0, 0, 0, 0, 0, 0, 0, 0], "stateRewards": ["", 10, 10, -10, 10, -10, -10, -10, -10, -10, -10, 10, 10, 10, 10, -10, 10, -10, -10, 10, -10, -10, -10, 10, 10, 10, 10, -10, 10, 10, 10, -10, -10, 10], "withholdReward": false, "trial_id": "practice_1", "block": "test", "trialIndex": 2, "score": 11.5, "costs": -2, "simulationMode": [null, null, null, null, null], "rewards": [10, 10, 10, -10, -10], "path": ["0", "0", "12", "13", "14", "15", "18"], "rt": [11069, 326, 424, 3165, 3392], "actions": ["right", "right", "right", "up", "left"], "actionTimes": [13301, 14142, 15090, 18781, 22678], "queries": {"click": {"state": {"target": ["1", "12", "13", "14"], "time": [3140, 5091, 7779, 9675]}, "edge": {"target": [], "time": []}}, "mouseover": {"state": {"target": ["12", "1", "18", "18", "12", "0", "23", "0", "13", "13", "14"], "time": [2483, 2781, 3897, 4516, 4597, 6614, 6665, 6998, 7316, 7549, 8198]}, "edge": {"target": [], "time": []}}, "mouseout": {"state": {"target": ["0", "12", "1", "18", "18", "12", "0", "23", "0", "12", "13", "13", "14", "20", "19", "22"], "time": [1532, 2614, 3259, 3964, 4551, 5514, 6648, 6884, 7013, 7062, 7365, 8165, 10047, 26183, 26235, 26366]}, "edge": {"target": [], "time": []}}}, "displayed_time": "23.20", "trialTime": 27423, "trial_type": "mouselab-mdp", "trial_index": 9, "time_elapsed": 684427, "internal_node_id": "0.0-2.1-2.1-0.1"}}, {"uniqueid": "w52701828:a29935661", "current_trial": 10, "dateTime": 1693565566042, "trialdata": {"revealed_states": [], "clicked_states": ["23", "1", "2", "3", "8", "11"], "num_clicks_accrued": [0, 0, 0, 0, 0, 0, 0, 0, 0, 0, 0, 0, 0], "stateRewards": ["", 10, -10, 10, 10, 10, -10, 10, 10, -10, -10, -10, 10, 10, 10, 10, 10, -10, -10, 10, -10, 10, -10, -10, 10, 10, 10, -10, 10, 10, 10, -10, 10, 10], "withholdReward": false, "trial_id": "practice_2", "block": "test", "trialIndex": 3, "score": 10.5, "costs": -3, "simulationMode": [null, null, null, null, null], "rewards": [10, -10, 10, 10, -10], "path": ["0", "0", "1", "2", "3", "8", "11"], "rt": [13953, 69, 192, 219, 1224], "actions": ["up", "up", "up", "left", "left"], "actionTimes": [16402, 16992, 17698, 18443, 20182], "queries": {"click": {"state": {"target": ["23", "1", "2", "3", "8", "11"], "time": [4359, 6078, 7821, 10388, 11793, 13230]}, "edge": {"target": [], "time": []}}, "mouseover": {"state": {"target": ["23", "23", "23", "1", "12", "2", "3", "10", "3", "8", "11"], "time": [3088, 3424, 4039, 5837, 7281, 7605, 9407, 9671, 10023, 10942, 12422]}, "edge": {"target": [], "time": []}}, "mouseout": {"state": {"target": ["22", "19", "22", "0", "23", "23", "23", "1", "12", "2", "3", "10", "3", "8", "11", "8"], "time": [121, 256, 1587, 2523, 3174, 3572, 4639, 6466, 7341, 8182, 9472, 9953, 10907, 11951, 13622, 13660]}, "edge": {"target": [], "time": []}}}, "displayed_time": "20.71", "trialTime": 22306, "trial_type": "mouselab-mdp", "trial_index": 10, "time_elapsed": 707453, "internal_node_id": "0.0-2.1-2.1-1.1"}}, {"uniqueid": "w52701828:a29935661", "current_trial": 11, "dateTime": 1693565576065, "trialdata": {"view_history": [{"page_index": 0, "viewing_time": 8355}, {"page_index": 1, "viewing_time": 1664}], "rt": 10019, "trial_id": "mouselab_instructions_2_control", "trial_type": "instructions", "trial_index": 11, "time_elapsed": 717477, "internal_node_id": "0.0-2.1-3.1"}}, {"uniqueid": "w52701828:a29935661", "current_trial": 12, "dateTime": 1693565604027, "trialdata": {"rt": 27957, "response": {"Q0": "The cost for clicking on nodes may vary between nodes.", "Q1": "The better I perform the higher my bonus will be.", "Q2": "No, the amount of cash at each node of the web may be different each time.", "Q3": "To get the highest total score.", "Q4": "Only before moving the spider.", "Q5": "3 seconds"}, "question_order": [0, 1, 2, 3, 4, 5], "correct": {"Q0": "The cost for clicking on nodes may vary between nodes.", "Q1": "The better I perform the higher my bonus will be.", "Q2": "No, the amount of cash at each node of the web may be different each time.", "Q3": "To get the highest total score.", "Q4": "Only before moving the spider.", "Q5": "3 seconds"}, "trial_id": "mouselab_quiz_control", "trial_type": "survey-multi-choice", "trial_index": 12, "time_elapsed": 745440, "internal_node_id": "0.0-2.1-4.1"}}, {"uniqueid": "w52701828:a29935661", "current_trial": 13, "dateTime": 1693565611426, "trialdata": {"rt": 7389, "response": {"Q0": "No"}, "question_order": [0], "trial_id": "repeat_check", "trial_type": "survey-multi-choice", "trial_index": 13, "time_elapsed": 752839, "internal_node_id": "0.0-4.0-0.0"}}, {"uniqueid": "w52701828:a29935661", "current_trial": 14, "dateTime": 1693565615693, "trialdata": {"rt": 4259, "stimulus": "\n<h1> Get ready to start the game! </h1>\n\nThank you for reading the instructions. Get ready start with the 40 rounds of this game.\n<br><br>\nIf you need to take a break, feel free to take one after the end of a round, before continuing to the next one.\n<br><br>\nRemember, the more money the spider gets, the bigger your bonus will be!\n<br><br>\n<div style='text-align: center;'>Press <code>space</code> to begin.</div>\n\n<br><br>\n(If, at any point, the <code>space</code> key does not take you to the next page, click once on the text and try again.)", "response": " ", "trial_id": "mdp_ready", "trial_type": "html-keyboard-response", "trial_index": 14, "time_elapsed": 757106, "internal_node_id": "0.0-6.0-0.0"}}, {"uniqueid": "w52701828:a29935661", "current_trial": 15, "dateTime": 1693565635277, "trialdata": {"revealed_states": [], "clicked_states": [], "num_clicks_accrued": [0, 0, 0, 0, 0, 0, 0, 0, 0, 0, 0, 0, 0], "stateRewards": ["", -1, 4, -5, 9, 29, -75, -42, -16, 24, -28, -41, 2, -3, 1, 10, 60, 47, 55, -1, -53, 22, -40, 2, -3, -6, 4, -26, 44, 54, 15, -76, 42, 14], "withholdReward": false, "trial_id": "mdp_trial_1", "block": "test", "trialIndex": 4, "score": -59, "costs": 0, "simulationMode": [null, null, null, null, null], "rewards": [-1, 4, -5, -16, -41], "path": ["0", "0", "1", "2", "3", "8", "11"], "rt": [6807, 971, 409, 390, 223], "actions": ["up", "up", "up", "left", "left"], "actionTimes": [9185, 10676, 11596, 12512, 13260], "queries": {"click": {"state": {"target": [], "time": []}, "edge": {"target": [], "time": []}}, "mouseover": {"state": {"target": ["1", "12"], "time": [5036, 7236]}, "edge": {"target": [], "time": []}}, "mouseout": {"state": {"target": ["5", "7", "1", "1", "12"], "time": [1090, 1269, 1438, 5921, 7487]}, "edge": {"target": [], "time": []}}}, "displayed_time": "16.39", "trialTime": 18886, "trial_type": "mouselab-mdp", "trial_index": 15, "time_elapsed": 776688, "internal_node_id": "0.0-6.0-1.0-0.0"}}, {"uniqueid": "w52701828:a29935661", "current_trial": 16, "dateTime": 1693565660260, "trialdata": {"revealed_states": [], "clicked_states": ["23", "24", "25", "26", "27"], "num_clicks_accrued": [0, 0, 0, 0, 0, 0, 0, 0, 0, 0, 0, 0, 0], "stateRewards": ["", 2, -1, 5, 8, 75, -35, -77, 1, -9, -81, -58, 1, 2, -7, 5, 77, -16, 19, 16, -10, -18, 40, -2, 3, 7, -5, 64, 1, -62, 10, 27, 10, 65], "withholdReward": false, "trial_id": "mdp_trial_2", "block": "test", "trialIndex": 5, "score": 60, "costs": -7, "simulationMode": [null, null, null, null, null], "rewards": [-2, 3, 7, -5, 64], "path": ["0", "0", "23", "24", "25", "26", "27"], "rt": [12913, 357, 349, 995, 330], "actions": ["left", "left", "left", "up", "up"], "actionTimes": [17082, 17951, 18825, 20338, 21190], "queries": {"click": {"state": {"target": ["23", "24", "25", "26", "27"], "time": [4973, 7076, 9116, 11524, 13708]}, "edge": {"target": [], "time": []}}, "mouseover": {"state": {"target": ["23", "24", "25", "25", "26", "10", "27"], "time": [4629, 5987, 7644, 8975, 11242, 12458, 12999]}, "edge": {"target": [], "time": []}}, "mouseout": {"state": {"target": ["12", "23", "24", "25", "25", "26", "10", "27"], "time": [2908, 5741, 7626, 7684, 9691, 12158, 12476, 14094]}, "edge": {"target": [], "time": []}}}, "displayed_time": "21.71", "trialTime": 24241, "trial_type": "mouselab-mdp", "trial_index": 16, "time_elapsed": 801671, "internal_node_id": "0.0-6.0-1.0-1.0"}}, {"uniqueid": "w52701828:a29935661", "current_trial": 17, "dateTime": 1693565680374, "trialdata": {"revealed_states": [], "clicked_states": ["1", "2", "3", "4", "6"], "num_clicks_accrued": [0, 0, 0, 0, 0, 0, 0, 0, 0, 0, 0, 0, 0], "stateRewards": ["", -1, 3, 2, 9, 41, 4, -46, -12, -54, -87, -25, 2, 3, -1, 11, -77, 12, -33, -9, -32, 35, 72, 1, 3, -7, 4, 37, 65, -73, 6, 77, -43, 8], "withholdReward": false, "trial_id": "mdp_trial_3", "block": "test", "trialIndex": 6, "score": 10, "costs": -7, "simulationMode": [null, null, null, null, null], "rewards": [-1, 3, 2, 9, 4], "path": ["0", "0", "1", "2", "3", "4", "6"], "rt": [12079, 157, 117, 458, 107], "actions": ["up", "up", "up", "right", "right"], "actionTimes": [14443, 15106, 15732, 16706, 17322], "queries": {"click": {"state": {"target": ["1", "2", "3", "4", "6"], "time": [3276, 5179, 7083, 9443, 11379]}, "edge": {"target": [], "time": []}}, "mouseover": {"state": {"target": ["1", "2", "2", "3", "4", "6"], "time": [2916, 3813, 4106, 5714, 9065, 10073]}, "edge": {"target": [], "time": []}}, "mouseout": {"state": {"target": ["10", "0", "0", "1", "2", "2", "3", "4", "6"], "time": [1414, 1731, 1883, 3747, 3850, 5552, 8614, 10003, 11813]}, "edge": {"target": [], "time": []}}}, "displayed_time": "17.83", "trialTime": 19378, "trial_type": "mouselab-mdp", "trial_index": 17, "time_elapsed": 821787, "internal_node_id": "0.0-6.0-1.0-2.0"}}, {"uniqueid": "w52701828:a29935661", "current_trial": 18, "dateTime": 1693565702956, "trialdata": {"revealed_states": [], "clicked_states": ["12", "13", "14", "19", "21"], "num_clicks_accrued": [0, 0, 0, 0, 0, 0, 0, 0, 0, 0, 0, 0, 0], "stateRewards": ["", 2, -4, -4, 13, -80, 62, 13, -11, 57, -13, -44, 1, 4, 3, -4, -29, -88, 15, 16, -58, 68, -45, -1, -3, -1, -9, -44, -86, -19, -7, -36, 59, 66], "withholdReward": false, "trial_id": "mdp_trial_4", "block": "test", "trialIndex": 7, "score": 85, "costs": -7, "simulationMode": [null, null, null, null, null], "rewards": [1, 4, 3, 16, 68], "path": ["0", "0", "12", "13", "14", "19", "21"], "rt": [13106, 158, 177, 562, 66], "actions": ["right", "right", "right", "down", "down"], "actionTimes": [17073, 17746, 18448, 19534, 20122], "queries": {"click": {"state": {"target": ["12", "13", "14", "19", "21"], "time": [5979, 7739, 9650, 11603, 13538]}, "edge": {"target": [], "time": []}}, "mouseover": {"state": {"target": ["1", "7", "2", "1", "1", "12", "13", "12", "13", "14", "13", "14", "19", "21"], "time": [3988, 4269, 4373, 4455, 4706, 5588, 5624, 5805, 6231, 6807, 7493, 8537, 10372, 12226]}, "edge": {"target": [], "time": []}}, "mouseout": {"state": {"target": ["16", "18", "1", "7", "2", "1", "1", "12", "13", "12", "13", "14", "13", "14", "19", "19", "21"], "time": [3069, 3137, 4044, 4355, 4437, 4538, 5540, 5607, 5755, 6212, 6772, 7328, 8129, 10020, 11685, 11987, 13667]}, "edge": {"target": [], "time": []}}}, "displayed_time": "20.64", "trialTime": 21797, "trial_type": "mouselab-mdp", "trial_index": 18, "time_elapsed": 844367, "internal_node_id": "0.0-6.0-1.0-3.0"}}, {"uniqueid": "w52701828:a29935661", "current_trial": 19, "dateTime": 1693565720988, "trialdata": {"revealed_states": [], "clicked_states": [], "num_clicks_accrued": [0, 0, 0, 0, 0, 0, 0, 0, 0, 0, 0, 0, 0], "stateRewards": ["", 2, -3, -5, 5, 11, -9, -33, 6, 67, 6, -30, -1, -2, -6, 13, 55, 13, 72, -14, 75, 21, -66, -2, -4, 6, 15, -1, -35, 60, 2, 51, -73, 12], "withholdReward": false, "trial_id": "mdp_trial_5", "block": "test", "trialIndex": 8, "score": 59, "costs": 0, "simulationMode": [null, null, null, null, null], "rewards": [-1, -2, -6, 13, 55], "path": ["0", "0", "12", "13", "14", "15", "16"], "rt": [5584, 89, 196, 398, 12], "actions": ["right", "right", "right", "up", "up"], "actionTimes": [7254, 7866, 8587, 9519, 10055], "queries": {"click": {"state": {"target": [], "time": []}, "edge": {"target": [], "time": []}}, "mouseover": {"state": {"target": ["12", "23", "1", "18", "13", "12", "0", "12", "12", "13", "12", "13", "14", "19"], "time": [1762, 2342, 2677, 3276, 3678, 3876, 4293, 4526, 4728, 5195, 5811, 6345, 6395, 6527]}, "edge": {"target": [], "time": []}}, "mouseout": {"state": {"target": ["0", "12", "23", "1", "18", "13", "12", "0", "12", "12", "13", "12", "13", "14"], "time": [1737, 1930, 2644, 2710, 3576, 3779, 4243, 4509, 4542, 5161, 5776, 6309, 6378, 6492]}, "edge": {"target": [], "time": []}}}, "displayed_time": "15.67", "trialTime": 17301, "trial_type": "mouselab-mdp", "trial_index": 19, "time_elapsed": 862400, "internal_node_id": "0.0-6.0-1.0-4.0"}}, {"uniqueid": "w52701828:a29935661", "current_trial": 20, "dateTime": 1693565753698, "trialdata": {"revealed_states": [], "clicked_states": ["23", "26", "24", "25", "27", "12", "13", "14"], "num_clicks_accrued": [0, 0, 0, 0, 0, 0, 0, 0, 0, 0, 0, 0, 0], "stateRewards": ["", -2, -3, -6, -7, 9, 16, 65, 5, -41, 20, -25, -1, -4, 1, -11, -49, -4, 71, 1, 39, -62, 52, -2, -3, 7, -9, -28, -70, 84, 8, 24, -58, 82], "withholdReward": false, "trial_id": "mdp_trial_6", "block": "test", "trialIndex": 9, "score": -20.200000000000003, "costs": -11.200000000000001, "simulationMode": [null, null, null, null, null], "rewards": [-2, -3, -6, -7, 9], "path": ["0", "0", "1", "2", "3", "4", "5"], "rt": [19361, 202, 337, 439, 447], "actions": ["up", "up", "up", "right", "up"], "actionTimes": [23990, 24707, 25545, 26493, 27452], "queries": {"click": {"state": {"target": ["23", "26", "24", "25", "27", "12", "13", "14"], "time": [6233, 8164, 9945, 12226, 14321, 16929, 18837, 20770]}, "edge": {"target": [], "time": []}}, "mouseover": {"state": {"target": ["23", "23", "24", "25", "26", "27", "24", "25", "25", "0", "12", "12", "28", "27", "1", "12", "13", "13", "12", "13", "14"], "time": [5106, 5420, 6490, 7220, 7786, 8630, 9743, 10420, 11960, 12863, 12934, 13438, 13639, 13906, 14888, 16290, 16326, 16622, 16691, 17905, 19465]}, "edge": {"target": [], "time": []}}, "mouseout": {"state": {"target": ["19", "12", "12", "23", "23", "23", "24", "25", "26", "27", "24", "25", "24", "25", "0", "12", "12", "28", "27", "1", "12", "13", "13", "12", "13", "14"], "time": [1753, 2353, 2670, 3202, 5153, 6469, 7042, 7771, 8504, 9338, 10322, 11538, 11906, 12691, 12914, 13020, 13456, 13707, 14738, 14943, 16309, 16344, 16674, 17270, 19237, 21236]}, "edge": {"target": [], "time": []}}}, "displayed_time": "27.97", "trialTime": 31888, "trial_type": "mouselab-mdp", "trial_index": 20, "time_elapsed": 895109, "internal_node_id": "0.0-6.0-1.0-5.0"}}, {"uniqueid": "w52701828:a29935661", "current_trial": 21, "dateTime": 1693565778918, "trialdata": {"revealed_states": [], "clicked_states": ["1", "2", "3", "8", "9", "11"], "num_clicks_accrued": [0, 0, 0, 0, 0, 0, 0, 0, 0, 0, 0, 0, 0], "stateRewards": ["", -1, 3, 1, -11, -22, -36, 19, -5, -70, -52, 50, -2, -4, 4, -2, -41, -83, 29, -2, 22, 10, -6, -2, 3, -2, 14, 54, 44, 77, -9, -65, -37, -40], "withholdReward": false, "trial_id": "mdp_trial_7", "block": "test", "trialIndex": 10, "score": 39.6, "costs": -8.4, "simulationMode": [null, null, null, null, null], "rewards": [-1, 3, 1, -5, 50], "path": ["0", "0", "1", "2", "3", "8", "11"], "rt": [15676, 685, 374, 188, 792], "actions": ["up", "up", "up", "left", "left"], "actionTimes": [17690, 18884, 19773, 20487, 21791], "queries": {"click": {"state": {"target": ["1", "2", "3", "8", "9", "11"], "time": [2677, 5290, 7214, 10006, 11998, 13918]}, "edge": {"target": [], "time": []}}, "mouseover": {"state": {"target": ["1", "2", "2", "2", "3", "4", "4", "8", "9", "11", "3", "4"], "time": [2500, 3419, 4583, 5249, 6269, 8783, 9183, 9650, 11480, 13382, 14504, 14545]}, "edge": {"target": [], "time": []}}, "mouseout": {"state": {"target": ["0", "1", "2", "2", "2", "3", "4", "4", "3", "8", "9", "11", "8", "3"], "time": [2084, 3089, 4228, 4664, 6198, 8748, 8816, 9203, 9631, 10719, 12982, 14422, 14482, 14524]}, "edge": {"target": [], "time": []}}}, "displayed_time": "22.30", "trialTime": 24384, "trial_type": "mouselab-mdp", "trial_index": 21, "time_elapsed": 920329, "internal_node_id": "0.0-6.0-1.0-6.0"}}, {"uniqueid": "w52701828:a29935661", "current_trial": 22, "dateTime": 1693565813243, "trialdata": {"revealed_states": [], "clicked_states": ["12", "13", "14", "15", "16", "21", "32", "27", "29"], "num_clicks_accrued": [0, 0, 0, 0, 0, 0, 0, 0, 0, 0, 0, 0, 0], "stateRewards": ["", -1, 1, -2, 5, 73, 15, 61, 8, 7, 38, 76, 2, 2, -4, -6, -6, -26, 43, -5, -45, -85, -35, -2, 1, -4, 15, -10, 69, 72, -11, 84, -49, -38], "withholdReward": false, "trial_id": "mdp_trial_8", "block": "test", "trialIndex": 11, "score": 69.4, "costs": -12.600000000000001, "simulationMode": [null, null, null, null, null], "rewards": [-2, 1, -4, 15, 72], "path": ["0", "0", "23", "24", "25", "26", "29"], "rt": [23309, 12, 255, 567, 1463], "actions": ["left", "left", "left", "up", "left"], "actionTimes": [26264, 26799, 27574, 28653, 30632], "queries": {"click": {"state": {"target": ["12", "13", "14", "15", "16", "21", "32", "27", "29"], "time": [4586, 7393, 9441, 11506, 13434, 15338, 18442, 21090, 23338]}, "edge": {"target": [], "time": []}}, "mouseover": {"state": {"target": ["12", "23", "0", "12", "13", "14", "14", "13", "14", "15", "16", "19", "21", "20", "19", "0", "23", "31", "32", "24", "28", "27", "28", "26", "29", "26", "10"], "time": [3068, 3835, 4271, 4317, 4919, 5620, 5897, 7020, 7946, 11323, 12403, 13973, 14501, 15786, 17621, 17738, 17772, 17953, 18104, 20385, 20421, 20652, 22972, 23053, 23103, 23636, 23743]}, "edge": {"target": [], "time": []}}, "mouseout": {"state": {"target": ["4", "7", "12", "23", "0", "12", "13", "14", "14", "13", "14", "15", "16", "15", "14", "19", "21", "20", "19", "0", "23", "31", "32", "24", "28", "27", "28", "26", "29", "26", "10"], "time": [2035, 2068, 3090, 4252, 4289, 4879, 5585, 5805, 7003, 7723, 9904, 12366, 13787, 13860, 13914, 14239, 15719, 17604, 17639, 17756, 17804, 17986, 18717, 20404, 20502, 21488, 23036, 23069, 23585, 23656, 24009]}, "edge": {"target": [], "time": []}}}, "displayed_time": "31.15", "trialTime": 33513, "trial_type": "mouselab-mdp", "trial_index": 22, "time_elapsed": 954654, "internal_node_id": "0.0-6.0-1.0-7.0"}}, {"uniqueid": "w52701828:a29935661", "current_trial": 23, "dateTime": 1693565856288, "trialdata": {"revealed_states": [], "clicked_states": ["29", "27", "32", "33", "31", "22", "21", "20", "14", "17", "16"], "num_clicks_accrued": [0, 0, 0, 0, 0, 0, 0, 0, 0, 0, 0, 0, 0], "stateRewards": ["", -2, 1, -7, -8, -37, -76, -87, 11, 30, -63, 80, -1, 4, 2, -1, 42, 17, 52, -3, -75, -80, -68, 2, -3, -5, -15, -48, 82, 24, -7, 5, -22, -71], "withholdReward": false, "trial_id": "mdp_trial_9", "block": "test", "trialIndex": 12, "score": 30.599999999999998, "costs": -15.400000000000002, "simulationMode": [null, null, null, null, null], "rewards": [-1, 4, 2, -1, 42], "path": ["0", "0", "12", "13", "14", "15", "16"], "rt": [29975, 152, 215, 342, 1029], "actions": ["right", "right", "right", "up", "up"], "actionTimes": [36126, 36798, 37527, 38386, 39941], "queries": {"click": {"state": {"target": ["29", "27", "32", "33", "31", "22", "21", "20", "14", "17", "16"], "time": [7167, 9188, 11721, 13828, 15741, 17789, 19693, 21605, 23885, 25821, 27917]}, "edge": {"target": [], "time": []}}, "mouseover": {"state": {"target": ["24", "24", "25", "26", "29", "26", "28", "27", "27", "26", "25", "30", "32", "33", "30", "31", "22", "19", "21", "20", "14", "17", "16", "18", "13", "0", "12", "22"], "time": [6377, 6478, 6695, 6958, 7078, 7533, 7583, 7819, 8103, 9565, 9659, 9711, 11543, 12884, 14263, 14673, 16784, 18080, 18876, 20653, 22146, 24479, 26694, 34111, 34163, 34630, 35313, 35397]}, "edge": {"target": [], "time": []}}, "mouseout": {"state": {"target": ["8", "24", "24", "25", "26", "29", "26", "28", "27", "27", "26", "25", "30", "32", "33", "30", "31", "22", "22", "19", "21", "20", "14", "17", "16", "18", "13", "0", "12"], "time": [1642, 6412, 6543, 6726, 6975, 7478, 7564, 7603, 7854, 9528, 9628, 9690, 9831, 12010, 14227, 14367, 16078, 17909, 18044, 18100, 20010, 21907, 24227, 26410, 28468, 34130, 34229, 35294, 35331]}, "edge": {"target": [], "time": []}}}, "displayed_time": "40.46", "trialTime": 42232, "trial_type": "mouselab-mdp", "trial_index": 23, "time_elapsed": 997699, "internal_node_id": "0.0-6.0-1.0-8.0"}}, {"uniqueid": "w52701828:a29935661", "current_trial": 24, "dateTime": 1693565879700, "trialdata": {"revealed_states": [], "clicked_states": ["9", "5", "11", "27", "29"], "num_clicks_accrued": [0, 0, 0, 0, 0, 0, 0, 0, 0, 0, 0, 0, 0], "stateRewards": ["", 1, 2, 2, -15, -84, 28, -26, 13, 31, 86, 30, -2, 1, -1, -8, 66, -40, -1, -10, -32, 57, -17, 1, 2, -2, 9, -23, 77, 85, 12, -32, -62, -35], "withholdReward": false, "trial_id": "mdp_trial_10", "block": "test", "trialIndex": 13, "score": 88, "costs": -7, "simulationMode": [null, null, null, null, null], "rewards": [1, 2, -2, 9, 85], "path": ["0", "0", "23", "24", "25", "26", "29"], "rt": [14045, 733, 336, 564, 1413], "actions": ["left", "left", "left", "up", "left"], "actionTimes": [15259, 16501, 17356, 18433, 20365], "queries": {"click": {"state": {"target": ["9", "5", "11", "27", "29"], "time": [2139, 4499, 7283, 9523, 11451]}, "edge": {"target": [], "time": []}}, "mouseover": {"state": {"target": ["4", "9", "5", "6", "4", "3", "8", "11", "27", "29", "26", "26", "28"], "time": [1308, 1868, 2465, 6501, 6738, 6853, 6917, 7003, 8213, 10236, 11889, 12437, 12923]}, "edge": {"target": [], "time": []}}, "mouseout": {"state": {"target": ["22", "12", "4", "9", "5", "6", "4", "3", "8", "11", "27", "29", "26", "26"], "time": [292, 353, 1468, 2264, 4890, 6538, 6769, 6900, 6952, 7769, 9836, 11572, 11977, 12785]}, "edge": {"target": [], "time": []}}}, "displayed_time": "20.89", "trialTime": 22602, "trial_type": "mouselab-mdp", "trial_index": 24, "time_elapsed": 1021112, "internal_node_id": "0.0-6.0-1.0-9.0"}}, {"uniqueid": "w52701828:a29935661", "current_trial": 25, "dateTime": 1693565898246, "trialdata": {"revealed_states": [], "clicked_states": ["9", "5"], "num_clicks_accrued": [0, 0, 0, 0, 0, 0, 0, 0, 0, 0, 0, 0, 0], "stateRewards": ["", 1, 2, 8, -2, 23, -69, -18, -16, 54, -21, 71, -1, -4, 7, 11, 43, -6, 88, 6, -55, 72, 43, 1, -3, -2, -1, 68, -31, -54, 4, -8, 25, -2], "withholdReward": false, "trial_id": "mdp_trial_11", "block": "test", "trialIndex": 14, "score": 63.2, "costs": -2.8, "simulationMode": [null, null, null, null, null], "rewards": [1, 2, 8, -16, 71], "path": ["0", "0", "1", "2", "3", "8", "11"], "rt": [7136, 938, 298, 771, 51], "actions": ["up", "up", "up", "left", "left"], "actionTimes": [9671, 11102, 11911, 13201, 13764], "queries": {"click": {"state": {"target": ["9", "5"], "time": [4269, 6420]}, "edge": {"target": [], "time": []}}, "mouseover": {"state": {"target": ["10", "10", "8", "9", "5"], "time": [3381, 3482, 3579, 4014, 4644]}, "edge": {"target": [], "time": []}}, "mouseout": {"state": {"target": ["28", "23", "0", "0", "10", "10", "8", "9", "5"], "time": [1478, 1710, 1760, 3214, 3463, 3500, 3662, 4566, 6814]}, "edge": {"target": [], "time": []}}}, "displayed_time": "16.54", "trialTime": 17724, "trial_type": "mouselab-mdp", "trial_index": 25, "time_elapsed": 1039657, "internal_node_id": "0.0-6.0-1.0-10.0"}}, {"uniqueid": "w52701828:a29935661", "current_trial": 26, "dateTime": 1693565925855, "trialdata": {"revealed_states": [], "clicked_states": ["29", "11", "9", "5", "6", "17"], "num_clicks_accrued": [0, 0, 0, 0, 0, 0, 0, 0, 0, 0, 0, 0, 0], "stateRewards": ["", -1, 3, -5, -2, -13, -9, -34, -7, -81, 32, 35, -2, -2, 1, -14, -32, 81, 7, 4, 82, 56, -8, -1, 3, -8, 6, -24, -24, -53, 2, 38, 61, 54], "withholdReward": false, "trial_id": "mdp_trial_12", "block": "test", "trialIndex": 15, "score": 55.6, "costs": -8.4, "simulationMode": [null, null, null, null, null], "rewards": [-2, -2, 1, -14, 81], "path": ["0", "0", "12", "13", "14", "15", "17"], "rt": [16157, 45, 208, 497, 172], "actions": ["right", "right", "right", "up", "right"], "actionTimes": [18961, 19528, 20258, 21281, 21955], "queries": {"click": {"state": {"target": ["29", "11", "9", "5", "6", "17"], "time": [5306, 7249, 9313, 11266, 13201, 15674]}, "edge": {"target": [], "time": []}}, "mouseover": {"state": {"target": ["1", "0", "23", "26", "29", "11", "11", "9", "5", "6", "16", "17", "16"], "time": [3536, 4266, 4531, 4867, 5066, 5721, 6137, 7639, 9705, 11891, 13802, 15434, 16154]}, "edge": {"target": [], "time": []}}, "mouseout": {"state": {"target": ["1", "0", "23", "26", "29", "11", "11", "9", "5", "6", "16", "17", "16", "18", "13", "12"], "time": [4200, 4466, 4633, 4932, 5576, 5760, 7411, 9450, 11821, 13709, 15133, 16031, 25467, 25581, 25765, 25850]}, "edge": {"target": [], "time": []}}}, "displayed_time": "22.47", "trialTime": 26785, "trial_type": "mouselab-mdp", "trial_index": 26, "time_elapsed": 1067266, "internal_node_id": "0.0-6.0-1.0-11.0"}}, {"uniqueid": "w52701828:a29935661", "current_trial": 27, "dateTime": 1693565946749, "trialdata": {"revealed_states": [], "clicked_states": ["23", "27", "9", "5", "16"], "num_clicks_accrued": [0, 0, 0, 0, 0, 0, 0, 0, 0, 0, 0, 0, 0], "stateRewards": ["", 1, 4, -4, 14, 35, 51, 19, -13, 54, 78, -74, -2, -1, -3, 13, -11, -42, -73, -15, -24, -3, -69, 2, -1, 5, 16, -27, 73, 58, 9, -60, 5, -60], "withholdReward": false, "trial_id": "mdp_trial_13", "block": "test", "trialIndex": 16, "score": 35, "costs": -7, "simulationMode": [null, null, null, null, null], "rewards": [1, 4, -4, -13, 54], "path": ["0", "0", "1", "2", "3", "8", "9"], "rt": [13086, 277, 215, 460, 88], "actions": ["up", "up", "up", "left", "up"], "actionTimes": [14579, 15374, 16110, 17088, 17698], "queries": {"click": {"state": {"target": ["23", "27", "9", "5", "16"], "time": [3852, 5804, 7636, 9660, 12176]}, "edge": {"target": [], "time": []}}, "mouseover": {"state": {"target": ["1", "0", "23", "24", "26", "27", "11", "9", "5", "6", "16"], "time": [2029, 2493, 3677, 4404, 4762, 5177, 6663, 7001, 8437, 10101, 11996]}, "edge": {"target": [], "time": []}}, "mouseout": {"state": {"target": ["12", "0", "1", "0", "23", "24", "26", "27", "11", "9", "5", "6", "16"], "time": [628, 708, 2126, 3378, 4251, 4713, 4793, 6210, 6683, 8095, 10045, 10122, 12494]}, "edge": {"target": [], "time": []}}}, "displayed_time": "18.21", "trialTime": 20072, "trial_type": "mouselab-mdp", "trial_index": 27, "time_elapsed": 1088160, "internal_node_id": "0.0-6.0-1.0-12.0"}}, {"uniqueid": "w52701828:a29935661", "current_trial": 28, "dateTime": 1693565969899, "trialdata": {"revealed_states": [], "clicked_states": ["9", "5", "16", "17", "27", "29"], "num_clicks_accrued": [0, 0, 0, 0, 0, 0, 0, 0, 0, 0, 0, 0, 0], "stateRewards": ["", 1, -1, -7, -7, -22, 15, -13, 13, 26, -32, 38, -1, 1, -7, -4, 16, -62, 86, 12, -54, 56, 64, -2, -1, 6, 14, -57, 37, 62, -6, -25, 50, -70], "withholdReward": false, "trial_id": "mdp_trial_14", "block": "test", "trialIndex": 17, "score": 70.6, "costs": -8.4, "simulationMode": [null, null, null, null, null], "rewards": [-2, -1, 6, 14, 62], "path": ["0", "0", "23", "24", "25", "26", "29"], "rt": [14264, 12, 128, 984, 1394], "actions": ["left", "left", "left", "up", "left"], "actionTimes": [15843, 16381, 17052, 18548, 20456], "queries": {"click": {"state": {"target": ["9", "5", "16", "17", "27", "29"], "time": [2778, 4977, 6889, 8914, 11058, 12945]}, "edge": {"target": [], "time": []}}, "mouseover": {"state": {"target": ["1", "3", "9", "9", "5", "6", "16", "16", "17", "15", "18", "10", "27", "11", "26", "29", "26", "10"], "time": [2114, 2297, 2412, 2564, 3279, 5395, 5567, 5853, 7279, 9220, 9260, 9355, 9776, 11499, 11974, 12153, 13218, 13382]}, "edge": {"target": [], "time": []}}, "mouseout": {"state": {"target": ["19", "0", "1", "3", "9", "9", "5", "6", "16", "16", "17", "15", "18", "10", "27", "11", "26", "29", "26"], "time": [410, 1893, 2179, 2346, 2445, 3083, 5331, 5511, 5604, 7189, 9200, 9241, 9281, 9393, 11444, 11739, 12011, 13180, 13239]}, "edge": {"target": [], "time": []}}}, "displayed_time": "20.98", "trialTime": 22307, "trial_type": "mouselab-mdp", "trial_index": 28, "time_elapsed": 1111310, "internal_node_id": "0.0-6.0-1.0-13.0"}}, {"uniqueid": "w52701828:a29935661", "current_trial": 29, "dateTime": 1693565990387, "trialdata": {"revealed_states": [], "clicked_states": [], "num_clicks_accrued": [0, 0, 0, 0, 0, 0, 0, 0, 0, 0, 0, 0, 0], "stateRewards": ["", 1, -2, 7, -14, 88, -56, -44, -14, 64, -51, -57, -2, 3, -4, -9, -11, 19, -77, -1, 68, 75, -67, -1, 1, -2, 5, -37, 70, -34, -10, -72, 63, -41], "withholdReward": false, "trial_id": "mdp_trial_15", "block": "test", "trialIndex": 18, "score": 56, "costs": 0, "simulationMode": [null, null, null, null, null], "rewards": [1, -2, 7, -14, 64], "path": ["0", "0", "1", "2", "3", "8", "9"], "rt": [12320, 672, 75, 297, 135], "actions": ["up", "up", "up", "left", "up"], "actionTimes": [14060, 15250, 15860, 16692, 17341], "queries": {"click": {"state": {"target": [], "time": []}, "edge": {"target": [], "time": []}}, "mouseover": {"state": {"target": ["28", "1", "2", "2", "1", "2", "3", "3", "9", "5", "5", "9", "4", "12", "22", "22", "22", "18", "4", "3", "3", "9", "3", "7", "18"], "time": [2222, 2540, 3086, 3857, 4125, 4742, 4854, 4973, 5308, 5790, 6037, 6708, 7190, 7523, 9254, 10703, 11623, 11661, 11771, 11874, 11989, 12071, 12705, 12760, 12923]}, "edge": {"target": [], "time": []}}, "mouseout": {"state": {"target": ["10", "28", "1", "2", "2", "1", "2", "3", "3", "9", "5", "5", "9", "4", "12", "22", "22", "22", "18", "4", "3", "3", "9", "3", "7", "18"], "time": [88, 2357, 3037, 3102, 4055, 4722, 4789, 4873, 4993, 5725, 5824, 6092, 7107, 7210, 7557, 9604, 10757, 11643, 11679, 11792, 11940, 12005, 12674, 12741, 12778, 13072]}, "edge": {"target": [], "time": []}}}, "displayed_time": "17.86", "trialTime": 19637, "trial_type": "mouselab-mdp", "trial_index": 29, "time_elapsed": 1131798, "internal_node_id": "0.0-6.0-1.0-14.0"}}, {"uniqueid": "w52701828:a29935661", "current_trial": 30, "dateTime": 1693566020117, "trialdata": {"revealed_states": [], "clicked_states": ["5", "9", "27", "29", "17", "16", "6"], "num_clicks_accrued": [0, 0, 0, 0, 0, 0, 0, 0, 0, 0, 0, 0, 0], "stateRewards": ["", 1, -2, -8, -13, 4, 34, -84, -4, -49, 88, -70, -1, 3, -4, 10, -77, 13, -34, 15, -21, -16, 27, 1, -2, 8, -8, -6, 38, -26, 6, -15, 66, -3], "withholdReward": false, "trial_id": "mdp_trial_16", "block": "test", "trialIndex": 19, "score": 2.1999999999999993, "costs": -9.8, "simulationMode": [null, null, null, null, null], "rewards": [1, -2, -8, -13, 34], "path": ["0", "0", "1", "2", "3", "4", "6"], "rt": [19801, 759, 201, 496, 16], "actions": ["up", "up", "up", "right", "right"], "actionTimes": [22502, 23775, 24498, 25510, 26047], "queries": {"click": {"state": {"target": ["5", "9", "27", "29", "17", "16", "6"], "time": [5464, 7400, 9728, 11608, 14848, 16944, 19592]}, "edge": {"target": [], "time": []}}, "mouseover": {"state": {"target": ["18", "18", "18", "5", "9", "8", "27", "29", "26", "28", "1", "15", "17", "16", "17", "16", "18", "6"], "time": [2801, 3197, 4650, 5162, 6214, 7872, 9363, 10222, 11956, 12011, 12051, 12265, 12425, 13798, 13982, 15180, 17609, 19065]}, "edge": {"target": [], "time": []}}, "mouseout": {"state": {"target": ["18", "12", "18", "18", "18", "5", "9", "9", "8", "27", "29", "26", "28", "1", "15", "17", "16", "17", "16", "18", "6"], "time": [1781, 2032, 2822, 4631, 4670, 5593, 7564, 7833, 7894, 10091, 11903, 11991, 12031, 12072, 12386, 13631, 13913, 15103, 17535, 17812, 19901]}, "edge": {"target": [], "time": []}}}, "displayed_time": "26.58", "trialTime": 28859, "trial_type": "mouselab-mdp", "trial_index": 30, "time_elapsed": 1161528, "internal_node_id": "0.0-6.0-1.0-15.0"}}, {"uniqueid": "w52701828:a29935661", "current_trial": 31, "dateTime": 1693566041079, "trialdata": {"revealed_states": [], "clicked_states": ["5"], "num_clicks_accrued": [0, 0, 0, 0, 0, 0, 0, 0, 0, 0, 0, 0, 0], "stateRewards": ["", 1, 3, 1, -13, 52, -28, 67, -14, 3, 63, -70, -1, -4, 7, -11, -10, 47, -18, 6, 69, -9, -61, 2, 3, -6, 10, 63, -34, 40, -6, -79, -35, -32], "withholdReward": false, "trial_id": "mdp_trial_17", "block": "test", "trialIndex": 20, "score": 42.6, "costs": -1.4, "simulationMode": [null, null, null, null, null], "rewards": [1, 3, 1, -13, 52], "path": ["0", "0", "1", "2", "3", "4", "5"], "rt": [4658, 397, 324, 149, 211], "actions": ["up", "up", "up", "right", "up"], "actionTimes": [9702, 10610, 11437, 12111, 12839], "queries": {"click": {"state": {"target": ["5"], "time": [6362]}, "edge": {"target": [], "time": []}}, "mouseover": {"state": {"target": ["1", "1", "6", "5", "5", "6"], "time": [5069, 5531, 5847, 6011, 6162, 6910]}, "edge": {"target": [], "time": []}}, "mouseout": {"state": {"target": ["2", "2", "1", "1", "6", "5", "5"], "time": [578, 3327, 5297, 5745, 5962, 6044, 6624]}, "edge": {"target": [], "time": []}}}, "displayed_time": "19.05", "trialTime": 20085, "trial_type": "mouselab-mdp", "trial_index": 31, "time_elapsed": 1182490, "internal_node_id": "0.0-6.0-1.0-16.0"}}, {"uniqueid": "w52701828:a29935661", "current_trial": 32, "dateTime": 1693566062322, "trialdata": {"revealed_states": [], "clicked_states": ["9"], "num_clicks_accrued": [0, 0, 0, 0, 0, 0, 0, 0, 0, 0, 0, 0, 0], "stateRewards": ["", -1, -4, -6, -15, 21, -67, -63, 9, 51, 69, -14, -1, 3, 8, -8, 39, 72, 63, 15, 19, 47, 15, 1, 4, 5, 16, -18, 34, 35, -14, -80, 40, 1], "withholdReward": false, "trial_id": "mdp_trial_18", "block": "test", "trialIndex": 21, "score": 47.6, "costs": -1.4, "simulationMode": [null, null, null, null, null], "rewards": [-1, -4, -6, 9, 51], "path": ["0", "0", "1", "2", "3", "8", "9"], "rt": [4946, 556, 208, 186, 685], "actions": ["up", "up", "up", "left", "up"], "actionTimes": [9707, 10766, 11485, 12197, 13395], "queries": {"click": {"state": {"target": ["9"], "time": [6436]}, "edge": {"target": [], "time": []}}, "mouseover": {"state": {"target": ["2", "3", "9", "9", "8", "3"], "time": [5542, 5844, 5962, 6176, 6981, 8731]}, "edge": {"target": [], "time": []}}, "mouseout": {"state": {"target": ["6", "7", "0", "2", "3", "9", "9", "8", "3", "6", "6", "12", "18", "13"], "time": [1444, 1808, 2492, 5592, 5908, 5980, 6925, 8726, 8750, 15794, 16091, 16758, 17044, 17725]}, "edge": {"target": [], "time": []}}}, "displayed_time": "18.77", "trialTime": 20257, "trial_type": "mouselab-mdp", "trial_index": 32, "time_elapsed": 1203733, "internal_node_id": "0.0-6.0-1.0-17.0"}}, {"uniqueid": "w52701828:a29935661", "current_trial": 33, "dateTime": 1693566090380, "trialdata": {"revealed_states": [], "clicked_states": ["9", "5", "16", "17", "27", "29"], "num_clicks_accrued": [0, 0, 0, 0, 0, 0, 0, 0, 0, 0, 0, 0, 0], "stateRewards": ["", 1, 2, -3, 6, -88, 74, -45, 7, -46, 40, -77, 1, -4, 4, 3, 22, -25, -59, 8, -83, 19, -60, -1, -1, -1, -8, 26, -29, 64, -7, -88, -51, -55], "withholdReward": false, "trial_id": "mdp_trial_19", "block": "test", "trialIndex": 22, "score": 44.6, "costs": -8.4, "simulationMode": [null, null, null, null, null], "rewards": [-1, -1, -1, -8, 64], "path": ["0", "0", "23", "24", "25", "26", "29"], "rt": [14847, 1085, 307, 1048, 1946], "actions": ["left", "left", "left", "up", "left"], "actionTimes": [16310, 17918, 18742, 20299, 22765], "queries": {"click": {"state": {"target": ["9", "5", "16", "17", "27", "29"], "time": [2722, 5482, 7361, 9313, 11225, 13521]}, "edge": {"target": [], "time": []}}, "mouseover": {"state": {"target": ["7", "10", "2", "8", "11", "11", "9", "9", "9", "5", "6", "5", "6", "16", "17", "15", "18", "27", "29", "28", "18", "15"], "time": [1518, 1699, 1784, 2001, 2039, 2184, 2208, 2335, 2552, 3204, 4984, 5151, 5783, 6003, 7745, 9659, 9703, 10375, 11628, 14107, 14175, 14223]}, "edge": {"target": [], "time": []}}, "mouseout": {"state": {"target": ["13", "18", "7", "7", "10", "2", "8", "11", "11", "9", "9", "9", "5", "6", "5", "6", "16", "17", "15", "18", "27", "29", "28", "18", "15", "17"], "time": [66, 114, 433, 1550, 1718, 1915, 2020, 2058, 2206, 2232, 2367, 2927, 4154, 5102, 5762, 5824, 7686, 9638, 9680, 9779, 11514, 14086, 14130, 14220, 25700, 26103]}, "edge": {"target": [], "time": []}}}, "displayed_time": "23.29", "trialTime": 27089, "trial_type": "mouselab-mdp", "trial_index": 33, "time_elapsed": 1231791, "internal_node_id": "0.0-6.0-1.0-18.0"}}, {"uniqueid": "w52701828:a29935661", "current_trial": 34, "dateTime": 1693566108249, "trialdata": {"revealed_states": [], "clicked_states": [], "num_clicks_accrued": [0, 0, 0, 0, 0, 0, 0, 0, 0, 0, 0, 0, 0], "stateRewards": ["", 2, -3, -8, 14, -7, -51, 73, 2, 36, 36, -43, -1, 3, -4, 1, 6, 87, -65, 15, 61, -42, -83, -1, 3, -2, -7, 30, -48, 35, 13, 26, 60, 78], "withholdReward": false, "trial_id": "mdp_trial_20", "block": "test", "trialIndex": 23, "score": -2, "costs": 0, "simulationMode": [null, null, null, null, null], "rewards": [2, -3, -8, 14, -7], "path": ["0", "0", "1", "2", "3", "4", "5"], "rt": [9375, 53, 49, 159, 385], "actions": ["up", "up", "up", "right", "up"], "actionTimes": [10851, 11400, 11964, 12655, 13565], "queries": {"click": {"state": {"target": [], "time": []}, "edge": {"target": [], "time": []}}, "mouseover": {"state": {"target": ["4", "3", "3", "3", "1", "23", "28", "28", "10", "9", "9", "3", "4"], "time": [1560, 1616, 1829, 7179, 7364, 8397, 8465, 8509, 8568, 8963, 9212, 9830, 9897]}, "edge": {"target": [], "time": []}}, "mouseout": {"state": {"target": ["6", "1", "4", "3", "3", "3", "1", "23", "28", "28", "10", "9", "9", "3", "4"], "time": [146, 627, 1595, 1645, 1850, 7298, 7382, 8418, 8484, 8548, 8587, 8997, 9699, 9851, 9916]}, "edge": {"target": [], "time": []}}}, "displayed_time": "15.48", "trialTime": 16887, "trial_type": "mouselab-mdp", "trial_index": 34, "time_elapsed": 1249660, "internal_node_id": "0.0-6.0-1.0-19.0"}}, {"uniqueid": "w52701828:a29935661", "current_trial": 35, "dateTime": 1693566126178, "trialdata": {"revealed_states": [], "clicked_states": ["29"], "num_clicks_accrued": [0, 0, 0, 0, 0, 0, 0, 0, 0, 0, 0, 0, 0], "stateRewards": ["", 1, 1, 1, 15, -76, 52, -32, 14, -57, 37, 49, 1, -4, -3, 6, 83, -76, 25, 9, 36, -1, -17, -1, 4, 4, -2, -22, -21, 58, -15, -57, 49, -24], "withholdReward": false, "trial_id": "mdp_trial_21", "block": "test", "trialIndex": 24, "score": 61.6, "costs": -1.4, "simulationMode": [null, null, null, null, null], "rewards": [-1, 4, 4, -2, 58], "path": ["0", "0", "23", "24", "25", "26", "29"], "rt": [5608, 129, 228, 568, 832], "actions": ["left", "left", "left", "up", "left"], "actionTimes": [8092, 8738, 9486, 10577, 11923], "queries": {"click": {"state": {"target": ["29"], "time": [4981]}, "edge": {"target": [], "time": []}}, "mouseover": {"state": {"target": ["26", "29"], "time": [4624, 4823]}, "edge": {"target": [], "time": []}}, "mouseout": {"state": {"target": ["7", "26", "29"], "time": [1505, 4647, 5324]}, "edge": {"target": [], "time": []}}}, "displayed_time": "16.49", "trialTime": 16892, "trial_type": "mouselab-mdp", "trial_index": 35, "time_elapsed": 1267589, "internal_node_id": "0.0-6.0-1.0-20.0"}}, {"uniqueid": "w52701828:a29935661", "current_trial": 36, "dateTime": 1693566152516, "trialdata": {"revealed_states": [], "clicked_states": ["5", "9", "27", "29"], "num_clicks_accrued": [0, 0, 0, 0, 0, 0, 0, 0, 0, 0, 0, 0, 0], "stateRewards": ["", 1, -1, 4, -2, -75, -75, 84, -9, -60, -79, 59, 2, -4, 8, 9, -17, -82, 80, 14, -4, 49, 49, -1, 3, 6, -11, -33, 34, 55, 9, -57, 5, 59], "withholdReward": false, "trial_id": "mdp_trial_22", "block": "test", "trialIndex": 25, "score": 46.4, "costs": -5.6, "simulationMode": [null, null, null, null, null], "rewards": [-1, 3, 6, -11, 55], "path": ["0", "0", "23", "24", "25", "26", "29"], "rt": [12767, 607, 212, 557, 797], "actions": ["left", "left", "left", "up", "left"], "actionTimes": [16788, 17909, 18631, 19711, 21017], "queries": {"click": {"state": {"target": ["5", "9", "27", "29"], "time": [5242, 8250, 10874, 13626]}, "edge": {"target": [], "time": []}}, "mouseover": {"state": {"target": ["1", "2", "4", "5", "9", "11", "27", "29", "26", "15", "17", "17"], "time": [4219, 4553, 4739, 5004, 5852, 10305, 10570, 11609, 14060, 14140, 14163, 14511]}, "edge": {"target": [], "time": []}}, "mouseout": {"state": {"target": ["10", "2", "1", "1", "2", "4", "5", "9", "11", "27", "27", "29", "26", "15", "17"], "time": [2904, 3083, 3218, 4254, 4603, 4803, 5469, 10255, 10355, 11000, 11256, 13923, 14082, 14161, 14185]}, "edge": {"target": [], "time": []}}}, "displayed_time": "21.54", "trialTime": 25375, "trial_type": "mouselab-mdp", "trial_index": 36, "time_elapsed": 1293927, "internal_node_id": "0.0-6.0-1.0-21.0"}}, {"uniqueid": "w52701828:a29935661", "current_trial": 37, "dateTime": 1693566191726, "trialdata": {"revealed_states": [], "clicked_states": ["9", "5", "16", "17", "29", "27", "18", "20", "21", "22", "31", "32"], "num_clicks_accrued": [0, 0, 0, 0, 0, 0, 0, 0, 0, 0, 0, 0, 0], "stateRewards": ["", -1, 2, -6, 6, -82, -19, -39, -16, -83, 11, -33, -2, -2, 4, -6, -82, -1, -19, -6, -10, -67, -41, -2, 1, -7, 16, -23, -78, -52, 14, 31, -71, 74], "withholdReward": false, "trial_id": "mdp_trial_23", "block": "test", "trialIndex": 26, "score": 20.2, "costs": -16.8, "simulationMode": [null, null, null, null, null], "rewards": [-2, 1, -7, 14, 31], "path": ["0", "0", "23", "24", "25", "30", "31"], "rt": [26354, 1219, 330, 193, 525], "actions": ["left", "left", "left", "down", "right"], "actionTimes": [31584, 33320, 34163, 34877, 35925], "queries": {"click": {"state": {"target": ["9", "5", "16", "17", "29", "27", "18", "20", "21", "22", "31", "32"], "time": [6816, 8892, 10824, 12808, 15279, 17184, 19056, 20960, 22864, 24776, 27280, 29640]}, "edge": {"target": [], "time": []}}, "mouseover": {"state": {"target": ["1", "10", "8", "9", "5", "5", "6", "16", "16", "16", "17", "15", "1", "26", "29", "27", "1", "18", "18", "13", "19", "20", "21", "22", "31", "30", "31", "32"], "time": [5714, 6366, 6436, 6682, 7254, 8702, 9330, 9449, 9858, 10481, 11834, 13201, 14785, 14832, 15033, 15581, 17498, 17821, 18035, 19482, 19866, 20107, 21930, 23260, 26850, 26915, 27167, 28410]}, "edge": {"target": [], "time": []}}, "mouseout": {"state": {"target": ["17", "17", "15", "15", "18", "1", "0", "1", "10", "8", "9", "5", "5", "6", "16", "16", "16", "17", "17", "15", "1", "26", "29", "27", "1", "18", "18", "13", "19", "20", "21", "22", "31", "30", "31", "32"], "time": [1448, 1815, 2697, 3498, 3535, 4416, 5255, 6336, 6416, 6484, 7159, 8552, 9289, 9370, 9664, 9898, 11154, 12903, 13162, 13223, 14806, 14900, 15467, 17419, 17520, 17861, 19442, 19680, 19906, 21371, 23201, 25173, 26883, 27081, 27623, 29836]}, "edge": {"target": [], "time": []}}}, "displayed_time": "36.45", "trialTime": 38215, "trial_type": "mouselab-mdp", "trial_index": 37, "time_elapsed": 1333137, "internal_node_id": "0.0-6.0-1.0-22.0"}}, {"uniqueid": "w52701828:a29935661", "current_trial": 38, "dateTime": 1693566208712, "trialdata": {"revealed_states": [], "clicked_states": ["21", "20"], "num_clicks_accrued": [0, 0, 0, 0, 0, 0, 0, 0, 0, 0, 0, 0, 0], "stateRewards": ["", -1, 2, 6, 11, 21, -21, -21, -6, 48, -71, 88, -1, -3, 3, 7, 64, 2, 9, -4, 37, -67, 72, 2, 2, -8, -8, -10, 71, -40, -3, 73, 80, 47], "withholdReward": false, "trial_id": "mdp_trial_24", "block": "test", "trialIndex": 27, "score": 29.2, "costs": -2.8, "simulationMode": [null, null, null, null, null], "rewards": [-1, -3, 3, -4, 37], "path": ["0", "0", "12", "13", "14", "19", "20"], "rt": [6296, 802, 263, 296, 891], "actions": ["right", "right", "right", "down", "right"], "actionTimes": [7661, 9007, 9787, 10604, 12016], "queries": {"click": {"state": {"target": ["21", "20"], "time": [2423, 4369]}, "edge": {"target": [], "time": []}}, "mouseover": {"state": {"target": ["22", "21", "19", "20", "20", "19", "22", "22", "32"], "time": [1945, 2200, 2893, 2917, 3293, 4620, 4945, 5252, 5746]}, "edge": {"target": [], "time": []}}, "mouseout": {"state": {"target": ["24", "31", "24", "23", "0", "22", "21", "19", "20", "20", "19", "22", "22", "32"], "time": [127, 425, 510, 596, 1484, 1966, 2683, 2915, 2943, 4592, 4688, 5107, 5358, 13387]}, "edge": {"target": [], "time": []}}}, "displayed_time": "15.37", "trialTime": 16061, "trial_type": "mouselab-mdp", "trial_index": 38, "time_elapsed": 1350123, "internal_node_id": "0.0-6.0-1.0-23.0"}}, {"uniqueid": "w52701828:a29935661", "current_trial": 39, "dateTime": 1693566226984, "trialdata": {"revealed_states": [], "clicked_states": ["29"], "num_clicks_accrued": [0, 0, 0, 0, 0, 0, 0, 0, 0, 0, 0, 0, 0], "stateRewards": ["", 2, -4, 7, 3, 23, -42, 4, 7, -81, -33, 7, -2, -4, 5, -1, 50, -57, -14, -13, -14, 44, 55, -2, -2, 5, -2, 33, 1, 57, -13, -7, 58, 87], "withholdReward": false, "trial_id": "mdp_trial_25", "block": "test", "trialIndex": 28, "score": 54.6, "costs": -1.4, "simulationMode": [null, null, null, null, null], "rewards": [-2, -2, 5, -2, 57], "path": ["0", "0", "23", "24", "25", "26", "29"], "rt": [5174, 738, 778, 550, 1380], "actions": ["left", "left", "left", "up", "left"], "actionTimes": [8185, 9467, 10775, 11841, 13740], "queries": {"click": {"state": {"target": ["29"], "time": [5088]}, "edge": {"target": [], "time": []}}, "mouseover": {"state": {"target": ["12", "18", "1", "1", "24", "23", "24", "25", "25", "29", "26", "27"], "time": [3100, 3205, 3425, 3739, 4055, 4376, 4491, 4543, 4706, 4892, 5470, 6022]}, "edge": {"target": [], "time": []}}, "mouseout": {"state": {"target": ["23", "0", "12", "18", "1", "1", "24", "23", "24", "25", "25", "29", "26", "27"], "time": [2139, 3040, 3153, 3307, 3475, 3758, 4328, 4455, 4524, 4588, 4774, 5401, 5534, 7339]}, "edge": {"target": [], "time": []}}}, "displayed_time": "17.02", "trialTime": 17322, "trial_type": "mouselab-mdp", "trial_index": 39, "time_elapsed": 1368395, "internal_node_id": "0.0-6.0-1.0-24.0"}}, {"uniqueid": "w52701828:a29935661", "current_trial": 40, "dateTime": 1693566265173, "trialdata": {"revealed_states": [], "clicked_states": ["5", "9", "27", "29", "28", "33"], "num_clicks_accrued": [0, 0, 0, 0, 0, 0, 0, 0, 0, 0, 0, 0, 0], "stateRewards": ["", -2, -4, -6, 12, -58, -70, -80, 2, 16, -88, -62, 1, 2, -5, 11, 77, -35, -44, -5, 18, -83, 87, 1, -3, -5, 13, -44, -21, -86, 10, -52, 8, 29], "withholdReward": false, "trial_id": "mdp_trial_26", "block": "test", "trialIndex": 29, "score": 23.6, "costs": -8.4, "simulationMode": [null, null, null, null, null], "rewards": [1, -3, -5, 10, 29], "path": ["0", "0", "23", "24", "25", "30", "33"], "rt": [15022, 86, 259, 84, 163], "actions": ["left", "left", "left", "down", "left"], "actionTimes": [27313, 27909, 28687, 29289, 30026], "queries": {"click": {"state": {"target": ["5", "9", "27", "29", "28", "33"], "time": [13688, 15615, 17791, 19694, 21639, 24152]}, "edge": {"target": [], "time": []}}, "mouseover": {"state": {"target": ["0", "1", "2", "3", "5", "9", "11", "27", "29", "25", "28", "24", "33", "32", "32"], "time": [12592, 13024, 13075, 13114, 13391, 14544, 16030, 16670, 18400, 20366, 20774, 23591, 23937, 24678, 25184]}, "edge": {"target": [], "time": []}}, "mouseout": {"state": {"target": ["11", "9", "8", "10", "0", "1", "2", "3", "5", "5", "9", "11", "27", "29", "25", "28", "24", "33", "32"], "time": [4271, 10839, 10904, 11171, 12737, 13056, 13095, 13136, 13952, 14464, 16007, 16071, 18113, 20136, 20407, 22135, 23623, 24518, 24740]}, "edge": {"target": [], "time": []}}}, "displayed_time": "30.54", "trialTime": 37175, "trial_type": "mouselab-mdp", "trial_index": 40, "time_elapsed": 1406584, "internal_node_id": "0.0-6.0-1.0-25.0"}}, {"uniqueid": "w52701828:a29935661", "current_trial": 41, "dateTime": 1693566286668, "trialdata": {"revealed_states": [], "clicked_states": ["11", "9"], "num_clicks_accrued": [0, 0, 0, 0, 0, 0, 0, 0, 0, 0, 0, 0, 0], "stateRewards": ["", -2, 2, -2, -7, -50, -62, -45, 7, 36, -24, -72, -1, -1, 8, -1, -67, 20, -52, 2, 35, -50, 80, -1, 1, 6, -6, -70, 6, 88, 8, -47, 74, -19], "withholdReward": false, "trial_id": "mdp_trial_27", "block": "test", "trialIndex": 30, "score": 38.2, "costs": -2.8, "simulationMode": [null, null, null, null, null], "rewards": [-2, 2, -2, 7, 36], "path": ["0", "0", "1", "2", "3", "8", "9"], "rt": [7191, 674, 477, 327, 200], "actions": ["up", "up", "up", "left", "up"], "actionTimes": [10615, 11804, 12806, 13670, 14378], "queries": {"click": {"state": {"target": ["11", "9"], "time": [5181, 7180]}, "edge": {"target": [], "time": []}}, "mouseover": {"state": {"target": ["18", "7", "4", "2", "8", "11", "9", "5"], "time": [3598, 4095, 4142, 4629, 4761, 4995, 5508, 7672]}, "edge": {"target": [], "time": []}}, "mouseout": {"state": {"target": ["32", "0", "18", "7", "4", "2", "8", "11", "9", "5"], "time": [1844, 3513, 3710, 4116, 4310, 4693, 4780, 5407, 7202, 16078]}, "edge": {"target": [], "time": []}}}, "displayed_time": "17.43", "trialTime": 20476, "trial_type": "mouselab-mdp", "trial_index": 41, "time_elapsed": 1428080, "internal_node_id": "0.0-6.0-1.0-26.0"}}, {"uniqueid": "w52701828:a29935661", "current_trial": 42, "dateTime": 1693566304089, "trialdata": {"revealed_states": [], "clicked_states": ["5", "9"], "num_clicks_accrued": [0, 0, 0, 0, 0, 0, 0, 0, 0, 0, 0, 0, 0], "stateRewards": ["", 1, 1, 6, -14, -40, 37, 16, -13, 33, -68, 49, 2, 4, 3, 6, 55, 27, 32, 10, -65, 20, -87, 2, 1, -6, -5, -42, 12, 29, -8, 16, 76, -33], "withholdReward": false, "trial_id": "mdp_trial_28", "block": "test", "trialIndex": 31, "score": 25.2, "costs": -2.8, "simulationMode": [null, null, null, null, null], "rewards": [1, 1, 6, -13, 33], "path": ["0", "0", "1", "2", "3", "8", "9"], "rt": [6716, 65, 95, 176, 618], "actions": ["up", "up", "up", "left", "up"], "actionTimes": [8460, 9034, 9649, 10350, 11491], "queries": {"click": {"state": {"target": ["5", "9"], "time": [3257, 5280]}, "edge": {"target": [], "time": []}}, "mouseover": {"state": {"target": ["1", "2", "5", "9", "9", "11", "11"], "time": [2370, 2522, 2888, 3849, 4077, 5666, 5888]}, "edge": {"target": [], "time": []}}, "mouseout": {"state": {"target": ["7", "12", "1", "2", "5", "9", "9", "11", "11"], "time": [687, 1002, 2472, 2543, 3808, 3891, 5621, 5730, 12922]}, "edge": {"target": [], "time": []}}}, "displayed_time": "15.75", "trialTime": 16388, "trial_type": "mouselab-mdp", "trial_index": 42, "time_elapsed": 1445500, "internal_node_id": "0.0-6.0-1.0-27.0"}}, {"uniqueid": "w52701828:a29935661", "current_trial": 43, "dateTime": 1693566321015, "trialdata": {"revealed_states": [], "clicked_states": ["32"], "num_clicks_accrued": [0, 0, 0, 0, 0, 0, 0, 0, 0, 0, 0, 0, 0], "stateRewards": ["", -2, 2, -1, -6, 22, 6, 6, -5, 70, -42, 65, 1, 3, 5, -6, -67, -9, 3, 14, 7, -62, -13, -2, 4, 1, 16, 42, -21, -52, -8, 32, 53, 81], "withholdReward": false, "trial_id": "mdp_trial_29", "block": "test", "trialIndex": 32, "score": 46.6, "costs": -1.4, "simulationMode": [null, null, null, null, null], "rewards": [-2, 4, 1, -8, 53], "path": ["0", "0", "23", "24", "25", "30", "32"], "rt": [4820, 775, 371, 182, 123], "actions": ["left", "left", "left", "down", "down"], "actionTimes": [6269, 7560, 8455, 9149, 9793], "queries": {"click": {"state": {"target": ["32"], "time": [3230]}, "edge": {"target": [], "time": []}}, "mouseover": {"state": {"target": ["1", "7", "23", "24", "30", "32", "31"], "time": [1668, 1853, 2102, 2127, 2318, 2967, 3662]}, "edge": {"target": [], "time": []}}, "mouseout": {"state": {"target": ["11", "10", "1", "7", "23", "24", "30", "32"], "time": [216, 533, 1718, 1902, 2124, 2149, 2340, 3426]}, "edge": {"target": [], "time": []}}}, "displayed_time": "15.46", "trialTime": 15878, "trial_type": "mouselab-mdp", "trial_index": 43, "time_elapsed": 1462426, "internal_node_id": "0.0-6.0-1.0-28.0"}}, {"uniqueid": "w52701828:a29935661", "current_trial": 44, "dateTime": 1693566339444, "trialdata": {"revealed_states": [], "clicked_states": ["9", "21", "20"], "num_clicks_accrued": [0, 0, 0, 0, 0, 0, 0, 0, 0, 0, 0, 0, 0], "stateRewards": ["", 1, -2, -3, 14, -42, -87, -37, -11, -50, 33, -44, -2, 4, -7, 13, 48, -75, -66, 12, 23, -2, 82, 1, -4, 3, 12, 51, -15, -26, -11, -52, -29, 82], "withholdReward": false, "trial_id": "mdp_trial_30", "block": "test", "trialIndex": 33, "score": 25.8, "costs": -4.199999999999999, "simulationMode": [null, null, null, null, null], "rewards": [-2, 4, -7, 12, 23], "path": ["0", "0", "12", "13", "14", "19", "20"], "rt": [8490, 91, 207, 1278, 287], "actions": ["right", "right", "right", "down", "right"], "actionTimes": [9715, 10329, 11062, 12850, 13660], "queries": {"click": {"state": {"target": ["9", "21", "20"], "time": [2103, 3959, 6374]}, "edge": {"target": [], "time": []}}, "mouseover": {"state": {"target": ["3", "9", "4", "6", "15", "19", "21", "17", "17", "20", "19", "22"], "time": [1372, 1871, 2520, 2584, 2711, 3174, 3281, 5113, 5350, 5973, 6687, 7089]}, "edge": {"target": [], "time": []}}, "mouseout": {"state": {"target": ["30", "23", "0", "0", "3", "9", "4", "6", "15", "19", "21", "17", "17", "20", "19"], "time": [88, 171, 205, 1320, 1407, 2438, 2562, 2629, 2853, 3198, 4141, 5174, 5855, 6649, 6797]}, "edge": {"target": [], "time": []}}}, "displayed_time": "15.23", "trialTime": 17245, "trial_type": "mouselab-mdp", "trial_index": 44, "time_elapsed": 1480856, "internal_node_id": "0.0-6.0-1.0-29.0"}}, {"uniqueid": "w52701828:a29935661", "current_trial": 45, "dateTime": 1693566361735, "trialdata": {"revealed_states": [], "clicked_states": ["33", "32", "31", "27", "29"], "num_clicks_accrued": [0, 0, 0, 0, 0, 0, 0, 0, 0, 0, 0, 0, 0], "stateRewards": ["", -1, -3, 3, 5, 56, 39, 50, -1, -80, 33, -46, 1, -2, -6, -8, 87, 48, 54, -11, -20, -64, -54, -2, 3, -7, -3, 12, 88, 35, -16, -46, -70, -3], "withholdReward": false, "trial_id": "mdp_trial_31", "block": "test", "trialIndex": 34, "score": 19, "costs": -7, "simulationMode": [null, null, null, null, null], "rewards": [-2, 3, -7, -3, 35], "path": ["0", "0", "23", "24", "25", "26", "29"], "rt": [13510, 670, 345, 632, 508], "actions": ["left", "left", "left", "up", "left"], "actionTimes": [15000, 16173, 17052, 18198, 19231], "queries": {"click": {"state": {"target": ["33", "32", "31", "27", "29"], "time": [3245, 5212, 7165, 9956, 12102]}, "edge": {"target": [], "time": []}}, "mouseover": {"state": {"target": ["10", "3", "9", "28", "25", "30", "33", "32", "31", "24", "27", "29", "26", "28", "1", "12", "19", "20"], "time": [2149, 2195, 2398, 2618, 2698, 2815, 3029, 3619, 5828, 7348, 7435, 10760, 12412, 12438, 12504, 12613, 12798, 12845]}, "edge": {"target": [], "time": []}}, "mouseout": {"state": {"target": ["22", "12", "12", "10", "3", "9", "28", "25", "30", "33", "32", "31", "24", "27", "29", "26", "28", "1", "12", "19", "20"], "time": [98, 365, 667, 2172, 2233, 2462, 2638, 2764, 2836, 3491, 5434, 7325, 7371, 10444, 12231, 12436, 12462, 12550, 12676, 12821, 12898]}, "edge": {"target": [], "time": []}}}, "displayed_time": "19.76", "trialTime": 21245, "trial_type": "mouselab-mdp", "trial_index": 45, "time_elapsed": 1503146, "internal_node_id": "0.0-6.0-1.0-30.0"}}, {"uniqueid": "w52701828:a29935661", "current_trial": 46, "dateTime": 1693566380054, "trialdata": {"revealed_states": [], "clicked_states": ["9"], "num_clicks_accrued": [0, 0, 0, 0, 0, 0, 0, 0, 0, 0, 0, 0, 0], "stateRewards": ["", -2, 3, -1, -9, 44, 48, -37, -3, 71, -39, 87, -1, 3, -4, 4, -21, 59, -15, -8, -1, 28, -38, 2, 4, 4, 8, -85, -72, -63, 14, 58, 63, -46], "withholdReward": false, "trial_id": "mdp_trial_32", "block": "test", "trialIndex": 35, "score": 66.6, "costs": -1.4, "simulationMode": [null, null, null, null, null], "rewards": [-2, 3, -1, -3, 71], "path": ["0", "0", "1", "2", "3", "8", "9"], "rt": [4747, 158, 232, 543, 242], "actions": ["up", "up", "up", "left", "up"], "actionTimes": [6698, 7370, 8111, 9172, 9938], "queries": {"click": {"state": {"target": ["9"], "time": [2951]}, "edge": {"target": [], "time": []}}, "mouseover": {"state": {"target": ["18", "7", "8", "9", "3", "4", "15", "14", "19", "21"], "time": [2145, 2348, 2580, 2748, 3358, 3404, 3510, 3575, 4064, 4128]}, "edge": {"target": [], "time": []}}, "mouseout": {"state": {"target": ["21", "20", "19", "22", "12", "0", "18", "7", "8", "9", "3", "4", "15", "14", "19", "21", "21"], "time": [263, 560, 661, 781, 945, 2032, 2196, 2398, 2663, 3275, 3401, 3427, 3552, 3941, 4107, 13216, 13647]}, "edge": {"target": [], "time": []}}}, "displayed_time": "15.96", "trialTime": 17278, "trial_type": "mouselab-mdp", "trial_index": 46, "time_elapsed": 1521465, "internal_node_id": "0.0-6.0-1.0-31.0"}}, {"uniqueid": "w52701828:a29935661", "current_trial": 47, "dateTime": 1693566398398, "trialdata": {"revealed_states": [], "clicked_states": ["29", "17", "20"], "num_clicks_accrued": [0, 0, 0, 0, 0, 0, 0, 0, 0, 0, 0, 0, 0], "stateRewards": ["", -2, -3, 7, -13, 60, 9, 37, -6, 37, 20, 1, 2, -2, -8, 6, -80, -31, -10, -7, 70, -65, -44, -1, 1, 7, 6, -11, 73, -85, 16, -21, 47, 34], "withholdReward": false, "trial_id": "mdp_trial_33", "block": "test", "trialIndex": 36, "score": 50.8, "costs": -4.199999999999999, "simulationMode": [null, null, null, null, null], "rewards": [2, -2, -8, -7, 70], "path": ["0", "0", "12", "13", "14", "19", "20"], "rt": [9050, 206, 223, 432, 189], "actions": ["right", "right", "right", "down", "right"], "actionTimes": [10871, 11638, 12392, 13342, 14053], "queries": {"click": {"state": {"target": ["29", "17", "20"], "time": [3508, 5548, 7603]}, "edge": {"target": [], "time": []}}, "mouseover": {"state": {"target": ["10", "8", "11", "27", "29", "27", "8", "2", "18", "15", "17", "20", "21"], "time": [2509, 2555, 2926, 3060, 3342, 3861, 3974, 4523, 4652, 4784, 4972, 7408, 8927]}, "edge": {"target": [], "time": []}}, "mouseout": {"state": {"target": ["0", "23", "10", "8", "11", "27", "29", "27", "8", "2", "18", "15", "17", "20", "21"], "time": [811, 861, 2533, 2611, 2947, 3109, 3640, 3900, 4478, 4546, 4740, 4828, 5983, 8036, 15791]}, "edge": {"target": [], "time": []}}}, "displayed_time": "15.82", "trialTime": 17235, "trial_type": "mouselab-mdp", "trial_index": 47, "time_elapsed": 1539809, "internal_node_id": "0.0-6.0-1.0-32.0"}}, {"uniqueid": "w52701828:a29935661", "current_trial": 48, "dateTime": 1693566431636, "trialdata": {"revealed_states": [], "clicked_states": ["9", "29", "33", "32", "31", "21", "20", "22", "17", "16"], "num_clicks_accrued": [0, 0, 0, 0, 0, 0, 0, 0, 0, 0, 0, 0, 0], "stateRewards": ["", -1, 1, 6, -6, 70, 66, 67, -16, -75, -35, 37, -1, 4, 4, -6, 47, -9, 63, 15, 21, -63, 13, 1, 3, -6, 10, 79, -29, 18, -15, 9, -67, -19], "withholdReward": false, "trial_id": "mdp_trial_34", "block": "test", "trialIndex": 37, "score": 34, "costs": -14.000000000000002, "simulationMode": [null, null, null, null, null], "rewards": [-1, 4, 4, -6, 47], "path": ["0", "0", "12", "13", "14", "15", "16"], "rt": [24557, 179, 266, 225, 141], "actions": ["right", "right", "right", "up", "up"], "actionTimes": [26691, 27394, 28171, 28931, 29590], "queries": {"click": {"state": {"target": ["9", "29", "33", "32", "31", "21", "20", "22", "17", "16"], "time": [3265, 6784, 9049, 10912, 12816, 14785, 16697, 18848, 21832, 23937]}, "edge": {"target": [], "time": []}}, "mouseover": {"state": {"target": ["3", "9", "5", "3", "8", "27", "29", "33", "30", "32", "33", "32", "31", "21", "20", "19", "22", "19", "19", "17", "15", "16"], "time": [2768, 3081, 4513, 5448, 5470, 5547, 6580, 7353, 7643, 7909, 8582, 9444, 11658, 13233, 15114, 17035, 17287, 19202, 19426, 21682, 22273, 22831]}, "edge": {"target": [], "time": []}}, "mouseout": {"state": {"target": ["20", "19", "12", "0", "3", "9", "5", "3", "8", "27", "29", "33", "30", "32", "33", "32", "31", "21", "20", "19", "22", "19", "19", "20", "17", "15", "16"], "time": [979, 1032, 1399, 2530, 2790, 4169, 5414, 5466, 5490, 5615, 7112, 7482, 7852, 8251, 9361, 11187, 13048, 15048, 16953, 17099, 19170, 19231, 19977, 20140, 22250, 22539, 24299]}, "edge": {"target": [], "time": []}}}, "displayed_time": "30.11", "trialTime": 32279, "trial_type": "mouselab-mdp", "trial_index": 48, "time_elapsed": 1573048, "internal_node_id": "0.0-6.0-1.0-33.0"}}, {"uniqueid": "w52701828:a29935661", "current_trial": 49, "dateTime": 1693566493860, "trialdata": {"revealed_states": [], "clicked_states": [], "num_clicks_accrued": [0, 0, 0, 0, 0, 0, 0, 0, 0, 0, 0, 0, 0], "stateRewards": ["", 2, -1, 3, -12, -83, 6, -33, 9, 28, 24, -50, -2, -1, -2, -5, -87, 37, 82, 12, 80, -5, 10, -2, -3, -6, 9, 22, -1, 16, 9, 77, -62, 58], "withholdReward": false, "trial_id": "mdp_trial_35", "block": "test", "trialIndex": 38, "score": 41, "costs": 0, "simulationMode": [null, null, null, null, null], "rewards": [2, -1, 3, 9, 28], "path": ["0", "0", "1", "2", "3", "8", "9"], "rt": [7042, 927, 274, 469, 693], "actions": ["up", "up", "up", "left", "up"], "actionTimes": [52776, 54203, 54997, 56005, 57230], "queries": {"click": {"state": {"target": [], "time": []}, "edge": {"target": [], "time": []}}, "mouseover": {"state": {"target": ["1", "7", "4", "7", "7", "0", "2", "9", "5", "5", "4", "7"], "time": [47689, 48339, 48406, 48921, 49354, 49854, 50269, 50522, 51002, 51570, 51820, 51864]}, "edge": {"target": [], "time": []}}, "mouseout": {"state": {"target": ["24", "3", "1", "1", "7", "4", "7", "7", "0", "2", "9", "5", "5", "4", "7"], "time": [43303, 44473, 44722, 47713, 48361, 48805, 48970, 49471, 49955, 50289, 50904, 51238, 51786, 51841, 51908]}, "edge": {"target": [], "time": []}}}, "displayed_time": "59.75", "trialTime": 60741, "trial_type": "mouselab-mdp", "trial_index": 49, "time_elapsed": 1635271, "internal_node_id": "0.0-6.0-1.0-34.0"}}, {"uniqueid": "w52701828:a29935661", "current_trial": 50, "dateTime": 1693566523806, "trialdata": {"revealed_states": [], "clicked_states": [], "num_clicks_accrued": [0, 0, 0, 0, 0, 0, 0, 0, 0, 0, 0, 0, 0], "stateRewards": ["", 1, 4, -8, -13, -13, -87, -77, -10, -44, 54, 42, 2, -3, -4, 12, -9, -80, 52, 9, 84, -2, -65, 1, -4, -5, -6, 8, 80, 32, 13, -59, -5, -13], "withholdReward": false, "trial_id": "mdp_trial_36", "block": "test", "trialIndex": 39, "score": -57, "costs": 0, "simulationMode": [null, null, null, null, null], "rewards": [1, 4, -8, -10, -44], "path": ["0", "0", "1", "2", "3", "8", "9"], "rt": [15283, 80, 261, 649, 2275], "actions": ["up", "up", "up", "left", "up"], "actionTimes": [17846, 18492, 19275, 20447, 23239], "queries": {"click": {"state": {"target": [], "time": []}, "edge": {"target": [], "time": []}}, "mouseover": {"state": {"target": ["7", "2", "7", "3", "9", "9", "4", "1", "2"], "time": [2677, 2778, 3030, 3713, 15383, 15693, 16563, 16812, 17043]}, "edge": {"target": [], "time": []}}, "mouseout": {"state": {"target": ["4", "5", "9", "4", "7", "0", "7", "2", "7", "3", "9", "9", "4", "1", "2"], "time": [67, 128, 325, 612, 659, 2586, 2746, 2799, 3162, 4024, 15430, 16444, 16611, 16836, 25564]}, "edge": {"target": [], "time": []}}}, "displayed_time": "23.76", "trialTime": 28576, "trial_type": "mouselab-mdp", "trial_index": 50, "time_elapsed": 1665217, "internal_node_id": "0.0-6.0-1.0-35.0"}}, {"uniqueid": "w52701828:a29935661", "current_trial": 51, "dateTime": 1693566561188, "trialdata": {"revealed_states": [], "clicked_states": ["5", "9", "29", "27", "16", "17"], "num_clicks_accrued": [0, 0, 0, 0, 0, 0, 0, 0, 0, 0, 0, 0, 0], "stateRewards": ["", 2, 4, -6, -13, -75, -81, 30, 7, 5, 59, -65, -1, -1, 7, 14, -38, 36, -41, 1, -54, -5, 64, 2, -1, 5, 6, -19, 79, 11, 16, -33, -50, 58], "withholdReward": false, "trial_id": "mdp_trial_37", "block": "test", "trialIndex": 40, "score": 46.6, "costs": -8.4, "simulationMode": [null, null, null, null, null], "rewards": [-1, -1, 7, 14, 36], "path": ["0", "0", "12", "13", "14", "15", "17"], "rt": [17057, 675, 212, 417, 199], "actions": ["right", "right", "right", "up", "right"], "actionTimes": [26208, 27410, 28167, 29119, 29843], "queries": {"click": {"state": {"target": ["5", "9", "29", "27", "16", "17"], "time": [10253, 12308, 14900, 16827, 20724, 22820]}, "edge": {"target": [], "time": []}}, "mouseover": {"state": {"target": ["10", "2", "2", "3", "4", "5", "6", "6", "4", "9", "9", "8", "8", "11", "29", "29", "27", "17", "17", "16", "17", "17", "17", "17", "16", "16", "16", "17", "17", "15", "18", "15"], "time": [9297, 9370, 9829, 9873, 9913, 10098, 10826, 11182, 11211, 11522, 11776, 12685, 13553, 14181, 14531, 14729, 15308, 17375, 17484, 17624, 18788, 18981, 19211, 19430, 19680, 19829, 20082, 20990, 22478, 24148, 24563, 25229]}, "edge": {"target": [], "time": []}}, "mouseout": {"state": {"target": ["2", "2", "12", "0", "10", "2", "2", "3", "4", "5", "6", "6", "4", "9", "9", "8", "8", "11", "29", "29", "27", "17", "17", "16", "17", "17", "17", "17", "16", "16", "16", "17", "16", "16", "17", "15", "18", "15", "14", "12"], "time": [7745, 7827, 8012, 8412, 9348, 9448, 9851, 9893, 9933, 10492, 10913, 11206, 11235, 11565, 12661, 12731, 13729, 14203, 14596, 15184, 17071, 17419, 17553, 18766, 18831, 19004, 19262, 19645, 19701, 19915, 20945, 22125, 22194, 22413, 23124, 24462, 25180, 25276, 31628, 31830]}, "edge": {"target": [], "time": []}}}, "displayed_time": "30.36", "trialTime": 36144, "trial_type": "mouselab-mdp", "trial_index": 51, "time_elapsed": 1702598, "internal_node_id": "0.0-6.0-1.0-36.0"}}, {"uniqueid": "w52701828:a29935661", "current_trial": 52, "dateTime": 1693566580598, "trialdata": {"revealed_states": [], "clicked_states": ["32"], "num_clicks_accrued": [0, 0, 0, 0, 0, 0, 0, 0, 0, 0, 0, 0, 0], "stateRewards": ["", -1, 3, 8, 10, -86, 61, -36, 10, 17, -60, 24, -1, -3, 3, 11, 50, 60, 33, -3, -20, 58, -6, 1, -4, -4, 13, -70, -71, 43, 14, 52, 82, -11], "withholdReward": false, "trial_id": "mdp_trial_38", "block": "test", "trialIndex": 41, "score": 87.6, "costs": -1.4, "simulationMode": [null, null, null, null, null], "rewards": [1, -4, -4, 14, 82], "path": ["0", "0", "23", "24", "25", "30", "32"], "rt": [5886, 65, 243, 48, 68], "actions": ["left", "left", "left", "down", "down"], "actionTimes": [8892, 9478, 10255, 10827, 11434], "queries": {"click": {"state": {"target": ["32"], "time": [5925]}, "edge": {"target": [], "time": []}}, "mouseover": {"state": {"target": ["2", "3", "10", "24", "31", "32", "32", "21", "21", "21"], "time": [3486, 3691, 4102, 4188, 4236, 5235, 5502, 6290, 6404, 7606]}, "edge": {"target": [], "time": []}}, "mouseout": {"state": {"target": ["18", "12", "0", "2", "3", "10", "24", "31", "32", "32", "21", "21", "21", "15", "18"], "time": [1770, 1972, 3034, 3669, 3734, 4125, 4211, 4335, 5372, 6139, 6313, 6468, 7937, 13136, 13189]}, "edge": {"target": [], "time": []}}}, "displayed_time": "17.01", "trialTime": 18228, "trial_type": "mouselab-mdp", "trial_index": 52, "time_elapsed": 1722009, "internal_node_id": "0.0-6.0-1.0-37.0"}}, {"uniqueid": "w52701828:a29935661", "current_trial": 53, "dateTime": 1693566598824, "trialdata": {"revealed_states": [], "clicked_states": ["21", "20"], "num_clicks_accrued": [0, 0, 0, 0, 0, 0, 0, 0, 0, 0, 0, 0, 0], "stateRewards": ["", 2, 3, -2, -8, -8, -41, 74, 15, -23, -80, 1, 1, 3, 3, -15, -63, -78, 67, 13, 75, -41, 86, 2, -2, 6, -3, -8, -49, 50, -6, 83, 74, 80], "withholdReward": false, "trial_id": "mdp_trial_39", "block": "test", "trialIndex": 42, "score": 92.2, "costs": -2.8, "simulationMode": [null, null, null, null, null], "rewards": [1, 3, 3, 13, 75], "path": ["0", "0", "12", "13", "14", "19", "20"], "rt": [6363, 168, 229, 822, 497], "actions": ["right", "right", "right", "down", "right"], "actionTimes": [8220, 8931, 9687, 11024, 12050], "queries": {"click": {"state": {"target": ["21", "20"], "time": [3183, 5206]}, "edge": {"target": [], "time": []}}, "mouseover": {"state": {"target": ["13", "13", "14", "19", "21", "20", "14", "22"], "time": [1904, 2447, 2504, 2664, 2916, 3684, 5679, 5790]}, "edge": {"target": [], "time": []}}, "mouseout": {"state": {"target": ["12", "0", "13", "13", "14", "19", "21", "20", "14", "22", "13", "18", "6", "6", "16", "15", "22"], "time": [765, 830, 2199, 2483, 2550, 2735, 3428, 5446, 5723, 12984, 13132, 13350, 13967, 14134, 15534, 15558, 16463]}, "edge": {"target": [], "time": []}}}, "displayed_time": "15.86", "trialTime": 16981, "trial_type": "mouselab-mdp", "trial_index": 53, "time_elapsed": 1740234, "internal_node_id": "0.0-6.0-1.0-38.0"}}, {"uniqueid": "w52701828:a29935661", "current_trial": 54, "dateTime": 1693566617714, "trialdata": {"revealed_states": [], "clicked_states": ["9"], "num_clicks_accrued": [0, 0, 0, 0, 0, 0, 0, 0, 0, 0, 0, 0, 0], "stateRewards": ["", -1, 2, -2, 5, 80, -61, -27, 12, 44, -26, -75, -2, -4, 1, -16, 42, -49, -50, 4, -44, 2, 80, -2, -2, 5, -2, 59, 10, 24, 7, -48, -86, -44], "withholdReward": false, "trial_id": "mdp_trial_40", "block": "test", "trialIndex": 43, "score": 53.6, "costs": -1.4, "simulationMode": [null, null, null, null, null], "rewards": [-1, 2, -2, 12, 44], "path": ["0", "0", "1", "2", "3", "8", "9"], "rt": [3962, 150, 74, 269, 119], "actions": ["up", "up", "up", "left", "up"], "actionTimes": [6322, 7009, 7620, 8414, 9063], "queries": {"click": {"state": {"target": ["9"], "time": [3414]}, "edge": {"target": [], "time": []}}, "mouseover": {"state": {"target": ["1", "2", "7", "4", "9", "9", "5", "5"], "time": [2581, 2728, 2771, 2863, 3062, 3230, 3842, 4626]}, "edge": {"target": [], "time": []}}, "mouseout": {"state": {"target": ["4", "7", "0", "1", "2", "7", "4", "9", "9", "5", "5", "6"], "time": [679, 730, 2385, 2604, 2750, 2831, 2897, 3126, 3770, 4480, 11279, 16197]}, "edge": {"target": [], "time": []}}}, "displayed_time": "16.36", "trialTime": 17520, "trial_type": "mouselab-mdp", "trial_index": 54, "time_elapsed": 1759125, "internal_node_id": "0.0-6.0-1.0-39.0"}}, {"uniqueid": "w52701828:a29935661", "current_trial": 55, "dateTime": 1693566689167, "trialdata": {"rt": 71440, "response": {"Q0": "$-2 to $2", "Q1": "$-32 to $32", "Q2": "$-88 to $88", "Q3": "The cost was always $1.4.", "Q4": "Very motivated"}, "question_order": [0, 1, 2, 3, 4], "trial_id": "final_quiz_control", "trial_type": "survey-multi-choice", "trial_index": 55, "time_elapsed": 1830580, "internal_node_id": "0.0-6.0-2.0"}}, {"uniqueid": "w52701828:a29935661", "current_trial": 56, "dateTime": 1693566786704, "trialdata": {"rt": 97517, "response": {"Q0": "I clicked on the furthest nodes to see which had the highest values and I would move in that direction. ", "Q1": "I did, I started clicking on less nodes so I would not forget the best ones that had the highest value.", "Q2": "It was only difficult cause I had to use my memory. "}, "trial_id": "self_report_control", "trial_type": "survey-text", "trial_index": 56, "time_elapsed": 1928117, "internal_node_id": "0.0-6.0-3.0"}}, {"uniqueid": "w52701828:a29935661", "current_trial": 57, "dateTime": 1693566839470, "trialdata": {"rt": 52757, "response": {"gender": "female", "age": "26", "colorblind": "0", "effort": "0"}, "trial_type": "survey-html-form", "trial_index": 57, "time_elapsed": 1980883, "internal_node_id": "0.0-6.0-4.0"}}, {"uniqueid": "w52701828:a29935661", "current_trial": 58, "dateTime": 1693566868526, "trialdata": {"rt": 29047, "response": {"Q0": "No it all made sense.", "Q1": "No I have never.", "Q2": ""}, "trial_type": "survey-text", "trial_index": 58, "time_elapsed": 2009938, "internal_node_id": "0.0-6.0-5.0"}}, {"uniqueid": "w52701828:a29935661", "current_trial": 59, "dateTime": 1693566877295, "trialdata": {"rt": 8762, "stimulus": "<h1>Completion Code Instructions (1/2)</h1>\n<br><br><br><br>\nYou have reached the end of the experiment! The completion code consists of two parts: (1) a code with 2 characters (2) a code with 6 characters. On this page, you will receive the second part of the code. The first part of the completion code will be on the next page.\n<br><br>\nThe second part of your completion code is: <b>EWEK22</b>\n<br><br>\nPlease note this down. Then, press 'Finish HIT' in order to find the first part of your completion code. Once the data has been saved, you will receive this code either in this window or in the original browser window where you started the experiment.\n", "response": 0, "trial_type": "html-button-response", "trial_index": 59, "time_elapsed": 2018708, "internal_node_id": "0.0-6.0-6.0"}}, {"uniqueid": "w52701828:a29935661", "current_trial": 60, "dateTime": 1693566878307, "trialdata": {"success": true, "trial_type": "fullscreen", "trial_index": 60, "time_elapsed": 2019720, "internal_node_id": "0.0-7.0"}}], "questiondata": {"params": {"CODE": "C6DMOQA6", "MIN_TIME": 14, "inspectCost": 1, "startTime": "Fri Sep 01 2023 12:40:55 GMT+0200 (South Africa Standard Time)", "bonusRate": 0.002, "variance": "1_2_4_8_44", "branching": "31123"}, "final_score": 1583.6}, "eventdata": [{"eventtype": "initialized", "value": null, "timestamp": 1693564854349, "interval": 0}, {"eventtype": "window_resize", "value": [1024, 625], "timestamp": 1693564854349, "interval": 0}, {"eventtype": "window_resize", "value": [1024, 625], "timestamp": 1693564854959, "interval": 610}, {"eventtype": "window_resize", "value": [1366, 733], "timestamp": 1693564858368, "interval": 3409}, {"eventtype": "window_resize", "value": [1366, 768], "timestamp": 1693564863880, "interval": 5512}, {"eventtype": "focus", "value": "off", "timestamp": 1693565458027, "interval": 594147}, {"eventtype": "focus", "value": "on", "timestamp": 1693565458225, "interval": 198}, {"eventtype": "window_resize", "value": [1366, 733], "timestamp": 1693565458244, "interval": 19}, {"eventtype": "window_resize", "value": [1366, 768], "timestamp": 1693565461271, "interval": 3027}, {"eventtype": "focus", "value": "off", "timestamp": 1693566433016, "interval": 971745}, {"eventtype": "focus", "value": "on", "timestamp": 1693566476045, "interval": 43029}, {"eventtype": "window_resize", "value": [1366, 733], "timestamp": 1693566877526, "interval": 401481}], "useragent": "Mozilla/5.0 (Macintosh; Intel Mac OS X 10_15_7) AppleWebKit/537.36 (KHTML, like Gecko) Chrome/116.0.0.0 Safari/537.36", "mode": "live", "id": "w52701828:a29935661", "status": "user data saved", "Beginhit": "2023-09-01 10:40:50.026489", "Beginexp": "2023-09-01 10:41:05.013858", "Endhit": "2023-09-01 11:14:40.298626", "psiturkStatus": 3, "browser": "<redacted>", "platform": "macos", "language": "en-GB"}