{"condition": 1, "counterbalance": 0, "assignmentId": "a42576428", "workerId": "w37384961", "hitId": "h65729184", "currenttrial": 56, "bonus": 0, "data": [{"uniqueid": "w37384961:a42576428", "current_trial": 0, "dateTime": 1693580117547, "trialdata": {"success": true, "trial_type": "fullscreen", "trial_index": 0, "time_elapsed": 8560, "internal_node_id": "0.0-0.0"}}, {"uniqueid": "w37384961:a42576428", "current_trial": 1, "dateTime": 1693580137898, "trialdata": {"view_history": [{"page_index": 0, "viewing_time": 20338}], "rt": 20339, "trial_id": "exp_instructions_misaligned", "trial_type": "instructions", "trial_index": 1, "time_elapsed": 28912, "internal_node_id": "0.0-1.0"}}, {"uniqueid": "w37384961:a42576428", "current_trial": 2, "dateTime": 1693580373098, "trialdata": {"view_history": [{"page_index": 0, "viewing_time": 93995}, {"page_index": 1, "viewing_time": 87793}, {"page_index": 2, "viewing_time": 22704}, {"page_index": 3, "viewing_time": 30696}], "rt": 235191, "trial_id": "mouselab_instructions_1_misaligned", "trial_type": "instructions", "trial_index": 2, "time_elapsed": 264109, "internal_node_id": "0.0-2.0-1.0"}}, {"uniqueid": "w37384961:a42576428", "current_trial": 3, "dateTime": 1693580404570, "trialdata": {"revealed_states": [], "clicked_states": ["23", "25", "26", "29", "12", "13", "14", "15", "18", "1", "2", "3", "7"], "num_clicks_accrued": [0, 0, 0, 0, 0, 0, 0, 0, 0, 0, 0, 0, 0], "stateRewards": ["", 10, -10, -10, 10, 10, -10, 10, -10, 10, 10, -10, -10, 10, -10, -10, -10, 10, 10, -10, -10, -10, -10, 10, -10, -10, -10, 10, 10, -10, 10, -10, 10, -10], "withholdReward": false, "trial_id": "practice_1", "block": "test", "trialIndex": 0, "score": 7, "costs": -6.5, "simulationMode": [null, null, null, null, null], "rewards": [10, -10, -10, 10, 10], "path": ["0", "0", "1", "2", "3", "4", "7"], "rt": [20247, 318, 208, 334, 208], "actions": ["up", "up", "up", "right", "down"], "actionTimes": [22027, 22861, 23583, 24440, 25165], "queries": {"click": {"state": {"target": ["23", "25", "26", "29", "12", "13", "14", "15", "18", "1", "2", "3", "7"], "time": [2852, 4308, 6035, 7271, 9174, 10264, 11695, 12903, 14318, 15583, 17042, 18179, 19196]}, "edge": {"target": [], "time": []}}, "mouseover": {"state": {"target": ["0", "23", "24", "25", "26", "29", "27", "1", "12", "13", "14", "15", "18", "1", "2", "3", "7", "0"], "time": [2457, 2548, 3150, 3996, 4711, 6811, 7879, 8641, 8850, 9744, 10827, 12259, 13442, 14775, 15924, 17459, 18774, 19891]}, "edge": {"target": [], "time": []}}, "mouseout": {"state": {"target": ["0", "23", "10", "0", "23", "24", "25", "26", "29", "27", "1", "12", "13", "14", "15", "18", "1", "2", "3", "3", "7", "0"], "time": [null, null, 494, 2510, 3013, 3797, 4544, 6627, 7745, 8541, 8683, 9629, 10744, 12126, 13375, 14659, 15775, 17359, 18247, 18658, 19607, 28083]}, "edge": {"target": [], "time": []}}}, "displayed_time": "25.67", "trialTime": 30391, "trial_type": "mouselab-mdp", "trial_index": 3, "time_elapsed": 295582, "internal_node_id": "0.0-2.0-2.0-0.0"}}, {"uniqueid": "w37384961:a42576428", "current_trial": 4, "dateTime": 1693580414456, "trialdata": {"revealed_states": [], "clicked_states": [], "num_clicks_accrued": [0, 0, 0, 0, 0, 0, 0, 0, 0, 0, 0, 0, 0], "stateRewards": ["", 10, -10, 10, 10, 10, -10, -10, 10, -10, 10, 10, -10, -10, -10, -10, -10, -10, 10, 10, 10, -10, 10, 10, 10, 10, -10, 10, 10, -10, 10, -10, 10, -10], "withholdReward": false, "trial_id": "practice_2", "block": "test", "trialIndex": 1, "score": -26.5, "costs": 0, "simulationMode": [null, null, null, null, null], "rewards": [-10, -10, -10, 10, -10], "path": ["0", "0", "12", "13", "14", "19", "21"], "rt": [1660, 2, 31, 76, 3], "actions": ["right", "right", "right", "down", "down"], "actionTimes": [3765, 4259, 4822, 5414, 5926], "queries": {"click": {"state": {"target": [], "time": []}, "edge": {"target": [], "time": []}}, "mouseover": {"state": {"target": ["12"], "time": [2204]}, "edge": {"target": [], "time": []}}, "mouseout": {"state": {"target": ["12", "0", "12"], "time": [1042, 2154, 2307]}, "edge": {"target": [], "time": []}}}, "displayed_time": "6.46", "trialTime": 9664, "trial_type": "mouselab-mdp", "trial_index": 4, "time_elapsed": 305468, "internal_node_id": "0.0-2.0-2.0-1.0"}}, {"uniqueid": "w37384961:a42576428", "current_trial": 5, "dateTime": 1693580466712, "trialdata": {"view_history": [{"page_index": 0, "viewing_time": 38905}, {"page_index": 1, "viewing_time": 13343}], "rt": 52249, "trial_id": "mouselab_instructions_2_misaligned", "trial_type": "instructions", "trial_index": 5, "time_elapsed": 357726, "internal_node_id": "0.0-2.0-3.0"}}, {"uniqueid": "w37384961:a42576428", "current_trial": 6, "dateTime": 1693580517314, "trialdata": {"rt": 50596, "response": {"Q0": "The cost for clicking on nodes may vary between nodes.", "Q1": "The better I perform the higher my bonus will be.", "Q2": "No, the amount of cash at each node of the web may be different each time.", "Q3": "To get the highest total score.", "Q4": "Only before moving the spider.", "Q5": "3 seconds"}, "question_order": [0, 1, 2, 3, 4, 5], "correct": {"Q0": "The cost for clicking on nodes may vary between nodes.", "Q1": "The better I perform the higher my bonus will be.", "Q2": "No, the amount of cash at each node of the web may be different each time.", "Q3": "To get the highest total score.", "Q4": "Only before moving the spider.", "Q5": "3 seconds"}, "trial_id": "mouselab_quiz_misaligned", "trial_type": "survey-multi-choice", "trial_index": 6, "time_elapsed": 408328, "internal_node_id": "0.0-2.0-4.0"}}, {"uniqueid": "w37384961:a42576428", "current_trial": 7, "dateTime": 1693580524354, "trialdata": {"rt": 7023, "response": {"Q0": "No"}, "question_order": [0], "trial_id": "repeat_check", "trial_type": "survey-multi-choice", "trial_index": 7, "time_elapsed": 415368, "internal_node_id": "0.0-4.0-0.0"}}, {"uniqueid": "w37384961:a42576428", "current_trial": 8, "dateTime": 1693580533683, "trialdata": {"rt": 9320, "stimulus": "\n<h1> Get ready to start the game! </h1>\n\nThank you for reading the instructions. Get ready start with the 40 rounds of this game.\n<br><br>\nIf you need to take a break, feel free to take one after the end of a round, before continuing to the next one.\n<br><br>\nRemember, the more money the spider gets, the bigger your bonus will be!\n<br><br>\n<div style='text-align: center;'>Press <code>space</code> to begin.</div>\n\n<br><br>\n(If, at any point, the <code>space</code> key does not take you to the next page, click once on the text and try again.)", "response": " ", "trial_id": "mdp_ready", "trial_type": "html-keyboard-response", "trial_index": 8, "time_elapsed": 424697, "internal_node_id": "0.0-6.0-0.0"}}, {"uniqueid": "w37384961:a42576428", "current_trial": 9, "dateTime": 1693580555046, "trialdata": {"revealed_states": [], "clicked_states": ["1", "2", "3", "4", "7"], "num_clicks_accrued": [0, 0, 0, 0, 0, 0, 0, 0, 0, 0, 0, 0, 0], "stateRewards": ["", -1, 1, 3, -8, -23, -15, -14, -11, -23, 58, 68, 1, 3, 5, 12, -17, -41, -7, -10, -4, 82, 10, 1, 4, -4, 11, 73, 55, -55, -1, -86, -86, 54], "withholdReward": false, "trial_id": "mdp_trial_1", "block": "test", "trialIndex": 2, "score": -32.75, "costs": -4.75, "simulationMode": [null, null, null, null, null, null], "rewards": [-1, 1, 3, -8, -23], "path": ["0", "0", "1", "2", "3", "4", "5"], "rt": [6327, 555, 743, 203, 545, 492], "actions": ["up", "up", "up", "up", "right", "up"], "actionTimes": [7414, 7978, 9253, 9975, 11032, 12043], "queries": {"click": {"state": {"target": ["1", "2", "3", "4", "7"], "time": [2625, 3159, 4026, 5189, 5718]}, "edge": {"target": [], "time": []}}, "mouseover": {"state": {"target": ["1", "2", "3", "4", "7"], "time": [2383, 2904, 3553, 4618, 5401]}, "edge": {"target": [], "time": []}}, "mouseout": {"state": {"target": ["24", "23", "0", "1", "2", "3", "4", "7", "0"], "time": [400, 519, 1606, 2802, 3401, 4468, 5352, 6435, 16145]}, "edge": {"target": [], "time": []}}}, "displayed_time": "15.09", "trialTime": 21077, "trial_type": "mouselab-mdp", "trial_index": 9, "time_elapsed": 446059, "internal_node_id": "0.0-6.0-1.0-0.0"}}, {"uniqueid": "w37384961:a42576428", "current_trial": 10, "dateTime": 1693580579662, "trialdata": {"revealed_states": [], "clicked_states": ["23", "24", "25", "26", "28", "27", "29"], "num_clicks_accrued": [0, 0, 0, 0, 0, 0, 0, 0, 0, 0, 0, 0, 0], "stateRewards": ["", 2, -1, 4, -9, -43, 7, 54, -13, 38, -40, -83, -1, 2, -8, -10, 34, -33, 11, -14, -79, 65, 26, 1, 2, 4, 10, 21, 1, 86, 4, -53, 28, -29], "withholdReward": false, "trial_id": "mdp_trial_2", "block": "test", "trialIndex": 3, "score": 93.95, "costs": -9.05, "simulationMode": [null, null, null, null, null], "rewards": [1, 2, 4, 10, 86], "path": ["0", "0", "23", "24", "25", "26", "29"], "rt": [15891, 283, 226, 435, 145], "actions": ["left", "left", "left", "up", "left"], "actionTimes": [17491, 18279, 19005, 19944, 20606], "queries": {"click": {"state": {"target": ["23", "24", "25", "26", "28", "27", "29"], "time": [2443, 3439, 4354, 5304, 6798, 10230, 13550]}, "edge": {"target": [], "time": []}}, "mouseover": {"state": {"target": ["23", "24", "25", "26", "28", "27", "29", "26", "28", "0"], "time": [2230, 2965, 3981, 4948, 6047, 7998, 11109, 14261, 14343, 16375]}, "edge": {"target": [], "time": []}}, "mouseout": {"state": {"target": ["0", "23", "24", "25", "26", "28", "26", "27", "29", "26", "28", "0", "0"], "time": [2184, 2765, 3732, 4730, 6031, 7713, 7781, 10932, 14230, 14310, 15959, 23073, 23406]}, "edge": {"target": [], "time": []}}}, "displayed_time": "21.12", "trialTime": 24363, "trial_type": "mouselab-mdp", "trial_index": 10, "time_elapsed": 470675, "internal_node_id": "0.0-6.0-1.0-1.0"}}, {"uniqueid": "w37384961:a42576428", "current_trial": 11, "dateTime": 1693580610078, "trialdata": {"revealed_states": [], "clicked_states": ["12", "13", "14", "19", "22", "1", "2", "3", "4", "5", "23", "24", "25", "30", "31"], "num_clicks_accrued": [0, 0, 0, 0, 0, 0, 0, 0, 0, 0, 0, 0, 0], "stateRewards": ["", -1, -3, -5, -14, -13, -47, 79, 8, -60, -64, 41, -1, 2, 3, 13, -46, 61, -79, -11, -64, -65, 23, 1, -2, 6, -14, 46, 32, 21, 7, 75, -66, 15], "withholdReward": false, "trial_id": "mdp_trial_3", "block": "test", "trialIndex": 4, "score": 22.75, "costs": -14.25, "simulationMode": [null, null, null, null, null, null], "rewards": [1, -2, 6, -14, 46], "path": ["0", "0", "23", "24", "25", "26", "27"], "rt": [21624, 964, 187, 163, 196, 97], "actions": ["left", "left", "left", "left", "up", "up"], "actionTimes": [23440, 24407, 25088, 25747, 26462, 27080], "queries": {"click": {"state": {"target": ["12", "13", "14", "19", "22", "1", "2", "3", "4", "5", "23", "24", "25", "30", "31"], "time": [3587, 4562, 6293, 7293, 8466, 11472, 12369, 13598, 14558, 15426, 18238, 18861, 19489, 20295, 20983]}, "edge": {"target": [], "time": []}}, "mouseover": {"state": {"target": ["12", "13", "14", "14", "19", "22", "21", "24", "23", "1", "2", "3", "4", "5", "2", "23", "23", "23", "23", "24", "25", "30", "31", "32"], "time": [2904, 3889, 5071, 6087, 7053, 7787, 8871, 9470, 9870, 10055, 11971, 13035, 14357, 15101, 15820, 15986, 16185, 17602, 17917, 18632, 19299, 20115, 20748, 21584]}, "edge": {"target": [], "time": []}}, "mouseout": {"state": {"target": ["0", "0", "12", "13", "14", "14", "19", "22", "21", "24", "23", "1", "2", "3", "4", "5", "2", "23", "23", "23", "23", "24", "25", "30", "31", "31", "32", "30", "12", "13", "22"], "time": [558, 2854, 3838, 4888, 5890, 6711, 7738, 8705, 9393, 9771, 9920, 11885, 12936, 14204, 15019, 15734, 15835, 16003, 17485, 17652, 18532, 19232, 19834, 20683, 21089, 21383, 21985, 22200, 29112, 29445, 29779]}, "edge": {"target": [], "time": []}}}, "displayed_time": "27.60", "trialTime": 30162, "trial_type": "mouselab-mdp", "trial_index": 11, "time_elapsed": 501091, "internal_node_id": "0.0-6.0-1.0-2.0"}}, {"uniqueid": "w37384961:a42576428", "current_trial": 12, "dateTime": 1693580632386, "trialdata": {"revealed_states": [], "clicked_states": ["1", "2", "3", "8", "11", "10"], "num_clicks_accrued": [0, 0, 0, 0, 0, 0, 0, 0, 0, 0, 0, 0, 0], "stateRewards": ["", -1, 2, 7, 8, 75, 67, -11, 6, 52, -17, 38, -1, 4, -8, 14, 74, -37, -17, -12, 52, 55, 71, -2, -1, -5, 2, 21, 6, -88, -14, 64, -61, -47], "withholdReward": false, "trial_id": "mdp_trial_4", "block": "test", "trialIndex": 5, "score": 28.1, "costs": -6.9, "simulationMode": [null, null, null, null, null], "rewards": [-1, 4, -8, -12, 52], "path": ["0", "0", "12", "13", "14", "19", "20"], "rt": [14151, 271, 890, 527, 360], "actions": ["right", "right", "right", "down", "right"], "actionTimes": [15249, 16032, 17435, 18502, 19400], "queries": {"click": {"state": {"target": ["1", "2", "3", "8", "11", "10"], "time": [2156, 2910, 4115, 5331, 6699, 9543]}, "edge": {"target": [], "time": []}}, "mouseover": {"state": {"target": ["12", "1", "2", "3", "8", "11", "10", "2", "7", "12", "13", "14", "13", "12"], "time": [1148, 1912, 2561, 3578, 5046, 6146, 8147, 10075, 10095, 13427, 13458, 13507, 13873, 14191]}, "edge": {"target": [], "time": []}}, "mouseout": {"state": {"target": ["22", "0", "12", "1", "2", "3", "8", "11", "10", "2", "7", "12", "13", "14", "13", "12"], "time": [517, 1117, 1746, 2445, 3478, 4979, 6062, 7979, 10043, 10093, 10110, 13456, 13473, 13814, 13940, 21694]}, "edge": {"target": [], "time": []}}}, "displayed_time": "19.89", "trialTime": 22020, "trial_type": "mouselab-mdp", "trial_index": 12, "time_elapsed": 523398, "internal_node_id": "0.0-6.0-1.0-3.0"}}, {"uniqueid": "w37384961:a42576428", "current_trial": 13, "dateTime": 1693580653015, "trialdata": {"revealed_states": [], "clicked_states": ["1", "2", "3", "4", "5", "6"], "num_clicks_accrued": [0, 0, 0, 0, 0, 0, 0, 0, 0, 0, 0, 0, 0], "stateRewards": ["", 1, 1, 4, 11, 83, -66, 18, -16, -23, 5, 25, 1, -3, 1, -12, 18, 24, -86, -11, -64, 36, 40, 2, 1, -6, 13, 55, 29, 72, -2, 81, -72, -41], "withholdReward": false, "trial_id": "mdp_trial_5", "block": "test", "trialIndex": 6, "score": 93.1, "costs": -6.9, "simulationMode": [null, null, null, null, null], "rewards": [1, 1, 4, 11, 83], "path": ["0", "0", "1", "2", "3", "4", "5"], "rt": [14275, 44, 15, 12, 76], "actions": ["up", "up", "up", "right", "up"], "actionTimes": [15686, 16242, 16776, 17307, 17887], "queries": {"click": {"state": {"target": ["1", "2", "3", "4", "5", "6"], "time": [3680, 4535, 5565, 6603, 7503, 10446]}, "edge": {"target": [], "time": []}}, "mouseover": {"state": {"target": ["1", "2", "3", "4", "5", "6", "7", "2", "2", "3", "2", "1", "0"], "time": [2964, 4133, 5249, 6265, 7296, 8632, 11104, 13510, 13882, 14098, 14410, 14460, 14559]}, "edge": {"target": [], "time": []}}, "mouseout": {"state": {"target": ["12", "0", "1", "2", "3", "4", "5", "6", "7", "2", "2", "3", "2", "1", "0", "0"], "time": [631, 1499, 3966, 5132, 6182, 7198, 8548, 10965, 13217, 13559, 13976, 14347, 14426, 14476, 14978, 19632]}, "edge": {"target": [], "time": []}}}, "displayed_time": "18.39", "trialTime": 20328, "trial_type": "mouselab-mdp", "trial_index": 13, "time_elapsed": 544027, "internal_node_id": "0.0-6.0-1.0-4.0"}}, {"uniqueid": "w37384961:a42576428", "current_trial": 14, "dateTime": 1693580677719, "trialdata": {"revealed_states": [], "clicked_states": ["23", "24", "25", "26", "29", "28", "27"], "num_clicks_accrued": [0, 0, 0, 0, 0, 0, 0, 0, 0, 0, 0, 0, 0], "stateRewards": ["", -2, -2, -7, -13, -10, 49, -68, -1, 84, 70, 88, 1, 4, 4, 12, -57, 25, 30, 8, -1, -77, 57, 2, 3, 2, 3, -18, -80, 23, -15, -41, 70, 11], "withholdReward": false, "trial_id": "mdp_trial_6", "block": "test", "trialIndex": 7, "score": 23.95, "costs": -9.05, "simulationMode": [null, null, null, null, null], "rewards": [2, 3, 2, 3, 23], "path": ["0", "0", "23", "24", "25", "26", "29"], "rt": [17299, 403, 214, 134, 54], "actions": ["left", "left", "left", "up", "left"], "actionTimes": [18461, 19367, 20079, 20731, 21286], "queries": {"click": {"state": {"target": ["23", "24", "25", "26", "29", "28", "27"], "time": [2831, 3851, 5336, 6604, 7978, 10935, 14023]}, "edge": {"target": [], "time": []}}, "mouseover": {"state": {"target": ["23", "24", "25", "26", "29", "28", "27", "28"], "time": [2115, 3400, 4700, 6300, 7601, 9133, 12016, 17282]}, "edge": {"target": [], "time": []}}, "mouseout": {"state": {"target": ["0", "23", "24", "25", "26", "29", "26", "28", "27", "28"], "time": [1901, 3217, 4616, 6049, 7568, 8818, 9049, 11732, 16815, 17397]}, "edge": {"target": [], "time": []}}}, "displayed_time": "21.79", "trialTime": 24391, "trial_type": "mouselab-mdp", "trial_index": 14, "time_elapsed": 568731, "internal_node_id": "0.0-6.0-1.0-5.0"}}, {"uniqueid": "w37384961:a42576428", "current_trial": 15, "dateTime": 1693580702755, "trialdata": {"revealed_states": [], "clicked_states": ["1", "2", "3", "8", "11", "9", "10"], "num_clicks_accrued": [0, 0, 0, 0, 0, 0, 0, 0, 0, 0, 0, 0, 0], "stateRewards": ["", 2, -3, -2, 14, -4, 85, 46, 15, -28, 41, 31, -1, -1, -1, 5, 62, 79, 57, 12, -73, -64, 86, -1, 1, -3, -5, 68, 11, -32, 8, -80, -21, -56], "withholdReward": false, "trial_id": "mdp_trial_7", "block": "test", "trialIndex": 8, "score": 43.95, "costs": -9.05, "simulationMode": [null, null, null, null, null], "rewards": [2, -3, -2, 15, 41], "path": ["0", "0", "1", "2", "3", "8", "10"], "rt": [18558, 528, 178, 175, 57], "actions": ["up", "up", "up", "left", "down"], "actionTimes": [19550, 20595, 21291, 21970, 22536], "queries": {"click": {"state": {"target": ["1", "2", "3", "8", "11", "9", "10"], "time": [3924, 5155, 6457, 7746, 8909, 12590, 15828]}, "edge": {"target": [], "time": []}}, "mouseover": {"state": {"target": ["0", "1", "2", "3", "8", "11", "9", "8", "10", "1"], "time": [1555, 3720, 4532, 6132, 7448, 8598, 10132, 13434, 13634, 17631]}, "edge": {"target": [], "time": []}}, "mouseout": {"state": {"target": ["0", "0", "1", "2", "3", "8", "11", "9", "8", "10", "1", "0", "0"], "time": [1336, 2881, 4383, 5916, 7283, 8482, 9848, 13316, 13500, 17279, 18132, 24142, 24442]}, "edge": {"target": [], "time": []}}}, "displayed_time": "23.06", "trialTime": 24767, "trial_type": "mouselab-mdp", "trial_index": 15, "time_elapsed": 593768, "internal_node_id": "0.0-6.0-1.0-6.0"}}, {"uniqueid": "w37384961:a42576428", "current_trial": 16, "dateTime": 1693580724534, "trialdata": {"revealed_states": [], "clicked_states": ["12", "13", "14", "15", "18", "17", "16"], "num_clicks_accrued": [0, 0, 0, 0, 0, 0, 0, 0, 0, 0, 0, 0, 0], "stateRewards": ["", -2, 1, 6, -2, -10, -78, -69, 14, -15, 7, -1, 1, -1, -2, 13, 77, 32, 87, 5, -74, 30, -26, 1, 3, 4, 12, 39, 54, -43, 2, 10, 23, 13], "withholdReward": false, "trial_id": "mdp_trial_8", "block": "test", "trialIndex": 9, "score": 88.95, "costs": -9.05, "simulationMode": [null, null, null, null, null], "rewards": [1, -1, -2, 13, 87], "path": ["0", "0", "12", "13", "14", "15", "18"], "rt": [16184, 50, 15, 104, 63], "actions": ["right", "right", "right", "up", "left"], "actionTimes": [17292, 17864, 18397, 19018, 19597], "queries": {"click": {"state": {"target": ["12", "13", "14", "15", "18", "17", "16"], "time": [1912, 2986, 4171, 5620, 6901, 10437, 13525]}, "edge": {"target": [], "time": []}}, "mouseover": {"state": {"target": ["12", "13", "14", "15", "18", "17", "16", "18", "12", "0"], "time": [1490, 2519, 3501, 5100, 6669, 7837, 11151, 14950, 15150, 15399]}, "edge": {"target": [], "time": []}}, "mouseout": {"state": {"target": ["0", "0", "0", "12", "13", "14", "15", "18", "15", "17", "16", "18", "12", "0", "0", "1"], "time": [21, 156, 1406, 2270, 3388, 4951, 6519, 7603, 7752, 10983, 14851, 14967, 15266, 15683, 20663, 20729]}, "edge": {"target": [], "time": []}}}, "displayed_time": "20.10", "trialTime": 21507, "trial_type": "mouselab-mdp", "trial_index": 16, "time_elapsed": 615546, "internal_node_id": "0.0-6.0-1.0-7.0"}}, {"uniqueid": "w37384961:a42576428", "current_trial": 17, "dateTime": 1693580752312, "trialdata": {"revealed_states": [], "clicked_states": ["1", "2", "3", "8", "10", "11", "9", "5"], "num_clicks_accrued": [0, 0, 0, 0, 0, 0, 0, 0, 0, 0, 0, 0, 0], "stateRewards": ["", -1, 3, -4, -14, 78, 67, 2, 13, -32, 28, 39, -2, 1, -4, -4, -4, -42, -86, 11, 64, -29, -32, -1, -4, 2, -7, 5, 68, -61, 2, -21, 85, 50], "withholdReward": false, "trial_id": "mdp_trial_9", "block": "test", "trialIndex": 10, "score": 50.8, "costs": -11.200000000000001, "simulationMode": [null, null, null, null, null], "rewards": [-1, 3, -4, -14, 78], "path": ["0", "0", "1", "2", "3", "4", "5"], "rt": [21269, 267, 11, 337, 83], "actions": ["up", "up", "up", "right", "up"], "actionTimes": [22653, 23424, 23934, 24807, 25404], "queries": {"click": {"state": {"target": ["1", "2", "3", "8", "10", "11", "9", "5"], "time": [3762, 4767, 5899, 7186, 8355, 11664, 14858, 18299]}, "edge": {"target": [], "time": []}}, "mouseover": {"state": {"target": ["1", "2", "3", "8", "10", "11", "9", "5", "4", "6"], "time": [3265, 4428, 5593, 6660, 8164, 9559, 12142, 17953, 18870, 21358]}, "edge": {"target": [], "time": []}}, "mouseout": {"state": {"target": ["0", "1", "2", "3", "8", "10", "8", "11", "9", "5", "4", "6", "4", "1", "0"], "time": [3129, 4294, 5461, 6559, 8059, 8434, 9393, 11729, 16155, 18737, 21272, 26503, 26601, 26770, 27184]}, "edge": {"target": [], "time": []}}}, "displayed_time": "25.92", "trialTime": 27500, "trial_type": "mouselab-mdp", "trial_index": 17, "time_elapsed": 643325, "internal_node_id": "0.0-6.0-1.0-8.0"}}, {"uniqueid": "w37384961:a42576428", "current_trial": 18, "dateTime": 1693580781055, "trialdata": {"revealed_states": [], "clicked_states": ["10", "11", "9", "5", "6", "7"], "num_clicks_accrued": [0, 0, 0, 0, 0, 0, 0, 0, 0, 0, 0, 0, 0], "stateRewards": ["", 2, -1, -4, -13, 74, 77, 3, 2, -43, -2, -11, 2, 3, 7, 11, -26, -29, -33, -3, -3, -13, -3, 1, 3, -7, 14, -59, 33, 9, -5, 34, 79, 68], "withholdReward": false, "trial_id": "mdp_trial_10", "block": "test", "trialIndex": 11, "score": 48.1, "costs": -12.9, "simulationMode": [null, null, null, null, null, null], "rewards": [2, -1, -4, -13, 77], "path": ["0", "0", "1", "2", "3", "4", "6"], "rt": [19683, 837, 382, 64, 93, 755], "actions": ["up", "up", "up", "up", "right", "right"], "actionTimes": [22103, 22943, 23843, 24409, 25020, 26314], "queries": {"click": {"state": {"target": ["10", "11", "9", "5", "6", "7"], "time": [4263, 7403, 10446, 13540, 16652, 19686]}, "edge": {"target": [], "time": []}}, "mouseover": {"state": {"target": ["1", "2", "8", "9", "10", "11", "9", "5", "6", "7"], "time": [2947, 2997, 3147, 3465, 3881, 4920, 7831, 11114, 13949, 17097]}, "edge": {"target": [], "time": []}}, "mouseout": {"state": {"target": ["0", "1", "2", "8", "9", "10", "11", "9", "5", "6", "7", "14", "19", "22"], "time": [2847, 2980, 3031, 3336, 3619, 4336, 7581, 10747, 13865, 16964, 20278, 27859, 27951, 28275]}, "edge": {"target": [], "time": []}}}, "displayed_time": "26.83", "trialTime": 28476, "trial_type": "mouselab-mdp", "trial_index": 18, "time_elapsed": 672068, "internal_node_id": "0.0-6.0-1.0-9.0"}}, {"uniqueid": "w37384961:a42576428", "current_trial": 19, "dateTime": 1693580807786, "trialdata": {"revealed_states": [], "clicked_states": ["21", "22", "20", "18", "16", "17"], "num_clicks_accrued": [0, 0, 0, 0, 0, 0, 0, 0, 0, 0, 0, 0, 0], "stateRewards": ["", -2, -3, -6, -7, 9, 16, 65, 5, -41, 20, -25, -1, -4, 1, -11, -49, -4, 71, 1, 39, -62, 52, -2, -3, 7, -9, -28, -70, 84, 8, 24, -58, 82], "withholdReward": false, "trial_id": "mdp_trial_11", "block": "test", "trialIndex": 12, "score": 43.1, "costs": -12.9, "simulationMode": [null, null, null, null, null], "rewards": [-1, -4, 1, -11, 71], "path": ["0", "0", "12", "13", "14", "15", "18"], "rt": [20236, 482, 121, 155, 16], "actions": ["right", "right", "right", "up", "left"], "actionTimes": [21721, 22722, 23360, 24029, 24556], "queries": {"click": {"state": {"target": ["21", "22", "20", "18", "16", "17"], "time": [2797, 6053, 9211, 12314, 15429, 18513]}, "edge": {"target": [], "time": []}}, "mouseover": {"state": {"target": ["12", "22", "21", "22", "19", "20", "14", "18", "16", "17", "14", "13", "12", "0"], "time": [2177, 2310, 2460, 3412, 6361, 6447, 10194, 10526, 12677, 15841, 19256, 19290, 19340, 19607]}, "edge": {"target": [], "time": []}}, "mouseout": {"state": {"target": ["0", "12", "22", "21", "22", "19", "20", "14", "18", "16", "17", "14", "13", "12", "0", "0", "0"], "time": [2144, 2215, 2326, 3261, 6310, 6410, 10060, 10244, 12543, 15757, 19156, 19275, 19308, 19390, 19823, 25887, 26102]}, "edge": {"target": [], "time": []}}}, "displayed_time": "25.09", "trialTime": 26463, "trial_type": "mouselab-mdp", "trial_index": 19, "time_elapsed": 698799, "internal_node_id": "0.0-6.0-1.0-10.0"}}, {"uniqueid": "w37384961:a42576428", "current_trial": 20, "dateTime": 1693580829960, "trialdata": {"revealed_states": [], "clicked_states": ["31", "32", "33", "29"], "num_clicks_accrued": [0, 0, 0, 0, 0, 0, 0, 0, 0, 0, 0, 0, 0], "stateRewards": ["", -1, -3, 1, 13, -64, -29, 12, -4, -33, 50, 56, 2, -3, 4, 11, -64, -58, -55, 12, 47, 38, -25, -2, 2, 5, -15, 85, 7, 84, 10, 8, 57, 26], "withholdReward": false, "trial_id": "mdp_trial_12", "block": "test", "trialIndex": 13, "score": 65.4, "costs": -8.6, "simulationMode": [null, null, null, null, null], "rewards": [-2, 2, 5, -15, 84], "path": ["0", "0", "23", "24", "25", "26", "29"], "rt": [16230, 485, 162, 98, 8], "actions": ["left", "left", "left", "up", "left"], "actionTimes": [17262, 18261, 18937, 19559, 20084], "queries": {"click": {"state": {"target": ["31", "32", "33", "29"], "time": [2876, 6015, 9364, 12458]}, "edge": {"target": [], "time": []}}, "mouseover": {"state": {"target": ["0", "23", "24", "31", "31", "32", "33", "25", "26", "29", "27"], "time": [1485, 1569, 2145, 2496, 2701, 3714, 6396, 10132, 10196, 10463, 12816]}, "edge": {"target": [], "time": []}}, "mouseout": {"state": {"target": ["0", "23", "24", "31", "31", "32", "33", "25", "26", "29", "27"], "time": [1500, 1878, 2453, 2579, 3480, 6086, 9947, 10146, 10312, 12679, 21510]}, "edge": {"target": [], "time": []}}}, "displayed_time": "20.61", "trialTime": 21862, "trial_type": "mouselab-mdp", "trial_index": 20, "time_elapsed": 720972, "internal_node_id": "0.0-6.0-1.0-11.0"}}, {"uniqueid": "w37384961:a42576428", "current_trial": 21, "dateTime": 1693580877392, "trialdata": {"revealed_states": [], "clicked_states": ["27", "29", "28", "32", "33", "31", "9", "6", "5", "20", "22"], "num_clicks_accrued": [0, 0, 0, 0, 0, 0, 0, 0, 0, 0, 0, 0, 0], "stateRewards": ["", 2, -2, 7, -11, -76, -65, -23, 16, -58, 30, 81, 1, 2, 7, 14, 9, 55, -2, 6, 11, -15, 31, -1, -1, -3, 2, 15, 2, 46, 15, 18, 45, -34], "withholdReward": false, "trial_id": "mdp_trial_13", "block": "test", "trialIndex": 14, "score": -22.649999999999995, "costs": -23.649999999999995, "simulationMode": [null, null, null, null, null], "rewards": [1, 2, 7, 6, -15], "path": ["0", "0", "12", "13", "14", "19", "21"], "rt": [38723, 269, 1007, 485, 647], "actions": ["right", "right", "right", "down", "down"], "actionTimes": [39783, 40566, 42089, 43086, 44246], "queries": {"click": {"state": {"target": ["27", "29", "28", "32", "33", "31", "9", "6", "5", "20", "22"], "time": [2496, 5781, 9027, 12163, 15396, 18661, 21865, 25175, 28583, 32470, 36355]}, "edge": {"target": [], "time": []}}, "mouseover": {"state": {"target": ["23", "24", "26", "27", "29", "26", "28", "25", "32", "33", "30", "31", "24", "28", "8", "9", "4", "6", "7", "4", "5", "4", "7", "18", "14", "20", "14", "22", "14"], "time": [1744, 1825, 2191, 2357, 2960, 6077, 6375, 9323, 9657, 12589, 15639, 15891, 19121, 19155, 19421, 19906, 24287, 24800, 25818, 26834, 27017, 29020, 31898, 31980, 32081, 32298, 35898, 36212, 36750]}, "edge": {"target": [], "time": []}}, "mouseout": {"state": {"target": ["2", "1", "23", "24", "26", "27", "29", "29", "26", "28", "25", "32", "33", "33", "30", "31", "31", "24", "28", "8", "9", "4", "6", "7", "4", "5", "4", "7", "18", "14", "20", "14", "22", "14", "14", "13"], "time": [295, 561, 1791, 1909, 2225, 2761, 5831, 6012, 6210, 9258, 9374, 12388, 15446, 15607, 15740, 18729, 19054, 19138, 19189, 19521, 22237, 24453, 25684, 26788, 26900, 28918, 29168, 31947, 32015, 32130, 32547, 35996, 36616, 45700, 45913, 46394]}, "edge": {"target": [], "time": []}}}, "displayed_time": "44.77", "trialTime": 47134, "trial_type": "mouselab-mdp", "trial_index": 21, "time_elapsed": 768405, "internal_node_id": "0.0-6.0-1.0-12.0"}}, {"uniqueid": "w37384961:a42576428", "current_trial": 22, "dateTime": 1693580915805, "trialdata": {"revealed_states": [], "clicked_states": ["5", "6", "9", "7", "11", "20", "18", "16", "21"], "num_clicks_accrued": [0, 0, 0, 0, 0, 0, 0, 0, 0, 0, 0, 0, 0], "stateRewards": ["", 2, -2, -3, 10, -4, -1, -11, -8, -9, -36, -78, 2, 1, 7, -7, 44, -1, -31, -1, 26, 47, 83, 2, -4, -4, -6, -52, -76, -81, -1, -59, 45, 67], "withholdReward": false, "trial_id": "mdp_trial_14", "block": "test", "trialIndex": 15, "score": 36.650000000000006, "costs": -19.349999999999998, "simulationMode": [null, null, null, null, null], "rewards": [2, 1, 7, -1, 47], "path": ["0", "0", "12", "13", "14", "19", "21"], "rt": [32024, 274, 24, 29, 370], "actions": ["right", "right", "right", "down", "down"], "actionTimes": [33440, 34223, 34739, 35293, 36202], "queries": {"click": {"state": {"target": ["5", "6", "9", "7", "11", "20", "18", "16", "21"], "time": [2361, 5574, 10171, 13293, 16761, 20157, 23413, 26644, 30239]}, "edge": {"target": [], "time": []}}, "mouseover": {"state": {"target": ["7", "5", "6", "7", "3", "8", "9", "3", "7", "2", "10", "11", "10", "2", "14", "20", "19", "14", "18", "15", "16", "15", "14", "19", "21"], "time": [1828, 2225, 2640, 6161, 9252, 9803, 9988, 10539, 12488, 13455, 13488, 13638, 17025, 17049, 17137, 17376, 21102, 21305, 21536, 23818, 23906, 26983, 27084, 27183, 27534]}, "edge": {"target": [], "time": []}}, "mouseout": {"state": {"target": ["13", "13", "12", "0", "7", "5", "6", "7", "3", "8", "9", "3", "7", "2", "10", "11", "10", "2", "14", "20", "19", "14", "18", "15", "16", "16", "15", "14", "19", "21"], "time": [206, 624, 824, 1562, 1861, 2573, 5924, 8971, 9770, 9905, 10422, 12355, 13438, 13472, 13504, 16958, 17045, 17067, 17222, 20853, 21276, 21401, 23784, 23835, 26688, 26918, 27050, 27136, 27416, 30425]}, "edge": {"target": [], "time": []}}}, "displayed_time": "36.70", "trialTime": 38072, "trial_type": "mouselab-mdp", "trial_index": 22, "time_elapsed": 806818, "internal_node_id": "0.0-6.0-1.0-13.0"}}, {"uniqueid": "w37384961:a42576428", "current_trial": 23, "dateTime": 1693580934506, "trialdata": {"revealed_states": [], "clicked_states": ["32", "28", "29"], "num_clicks_accrued": [0, 0, 0, 0, 0, 0, 0, 0, 0, 0, 0, 0, 0], "stateRewards": ["", 1, -3, -4, -11, -56, 61, -47, -16, -28, -9, 69, -2, -3, -4, -8, 40, -86, 59, -4, 80, 27, 54, -1, 3, -1, 8, 67, 23, 50, 6, 83, -43, -29], "withholdReward": false, "trial_id": "mdp_trial_15", "block": "test", "trialIndex": 16, "score": 52.55, "costs": -6.449999999999999, "simulationMode": [null, null, null, null, null], "rewards": [-1, 3, -1, 8, 50], "path": ["0", "0", "23", "24", "25", "26", "29"], "rt": [12359, 343, 73, 166, 470], "actions": ["left", "left", "left", "up", "left"], "actionTimes": [13582, 14422, 15018, 15696, 16681], "queries": {"click": {"state": {"target": ["32", "28", "29"], "time": [2012, 5193, 8473]}, "edge": {"target": [], "time": []}}, "mouseover": {"state": {"target": ["0", "23", "31", "32", "31", "24", "28", "26", "29", "33", "30"], "time": [1547, 1596, 1662, 1778, 4180, 4299, 4464, 5730, 6048, 8864, 12629]}, "edge": {"target": [], "time": []}}, "mouseout": {"state": {"target": ["13", "12", "0", "0", "23", "31", "32", "31", "24", "28", "26", "29", "33", "30", "31"], "time": [530, 730, 916, 1578, 1611, 1696, 2198, 4248, 4397, 5664, 5930, 8747, 12610, 12646, 18091]}, "edge": {"target": [], "time": []}}}, "displayed_time": "17.18", "trialTime": 18396, "trial_type": "mouselab-mdp", "trial_index": 23, "time_elapsed": 825518, "internal_node_id": "0.0-6.0-1.0-14.0"}}, {"uniqueid": "w37384961:a42576428", "current_trial": 24, "dateTime": 1693580951091, "trialdata": {"revealed_states": [], "clicked_states": ["5", "9"], "num_clicks_accrued": [0, 0, 0, 0, 0, 0, 0, 0, 0, 0, 0, 0, 0], "stateRewards": ["", -2, 2, -1, -6, 22, 6, 6, -5, 70, -42, 65, 1, 3, 5, -6, -67, -9, 3, 14, 7, -62, -13, -2, 4, 1, 16, 42, -21, -52, -8, 32, 53, 81], "withholdReward": false, "trial_id": "mdp_trial_16", "block": "test", "trialIndex": 17, "score": 59.7, "costs": -4.3, "simulationMode": [null, null, null, null, null], "rewards": [-2, 2, -1, -5, 70], "path": ["0", "0", "1", "2", "3", "8", "9"], "rt": [9410, 300, 399, 186, 127], "actions": ["up", "up", "up", "left", "up"], "actionTimes": [10704, 11527, 12428, 13129, 13754], "queries": {"click": {"state": {"target": ["5", "9"], "time": [2794, 6235]}, "edge": {"target": [], "time": []}}, "mouseover": {"state": {"target": ["1", "2", "5", "4", "3", "8", "11", "9", "11", "27"], "time": [2079, 2142, 2631, 3078, 3376, 3493, 3661, 5743, 6594, 6710]}, "edge": {"target": [], "time": []}}, "mouseout": {"state": {"target": ["31", "0", "1", "2", "5", "4", "3", "8", "11", "9", "11", "27"], "time": [392, 1318, 2126, 2159, 2978, 3293, 3460, 3593, 5527, 6528, 6628, 15259]}, "edge": {"target": [], "time": []}}}, "displayed_time": "15.29", "trialTime": 16268, "trial_type": "mouselab-mdp", "trial_index": 24, "time_elapsed": 842104, "internal_node_id": "0.0-6.0-1.0-15.0"}}, {"uniqueid": "w37384961:a42576428", "current_trial": 25, "dateTime": 1693580973452, "trialdata": {"revealed_states": [], "clicked_states": ["5", "6", "11"], "num_clicks_accrued": [0, 0, 0, 0, 0, 0, 0, 0, 0, 0, 0, 0, 0], "stateRewards": ["", -2, 1, -7, -8, -37, -76, -87, 11, 30, -63, 80, -1, 4, 2, -1, 42, 17, 52, -3, -75, -80, -68, 2, -3, -5, -15, -48, 82, 24, -7, 5, -22, -71], "withholdReward": false, "trial_id": "mdp_trial_17", "block": "test", "trialIndex": 18, "score": -14.45, "costs": -6.449999999999999, "simulationMode": [null, null, null, null, null], "rewards": [2, -3, -5, -7, 5], "path": ["0", "0", "23", "24", "25", "30", "31"], "rt": [12045, 4383, 257, 473, 134], "actions": ["left", "left", "left", "down", "right"], "actionTimes": [12965, 17870, 18642, 19626, 20268], "queries": {"click": {"state": {"target": ["5", "6", "11"], "time": [2127, 5320, 8472]}, "edge": {"target": [], "time": []}}, "mouseover": {"state": {"target": ["7", "4", "5", "4", "6", "4", "3", "8", "11", "9"], "time": [1640, 1703, 1986, 2375, 3309, 5573, 5641, 5723, 5907, 8804]}, "edge": {"target": [], "time": []}}, "mouseout": {"state": {"target": ["0", "7", "4", "5", "4", "6", "4", "3", "8", "11", "9"], "time": [1443, 1672, 1821, 2306, 2392, 5524, 5607, 5688, 5772, 8680, 21945]}, "edge": {"target": [], "time": []}}}, "displayed_time": "20.79", "trialTime": 22016, "trial_type": "mouselab-mdp", "trial_index": 25, "time_elapsed": 864466, "internal_node_id": "0.0-6.0-1.0-16.0"}}, {"uniqueid": "w37384961:a42576428", "current_trial": 26, "dateTime": 1693580992352, "trialdata": {"revealed_states": [], "clicked_states": ["9", "6", "11"], "num_clicks_accrued": [0, 0, 0, 0, 0, 0, 0, 0, 0, 0, 0, 0, 0], "stateRewards": ["", 2, -3, 5, -14, -63, -9, -24, -11, -54, -43, 68, 2, -2, -4, 7, -64, 30, 47, 12, -74, 11, 86, 1, -3, 3, 10, -71, -42, -52, -1, -29, -16, 69], "withholdReward": false, "trial_id": "mdp_trial_18", "block": "test", "trialIndex": 19, "score": 54.55, "costs": -6.449999999999999, "simulationMode": [null, null, null, null, null], "rewards": [2, -3, 5, -11, 68], "path": ["0", "0", "1", "2", "3", "8", "11"], "rt": [13174, 273, 14, 313, 44], "actions": ["up", "up", "up", "left", "left"], "actionTimes": [14464, 15259, 15784, 16616, 17179], "queries": {"click": {"state": {"target": ["9", "6", "11"], "time": [3107, 6457, 9829]}, "edge": {"target": [], "time": []}}, "mouseover": {"state": {"target": ["9", "8", "3", "4", "6", "11", "28", "24", "31", "32"], "time": [2920, 3473, 3573, 5688, 5968, 7209, 10103, 10137, 10204, 10603]}, "edge": {"target": [], "time": []}}, "mouseout": {"state": {"target": ["9", "8", "10", "1", "12", "9", "8", "3", "4", "6", "11", "28", "24", "31", "32"], "time": [190, 386, 437, 487, 573, 3388, 3539, 5655, 5723, 6687, 10037, 10121, 10170, 10345, 13439]}, "edge": {"target": [], "time": []}}}, "displayed_time": "17.72", "trialTime": 18620, "trial_type": "mouselab-mdp", "trial_index": 26, "time_elapsed": 883365, "internal_node_id": "0.0-6.0-1.0-17.0"}}, {"uniqueid": "w37384961:a42576428", "current_trial": 27, "dateTime": 1693581010789, "trialdata": {"revealed_states": [], "clicked_states": ["21", "16"], "num_clicks_accrued": [0, 0, 0, 0, 0, 0, 0, 0, 0, 0, 0, 0, 0], "stateRewards": ["", 1, -2, -3, 14, -42, -87, -37, -11, -50, 33, -44, -2, 4, -7, 13, 48, -75, -66, 12, 23, -2, 82, 1, -4, 3, 12, 51, -15, -26, -11, -52, -29, 82], "withholdReward": false, "trial_id": "mdp_trial_19", "block": "test", "trialIndex": 20, "score": 51.7, "costs": -4.3, "simulationMode": [null, null, null, null, null], "rewards": [-2, 4, -7, 13, 48], "path": ["0", "0", "12", "13", "14", "15", "16"], "rt": [8310, 367, 226, 171, 22], "actions": ["right", "right", "right", "up", "up"], "actionTimes": [9430, 10312, 11054, 11745, 12283], "queries": {"click": {"state": {"target": ["21", "16"], "time": [2152, 5369]}, "edge": {"target": [], "time": []}}, "mouseover": {"state": {"target": ["22", "21", "16", "17"], "time": [1845, 1893, 3212, 5729]}, "edge": {"target": [], "time": []}}, "mouseout": {"state": {"target": ["0", "22", "21", "16", "17"], "time": [1217, 1862, 2413, 5644, 13409]}, "edge": {"target": [], "time": []}}}, "displayed_time": "15.12", "trialTime": 18089, "trial_type": "mouselab-mdp", "trial_index": 27, "time_elapsed": 901803, "internal_node_id": "0.0-6.0-1.0-18.0"}}, {"uniqueid": "w37384961:a42576428", "current_trial": 28, "dateTime": 1693581034823, "trialdata": {"revealed_states": [], "clicked_states": ["5", "11", "33", "20", "21"], "num_clicks_accrued": [0, 0, 0, 0, 0, 0, 0, 0, 0, 0, 0, 0, 0], "stateRewards": ["", 2, -1, -1, 7, 11, -40, -22, -2, 69, 37, 8, -2, 4, -8, -12, -2, -72, -3, -12, 17, 63, 12, 1, 3, -7, 6, 25, 61, 61, -9, 28, -17, 27], "withholdReward": false, "trial_id": "mdp_trial_20", "block": "test", "trialIndex": 21, "score": 34.25, "costs": -10.75, "simulationMode": [null, null, null, null, null], "rewards": [-2, 4, -8, -12, 63], "path": ["0", "0", "12", "13", "14", "19", "21"], "rt": [18002, 377, 115, 2, 413], "actions": ["right", "right", "right", "down", "down"], "actionTimes": [19448, 20340, 20957, 21476, 22405], "queries": {"click": {"state": {"target": ["5", "11", "33", "20", "21"], "time": [2361, 5559, 8725, 11972, 15241]}, "edge": {"target": [], "time": []}}, "mouseover": {"state": {"target": ["1", "5", "6", "6", "4", "3", "8", "11", "28", "25", "33", "30", "31", "19", "20", "21", "19", "14", "18", "6"], "time": [1894, 2043, 2577, 3210, 3327, 3377, 3434, 3513, 6476, 6860, 7093, 9044, 9094, 9194, 9244, 12378, 15544, 15623, 15773, 16305]}, "edge": {"target": [], "time": []}}, "mouseout": {"state": {"target": ["0", "1", "5", "5", "6", "6", "4", "3", "8", "11", "28", "25", "33", "30", "31", "19", "20", "21", "19", "14", "18"], "time": [1043, 1926, 2437, 2545, 2644, 3277, 3360, 3410, 3455, 6142, 6776, 6927, 9010, 9078, 9112, 9211, 12278, 15494, 15593, 15678, 16022]}, "edge": {"target": [], "time": []}}}, "displayed_time": "22.91", "trialTime": 23728, "trial_type": "mouselab-mdp", "trial_index": 28, "time_elapsed": 925837, "internal_node_id": "0.0-6.0-1.0-19.0"}}, {"uniqueid": "w37384961:a42576428", "current_trial": 29, "dateTime": 1693581053138, "trialdata": {"revealed_states": [], "clicked_states": ["5", "11", "9"], "num_clicks_accrued": [0, 0, 0, 0, 0, 0, 0, 0, 0, 0, 0, 0, 0], "stateRewards": ["", -1, 2, -6, 6, 43, 78, 78, -2, 55, -29, -17, -2, -4, 1, -15, 13, 7, -79, 8, -28, -68, 36, -1, -3, 3, -16, 84, -18, 87, 10, 32, 13, -81], "withholdReward": false, "trial_id": "mdp_trial_21", "block": "test", "trialIndex": 22, "score": 41.55, "costs": -6.449999999999999, "simulationMode": [null, null, null, null, null], "rewards": [-1, 2, -6, -2, 55], "path": ["0", "0", "1", "2", "3", "8", "9"], "rt": [12527, 399, 124, 148, 41], "actions": ["up", "up", "up", "left", "up"], "actionTimes": [13712, 14612, 15252, 15908, 16470], "queries": {"click": {"state": {"target": ["5", "11", "9"], "time": [2179, 5693, 9331]}, "edge": {"target": [], "time": []}}, "mouseover": {"state": {"target": ["1", "2", "3", "5", "4", "3", "8", "11", "9", "4", "6"], "time": [1662, 1696, 1729, 1929, 2432, 2782, 2849, 3114, 6112, 9680, 9945]}, "edge": {"target": [], "time": []}}, "mouseout": {"state": {"target": ["6", "7", "1", "0", "1", "2", "3", "5", "4", "3", "8", "11", "9", "4", "6"], "time": [66, 467, 550, 1195, 1679, 1713, 1746, 2333, 2765, 2816, 3065, 5963, 9546, 9702, 17656]}, "edge": {"target": [], "time": []}}}, "displayed_time": "16.98", "trialTime": 18001, "trial_type": "mouselab-mdp", "trial_index": 29, "time_elapsed": 944151, "internal_node_id": "0.0-6.0-1.0-20.0"}}, {"uniqueid": "w37384961:a42576428", "current_trial": 30, "dateTime": 1693581080356, "trialdata": {"revealed_states": [], "clicked_states": ["17", "20", "33", "29", "9", "5"], "num_clicks_accrued": [0, 0, 0, 0, 0, 0, 0, 0, 0, 0, 0, 0, 0], "stateRewards": ["", 1, -4, 6, -3, 40, 76, -51, 5, -24, -63, 44, -2, -2, 8, 1, 76, -85, -58, 10, 59, 20, 11, -2, 3, -3, 3, -82, -10, 54, -7, -57, -6, -32], "withholdReward": false, "trial_id": "mdp_trial_22", "block": "test", "trialIndex": 23, "score": 60.1, "costs": -12.9, "simulationMode": [null, null, null, null, null], "rewards": [-2, -2, 8, 10, 59], "path": ["0", "0", "12", "13", "14", "19", "20"], "rt": [21138, 358, 120, 61, 151], "actions": ["right", "right", "right", "down", "right"], "actionTimes": [22231, 23085, 23730, 24305, 24975], "queries": {"click": {"state": {"target": ["17", "20", "33", "29", "9", "5"], "time": [2267, 5491, 8877, 12167, 15424, 18958]}, "edge": {"target": [], "time": []}}, "mouseover": {"state": {"target": ["20", "17", "15", "16", "20", "19", "22", "31", "30", "33", "29", "27", "11", "9", "5"], "time": [1637, 2085, 3568, 3731, 4997, 5781, 5849, 6381, 6449, 6648, 9314, 12646, 12713, 13012, 15828]}, "edge": {"target": [], "time": []}}, "mouseout": {"state": {"target": ["20", "17", "15", "16", "20", "19", "22", "31", "30", "33", "29", "27", "11", "9", "5", "11", "10"], "time": [1885, 2481, 3631, 4748, 5747, 5836, 5898, 6431, 6583, 9081, 12595, 12680, 12778, 15611, 26124, 26456, 26588]}, "edge": {"target": [], "time": []}}}, "displayed_time": "25.50", "trialTime": 26877, "trial_type": "mouselab-mdp", "trial_index": 30, "time_elapsed": 971369, "internal_node_id": "0.0-6.0-1.0-21.0"}}, {"uniqueid": "w37384961:a42576428", "current_trial": 31, "dateTime": 1693581096526, "trialdata": {"revealed_states": [], "clicked_states": ["11", "6"], "num_clicks_accrued": [0, 0, 0, 0, 0, 0, 0, 0, 0, 0, 0, 0, 0], "stateRewards": ["", 1, -3, -6, -5, 47, 80, -29, 11, -71, 10, -29, -2, 3, -6, 12, 2, -78, -6, 8, 34, -16, -5, -1, 3, 3, -13, 84, -36, -62, -3, -27, 66, 15], "withholdReward": false, "trial_id": "mdp_trial_23", "block": "test", "trialIndex": 24, "score": 62.7, "costs": -4.3, "simulationMode": [null, null, null, null, null], "rewards": [1, -3, -6, -5, 80], "path": ["0", "0", "1", "2", "3", "4", "6"], "rt": [9177, 403, 91, 158, 148], "actions": ["up", "up", "up", "right", "right"], "actionTimes": [10176, 11083, 11687, 12353, 13011], "queries": {"click": {"state": {"target": ["11", "6"], "time": [2695, 5829]}, "edge": {"target": [], "time": []}}, "mouseover": {"state": {"target": ["0", "12", "11", "6", "26", "29", "29"], "time": [1012, 1370, 2331, 3697, 6162, 6297, 6529]}, "edge": {"target": [], "time": []}}, "mouseout": {"state": {"target": ["23", "0", "0", "12", "11", "6", "26", "29", "29", "26", "28", "1"], "time": [131, 699, 1334, 1518, 3148, 5997, 6248, 6447, 14209, 14376, 14474, 14809]}, "edge": {"target": [], "time": []}}}, "displayed_time": "15.00", "trialTime": 15839, "trial_type": "mouselab-mdp", "trial_index": 31, "time_elapsed": 987539, "internal_node_id": "0.0-6.0-1.0-22.0"}}, {"uniqueid": "w37384961:a42576428", "current_trial": 32, "dateTime": 1693581115694, "trialdata": {"revealed_states": [], "clicked_states": ["21", "32"], "num_clicks_accrued": [0, 0, 0, 0, 0, 0, 0, 0, 0, 0, 0, 0, 0], "stateRewards": ["", 1, 1, -6, -2, 7, 77, 3, 16, -16, 66, 31, -1, 3, -8, -6, 33, -50, -48, 7, -60, -66, 36, 2, -3, 3, -7, -12, -61, -79, -4, 8, 74, -70], "withholdReward": false, "trial_id": "mdp_trial_24", "block": "test", "trialIndex": 25, "score": 67.7, "costs": -4.3, "simulationMode": [null, null, null, null, null], "rewards": [2, -3, 3, -4, 74], "path": ["0", "0", "23", "24", "25", "30", "32"], "rt": [9102, 427, 140, 48, 109], "actions": ["left", "left", "left", "down", "down"], "actionTimes": [13245, 14185, 14846, 15404, 16047], "queries": {"click": {"state": {"target": ["21", "32"], "time": [5149, 8579]}, "edge": {"target": [], "time": []}}, "mouseover": {"state": {"target": ["12", "22", "21", "32", "31", "24", "28", "8", "8", "9", "8"], "time": [4191, 4811, 4978, 6674, 8973, 9940, 9990, 10089, 10290, 10440, 12536]}, "edge": {"target": [], "time": []}}, "mouseout": {"state": {"target": ["18", "19", "21", "19", "0", "12", "22", "21", "32", "31", "24", "28", "8", "8", "9", "8", "10"], "time": [1544, 2022, 2410, 3089, 3873, 4674, 4855, 5392, 8757, 9922, 9974, 10006, 10122, 10322, 12504, 12586, 17618]}, "edge": {"target": [], "time": []}}}, "displayed_time": "18.14", "trialTime": 18822, "trial_type": "mouselab-mdp", "trial_index": 32, "time_elapsed": 1006706, "internal_node_id": "0.0-6.0-1.0-23.0"}}, {"uniqueid": "w37384961:a42576428", "current_trial": 33, "dateTime": 1693581133960, "trialdata": {"revealed_states": [], "clicked_states": ["21", "5", "9"], "num_clicks_accrued": [0, 0, 0, 0, 0, 0, 0, 0, 0, 0, 0, 0, 0], "stateRewards": ["", 1, -4, -6, -1, -21, 17, -72, 10, 77, 67, -46, -1, 4, -2, 14, -66, -49, -45, -15, -52, 23, -67, 2, -2, -2, 15, -3, 45, -64, 5, -44, 83, 61], "withholdReward": false, "trial_id": "mdp_trial_25", "block": "test", "trialIndex": 26, "score": 71.55, "costs": -6.449999999999999, "simulationMode": [null, null, null, null, null], "rewards": [1, -4, -6, 10, 77], "path": ["0", "0", "1", "2", "3", "8", "9"], "rt": [12222, 281, 88, 180, 54], "actions": ["up", "up", "up", "left", "up"], "actionTimes": [13166, 13971, 14576, 15255, 15828], "queries": {"click": {"state": {"target": ["21", "5", "9"], "time": [2468, 5744, 8911]}, "edge": {"target": [], "time": []}}, "mouseover": {"state": {"target": ["12", "22", "21", "23", "2", "4", "5", "9", "8", "26", "29"], "time": [1896, 1975, 2257, 3608, 3659, 3726, 3962, 6575, 9157, 9276, 9506]}, "edge": {"target": [], "time": []}}, "mouseout": {"state": {"target": ["2", "1", "0", "12", "22", "21", "23", "2", "4", "5", "9", "8", "26", "29", "25", "24"], "time": [343, 474, 953, 1910, 2040, 2534, 3625, 3692, 3926, 6092, 9125, 9174, 9308, 17103, 17135, 17418]}, "edge": {"target": [], "time": []}}}, "displayed_time": "16.36", "trialTime": 17898, "trial_type": "mouselab-mdp", "trial_index": 33, "time_elapsed": 1024973, "internal_node_id": "0.0-6.0-1.0-24.0"}}, {"uniqueid": "w37384961:a42576428", "current_trial": 34, "dateTime": 1693581155464, "trialdata": {"revealed_states": [], "clicked_states": ["9", "5", "29", "20"], "num_clicks_accrued": [0, 0, 0, 0, 0, 0, 0, 0, 0, 0, 0, 0, 0], "stateRewards": ["", 1, 3, 1, -13, 52, -28, 67, -14, 3, 63, -70, -1, -4, 7, -11, -10, 47, -18, 6, 69, -9, -61, 2, 3, -6, 10, 63, -34, 40, -6, -79, -35, -32], "withholdReward": false, "trial_id": "mdp_trial_26", "block": "test", "trialIndex": 27, "score": 68.4, "costs": -8.6, "simulationMode": [null, null, null, null, null], "rewards": [-1, -4, 7, 6, 69], "path": ["0", "0", "12", "13", "14", "19", "20"], "rt": [15449, 344, 50, 219, 119], "actions": ["right", "right", "right", "down", "right"], "actionTimes": [16499, 17337, 17908, 18659, 19279], "queries": {"click": {"state": {"target": ["9", "5", "29", "20"], "time": [2465, 5715, 9097, 12320]}, "edge": {"target": [], "time": []}}, "mouseover": {"state": {"target": ["10", "8", "9", "5", "3", "8", "28", "26", "29", "33", "30", "31", "19", "20"], "time": [1768, 1844, 2176, 3362, 6219, 6264, 6496, 6880, 7129, 9462, 9645, 9665, 9744, 9777]}, "edge": {"target": [], "time": []}}, "mouseout": {"state": {"target": ["23", "0", "10", "8", "9", "9", "5", "3", "8", "28", "26", "29", "33", "30", "31", "19", "20"], "time": [544, 1617, 1806, 2128, 2533, 2728, 6101, 6262, 6281, 6812, 6995, 9311, 9628, 9663, 9679, 9761, 15243]}, "edge": {"target": [], "time": []}}}, "displayed_time": "19.79", "trialTime": 21176, "trial_type": "mouselab-mdp", "trial_index": 34, "time_elapsed": 1046476, "internal_node_id": "0.0-6.0-1.0-25.0"}}, {"uniqueid": "w37384961:a42576428", "current_trial": 35, "dateTime": 1693581172061, "trialdata": {"revealed_states": [], "clicked_states": ["21", "9"], "num_clicks_accrued": [0, 0, 0, 0, 0, 0, 0, 0, 0, 0, 0, 0, 0], "stateRewards": ["", 2, 1, -3, 7, 46, 11, -36, 16, 71, 5, 1, 2, -2, -8, -3, -4, 6, 55, 7, 68, -54, 2, 1, 1, 6, -6, 42, -4, -84, -11, -65, 63, 25], "withholdReward": false, "trial_id": "mdp_trial_27", "block": "test", "trialIndex": 28, "score": 82.7, "costs": -4.3, "simulationMode": [null, null, null, null, null], "rewards": [2, 1, -3, 16, 71], "path": ["0", "0", "1", "2", "3", "8", "9"], "rt": [8418, 365, 93, 310, 82], "actions": ["up", "up", "up", "left", "up"], "actionTimes": [9466, 10326, 10935, 11754, 12342], "queries": {"click": {"state": {"target": ["21", "9"], "time": [2050, 5239]}, "edge": {"target": [], "time": []}}, "mouseover": {"state": {"target": ["12", "13", "19", "21", "12", "1", "2", "3", "9", "5"], "time": [1579, 1612, 1700, 1883, 2479, 2846, 2864, 2896, 3195, 5711]}, "edge": {"target": [], "time": []}}, "mouseout": {"state": {"target": ["13", "12", "12", "13", "19", "21", "12", "1", "2", "3", "9", "5", "3", "7"], "time": [396, 460, 1597, 1628, 1794, 2103, 2795, 2862, 2879, 2929, 5560, 13706, 14073, 14139]}, "edge": {"target": [], "time": []}}}, "displayed_time": "15.05", "trialTime": 16213, "trial_type": "mouselab-mdp", "trial_index": 35, "time_elapsed": 1063073, "internal_node_id": "0.0-6.0-1.0-26.0"}}, {"uniqueid": "w37384961:a42576428", "current_trial": 36, "dateTime": 1693581188528, "trialdata": {"revealed_states": [], "clicked_states": ["29"], "num_clicks_accrued": [0, 0, 0, 0, 0, 0, 0, 0, 0, 0, 0, 0, 0], "stateRewards": ["", -1, 3, 1, -11, -22, -36, 19, -5, -70, -52, 50, -2, -4, 4, -2, -41, -83, 29, -2, 22, 10, -6, -2, 3, -2, 14, 54, 44, 77, -9, -65, -37, -40], "withholdReward": false, "trial_id": "mdp_trial_28", "block": "test", "trialIndex": 29, "score": 87.85, "costs": -2.15, "simulationMode": [null, null, null, null, null], "rewards": [-2, 3, -2, 14, 77], "path": ["0", "0", "23", "24", "25", "26", "29"], "rt": [5293, 3, 6, 252, 5], "actions": ["left", "left", "left", "up", "left"], "actionTimes": [6318, 6844, 7363, 8142, 8662], "queries": {"click": {"state": {"target": ["29"], "time": [1901]}, "edge": {"target": [], "time": []}}, "mouseover": {"state": {"target": ["23", "24", "25", "29", "24", "23", "12", "14", "17"], "time": [1456, 1492, 1523, 1776, 2197, 2222, 2275, 2310, 2758]}, "edge": {"target": [], "time": []}}, "mouseout": {"state": {"target": ["23", "24", "25", "29", "24", "23", "12", "14", "17"], "time": [1476, 1507, 1556, 2140, 2215, 2231, 2292, 2327, 10820]}, "edge": {"target": [], "time": []}}}, "displayed_time": "15.03", "trialTime": 16080, "trial_type": "mouselab-mdp", "trial_index": 36, "time_elapsed": 1079540, "internal_node_id": "0.0-6.0-1.0-27.0"}}, {"uniqueid": "w37384961:a42576428", "current_trial": 37, "dateTime": 1693581205364, "trialdata": {"revealed_states": [], "clicked_states": ["17", "29"], "num_clicks_accrued": [0, 0, 0, 0, 0, 0, 0, 0, 0, 0, 0, 0, 0], "stateRewards": ["", -2, 2, -2, -7, -50, -62, -45, 7, 36, -24, -72, -1, -1, 8, -1, -67, 20, -52, 2, 35, -50, 80, -1, 1, 6, -6, -70, 6, 88, 8, -47, 74, -19], "withholdReward": false, "trial_id": "mdp_trial_29", "block": "test", "trialIndex": 30, "score": 83.7, "costs": -4.3, "simulationMode": [null, null, null, null, null], "rewards": [-1, 1, 6, -6, 88], "path": ["0", "0", "23", "24", "25", "26", "29"], "rt": [8292, 509, 175, 223, 56], "actions": ["left", "left", "left", "up", "left"], "actionTimes": [10268, 11284, 12000, 12730, 13299], "queries": {"click": {"state": {"target": ["17", "29"], "time": [2842, 6161]}, "edge": {"target": [], "time": []}}, "mouseover": {"state": {"target": ["15", "17", "17", "14", "13", "28", "26", "29", "27", "11", "9", "5"], "time": [2413, 2475, 2697, 3202, 3261, 3372, 3413, 3808, 6475, 6525, 6591, 7041]}, "edge": {"target": [], "time": []}}, "mouseout": {"state": {"target": ["17", "13", "12", "0", "15", "17", "17", "17", "14", "13", "28", "26", "29", "27", "11", "9", "5", "4", "4"], "time": [1160, 1341, 1475, 2180, 2442, 2494, 2917, 3093, 3259, 3275, 3399, 3658, 6442, 6509, 6541, 6791, 14953, 15006, 15072]}, "edge": {"target": [], "time": []}}}, "displayed_time": "15.98", "trialTime": 16425, "trial_type": "mouselab-mdp", "trial_index": 37, "time_elapsed": 1096376, "internal_node_id": "0.0-6.0-1.0-28.0"}}, {"uniqueid": "w37384961:a42576428", "current_trial": 38, "dateTime": 1693581230640, "trialdata": {"revealed_states": [], "clicked_states": ["21", "9", "29", "17", "32"], "num_clicks_accrued": [0, 0, 0, 0, 0, 0, 0, 0, 0, 0, 0, 0, 0], "stateRewards": ["", -1, 2, 6, 11, 21, -21, -21, -6, 48, -71, 88, -1, -3, 3, 7, 64, 2, 9, -4, 37, -67, 72, 2, 2, -8, -8, -10, 71, -40, -3, 73, 80, 47], "withholdReward": false, "trial_id": "mdp_trial_30", "block": "test", "trialIndex": 31, "score": 62.25, "costs": -10.75, "simulationMode": [null, null, null, null, null], "rewards": [2, 2, -8, -3, 80], "path": ["0", "0", "23", "24", "25", "30", "32"], "rt": [18879, 363, 79, 67, 57], "actions": ["left", "left", "left", "down", "down"], "actionTimes": [20026, 20908, 21503, 22072, 22646], "queries": {"click": {"state": {"target": ["21", "9", "29", "17", "32"], "time": [2362, 5649, 8979, 12128, 15477]}, "edge": {"target": [], "time": []}}, "mouseover": {"state": {"target": ["12", "22", "21", "12", "1", "2", "3", "9", "3", "27", "29", "26", "28", "1", "18", "15", "17", "16", "6", "6", "5", "1", "31", "32", "2", "4", "6"], "time": [1828, 1891, 2207, 3326, 4063, 4112, 4166, 4475, 6526, 6641, 6960, 9242, 9277, 9311, 9360, 9385, 9675, 12576, 12641, 12991, 13263, 13624, 13706, 13959, 16074, 16409, 16778]}, "edge": {"target": [], "time": []}}, "mouseout": {"state": {"target": ["4", "7", "0", "12", "22", "21", "12", "1", "2", "3", "9", "3", "27", "29", "26", "28", "1", "18", "15", "17", "16", "6", "6", "5", "1", "31", "32", "2", "4", "6"], "time": [59, 209, 1156, 1844, 1924, 2628, 3413, 4076, 4151, 4199, 6076, 6542, 6658, 9227, 9258, 9293, 9327, 9381, 9441, 12542, 12599, 12689, 13059, 13545, 13641, 13724, 15607, 16089, 16495, 24550]}, "edge": {"target": [], "time": []}}}, "displayed_time": "23.14", "trialTime": 24836, "trial_type": "mouselab-mdp", "trial_index": 38, "time_elapsed": 1121651, "internal_node_id": "0.0-6.0-1.0-29.0"}}, {"uniqueid": "w37384961:a42576428", "current_trial": 39, "dateTime": 1693581265706, "trialdata": {"revealed_states": [], "clicked_states": ["5", "6", "11", "33", "20", "27", "9", "17"], "num_clicks_accrued": [0, 0, 0, 0, 0, 0, 0, 0, 0, 0, 0, 0, 0], "stateRewards": ["", -1, -4, -6, -15, 21, -67, -63, 9, 51, 69, -14, -1, 3, 8, -8, 39, 72, 63, 15, 19, 47, 15, 1, 4, 5, 16, -18, 34, 35, -14, -80, 40, 1], "withholdReward": false, "trial_id": "mdp_trial_31", "block": "test", "trialIndex": 32, "score": 56.8, "costs": -17.2, "simulationMode": [null, null, null, null, null], "rewards": [-1, 3, 8, -8, 72], "path": ["0", "0", "12", "13", "14", "15", "17"], "rt": [28189, 365, 172, 481, 90], "actions": ["right", "right", "right", "up", "right"], "actionTimes": [29221, 30088, 30775, 31769, 32378], "queries": {"click": {"state": {"target": ["5", "6", "11", "33", "20", "27", "9", "17"], "time": [2333, 5548, 8706, 11826, 14984, 18485, 21664, 25039]}, "edge": {"target": [], "time": []}}, "mouseover": {"state": {"target": ["13", "19", "13", "18", "3", "5", "6", "3", "9", "11", "27", "29", "33", "30", "31", "19", "20", "19", "22", "24", "29", "27", "10", "2", "4", "5", "4", "3", "9", "3", "4", "16", "17", "14", "13", "32"], "time": [1493, 1644, 1809, 1828, 1925, 2142, 2562, 5941, 6094, 7907, 9460, 9576, 9861, 12308, 12328, 12741, 12924, 15359, 15395, 15460, 15845, 17559, 18758, 18776, 19242, 19625, 19908, 20274, 20460, 21990, 22011, 22058, 22373, 25822, 25862, 26488]}, "edge": {"target": [], "time": []}}, "mouseout": {"state": {"target": ["0", "13", "19", "13", "18", "3", "5", "6", "3", "9", "11", "27", "29", "33", "33", "30", "31", "19", "20", "19", "22", "24", "29", "27", "27", "10", "2", "4", "5", "4", "3", "9", "3", "4", "16", "17", "14", "13", "32", "0"], "time": [1078, 1526, 1765, 1827, 1844, 2077, 2494, 5804, 5977, 7880, 9022, 9509, 9644, 11881, 12276, 12325, 12343, 12792, 15329, 15392, 15411, 15476, 17493, 18546, 18692, 18773, 19127, 19292, 19790, 20030, 20291, 21960, 22008, 22023, 22091, 25355, 25859, 25880, 28340, 34150]}, "edge": {"target": [], "time": []}}}, "displayed_time": "32.89", "trialTime": 34550, "trial_type": "mouselab-mdp", "trial_index": 39, "time_elapsed": 1156719, "internal_node_id": "0.0-6.0-1.0-30.0"}}, {"uniqueid": "w37384961:a42576428", "current_trial": 40, "dateTime": 1693581300675, "trialdata": {"revealed_states": [], "clicked_states": ["5", "32", "21", "9", "29", "17", "31", "6"], "num_clicks_accrued": [0, 0, 0, 0, 0, 0, 0, 0, 0, 0, 0, 0, 0], "stateRewards": ["", 1, -1, 8, -3, 38, 85, -20, -4, 8, 23, 73, 2, -4, 6, -13, 44, 7, -28, -11, -77, 45, -69, 1, -1, -7, -11, 75, -51, -87, 7, 36, -53, -26], "withholdReward": false, "trial_id": "mdp_trial_32", "block": "test", "trialIndex": 33, "score": 72.8, "costs": -17.2, "simulationMode": [null, null, null, null, null], "rewards": [1, -1, 8, -3, 85], "path": ["0", "0", "1", "2", "3", "4", "6"], "rt": [29591, 339, 76, 331, 45], "actions": ["up", "up", "up", "right", "right"], "actionTimes": [30486, 31333, 31920, 32772, 33337], "queries": {"click": {"state": {"target": ["5", "32", "21", "9", "29", "17", "31", "6"], "time": [1557, 4789, 8086, 11355, 14548, 17884, 21698, 26293]}, "edge": {"target": [], "time": []}}, "mouseover": {"state": {"target": ["1", "4", "5", "4", "23", "24", "31", "32", "21", "12", "1", "10", "8", "9", "11", "27", "29", "26", "28", "1", "18", "15", "17", "23", "24", "31", "22", "13", "18", "6", "16", "16", "11", "11"], "time": [1101, 1182, 1383, 1804, 2369, 2437, 2588, 2717, 5550, 8565, 8600, 8684, 8781, 8915, 11767, 11815, 12015, 14881, 14917, 14965, 15031, 15098, 15454, 21292, 21342, 21492, 23396, 25724, 25742, 26091, 26610, 27446, 27678, 27859]}, "edge": {"target": [], "time": []}}, "mouseout": {"state": {"target": ["0", "1", "4", "5", "5", "4", "23", "24", "31", "32", "32", "21", "12", "1", "10", "8", "9", "11", "27", "29", "26", "28", "1", "18", "15", "17", "23", "24", "31", "22", "13", "18", "6", "16", "16", "11", "11"], "time": [1054, 1118, 1252, 1629, 1760, 1853, 2404, 2486, 2619, 4843, 5018, 8499, 8582, 8619, 8748, 8848, 11716, 11798, 11849, 14847, 14915, 14931, 14982, 15064, 15239, 18080, 21309, 21359, 21755, 25692, 25740, 25774, 26525, 26627, 27458, 27758, 29690]}, "edge": {"target": [], "time": []}}}, "displayed_time": "33.88", "trialTime": 34520, "trial_type": "mouselab-mdp", "trial_index": 40, "time_elapsed": 1191687, "internal_node_id": "0.0-6.0-1.0-31.0"}}, {"uniqueid": "w37384961:a42576428", "current_trial": 41, "dateTime": 1693581335354, "trialdata": {"revealed_states": [], "clicked_states": ["5", "29", "17", "21", "9", "32", "33", "16"], "num_clicks_accrued": [0, 0, 0, 0, 0, 0, 0, 0, 0, 0, 0, 0, 0], "stateRewards": ["", 1, 1, -7, -9, -44, 24, -83, -15, 44, -24, 72, -2, -3, 4, -5, 57, 55, 29, -11, 22, 12, -25, -1, 2, 7, 12, 33, -8, 47, -4, 8, 50, -4], "withholdReward": false, "trial_id": "mdp_trial_33", "block": "test", "trialIndex": 34, "score": 33.8, "costs": -17.2, "simulationMode": [null, null, null, null, null], "rewards": [-2, -3, 4, -5, 57], "path": ["0", "0", "12", "13", "14", "15", "16"], "rt": [28741, 281, 3, 282, 389], "actions": ["right", "right", "right", "up", "up"], "actionTimes": [30062, 30868, 31390, 32203, 33109], "queries": {"click": {"state": {"target": ["5", "29", "17", "21", "9", "32", "33", "16"], "time": [2384, 5578, 9198, 12620, 15838, 19100, 22502, 25810]}, "edge": {"target": [], "time": []}}, "mouseover": {"state": {"target": ["1", "2", "3", "5", "10", "26", "29", "26", "28", "1", "17", "20", "21", "13", "7", "3", "9", "8", "28", "24", "31", "32", "31", "30", "33", "30", "24", "1", "16"], "time": [1798, 1821, 1875, 2214, 3010, 3194, 3393, 5794, 5844, 5878, 6245, 9910, 10077, 13059, 13111, 13193, 13526, 16190, 16657, 16707, 16823, 17240, 19822, 20658, 20706, 22814, 22904, 23108, 23821]}, "edge": {"target": [], "time": []}}, "mouseout": {"state": {"target": ["11", "10", "0", "1", "2", "3", "5", "10", "26", "29", "26", "28", "1", "17", "20", "21", "13", "7", "3", "9", "9", "8", "28", "24", "31", "32", "31", "30", "33", "30", "24", "1", "16"], "time": [310, 442, 1748, 1818, 1859, 1915, 2594, 3047, 3227, 5777, 5828, 5861, 5893, 9543, 9980, 12975, 13076, 13142, 13208, 15887, 16158, 16209, 16690, 16775, 16924, 19374, 20639, 20673, 22592, 22837, 22923, 23131, 26007]}, "edge": {"target": [], "time": []}}}, "displayed_time": "33.62", "trialTime": 34271, "trial_type": "mouselab-mdp", "trial_index": 41, "time_elapsed": 1226367, "internal_node_id": "0.0-6.0-1.0-32.0"}}, {"uniqueid": "w37384961:a42576428", "current_trial": 42, "dateTime": 1693581351146, "trialdata": {"revealed_states": [], "clicked_states": ["11", "6"], "num_clicks_accrued": [0, 0, 0, 0, 0, 0, 0, 0, 0, 0, 0, 0, 0], "stateRewards": ["", -2, -3, 1, -7, 39, -67, 16, 5, -20, 73, 66, -1, 4, 5, -3, 23, -68, -87, -8, 3, -3, 17, 1, -4, -2, -13, -32, 34, 61, -5, -11, -18, 12], "withholdReward": false, "trial_id": "mdp_trial_34", "block": "test", "trialIndex": 35, "score": 62.7, "costs": -4.3, "simulationMode": [null, null, null, null, null], "rewards": [-2, -3, 1, 5, 66], "path": ["0", "0", "1", "2", "3", "8", "11"], "rt": [7850, 375, 24, 288, 65], "actions": ["up", "up", "up", "left", "left"], "actionTimes": [8863, 9752, 10297, 11095, 11673], "queries": {"click": {"state": {"target": ["11", "6"], "time": [2536, 5747]}, "edge": {"target": [], "time": []}}, "mouseover": {"state": {"target": ["0", "23", "10", "11", "4", "6"], "time": [1200, 1456, 1792, 2374, 3260, 3310]}, "edge": {"target": [], "time": []}}, "mouseout": {"state": {"target": ["1", "0", "0", "0", "23", "10", "11", "4", "6", "12"], "time": [356, 506, 1023, 1374, 1507, 2029, 2692, 3279, 13403, 14943]}, "edge": {"target": [], "time": []}}}, "displayed_time": "15.01", "trialTime": 15388, "trial_type": "mouselab-mdp", "trial_index": 42, "time_elapsed": 1242158, "internal_node_id": "0.0-6.0-1.0-33.0"}}, {"uniqueid": "w37384961:a42576428", "current_trial": 43, "dateTime": 1693581367381, "trialdata": {"revealed_states": [], "clicked_states": ["20"], "num_clicks_accrued": [0, 0, 0, 0, 0, 0, 0, 0, 0, 0, 0, 0, 0], "stateRewards": ["", -1, -4, -1, -5, -28, -23, -15, -15, -38, 59, -87, 2, 2, -5, 9, -55, -39, -71, -6, 85, -85, -11, -1, -2, 5, -10, 1, 25, 41, -4, 69, -35, 86], "withholdReward": false, "trial_id": "mdp_trial_35", "block": "test", "trialIndex": 36, "score": 75.85, "costs": -2.15, "simulationMode": [null, null, null, null, null], "rewards": [2, 2, -5, -6, 85], "path": ["0", "0", "12", "13", "14", "19", "20"], "rt": [5443, 3, 679, 93, 372], "actions": ["right", "right", "right", "down", "right"], "actionTimes": [6497, 7002, 8212, 8807, 9670], "queries": {"click": {"state": {"target": ["20"], "time": [2035]}, "edge": {"target": [], "time": []}}, "mouseover": {"state": {"target": ["18", "15", "20", "19", "22", "33"], "time": [1314, 1397, 1855, 2566, 2600, 3034]}, "edge": {"target": [], "time": []}}, "mouseout": {"state": {"target": ["18", "15", "20", "19", "22", "33", "30", "23"], "time": [1365, 1431, 2107, 2583, 2632, 5632, 10746, 10995]}, "edge": {"target": [], "time": []}}}, "displayed_time": "15.06", "trialTime": 15835, "trial_type": "mouselab-mdp", "trial_index": 43, "time_elapsed": 1258392, "internal_node_id": "0.0-6.0-1.0-34.0"}}, {"uniqueid": "w37384961:a42576428", "current_trial": 44, "dateTime": 1693581392941, "trialdata": {"revealed_states": [], "clicked_states": ["5", "32", "27", "21", "29"], "num_clicks_accrued": [0, 0, 0, 0, 0, 0, 0, 0, 0, 0, 0, 0, 0], "stateRewards": ["", -1, 1, 8, -8, -49, 62, -78, 16, 28, -81, 78, -2, -3, -1, -4, 67, 49, -2, -13, -16, -39, 83, 1, -4, 4, -5, -20, 7, 84, 7, -32, -59, 19], "withholdReward": false, "trial_id": "mdp_trial_36", "block": "test", "trialIndex": 37, "score": 69.25, "costs": -10.75, "simulationMode": [null, null, null, null, null], "rewards": [1, -4, 4, -5, 84], "path": ["0", "0", "23", "24", "25", "26", "29"], "rt": [19192, 388, 168, 30, 405], "actions": ["left", "left", "left", "up", "left"], "actionTimes": [20392, 21300, 22000, 22558, 23478], "queries": {"click": {"state": {"target": ["5", "32", "27", "21", "29"], "time": [2113, 5281, 8527, 12014, 15772]}, "edge": {"target": [], "time": []}}, "mouseover": {"state": {"target": ["0", "7", "6", "5", "4", "10", "26", "33", "32", "30", "25", "26", "27", "1", "13", "21", "24", "26", "29", "26", "28", "1", "15", "17"], "time": [1395, 1476, 1529, 1860, 2380, 2728, 3029, 3229, 3511, 5844, 5878, 5960, 6127, 9460, 9510, 10142, 15256, 15478, 15588, 15975, 16009, 16042, 16410, 16476]}, "edge": {"target": [], "time": []}}, "mouseout": {"state": {"target": ["0", "0", "7", "6", "5", "4", "10", "26", "33", "32", "30", "25", "26", "27", "1", "13", "21", "24", "26", "29", "26", "28", "1", "15", "17"], "time": [1211, 1427, 1511, 1577, 2329, 2396, 2813, 3079, 3311, 5527, 5861, 5910, 6045, 9392, 9477, 9879, 12643, 15355, 15555, 15943, 15994, 16026, 16076, 16442, 19190]}, "edge": {"target": [], "time": []}}}, "displayed_time": "24.00", "trialTime": 25108, "trial_type": "mouselab-mdp", "trial_index": 44, "time_elapsed": 1283952, "internal_node_id": "0.0-6.0-1.0-35.0"}}, {"uniqueid": "w37384961:a42576428", "current_trial": 45, "dateTime": 1693581436000, "trialdata": {"revealed_states": [], "clicked_states": ["20", "11", "16", "32", "29", "5", "33", "6", "10", "18"], "num_clicks_accrued": [0, 0, 0, 0, 0, 0, 0, 0, 0, 0, 0, 0, 0], "stateRewards": ["", -1, 3, -7, 16, -32, -74, -48, 2, 10, 15, -30, 1, 1, -2, 10, 12, -83, 67, 13, -66, 47, 65, -2, 4, 2, -14, -8, -57, 24, 9, 65, 12, 46], "withholdReward": false, "trial_id": "mdp_trial_37", "block": "test", "trialIndex": 38, "score": 55.5, "costs": -21.499999999999996, "simulationMode": [null, null, null, null, null], "rewards": [1, 1, -2, 10, 67], "path": ["0", "0", "12", "13", "14", "15", "18"], "rt": [36558, 283, 104, 202, 428], "actions": ["right", "right", "right", "up", "left"], "actionTimes": [38352, 39158, 39777, 40491, 41434], "queries": {"click": {"state": {"target": ["20", "11", "16", "32", "29", "5", "33", "6", "10", "18"], "time": [3001, 6178, 9390, 12705, 15894, 19143, 22354, 25674, 30287, 34365]}, "edge": {"target": [], "time": []}}, "mouseover": {"state": {"target": ["12", "12", "13", "20", "19", "12", "11", "8", "16", "16", "23", "31", "32", "29", "26", "2", "6", "5", "4", "7", "2", "28", "25", "33", "7", "6", "7", "10", "2", "18"], "time": [1830, 2497, 2547, 2847, 3300, 3366, 4182, 6682, 6815, 7597, 9820, 9931, 10113, 13697, 16528, 16614, 16979, 17214, 19530, 19628, 20094, 20211, 20346, 20527, 22743, 23028, 29574, 29910, 30590, 33639]}, "edge": {"target": [], "time": []}}, "mouseout": {"state": {"target": ["0", "12", "12", "13", "20", "20", "19", "12", "11", "8", "16", "16", "16", "23", "31", "32", "29", "26", "2", "6", "5", "4", "7", "2", "28", "25", "33", "7", "6", "6", "7", "10", "2", "18"], "time": [1805, 2434, 2530, 2565, 3116, 3251, 3317, 3416, 6648, 6698, 7265, 9455, 9699, 9857, 9949, 13165, 16495, 16545, 16628, 17012, 19496, 19577, 20061, 20111, 20227, 20415, 22595, 22777, 25739, 25964, 29726, 30507, 30658, 35041]}, "edge": {"target": [], "time": []}}}, "displayed_time": "41.96", "trialTime": 42638, "trial_type": "mouselab-mdp", "trial_index": 45, "time_elapsed": 1327012, "internal_node_id": "0.0-6.0-1.0-36.0"}}, {"uniqueid": "w37384961:a42576428", "current_trial": 46, "dateTime": 1693581460553, "trialdata": {"revealed_states": [], "clicked_states": ["11", "20", "29", "5", "32"], "num_clicks_accrued": [0, 0, 0, 0, 0, 0, 0, 0, 0, 0, 0, 0, 0], "stateRewards": ["", -1, -3, 3, 5, 56, 39, 50, -1, -80, 33, -46, 1, -2, -6, -8, 87, 48, 54, -11, -20, -64, -54, -2, 3, -7, -3, 12, 88, 35, -16, -46, -70, -3], "withholdReward": false, "trial_id": "mdp_trial_38", "block": "test", "trialIndex": 39, "score": 49.25, "costs": -10.75, "simulationMode": [null, null, null, null, null], "rewards": [-1, -3, 3, 5, 56], "path": ["0", "0", "1", "2", "3", "4", "5"], "rt": [19089, 315, 27, 161, 27], "actions": ["up", "up", "up", "right", "up"], "actionTimes": [20218, 21055, 21605, 22299, 22845], "queries": {"click": {"state": {"target": ["11", "20", "29", "5", "32"], "time": [1812, 5479, 8634, 12266, 15809]}, "edge": {"target": [], "time": []}}, "mouseover": {"state": {"target": ["11", "10", "18", "20", "19", "31", "25", "29", "8", "5", "5", "4", "0", "31", "32"], "time": [1696, 2055, 4987, 5320, 5756, 6307, 6407, 6689, 9073, 9121, 9389, 12588, 12723, 12988, 13241]}, "edge": {"target": [], "time": []}}, "mouseout": {"state": {"target": ["0", "11", "10", "18", "20", "20", "19", "31", "25", "29", "8", "5", "5", "4", "0", "31", "32"], "time": [822, 2006, 2089, 5020, 5547, 5739, 5773, 6340, 6489, 9006, 9090, 9256, 12554, 12623, 12745, 13023, 16087]}, "edge": {"target": [], "time": []}}}, "displayed_time": "23.39", "trialTime": 24148, "trial_type": "mouselab-mdp", "trial_index": 46, "time_elapsed": 1351566, "internal_node_id": "0.0-6.0-1.0-37.0"}}, {"uniqueid": "w37384961:a42576428", "current_trial": 47, "dateTime": 1693581476478, "trialdata": {"revealed_states": [], "clicked_states": ["10"], "num_clicks_accrued": [0, 0, 0, 0, 0, 0, 0, 0, 0, 0, 0, 0, 0], "stateRewards": ["", -2, -3, 4, 1, 33, -53, 15, 9, -12, 61, -6, -2, 4, 6, -11, 47, -43, -7, -11, 46, 23, -28, -1, -1, 3, -10, 11, 76, -76, 10, 18, -38, 87], "withholdReward": false, "trial_id": "mdp_trial_39", "block": "test", "trialIndex": 40, "score": 66.85, "costs": -2.15, "simulationMode": [null, null, null, null, null], "rewards": [-2, -3, 4, 9, 61], "path": ["0", "0", "1", "2", "3", "8", "10"], "rt": [5198, 45, 49, 10, 68], "actions": ["up", "up", "up", "left", "down"], "actionTimes": [6286, 6849, 7436, 7978, 8569], "queries": {"click": {"state": {"target": ["10"], "time": [2059]}, "edge": {"target": [], "time": []}}, "mouseover": {"state": {"target": ["23", "10", "1", "7"], "time": [1500, 1873, 2287, 5149]}, "edge": {"target": [], "time": []}}, "mouseout": {"state": {"target": ["0", "23", "10", "1", "7", "18"], "time": [1404, 1550, 2221, 2321, 5192, 10632]}, "edge": {"target": [], "time": []}}}, "displayed_time": "15.09", "trialTime": 15505, "trial_type": "mouselab-mdp", "trial_index": 47, "time_elapsed": 1367474, "internal_node_id": "0.0-6.0-1.0-38.0"}}, {"uniqueid": "w37384961:a42576428", "current_trial": 48, "dateTime": 1693581507962, "trialdata": {"revealed_states": [], "clicked_states": ["27", "5", "17", "21", "9", "33"], "num_clicks_accrued": [0, 0, 0, 0, 0, 0, 0, 0, 0, 0, 0, 0, 0], "stateRewards": ["", 2, -1, 3, -12, -83, 6, -33, 9, 28, 24, -50, -2, -1, -2, -5, -87, 37, 82, 12, 80, -5, 10, -2, -3, -6, 9, 22, -1, 16, 9, 77, -62, 58], "withholdReward": false, "trial_id": "mdp_trial_40", "block": "test", "trialIndex": 41, "score": 43.1, "costs": -12.9, "simulationMode": [null, null, null, null, null], "rewards": [-2, -3, -6, 9, 58], "path": ["0", "0", "23", "24", "25", "30", "33"], "rt": [23286, 315, 131, 78, 119], "actions": ["left", "left", "left", "down", "left"], "actionTimes": [25148, 25986, 26631, 27209, 27848], "queries": {"click": {"state": {"target": ["27", "5", "17", "21", "9", "33"], "time": [3829, 7090, 10471, 14194, 17408, 20770]}, "edge": {"target": [], "time": []}}, "mouseover": {"state": {"target": ["25", "26", "27", "8", "5", "6", "16", "17", "20", "21", "32", "30", "26", "11", "9", "8", "10", "28", "25", "33", "32"], "time": [3201, 3467, 3685, 4491, 4554, 7435, 7539, 7801, 10885, 13900, 15401, 16255, 16283, 16333, 16749, 17699, 17734, 18067, 18132, 18333, 21939]}, "edge": {"target": [], "time": []}}, "mouseout": {"state": {"target": ["0", "25", "26", "27", "8", "5", "6", "16", "17", "20", "21", "32", "30", "26", "11", "9", "8", "10", "28", "25", "33", "32"], "time": [2205, 3219, 3568, 4087, 4511, 7391, 7486, 7586, 10703, 13799, 14802, 16234, 16267, 16301, 16351, 17667, 17715, 17749, 18099, 18198, 21035, 24312]}, "edge": {"target": [], "time": []}}}, "displayed_time": "28.36", "trialTime": 30948, "trial_type": "mouselab-mdp", "trial_index": 48, "time_elapsed": 1398974, "internal_node_id": "0.0-6.0-1.0-39.0"}}, {"uniqueid": "w37384961:a42576428", "current_trial": 49, "dateTime": 1693581562171, "trialdata": {"rt": 54156, "response": {"Q0": "$-2 to $2", "Q1": "$-16 to $16", "Q2": "$-88 to $88", "Q3": "The cost for clicking on nodes varied between nodes.", "Q4": "Very motivated"}, "question_order": [0, 1, 2, 3, 4], "trial_id": "final_quiz_control", "trial_type": "survey-multi-choice", "trial_index": 49, "time_elapsed": 1453176, "internal_node_id": "0.0-6.0-2.0"}}, {"uniqueid": "w37384961:a42576428", "current_trial": 50, "dateTime": 1693581694713, "trialdata": {"rt": 132489, "response": {"Q0": "Just to click the nodes as fast as possible to see the best values ", "Q1": "This is my first time with the web game. I got the hang of it from about game 20. ", "Q2": "Not realy difficult. I noticed that i had to get to the last node very fast to see that value because it is a big value"}, "trial_id": "self_report_control", "trial_type": "survey-text", "trial_index": 50, "time_elapsed": 1585727, "internal_node_id": "0.0-6.0-3.0"}}, {"uniqueid": "w37384961:a42576428", "current_trial": 51, "dateTime": 1693581777545, "trialdata": {"rt": 82814, "response": {"Q0": "Agree", "Q1": "Disagree", "Q2": "Agree", "Q3": "Disagree", "Q4": "Disagree", "Q5": "Agree", "Q6": "Strongly disagree"}, "question_order": [0, 1, 2, 3, 4, 5, 6], "trial_id": "self_report_2", "trial_type": "survey-multi-choice", "trial_index": 51, "time_elapsed": 1668558, "internal_node_id": "0.0-6.0-4.0"}}, {"uniqueid": "w37384961:a42576428", "current_trial": 52, "dateTime": 1693581804608, "trialdata": {"rt": 27050, "response": {"gender": "male", "age": "44", "colorblind": "0", "effort": "0"}, "trial_type": "survey-html-form", "trial_index": 52, "time_elapsed": 1695622, "internal_node_id": "0.0-6.0-5.0"}}, {"uniqueid": "w37384961:a42576428", "current_trial": 53, "dateTime": 1693581855206, "trialdata": {"rt": 50588, "response": {"Q0": "None ", "Q1": "No I cant remember at all", "Q2": "I enjoyed the game thoroughly "}, "trial_type": "survey-text", "trial_index": 53, "time_elapsed": 1746219, "internal_node_id": "0.0-6.0-6.0"}}, {"uniqueid": "w37384961:a42576428", "current_trial": 54, "dateTime": 1693581900459, "trialdata": {"rt": 45244, "stimulus": "<h1>Completion Code Instructions (1/2)</h1>\n<br><br><br><br>\nYou have reached the end of the experiment! The completion code consists of two parts: (1) a code with 2 characters (2) a code with 6 characters. On this page, you will receive the second part of the code. The first part of the completion code will be on the next page.\n<br><br>\nThe second part of your completion code is: <b>EWEK22</b>\n<br><br>\nPlease note this down. Then, press 'Next' in order to find the first part of your completion code. Once the data has been saved, you will receive this code either in this window or in the original browser window where you started the experiment.\n <br><br>\n<h2 style='color: red;'>Note: this is <strong>NOT</strong> the full completion code. Copy this down and click 'Next' to get the full completion code on the next page.</h2>", "response": 0, "trial_type": "html-button-response", "trial_index": 54, "time_elapsed": 1791473, "internal_node_id": "0.0-6.0-7.0"}}, {"uniqueid": "w37384961:a42576428", "current_trial": 55, "dateTime": 1693581901465, "trialdata": {"success": true, "trial_type": "fullscreen", "trial_index": 55, "time_elapsed": 1792479, "internal_node_id": "0.0-7.0"}}], "questiondata": {"params": {"CODE": "C6DMOQA6", "MIN_TIME": 14, "inspectCost": 1, "startTime": "Fri Sep 01 2023 16:55:07 GMT+0200 (South Africa Standard Time)", "bonusRate": 0.002, "variance": "1_2_4_8_44", "branching": "31123"}}, "eventdata": [{"eventtype": "initialized", "value": null, "timestamp": 1693580106668, "interval": 0}, {"eventtype": "window_resize", "value": [1280, 661], "timestamp": 1693580106668, "interval": 0}, {"eventtype": "window_resize", "value": [1280, 661], "timestamp": 1693580107160, "interval": 492}, {"eventtype": "window_resize", "value": [1280, 720], "timestamp": 1693580116760, "interval": 9600}, {"eventtype": "window_resize", "value": [1280, 661], "timestamp": 1693581900738, "interval": 1783978}], "useragent": "Mozilla/5.0 (Windows NT 10.0; Win64; x64) AppleWebKit/537.36 (KHTML, like Gecko) Chrome/116.0.0.0 Safari/537.36", "mode": "live", "id": "w37384961:a42576428", "status": "user data saved", "Beginhit": "2023-09-01 14:55:03.059906", "Beginexp": "2023-09-01 14:55:17.779217", "Endhit": "2023-09-01 15:25:01.939046", "psiturkStatus": 3, "browser": "<redacted>", "platform": "windows", "language": "en-GB"}