{"condition": 1, "counterbalance": 0, "assignmentId": "a68599091", "workerId": "w86712303", "hitId": "h30436130", "currenttrial": 56, "bonus": 0, "data": [{"uniqueid": "w86712303:a68599091", "current_trial": 0, "dateTime": 1693480767149, "trialdata": {"success": true, "trial_type": "fullscreen", "trial_index": 0, "time_elapsed": 6926, "internal_node_id": "0.0-0.0"}}, {"uniqueid": "w86712303:a68599091", "current_trial": 1, "dateTime": 1693480798335, "trialdata": {"view_history": [{"page_index": 0, "viewing_time": 31184}], "rt": 31184, "trial_id": "exp_instructions_misaligned", "trial_type": "instructions", "trial_index": 1, "time_elapsed": 38112, "internal_node_id": "0.0-1.0"}}, {"uniqueid": "w86712303:a68599091", "current_trial": 2, "dateTime": 1693481222757, "trialdata": {"view_history": [{"page_index": 0, "viewing_time": 114054}, {"page_index": 1, "viewing_time": 193311}, {"page_index": 2, "viewing_time": 36449}, {"page_index": 3, "viewing_time": 80607}], "rt": 424421, "trial_id": "mouselab_instructions_1_misaligned", "trial_type": "instructions", "trial_index": 2, "time_elapsed": 462534, "internal_node_id": "0.0-2.0-1.0"}}, {"uniqueid": "w86712303:a68599091", "current_trial": 3, "dateTime": 1693481251288, "trialdata": {"revealed_states": [], "clicked_states": ["33", "27", "25"], "num_clicks_accrued": [0, 0, 0, 0, 0, 0, 0, 0, 0, 0, 0, 0, 0], "stateRewards": ["", 10, 10, 10, -10, 10, 10, 10, 10, 10, -10, -10, -10, -10, -10, -10, 10, -10, -10, -10, -10, -10, 10, -10, 10, 10, -10, 10, -10, -10, -10, -10, -10, 10], "withholdReward": false, "trial_id": "practice_1", "block": "test", "trialIndex": 0, "score": 12, "costs": -1.5, "simulationMode": [null, null, null, null, null], "rewards": [-10, 10, 10, -10, 10], "path": ["0", "0", "23", "24", "25", "30", "33"], "rt": [16395, 262, 866, 123, 145], "actions": ["left", "left", "left", "down", "left"], "actionTimes": [18237, 19006, 20373, 20998, 21645], "queries": {"click": {"state": {"target": ["33", "27", "25"], "time": [5313, 9136, 13112]}, "edge": {"target": [], "time": []}}, "mouseover": {"state": {"target": ["23", "30", "33", "25", "26", "27", "25"], "time": [2204, 2805, 3005, 7971, 8340, 8568, 12173]}, "edge": {"target": [], "time": []}}, "mouseout": {"state": {"target": ["0", "23", "30", "33", "33", "25", "26", "27", "25"], "time": [2188, 2212, 2828, 5729, 7901, 8053, 8357, 10261, 13923]}, "edge": {"target": [], "time": []}}}, "displayed_time": "22.15", "trialTime": 27493, "trial_type": "mouselab-mdp", "trial_index": 3, "time_elapsed": 491065, "internal_node_id": "0.0-2.0-2.0-0.0"}}, {"uniqueid": "w86712303:a68599091", "current_trial": 4, "dateTime": 1693481270369, "trialdata": {"revealed_states": [], "clicked_states": ["5", "2"], "num_clicks_accrued": [0, 0, 0, 0, 0, 0, 0, 0, 0, 0, 0, 0, 0], "stateRewards": ["", 10, 10, 10, -10, 10, 10, -10, 10, -10, 10, -10, -10, -10, -10, -10, 10, 10, 10, 10, -10, -10, -10, 10, 10, -10, 10, 10, 10, -10, 10, 10, 10, -10], "withholdReward": false, "trial_id": "practice_2", "block": "test", "trialIndex": 1, "score": 32.5, "costs": -1, "simulationMode": [null, null, null, null, null], "rewards": [10, 10, 10, -10, 10], "path": ["0", "0", "1", "2", "3", "4", "5"], "rt": [6412, 115, 3333, 186, 228], "actions": ["up", "up", "up", "right", "up"], "actionTimes": [8709, 9324, 13165, 13852, 14581], "queries": {"click": {"state": {"target": ["5", "2"], "time": [3623, 5662]}, "edge": {"target": [], "time": []}}, "mouseover": {"state": {"target": ["1", "5", "2"], "time": [2819, 3164, 5459]}, "edge": {"target": [], "time": []}}, "mouseout": {"state": {"target": ["0", "1", "5", "2", "7", "16"], "time": [2788, 2836, 5179, 16444, 16451, 16475]}, "edge": {"target": [], "time": []}}}, "displayed_time": "15.08", "trialTime": 18941, "trial_type": "mouselab-mdp", "trial_index": 4, "time_elapsed": 510145, "internal_node_id": "0.0-2.0-2.0-1.0"}}, {"uniqueid": "w86712303:a68599091", "current_trial": 5, "dateTime": 1693481323982, "trialdata": {"view_history": [{"page_index": 0, "viewing_time": 34778}, {"page_index": 1, "viewing_time": 18833}], "rt": 53611, "trial_id": "mouselab_instructions_2_misaligned", "trial_type": "instructions", "trial_index": 5, "time_elapsed": 563758, "internal_node_id": "0.0-2.0-3.0"}}, {"uniqueid": "w86712303:a68599091", "current_trial": 6, "dateTime": 1693481377645, "trialdata": {"rt": 53661, "response": {"Q0": "The cost for clicking on nodes may vary between nodes.", "Q1": "The better I perform the higher my bonus will be.", "Q2": "No, the amount of cash at each node of the web may be different each time.", "Q3": "To get the highest total score.", "Q4": "Only before moving the spider.", "Q5": "3 seconds"}, "question_order": [0, 1, 2, 3, 4, 5], "correct": {"Q0": "The cost for clicking on nodes may vary between nodes.", "Q1": "The better I perform the higher my bonus will be.", "Q2": "No, the amount of cash at each node of the web may be different each time.", "Q3": "To get the highest total score.", "Q4": "Only before moving the spider.", "Q5": "3 seconds"}, "trial_id": "mouselab_quiz_misaligned", "trial_type": "survey-multi-choice", "trial_index": 6, "time_elapsed": 617422, "internal_node_id": "0.0-2.0-4.0"}}, {"uniqueid": "w86712303:a68599091", "current_trial": 7, "dateTime": 1693481386725, "trialdata": {"rt": 9076, "response": {"Q0": "No"}, "question_order": [0], "trial_id": "repeat_check", "trial_type": "survey-multi-choice", "trial_index": 7, "time_elapsed": 626502, "internal_node_id": "0.0-4.0-0.0"}}, {"uniqueid": "w86712303:a68599091", "current_trial": 8, "dateTime": 1693481415944, "trialdata": {"rt": 29215, "stimulus": "\n<h1> Get ready to start the game! </h1>\n\nThank you for reading the instructions. Get ready start with the 40 rounds of this game.\n<br><br>\nIf you need to take a break, feel free to take one after the end of a round, before continuing to the next one.\n<br><br>\nRemember, the more money the spider gets, the bigger your bonus will be!\n<br><br>\n<div style='text-align: center;'>Press <code>space</code> to begin.</div>\n\n<br><br>\n(If, at any point, the <code>space</code> key does not take you to the next page, click once on the text and try again.)", "response": " ", "trial_id": "mdp_ready", "trial_type": "html-keyboard-response", "trial_index": 8, "time_elapsed": 655721, "internal_node_id": "0.0-6.0-0.0"}}, {"uniqueid": "w86712303:a68599091", "current_trial": 9, "dateTime": 1693481443760, "trialdata": {"revealed_states": [], "clicked_states": ["5", "9"], "num_clicks_accrued": [0, 0, 0, 0, 0, 0, 0, 0, 0, 0, 0, 0, 0], "stateRewards": ["", -1, 3, -7, 16, -32, -74, -48, 2, 10, 15, -30, 1, 1, -2, 10, 12, -83, 67, 13, -66, 47, 65, -2, 4, 2, -14, -8, -57, 24, 9, 65, 12, 46], "withholdReward": false, "trial_id": "mdp_trial_1", "block": "test", "trialIndex": 2, "score": 2.6999999999999993, "costs": -4.3, "simulationMode": [null, null, null, null, null], "rewards": [-1, 3, -7, 2, 10], "path": ["0", "0", "1", "2", "3", "8", "9"], "rt": [9321, 167, 142, 176, 167], "actions": ["up", "up", "up", "left", "up"], "actionTimes": [12428, 13099, 13740, 14420, 15092], "queries": {"click": {"state": {"target": ["5", "9"], "time": [4565, 8277]}, "edge": {"target": [], "time": []}}, "mouseover": {"state": {"target": ["7", "4", "5", "9", "8", "2"], "time": [3395, 3499, 3676, 5639, 10320, 10514]}, "edge": {"target": [], "time": []}}, "mouseout": {"state": {"target": ["28", "23", "0", "7", "4", "5", "9", "8", "2"], "time": [2083, 2312, 3219, 3443, 3515, 5313, 10104, 10326, 10639]}, "edge": {"target": [], "time": []}}}, "displayed_time": "17.11", "trialTime": 27668, "trial_type": "mouselab-mdp", "trial_index": 9, "time_elapsed": 683537, "internal_node_id": "0.0-6.0-1.0-0.0"}}, {"uniqueid": "w86712303:a68599091", "current_trial": 10, "dateTime": 1693481467664, "trialdata": {"revealed_states": [], "clicked_states": ["13", "15", "19"], "num_clicks_accrued": [0, 0, 0, 0, 0, 0, 0, 0, 0, 0, 0, 0, 0], "stateRewards": ["", 2, 4, 7, 7, -79, -2, -21, -5, -53, 47, -21, 1, -3, -1, 7, 83, 7, 84, -7, 80, -37, 69, 2, -4, 5, 2, 4, -20, -30, 7, 71, 44, -81], "withholdReward": false, "trial_id": "mdp_trial_2", "block": "test", "trialIndex": 3, "score": 7.55, "costs": -3.45, "simulationMode": [null, null, null, null, null], "rewards": [1, -3, -1, 7, 7], "path": ["0", "0", "12", "13", "14", "15", "17"], "rt": [6078, 236, 563, 111, 517], "actions": ["right", "right", "right", "up", "right"], "actionTimes": [7059, 7803, 8866, 9475, 10499], "queries": {"click": {"state": {"target": ["13", "15", "19"], "time": [2021, 3716, 5716]}, "edge": {"target": [], "time": []}}, "mouseover": {"state": {"target": ["13", "13", "15", "14", "19"], "time": [1418, 1818, 3038, 4827, 4940]}, "edge": {"target": [], "time": []}}, "mouseout": {"state": {"target": ["7", "13", "13", "15", "14", "19"], "time": [305, 1562, 2551, 4802, 4866, 5981]}, "edge": {"target": [], "time": []}}}, "displayed_time": "14.99", "trialTime": 23755, "trial_type": "mouselab-mdp", "trial_index": 10, "time_elapsed": 707441, "internal_node_id": "0.0-6.0-1.0-1.0"}}, {"uniqueid": "w86712303:a68599091", "current_trial": 11, "dateTime": 1693481488073, "trialdata": {"revealed_states": [], "clicked_states": ["2", "8", "11"], "num_clicks_accrued": [0, 0, 0, 0, 0, 0, 0, 0, 0, 0, 0, 0, 0], "stateRewards": ["", 1, 3, -2, 15, 51, 15, -19, 11, 67, -45, -73, 2, 4, -2, -13, 36, 9, -28, 10, -30, 31, 16, 1, 2, -1, -16, 14, -22, 36, -1, 88, -5, 45], "withholdReward": false, "trial_id": "mdp_trial_3", "block": "test", "trialIndex": 4, "score": -36.05, "costs": -4.05, "simulationMode": [null, null, null, null, null], "rewards": [1, 3, -2, 11, -45], "path": ["0", "0", "1", "2", "3", "8", "10"], "rt": [8814, 181, 207, 123, 162], "actions": ["up", "up", "up", "left", "down"], "actionTimes": [10198, 10886, 11612, 12244, 12908], "queries": {"click": {"state": {"target": ["2", "8", "11"], "time": [2295, 3958, 6286]}, "edge": {"target": [], "time": []}}, "mouseover": {"state": {"target": ["1", "2", "8", "11", "3", "4", "6"], "time": [1780, 2050, 3492, 6108, 6605, 6633, 6647]}, "edge": {"target": [], "time": []}}, "mouseout": {"state": {"target": ["14", "13", "12", "0", "1", "2", "8", "11", "8", "3", "4", "6"], "time": [692, 787, 940, 1499, 1956, 3258, 5973, 6557, 6598, 6626, 6640, 6675]}, "edge": {"target": [], "time": []}}}, "displayed_time": "15.38", "trialTime": 20246, "trial_type": "mouselab-mdp", "trial_index": 11, "time_elapsed": 727850, "internal_node_id": "0.0-6.0-1.0-2.0"}}, {"uniqueid": "w86712303:a68599091", "current_trial": 12, "dateTime": 1693481520071, "trialdata": {"revealed_states": [], "clicked_states": ["25", "33", "29", "28", "6", "20"], "num_clicks_accrued": [0, 0, 0, 0, 0, 0, 0, 0, 0, 0, 0, 0, 0], "stateRewards": ["", 1, 1, 5, 6, -29, -7, 3, -16, 9, -46, 65, -1, 4, -1, -16, -63, -77, -87, 8, 80, -50, 43, -1, -1, -5, 5, -38, -71, -62, 9, 81, -50, -52], "withholdReward": false, "trial_id": "mdp_trial_4", "block": "test", "trialIndex": 5, "score": 78.3, "costs": -11.700000000000001, "simulationMode": [null, null, null, null, null], "rewards": [-1, 4, -1, 8, 80], "path": ["0", "0", "12", "13", "14", "19", "20"], "rt": [21424, 113, 150, 66, 139], "actions": ["right", "right", "right", "down", "right"], "actionTimes": [23572, 24187, 24835, 25403, 26053], "queries": {"click": {"state": {"target": ["25", "33", "29", "28", "6", "20"], "time": [3151, 4431, 8584, 12430, 16175, 19830]}, "edge": {"target": [], "time": []}}, "mouseover": {"state": {"target": ["23", "24", "25", "30", "33", "29", "25", "24", "28", "24", "12", "6", "18", "14", "20", "14", "18", "4", "5"], "time": [2548, 2596, 3053, 3580, 4192, 8101, 11988, 12084, 12235, 12802, 15756, 16045, 16559, 19461, 19659, 20129, 20149, 20434, 20484]}, "edge": {"target": [], "time": []}}, "mouseout": {"state": {"target": ["18", "12", "0", "23", "24", "25", "30", "33", "29", "25", "24", "28", "24", "12", "6", "18", "14", "20", "14", "18", "4", "5"], "time": [1608, 1779, 2525, 2572, 2795, 3539, 4013, 7851, 9018, 12043, 12147, 12761, 12983, 15772, 16449, 19428, 19524, 19916, 20136, 20156, 20455, 20497]}, "edge": {"target": [], "time": []}}}, "displayed_time": "26.56", "trialTime": 31844, "trial_type": "mouselab-mdp", "trial_index": 12, "time_elapsed": 759848, "internal_node_id": "0.0-6.0-1.0-3.0"}}, {"uniqueid": "w86712303:a68599091", "current_trial": 13, "dateTime": 1693481539822, "trialdata": {"revealed_states": [], "clicked_states": ["21", "16"], "num_clicks_accrued": [0, 0, 0, 0, 0, 0, 0, 0, 0, 0, 0, 0, 0], "stateRewards": ["", 1, 1, 1, -3, -7, -1, -41, -10, 20, -72, -63, 1, -4, -2, 2, -66, 30, -84, -2, 49, 23, 71, -1, -4, 4, -12, 67, 5, 18, -16, 88, 56, -5], "withholdReward": false, "trial_id": "mdp_trial_5", "block": "test", "trialIndex": 6, "score": 11.7, "costs": -4.3, "simulationMode": [null, null, null, null, null], "rewards": [1, -4, -2, -2, 23], "path": ["0", "0", "12", "13", "14", "19", "21"], "rt": [8994, 81, 68, 53, 256], "actions": ["right", "right", "right", "down", "down"], "actionTimes": [10395, 10979, 11555, 12116, 12875], "queries": {"click": {"state": {"target": ["21", "16"], "time": [1900, 5589]}, "edge": {"target": [], "time": []}}, "mouseover": {"state": {"target": ["0", "12", "22", "21", "19", "20", "17", "16", "3", "8", "3", "8", "3", "7", "18", "15"], "time": [1457, 1490, 1530, 1690, 2139, 2174, 5090, 5314, 5939, 5972, 6402, 9154, 9395, 9423, 9444, 9452]}, "edge": {"target": [], "time": []}}, "mouseout": {"state": {"target": ["15", "18", "12", "0", "23", "0", "0", "12", "22", "21", "19", "20", "17", "16", "16", "3", "8", "3", "8", "3", "7", "18", "15"], "time": [753, 770, 833, 882, 1122, 1178, 1467, 1500, 1563, 1978, 2154, 2180, 5195, 5661, 5854, 5944, 6362, 9007, 9376, 9402, 9439, 9451, 9458]}, "edge": {"target": [], "time": []}}}, "displayed_time": "15.40", "trialTime": 19578, "trial_type": "mouselab-mdp", "trial_index": 13, "time_elapsed": 779599, "internal_node_id": "0.0-6.0-1.0-4.0"}}, {"uniqueid": "w86712303:a68599091", "current_trial": 14, "dateTime": 1693481556999, "trialdata": {"revealed_states": [], "clicked_states": ["5", "3"], "num_clicks_accrued": [0, 0, 0, 0, 0, 0, 0, 0, 0, 0, 0, 0, 0], "stateRewards": ["", -2, 4, -3, -13, 63, -36, 62, 11, 78, 34, -51, 2, -2, 8, -6, -40, -18, 31, 9, 64, 39, 79, 1, 4, -4, 15, -12, 76, 73, -10, -77, 86, -4], "withholdReward": false, "trial_id": "mdp_trial_6", "block": "test", "trialIndex": 7, "score": 45.9, "costs": -3.0999999999999996, "simulationMode": [null, null, null, null, null], "rewards": [-2, 4, -3, -13, 63], "path": ["0", "0", "1", "2", "3", "4", "5"], "rt": [8175, 456, 187, 118, 148], "actions": ["up", "up", "up", "right", "up"], "actionTimes": [9587, 10547, 11242, 11868, 12522], "queries": {"click": {"state": {"target": ["5", "3"], "time": [2364, 7245]}, "edge": {"target": [], "time": []}}, "mouseover": {"state": {"target": ["7", "4", "5", "4", "7", "8", "3", "2"], "time": [1802, 1979, 2186, 2695, 3403, 6221, 6804, 7485]}, "edge": {"target": [], "time": []}}, "mouseout": {"state": {"target": ["20", "19", "22", "12", "0", "7", "4", "5", "4", "7", "8", "3", "2"], "time": [794, 841, 874, 1090, 1611, 1907, 2067, 2653, 2743, 6114, 6784, 7457, 7492]}, "edge": {"target": [], "time": []}}}, "displayed_time": "15.41", "trialTime": 17011, "trial_type": "mouselab-mdp", "trial_index": 14, "time_elapsed": 796776, "internal_node_id": "0.0-6.0-1.0-5.0"}}, {"uniqueid": "w86712303:a68599091", "current_trial": 15, "dateTime": 1693481575768, "trialdata": {"revealed_states": [], "clicked_states": ["21", "16"], "num_clicks_accrued": [0, 0, 0, 0, 0, 0, 0, 0, 0, 0, 0, 0, 0], "stateRewards": ["", 1, -1, 1, -14, -10, 67, -28, -11, 72, 40, -65, -1, 1, 1, -2, 8, -55, 34, -10, 61, 33, -15, 2, -4, 7, 4, -75, 63, -21, -16, 61, 19, 21], "withholdReward": false, "trial_id": "mdp_trial_7", "block": "test", "trialIndex": 8, "score": 19.7, "costs": -4.3, "simulationMode": [null, null, null, null, null], "rewards": [-1, 1, 1, -10, 33], "path": ["0", "0", "12", "13", "14", "19", "21"], "rt": [9544, 139, 28, 605, 517], "actions": ["right", "right", "right", "down", "down"], "actionTimes": [11148, 11796, 12323, 13437, 14453], "queries": {"click": {"state": {"target": ["21", "16"], "time": [2334, 6870]}, "edge": {"target": [], "time": []}}, "mouseover": {"state": {"target": ["21", "20", "16", "16", "17"], "time": [2283, 2594, 5997, 6635, 7163]}, "edge": {"target": [], "time": []}}, "mouseout": {"state": {"target": ["0", "21", "20", "16", "16", "17"], "time": [1668, 2552, 2607, 6067, 7137, 7177]}, "edge": {"target": [], "time": []}}}, "displayed_time": "15.61", "trialTime": 18597, "trial_type": "mouselab-mdp", "trial_index": 15, "time_elapsed": 815545, "internal_node_id": "0.0-6.0-1.0-6.0"}}, {"uniqueid": "w86712303:a68599091", "current_trial": 16, "dateTime": 1693481595696, "trialdata": {"revealed_states": [], "clicked_states": ["27", "9", "16"], "num_clicks_accrued": [0, 0, 0, 0, 0, 0, 0, 0, 0, 0, 0, 0, 0], "stateRewards": ["", -2, -1, -3, -1, -78, -6, 2, -1, 22, -88, 32, 2, 2, -7, -8, -51, -17, 54, 2, -44, 54, 75, 2, -2, -8, -15, -29, 12, -67, 15, -1, -47, -47], "withholdReward": false, "trial_id": "mdp_trial_8", "block": "test", "trialIndex": 9, "score": 8.55, "costs": -6.449999999999999, "simulationMode": [null, null, null, null, null], "rewards": [-2, -1, -3, -1, 22], "path": ["0", "0", "1", "2", "3", "8", "9"], "rt": [13237, 56, 60, 484, 280], "actions": ["up", "up", "up", "left", "up"], "actionTimes": [14289, 14848, 15408, 16401, 17185], "queries": {"click": {"state": {"target": ["27", "9", "16"], "time": [1834, 5641, 9225]}, "edge": {"target": [], "time": []}}, "mouseover": {"state": {"target": ["23", "24", "26", "27", "10", "8", "9", "4", "16", "15", "14", "19", "21", "20"], "time": [1208, 1340, 1499, 1735, 5224, 5313, 5504, 6001, 8992, 9492, 9535, 12944, 13132, 13400]}, "edge": {"target": [], "time": []}}, "mouseout": {"state": {"target": ["0", "23", "24", "26", "27", "10", "8", "9", "4", "16", "15", "14", "19", "21"], "time": [855, 1272, 1409, 1632, 2201, 5256, 5353, 5937, 6008, 9472, 9514, 9555, 12985, 13304]}, "edge": {"target": [], "time": []}}}, "displayed_time": "17.69", "trialTime": 19729, "trial_type": "mouselab-mdp", "trial_index": 16, "time_elapsed": 835472, "internal_node_id": "0.0-6.0-1.0-7.0"}}, {"uniqueid": "w86712303:a68599091", "current_trial": 17, "dateTime": 1693481627304, "trialdata": {"revealed_states": [], "clicked_states": ["32", "16", "20", "5", "9", "11"], "num_clicks_accrued": [0, 0, 0, 0, 0, 0, 0, 0, 0, 0, 0, 0, 0], "stateRewards": ["", -2, -3, -7, 7, -54, -69, -4, -14, -77, 22, 40, -2, -1, 5, 6, -35, 50, -60, 10, -28, 75, 57, 1, -4, -2, 2, 68, 34, -18, 12, 3, -21, -43], "withholdReward": false, "trial_id": "mdp_trial_9", "block": "test", "trialIndex": 10, "score": 1.1000000000000014, "costs": -12.9, "simulationMode": [null, null, null, null, null], "rewards": [-2, -3, -7, -14, 40], "path": ["0", "0", "1", "2", "3", "8", "11"], "rt": [25190, 134, 41, 28, 190], "actions": ["up", "up", "up", "left", "left"], "actionTimes": [26877, 27511, 28062, 28598, 29294], "queries": {"click": {"state": {"target": ["32", "16", "20", "5", "9", "11"], "time": [2497, 7016, 12031, 16104, 19704, 23151]}, "edge": {"target": [], "time": []}}, "mouseover": {"state": {"target": ["31", "32", "31", "21", "21", "19", "14", "15", "16", "20", "17", "16", "6", "5", "3", "10", "8", "9", "11", "11"], "time": [1887, 2414, 2915, 5934, 6263, 6478, 6502, 6534, 6742, 11006, 15310, 15327, 15366, 15582, 16512, 19222, 19304, 19575, 20068, 22862]}, "edge": {"target": [], "time": []}}, "mouseout": {"state": {"target": ["20", "19", "0", "31", "32", "31", "21", "21", "19", "14", "15", "16", "20", "17", "16", "6", "5", "3", "10", "8", "9", "11", "11"], "time": [1038, 1062, 1133, 1902, 2549, 2936, 5958, 6462, 6494, 6519, 6616, 7262, 12436, 15318, 15341, 15413, 16463, 16548, 19269, 19310, 19992, 20095, 23408]}, "edge": {"target": [], "time": []}}}, "displayed_time": "29.79", "trialTime": 31447, "trial_type": "mouselab-mdp", "trial_index": 17, "time_elapsed": 867081, "internal_node_id": "0.0-6.0-1.0-8.0"}}, {"uniqueid": "w86712303:a68599091", "current_trial": 18, "dateTime": 1693481674287, "trialdata": {"revealed_states": [], "clicked_states": ["17", "5", "11"], "num_clicks_accrued": [0, 0, 0, 0, 0, 0, 0, 0, 0, 0, 0, 0, 0], "stateRewards": ["", -1, 1, 3, -8, -23, -15, -14, -11, -23, 58, 68, 1, 3, 5, 12, -17, -41, -7, -10, -4, 82, 10, 1, 4, -4, 11, 73, 55, -55, -1, -86, -86, 54], "withholdReward": false, "trial_id": "mdp_trial_10", "block": "test", "trialIndex": 11, "score": 53.55, "costs": -6.449999999999999, "simulationMode": [null, null, null, null, null], "rewards": [-1, 1, 3, -11, 68], "path": ["0", "0", "1", "2", "3", "8", "11"], "rt": [11675, 164, 74, 122, 148], "actions": ["up", "up", "up", "left", "left"], "actionTimes": [13161, 13833, 14409, 15040, 15705], "queries": {"click": {"state": {"target": ["17", "5", "11"], "time": [2515, 6235, 9562]}, "edge": {"target": [], "time": []}}, "mouseover": {"state": {"target": ["12", "13", "14", "17", "14", "22", "13", "4", "5", "4", "7", "12", "1", "8", "11", "27", "29"], "time": [1738, 1913, 2024, 2440, 2931, 3154, 5697, 5905, 6033, 6453, 6487, 6549, 8369, 8418, 8765, 10119, 10417]}, "edge": {"target": [], "time": []}}, "mouseout": {"state": {"target": ["0", "12", "13", "14", "17", "14", "22", "13", "4", "5", "4", "7", "12", "1", "8", "11", "27", "29"], "time": [1709, 1821, 1993, 2216, 2779, 3029, 5672, 5745, 5968, 6439, 6473, 6503, 6570, 8390, 8452, 10037, 10195, 41208]}, "edge": {"target": [], "time": []}}}, "displayed_time": "16.21", "trialTime": 46801, "trial_type": "mouselab-mdp", "trial_index": 18, "time_elapsed": 914064, "internal_node_id": "0.0-6.0-1.0-9.0"}}, {"uniqueid": "w86712303:a68599091", "current_trial": 19, "dateTime": 1693481692360, "trialdata": {"revealed_states": [], "clicked_states": ["9"], "num_clicks_accrued": [0, 0, 0, 0, 0, 0, 0, 0, 0, 0, 0, 0, 0], "stateRewards": ["", -1, -2, -1, -10, -57, 73, -72, -16, 75, -14, -46, -2, -3, -7, -1, -61, -60, 76, -4, 50, 4, 14, 2, 2, -7, 12, -65, -32, 15, -8, -76, -25, -61], "withholdReward": false, "trial_id": "mdp_trial_11", "block": "test", "trialIndex": 12, "score": 52.85, "costs": -2.15, "simulationMode": [null, null, null, null, null], "rewards": [-1, -2, -1, -16, 75], "path": ["0", "0", "1", "2", "3", "8", "9"], "rt": [4188, 225, 163, 191, 184], "actions": ["up", "up", "up", "left", "up"], "actionTimes": [5316, 6052, 6724, 7412, 8099], "queries": {"click": {"state": {"target": ["9"], "time": [1685]}, "edge": {"target": [], "time": []}}, "mouseover": {"state": {"target": ["10", "11", "9", "8", "1", "13", "14"], "time": [1235, 1363, 1484, 2257, 2596, 2652, 2986]}, "edge": {"target": [], "time": []}}, "mouseout": {"state": {"target": ["25", "24", "23", "12", "0", "0", "10", "11", "9", "8", "1", "13", "14"], "time": [611, 618, 635, 739, 795, 1163, 1260, 1402, 2236, 2305, 2618, 2777, 3041]}, "edge": {"target": [], "time": []}}}, "displayed_time": "15.13", "trialTime": 17885, "trial_type": "mouselab-mdp", "trial_index": 19, "time_elapsed": 932137, "internal_node_id": "0.0-6.0-1.0-10.0"}}, {"uniqueid": "w86712303:a68599091", "current_trial": 20, "dateTime": 1693481710143, "trialdata": {"revealed_states": [], "clicked_states": ["21", "16"], "num_clicks_accrued": [0, 0, 0, 0, 0, 0, 0, 0, 0, 0, 0, 0, 0], "stateRewards": ["", -2, -4, -2, 10, -8, -15, -47, 7, -84, 53, 5, -1, 2, -7, 3, 83, 31, 47, -1, 30, -8, 69, 2, -4, -1, 8, -7, 12, -8, -8, -13, 30, -84], "withholdReward": false, "trial_id": "mdp_trial_12", "block": "test", "trialIndex": 13, "score": 75.7, "costs": -4.3, "simulationMode": [null, null, null, null, null], "rewards": [-1, 2, -7, 3, 83], "path": ["0", "0", "12", "13", "14", "15", "16"], "rt": [8130, 106, 104, 77, 158], "actions": ["right", "right", "right", "up", "up"], "actionTimes": [9568, 10177, 10784, 11368, 12033], "queries": {"click": {"state": {"target": ["21", "16"], "time": [2010, 5793]}, "edge": {"target": [], "time": []}}, "mouseover": {"state": {"target": ["12", "21", "17", "16"], "time": [1479, 1848, 5422, 5608]}, "edge": {"target": [], "time": []}}, "mouseout": {"state": {"target": ["0", "12", "21", "17", "16"], "time": [1255, 1487, 2193, 5496, 6075]}, "edge": {"target": [], "time": []}}}, "displayed_time": "15.44", "trialTime": 17592, "trial_type": "mouselab-mdp", "trial_index": 20, "time_elapsed": 949920, "internal_node_id": "0.0-6.0-1.0-11.0"}}, {"uniqueid": "w86712303:a68599091", "current_trial": 21, "dateTime": 1693481728023, "trialdata": {"revealed_states": [], "clicked_states": ["9", "27"], "num_clicks_accrued": [0, 0, 0, 0, 0, 0, 0, 0, 0, 0, 0, 0, 0], "stateRewards": ["", -1, 1, -5, -6, -78, 47, -13, 12, 48, -88, 20, 2, -3, -2, 13, -20, 37, -57, 14, -38, 30, 31, -2, -2, 8, 2, -23, 78, 28, 12, -74, -88, 8], "withholdReward": false, "trial_id": "mdp_trial_13", "block": "test", "trialIndex": 14, "score": 50.7, "costs": -4.3, "simulationMode": [null, null, null, null, null], "rewards": [-1, 1, -5, 12, 48], "path": ["0", "0", "1", "2", "3", "8", "9"], "rt": [8149, 98, 143, 115, 138], "actions": ["up", "up", "up", "left", "up"], "actionTimes": [9829, 10437, 11085, 11710, 12358], "queries": {"click": {"state": {"target": ["9", "27"], "time": [2647, 6550]}, "edge": {"target": [], "time": []}}, "mouseover": {"state": {"target": ["10", "8", "9", "2", "1", "0", "32", "30", "25", "27", "10", "2"], "time": [2141, 2228, 2452, 2838, 2866, 2887, 4151, 4345, 4373, 5352, 6872, 6913]}, "edge": {"target": [], "time": []}}, "mouseout": {"state": {"target": ["12", "0", "10", "8", "9", "2", "1", "0", "32", "30", "25", "27", "10", "2", "1"], "time": [1164, 1851, 2197, 2309, 2812, 2852, 2873, 2894, 4325, 4366, 4400, 6830, 6900, 15962, 16020]}, "edge": {"target": [], "time": []}}}, "displayed_time": "15.69", "trialTime": 17637, "trial_type": "mouselab-mdp", "trial_index": 21, "time_elapsed": 967800, "internal_node_id": "0.0-6.0-1.0-12.0"}}, {"uniqueid": "w86712303:a68599091", "current_trial": 22, "dateTime": 1693481751640, "trialdata": {"revealed_states": [], "clicked_states": ["21", "16", "7", "9"], "num_clicks_accrued": [0, 0, 0, 0, 0, 0, 0, 0, 0, 0, 0, 0, 0], "stateRewards": ["", -2, -2, -7, -13, -10, 49, -68, -1, 84, 70, 88, 1, 4, 4, 12, -57, 25, 30, 8, -1, -77, 57, 2, 3, 2, 3, -18, -80, 23, -15, -41, 70, 11], "withholdReward": false, "trial_id": "mdp_trial_14", "block": "test", "trialIndex": 15, "score": 63.4, "costs": -8.6, "simulationMode": [null, null, null, null, null], "rewards": [-2, -2, -7, -1, 84], "path": ["0", "0", "1", "2", "3", "8", "9"], "rt": [14955, 184, 281, 73, 88], "actions": ["up", "up", "up", "left", "up"], "actionTimes": [16378, 17067, 17851, 18435, 19026], "queries": {"click": {"state": {"target": ["21", "16", "7", "9"], "time": [2364, 5683, 8957, 12324]}, "edge": {"target": [], "time": []}}, "mouseover": {"state": {"target": ["22", "21", "19", "14", "15", "16", "6", "7", "3", "9", "11", "27"], "time": [1650, 1994, 2590, 2624, 2645, 2687, 6861, 7111, 9770, 9971, 13118, 13436]}, "edge": {"target": [], "time": []}}, "mouseout": {"state": {"target": ["12", "7", "4", "7", "22", "21", "19", "14", "15", "16", "16", "6", "7", "3", "9", "11", "27"], "time": [650, 714, 881, 938, 1699, 2554, 2603, 2638, 2659, 5725, 6097, 6917, 9680, 9840, 13000, 13208, 15534]}, "edge": {"target": [], "time": []}}}, "displayed_time": "19.53", "trialTime": 23444, "trial_type": "mouselab-mdp", "trial_index": 22, "time_elapsed": 991417, "internal_node_id": "0.0-6.0-1.0-13.0"}}, {"uniqueid": "w86712303:a68599091", "current_trial": 23, "dateTime": 1693481768951, "trialdata": {"revealed_states": [], "clicked_states": ["33"], "num_clicks_accrued": [0, 0, 0, 0, 0, 0, 0, 0, 0, 0, 0, 0, 0], "stateRewards": ["", -2, -4, -8, 8, 63, -50, -19, -7, -17, -31, 31, 1, 3, -5, 12, -35, -63, -29, -4, -17, -75, -79, -2, -3, -2, 8, -3, -85, 10, -2, -82, -82, 56], "withholdReward": false, "trial_id": "mdp_trial_15", "block": "test", "trialIndex": 16, "score": 44.85, "costs": -2.15, "simulationMode": [null, null, null, null, null], "rewards": [-2, -3, -2, -2, 56], "path": ["0", "0", "23", "24", "25", "30", "33"], "rt": [4492, 182, 101, 39, 92], "actions": ["left", "left", "left", "down", "left"], "actionTimes": [5988, 6669, 7268, 7812, 8405], "queries": {"click": {"state": {"target": ["33"], "time": [2174]}, "edge": {"target": [], "time": []}}, "mouseover": {"state": {"target": ["30", "33", "26"], "time": [1896, 1964, 2381]}, "edge": {"target": [], "time": []}}, "mouseout": {"state": {"target": ["0", "0", "30", "33", "26"], "time": [1044, 1540, 1916, 2305, 2423]}, "edge": {"target": [], "time": []}}}, "displayed_time": "15.50", "trialTime": 17117, "trial_type": "mouselab-mdp", "trial_index": 23, "time_elapsed": 1008728, "internal_node_id": "0.0-6.0-1.0-14.0"}}, {"uniqueid": "w86712303:a68599091", "current_trial": 24, "dateTime": 1693481788398, "trialdata": {"revealed_states": [], "clicked_states": ["5", "11", "20"], "num_clicks_accrued": [0, 0, 0, 0, 0, 0, 0, 0, 0, 0, 0, 0, 0], "stateRewards": ["", -1, -3, 1, -4, -48, -63, -49, -2, -84, -19, 65, 2, -2, -2, -12, -4, 59, 9, 6, 75, 69, -13, -1, -3, -3, -2, -37, -68, -36, 13, 32, 18, -14], "withholdReward": false, "trial_id": "mdp_trial_16", "block": "test", "trialIndex": 17, "score": 72.55, "costs": -6.449999999999999, "simulationMode": [null, null, null, null, null], "rewards": [2, -2, -2, 6, 75], "path": ["0", "0", "12", "13", "14", "19", "20"], "rt": [11199, 76, 52, 2, 111], "actions": ["right", "right", "right", "down", "right"], "actionTimes": [13979, 14554, 15106, 15618, 16234], "queries": {"click": {"state": {"target": ["5", "11", "20"], "time": [3660, 7484, 10596]}, "edge": {"target": [], "time": []}}, "mouseover": {"state": {"target": ["7", "7", "5", "2", "10", "11", "10", "1", "12", "22", "20", "19", "12"], "time": [3001, 3218, 3524, 3908, 3963, 5526, 7906, 7941, 7976, 8017, 8553, 11101, 11143]}, "edge": {"target": [], "time": []}}, "mouseout": {"state": {"target": ["29", "26", "28", "1", "12", "2", "1", "7", "7", "5", "2", "10", "11", "10", "1", "12", "22", "20", "19", "12"], "time": [713, 739, 769, 817, 1073, 2097, 2242, 3138, 3262, 3832, 3921, 5429, 7873, 7928, 7957, 7992, 8150, 11094, 11115, 11149]}, "edge": {"target": [], "time": []}}}, "displayed_time": "16.78", "trialTime": 19242, "trial_type": "mouselab-mdp", "trial_index": 24, "time_elapsed": 1028175, "internal_node_id": "0.0-6.0-1.0-15.0"}}, {"uniqueid": "w86712303:a68599091", "current_trial": 25, "dateTime": 1693481806838, "trialdata": {"revealed_states": [], "clicked_states": ["11", "21", "16"], "num_clicks_accrued": [0, 0, 0, 0, 0, 0, 0, 0, 0, 0, 0, 0, 0], "stateRewards": ["", -2, 3, 3, -14, 62, 36, 49, 16, 11, 17, -84, 2, -1, 6, 2, -82, -73, 49, -6, -87, 48, 50, -1, -2, -1, -16, -11, 37, -44, 4, 55, 73, -10], "withholdReward": false, "trial_id": "mdp_trial_17", "block": "test", "trialIndex": 18, "score": 42.55, "costs": -6.449999999999999, "simulationMode": [null, null, null, null, null], "rewards": [2, -1, 6, -6, 48], "path": ["0", "0", "12", "13", "14", "19", "21"], "rt": [11148, 33, 26, 451, 139], "actions": ["right", "right", "right", "down", "down"], "actionTimes": [12747, 13291, 13818, 14771, 15417], "queries": {"click": {"state": {"target": ["11", "21", "16"], "time": [2621, 5892, 9387]}, "edge": {"target": [], "time": []}}, "mouseover": {"state": {"target": ["1", "10", "8", "11", "10", "2", "13", "14", "19", "21", "20", "17", "16"], "time": [1866, 2034, 2194, 2425, 3034, 3694, 3833, 4026, 4075, 4291, 6312, 6450, 6673]}, "edge": {"target": [], "time": []}}, "mouseout": {"state": {"target": ["10", "1", "1", "10", "8", "11", "10", "2", "13", "14", "19", "21", "20", "17"], "time": [1113, 1249, 1874, 2113, 2291, 2972, 3055, 3707, 3853, 4048, 4222, 6230, 6319, 6486]}, "edge": {"target": [], "time": []}}}, "displayed_time": "15.92", "trialTime": 18226, "trial_type": "mouselab-mdp", "trial_index": 25, "time_elapsed": 1046614, "internal_node_id": "0.0-6.0-1.0-16.0"}}, {"uniqueid": "w86712303:a68599091", "current_trial": 26, "dateTime": 1693481823998, "trialdata": {"revealed_states": [], "clicked_states": ["9", "16", "21"], "num_clicks_accrued": [0, 0, 0, 0, 0, 0, 0, 0, 0, 0, 0, 0, 0], "stateRewards": ["", -1, 4, 3, 12, -27, 34, -33, 3, -63, 1, 6, 2, 2, -6, -11, -77, -85, 68, -6, 51, 81, -60, -2, -2, 1, 15, 20, 15, 68, -10, -14, 6, -4], "withholdReward": false, "trial_id": "mdp_trial_18", "block": "test", "trialIndex": 19, "score": 66.55, "costs": -6.449999999999999, "simulationMode": [null, null, null, null, null], "rewards": [2, 2, -6, -6, 81], "path": ["0", "0", "12", "13", "14", "19", "21"], "rt": [11459, 67, 9, 82, 123], "actions": ["right", "right", "right", "down", "down"], "actionTimes": [12904, 13472, 13992, 14584, 15209], "queries": {"click": {"state": {"target": ["9", "16", "21"], "time": [2409, 5962, 9162]}, "edge": {"target": [], "time": []}}, "mouseover": {"state": {"target": ["1", "2", "3", "9", "3", "5", "16", "16", "15", "14", "19", "21", "22", "31", "32"], "time": [1706, 1823, 2008, 2200, 3877, 3939, 4308, 4780, 7078, 7119, 7154, 7459, 10035, 10153, 10459]}, "edge": {"target": [], "time": []}}, "mouseout": {"state": {"target": ["16", "1", "2", "3", "9", "3", "5", "16", "16", "16", "16", "15", "14", "19", "21", "22", "31"], "time": [722, 1715, 1984, 2072, 2674, 3912, 3946, 4488, 6025, 6619, 7043, 7098, 7139, 7188, 9417, 10077, 10209]}, "edge": {"target": [], "time": []}}}, "displayed_time": "15.71", "trialTime": 16936, "trial_type": "mouselab-mdp", "trial_index": 26, "time_elapsed": 1063775, "internal_node_id": "0.0-6.0-1.0-17.0"}}, {"uniqueid": "w86712303:a68599091", "current_trial": 27, "dateTime": 1693481851006, "trialdata": {"revealed_states": [], "clicked_states": ["9", "27", "33", "20", "17"], "num_clicks_accrued": [0, 0, 0, 0, 0, 0, 0, 0, 0, 0, 0, 0, 0], "stateRewards": ["", -2, 4, -5, -12, 85, -24, -18, -15, -78, -22, 26, -1, -1, 2, 14, -45, 52, -23, 7, -33, 24, -6, -2, -4, 5, -7, -16, 36, -39, 5, 71, -87, -23], "withholdReward": false, "trial_id": "mdp_trial_19", "block": "test", "trialIndex": 20, "score": 55.25, "costs": -10.75, "simulationMode": [null, null, null, null, null], "rewards": [-1, -1, 2, 14, 52], "path": ["0", "0", "12", "13", "14", "15", "17"], "rt": [18716, 36, 144, 8, 718], "actions": ["right", "right", "right", "up", "right"], "actionTimes": [20474, 21009, 21650, 22161, 23385], "queries": {"click": {"state": {"target": ["9", "27", "33", "20", "17"], "time": [2739, 5882, 9794, 13162, 16866]}, "edge": {"target": [], "time": []}}, "mouseover": {"state": {"target": ["1", "10", "8", "9", "8", "11", "27", "33", "30", "31", "22", "20", "17", "14", "16", "6"], "time": [1944, 2305, 2353, 2473, 3457, 3526, 3846, 6603, 10366, 10394, 10491, 10902, 13811, 17364, 17960, 18102]}, "edge": {"target": [], "time": []}}, "mouseout": {"state": {"target": ["32", "0", "1", "10", "8", "9", "9", "8", "11", "27", "33", "30", "31", "22", "20", "17", "14", "16"], "time": [1161, 1866, 2098, 2345, 2416, 2801, 3430, 3478, 3769, 6186, 10360, 10388, 10423, 10498, 13265, 17228, 17839, 18007]}, "edge": {"target": [], "time": []}}}, "displayed_time": "23.89", "trialTime": 26817, "trial_type": "mouselab-mdp", "trial_index": 27, "time_elapsed": 1090783, "internal_node_id": "0.0-6.0-1.0-18.0"}}, {"uniqueid": "w86712303:a68599091", "current_trial": 28, "dateTime": 1693481895502, "trialdata": {"revealed_states": [], "clicked_states": ["5", "11"], "num_clicks_accrued": [0, 0, 0, 0, 0, 0, 0, 0, 0, 0, 0, 0, 0], "stateRewards": ["", -2, -1, -6, -14, -55, 78, -13, 11, 14, -71, 59, 2, 2, 6, -6, 9, 38, 14, 7, 85, 11, 68, 1, -4, -1, -3, -63, -85, 9, -2, 63, -86, -10], "withholdReward": false, "trial_id": "mdp_trial_20", "block": "test", "trialIndex": 21, "score": 56.7, "costs": -4.3, "simulationMode": [null, null, null, null, null], "rewards": [-2, -1, -6, 11, 59], "path": ["0", "0", "1", "2", "3", "8", "11"], "rt": [7970, 166, 140, 5, 142], "actions": ["up", "up", "up", "left", "left"], "actionTimes": [9292, 9956, 10603, 11115, 11772], "queries": {"click": {"state": {"target": ["5", "11"], "time": [2180, 5541]}, "edge": {"target": [], "time": []}}, "mouseover": {"state": {"target": ["1", "4", "5", "11", "27", "29"], "time": [1692, 1818, 1979, 3740, 5872, 6136]}, "edge": {"target": [], "time": []}}, "mouseout": {"state": {"target": ["6", "7", "1", "1", "4", "5", "11", "11", "27", "29", "26", "28", "1", "14", "13"], "time": [547, 802, 923, 1754, 1867, 2560, 5606, 5838, 5949, 13739, 13771, 13789, 13802, 41490, 42115]}, "edge": {"target": [], "time": []}}}, "displayed_time": "15.32", "trialTime": 44291, "trial_type": "mouselab-mdp", "trial_index": 28, "time_elapsed": 1135279, "internal_node_id": "0.0-6.0-1.0-19.0"}}, {"uniqueid": "w86712303:a68599091", "current_trial": 29, "dateTime": 1693481928805, "trialdata": {"revealed_states": [], "clicked_states": ["5", "29"], "num_clicks_accrued": [0, 0, 0, 0, 0, 0, 0, 0, 0, 0, 0, 0, 0], "stateRewards": ["", -2, 2, -5, -6, 10, -66, -58, -10, -11, -63, -70, -1, -4, -5, 7, 66, -64, -43, -3, 45, -37, 4, -2, -2, -6, -4, -30, 33, 43, 15, -32, -65, -59], "withholdReward": false, "trial_id": "mdp_trial_21", "block": "test", "trialIndex": 22, "score": 24.7, "costs": -4.3, "simulationMode": [null, null, null, null, null], "rewards": [-2, -2, -6, -4, 43], "path": ["0", "0", "23", "24", "25", "26", "29"], "rt": [8057, 185, 99, 134, 88], "actions": ["left", "left", "left", "up", "left"], "actionTimes": [13519, 14214, 14823, 15455, 16047], "queries": {"click": {"state": {"target": ["5", "29"], "time": [6528, 9817]}, "edge": {"target": [], "time": []}}, "mouseover": {"state": {"target": ["7", "4", "5", "5", "4", "10", "27", "29", "33"], "time": [6030, 6055, 6103, 6318, 6818, 6993, 7257, 7543, 11917]}, "edge": {"target": [], "time": []}}, "mouseout": {"state": {"target": ["18", "16", "18", "1", "0", "7", "4", "5", "5", "5", "4", "10", "27", "29", "29", "33", "30", "31"], "time": [2029, 2589, 2630, 2678, 5965, 6050, 6078, 6190, 6577, 6791, 6880, 7035, 7326, 11153, 11535, 17565, 17578, 31902]}, "edge": {"target": [], "time": []}}}, "displayed_time": "19.46", "trialTime": 33071, "trial_type": "mouselab-mdp", "trial_index": 29, "time_elapsed": 1168582, "internal_node_id": "0.0-6.0-1.0-20.0"}}, {"uniqueid": "w86712303:a68599091", "current_trial": 30, "dateTime": 1693481946381, "trialdata": {"revealed_states": [], "clicked_states": ["5"], "num_clicks_accrued": [0, 0, 0, 0, 0, 0, 0, 0, 0, 0, 0, 0, 0], "stateRewards": ["", 2, 4, -5, 7, 81, 35, 6, 11, 14, -72, 42, -1, 2, 3, -7, -77, -44, -40, -15, -85, 51, -32, -2, -1, -5, 7, -74, 47, 52, 16, -49, 48, -46], "withholdReward": false, "trial_id": "mdp_trial_22", "block": "test", "trialIndex": 23, "score": 86.85, "costs": -2.15, "simulationMode": [null, null, null, null, null], "rewards": [2, 4, -5, 7, 81], "path": ["0", "0", "1", "2", "3", "4", "5"], "rt": [4704, 81, 51, 48, 91], "actions": ["up", "up", "up", "right", "up"], "actionTimes": [5648, 6232, 6783, 7335, 7928], "queries": {"click": {"state": {"target": ["5"], "time": [2097]}, "edge": {"target": [], "time": []}}, "mouseover": {"state": {"target": ["1", "5", "5", "4", "1", "29"], "time": [1391, 1759, 1975, 2552, 2649, 3508]}, "edge": {"target": [], "time": []}}, "mouseout": {"state": {"target": ["0", "1", "5", "5", "4", "1", "29", "26", "28", "0"], "time": [1375, 1407, 1784, 2482, 2572, 2691, 16895, 16911, 16927, 17238]}, "edge": {"target": [], "time": []}}}, "displayed_time": "14.95", "trialTime": 17335, "trial_type": "mouselab-mdp", "trial_index": 30, "time_elapsed": 1186158, "internal_node_id": "0.0-6.0-1.0-21.0"}}, {"uniqueid": "w86712303:a68599091", "current_trial": 31, "dateTime": 1693481963774, "trialdata": {"revealed_states": [], "clicked_states": ["21", "17"], "num_clicks_accrued": [0, 0, 0, 0, 0, 0, 0, 0, 0, 0, 0, 0, 0], "stateRewards": ["", 2, -3, -8, 14, -7, -51, 73, 2, 36, 36, -43, -1, 3, -4, 1, 6, 87, -65, 15, 61, -42, -83, -1, 3, -2, -7, 30, -48, 35, 13, 26, 60, 78], "withholdReward": false, "trial_id": "mdp_trial_23", "block": "test", "trialIndex": 24, "score": 81.7, "costs": -4.3, "simulationMode": [null, null, null, null, null], "rewards": [-1, 3, -4, 1, 87], "path": ["0", "0", "12", "13", "14", "15", "17"], "rt": [8327, 22, 137, 435, 123], "actions": ["right", "right", "right", "up", "right"], "actionTimes": [9564, 10098, 10747, 11691, 12316], "queries": {"click": {"state": {"target": ["21", "17"], "time": [2037, 5300]}, "edge": {"target": [], "time": []}}, "mouseover": {"state": {"target": ["20", "21", "20", "17", "16", "16", "6", "4", "3", "5", "8", "11"], "time": [1602, 1890, 4017, 4449, 5670, 5857, 6378, 6419, 6665, 6873, 8441, 8601]}, "edge": {"target": [], "time": []}}, "mouseout": {"state": {"target": ["15", "13", "12", "0", "20", "21", "21", "20", "17", "16", "16", "6", "4", "3", "5", "8", "11"], "time": [503, 833, 850, 1254, 1614, 3656, 3982, 4051, 5371, 5816, 6309, 6393, 6456, 6775, 8201, 8489, 8753]}, "edge": {"target": [], "time": []}}}, "displayed_time": "15.25", "trialTime": 17139, "trial_type": "mouselab-mdp", "trial_index": 31, "time_elapsed": 1203551, "internal_node_id": "0.0-6.0-1.0-22.0"}}, {"uniqueid": "w86712303:a68599091", "current_trial": 32, "dateTime": 1693481983913, "trialdata": {"revealed_states": [], "clicked_states": [], "num_clicks_accrued": [0, 0, 0, 0, 0, 0, 0, 0, 0, 0, 0, 0, 0], "stateRewards": ["", -1, -4, -1, -5, -28, -23, -15, -15, -38, 59, -87, 2, 2, -5, 9, -55, -39, -71, -6, 85, -85, -11, -1, -2, 5, -10, 1, 25, 41, -4, 69, -35, 86], "withholdReward": false, "trial_id": "mdp_trial_24", "block": "test", "trialIndex": 25, "score": 33, "costs": 0, "simulationMode": [null, null, null, null, null], "rewards": [-1, -2, 5, -10, 41], "path": ["0", "0", "23", "24", "25", "26", "29"], "rt": [879, 641, 319, 101, 226], "actions": ["left", "left", "left", "up", "left"], "actionTimes": [3762, 4906, 5729, 6337, 7074], "queries": {"click": {"state": {"target": [], "time": []}, "edge": {"target": [], "time": []}}, "mouseover": {"state": {"target": [], "time": []}, "edge": {"target": [], "time": []}}, "mouseout": {"state": {"target": ["11", "29", "26", "23", "0"], "time": [416, 649, 665, 721, 984]}, "edge": {"target": [], "time": []}}}, "displayed_time": "16.88", "trialTime": 19882, "trial_type": "mouselab-mdp", "trial_index": 32, "time_elapsed": 1223689, "internal_node_id": "0.0-6.0-1.0-23.0"}}, {"uniqueid": "w86712303:a68599091", "current_trial": 33, "dateTime": 1693482003997, "trialdata": {"revealed_states": [], "clicked_states": ["5", "29", "31"], "num_clicks_accrued": [0, 0, 0, 0, 0, 0, 0, 0, 0, 0, 0, 0, 0], "stateRewards": ["", -2, 2, -1, -6, 22, 6, 6, -5, 70, -42, 65, 1, 3, 5, -6, -67, -9, 3, 14, 7, -62, -13, -2, 4, 1, 16, 42, -21, -52, -8, 32, 53, 81], "withholdReward": false, "trial_id": "mdp_trial_25", "block": "test", "trialIndex": 26, "score": 20.55, "costs": -6.449999999999999, "simulationMode": [null, null, null, null, null], "rewards": [-2, 4, 1, -8, 32], "path": ["0", "0", "23", "24", "25", "30", "31"], "rt": [12156, 75, 33, 34, 44], "actions": ["left", "left", "left", "down", "right"], "actionTimes": [15051, 15635, 16170, 16706, 17250], "queries": {"click": {"state": {"target": ["5", "29", "31"], "time": [3804, 7292, 11371]}, "edge": {"target": [], "time": []}}, "mouseover": {"state": {"target": ["6", "5", "11", "29", "30", "30", "31", "31"], "time": [3371, 3603, 4164, 4471, 9043, 9178, 10921, 11234]}, "edge": {"target": [], "time": []}}, "mouseout": {"state": {"target": ["0", "0", "0", "6", "5", "11", "29", "30", "30", "31", "31"], "time": [1322, 2185, 3266, 3506, 4116, 4193, 8789, 9103, 10897, 11033, 11587]}, "edge": {"target": [], "time": []}}}, "displayed_time": "17.75", "trialTime": 19842, "trial_type": "mouselab-mdp", "trial_index": 33, "time_elapsed": 1243774, "internal_node_id": "0.0-6.0-1.0-24.0"}}, {"uniqueid": "w86712303:a68599091", "current_trial": 34, "dateTime": 1693482021437, "trialdata": {"revealed_states": [], "clicked_states": ["6", "7"], "num_clicks_accrued": [0, 0, 0, 0, 0, 0, 0, 0, 0, 0, 0, 0, 0], "stateRewards": ["", 2, 2, 3, -15, 23, -14, 73, -7, -32, -20, -6, 1, 1, -5, -12, 73, 6, -84, 11, -81, -57, 13, -2, -1, -4, -8, -52, -58, 49, 13, 5, -41, -41], "withholdReward": false, "trial_id": "mdp_trial_26", "block": "test", "trialIndex": 27, "score": 60.7, "costs": -4.3, "simulationMode": [null, null, null, null, null], "rewards": [2, 2, 3, -15, 73], "path": ["0", "0", "1", "2", "3", "4", "7"], "rt": [9101, 473, 86, 30, 25], "actions": ["up", "up", "up", "right", "down"], "actionTimes": [10826, 11810, 12395, 12930, 13466], "queries": {"click": {"state": {"target": ["6", "7"], "time": [3251, 7178]}, "edge": {"target": [], "time": []}}, "mouseover": {"state": {"target": ["7", "6", "7", "1", "7"], "time": [2513, 2890, 3521, 3619, 7000]}, "edge": {"target": [], "time": []}}, "mouseout": {"state": {"target": ["0", "7", "6", "7", "1", "7"], "time": [1009, 2689, 3494, 3550, 6841, 7411]}, "edge": {"target": [], "time": []}}}, "displayed_time": "15.73", "trialTime": 17217, "trial_type": "mouselab-mdp", "trial_index": 34, "time_elapsed": 1261214, "internal_node_id": "0.0-6.0-1.0-25.0"}}, {"uniqueid": "w86712303:a68599091", "current_trial": 35, "dateTime": 1693482065254, "trialdata": {"revealed_states": [], "clicked_states": ["9"], "num_clicks_accrued": [0, 0, 0, 0, 0, 0, 0, 0, 0, 0, 0, 0, 0], "stateRewards": ["", 2, -1, -1, 7, 11, -40, -22, -2, 69, 37, 8, -2, 4, -8, -12, -2, -72, -3, -12, 17, 63, 12, 1, 3, -7, 6, 25, 61, 61, -9, 28, -17, 27], "withholdReward": false, "trial_id": "mdp_trial_27", "block": "test", "trialIndex": 28, "score": 64.85, "costs": -2.15, "simulationMode": [null, null, null, null, null], "rewards": [2, -1, -1, -2, 69], "path": ["0", "0", "1", "2", "3", "8", "9"], "rt": [4612, 19, 1012, 56, 135], "actions": ["up", "up", "up", "left", "up"], "actionTimes": [5972, 6492, 8019, 8579, 9220], "queries": {"click": {"state": {"target": ["9"], "time": [2318]}, "edge": {"target": [], "time": []}}, "mouseover": {"state": {"target": ["10", "9", "8", "10", "1", "1", "10"], "time": [1883, 2131, 2584, 2625, 2702, 4319, 4792]}, "edge": {"target": [], "time": []}}, "mouseout": {"state": {"target": ["1", "0", "0", "10", "9", "9", "8", "10", "1", "1", "10", "2", "18", "17", "15", "18", "12", "0"], "time": [491, 571, 1827, 1915, 2388, 2577, 2604, 2632, 2729, 4514, 18901, 18923, 18999, 41435, 41526, 42006, 42043, 42068]}, "edge": {"target": [], "time": []}}}, "displayed_time": "15.36", "trialTime": 43580, "trial_type": "mouselab-mdp", "trial_index": 35, "time_elapsed": 1305030, "internal_node_id": "0.0-6.0-1.0-26.0"}}, {"uniqueid": "w86712303:a68599091", "current_trial": 36, "dateTime": 1693482093485, "trialdata": {"revealed_states": [], "clicked_states": ["5", "28", "18", "17", "20"], "num_clicks_accrued": [0, 0, 0, 0, 0, 0, 0, 0, 0, 0, 0, 0, 0], "stateRewards": ["", 2, 4, 7, -6, -76, -81, 2, 5, -66, -3, 36, -2, -4, 6, -2, -69, 4, -49, -6, 67, 38, -67, 2, 1, 1, 6, -68, -21, 52, -16, -16, 6, -70], "withholdReward": false, "trial_id": "mdp_trial_28", "block": "test", "trialIndex": 29, "score": 50.25, "costs": -10.75, "simulationMode": [null, null, null, null, null], "rewards": [-2, -4, 6, -6, 67], "path": ["0", "0", "12", "13", "14", "19", "20"], "rt": [19520, 68, 93, 49, 51], "actions": ["right", "right", "right", "down", "right"], "actionTimes": [21457, 22025, 22625, 23177, 23735], "queries": {"click": {"state": {"target": ["5", "28", "18", "17", "20"], "time": [3011, 6394, 10073, 14098, 17858]}, "edge": {"target": [], "time": []}}, "mouseover": {"state": {"target": ["1", "7", "4", "5", "3", "10", "28", "26", "28", "1", "18", "18", "15", "17", "20"], "time": [2504, 2551, 2648, 2808, 4058, 4093, 4141, 4191, 4413, 7487, 7513, 7769, 13345, 13704, 15877]}, "edge": {"target": [], "time": []}}, "mouseout": {"state": {"target": ["0", "1", "7", "4", "5", "3", "10", "28", "26", "28", "1", "18", "18", "15", "17"], "time": [2465, 2520, 2600, 2740, 4025, 4072, 4107, 4148, 4379, 7462, 7496, 7567, 10912, 13384, 14461]}, "edge": {"target": [], "time": []}}}, "displayed_time": "24.23", "trialTime": 27969, "trial_type": "mouselab-mdp", "trial_index": 36, "time_elapsed": 1333262, "internal_node_id": "0.0-6.0-1.0-27.0"}}, {"uniqueid": "w86712303:a68599091", "current_trial": 37, "dateTime": 1693482111941, "trialdata": {"revealed_states": [], "clicked_states": ["5", "28", "21"], "num_clicks_accrued": [0, 0, 0, 0, 0, 0, 0, 0, 0, 0, 0, 0, 0], "stateRewards": ["", -2, 2, 8, -6, -25, 3, 87, 2, -62, -2, 74, -2, -1, 2, -1, 79, 49, -37, -14, 5, 67, -9, -1, 2, -2, 5, 15, 38, 32, -14, -38, -38, 30], "withholdReward": false, "trial_id": "mdp_trial_29", "block": "test", "trialIndex": 30, "score": 45.55, "costs": -6.449999999999999, "simulationMode": [null, null, null, null, null], "rewards": [-2, -1, 2, -14, 67], "path": ["0", "0", "12", "13", "14", "19", "21"], "rt": [11555, 98, 147, 110, 132], "actions": ["right", "right", "right", "down", "down"], "actionTimes": [13176, 13776, 14423, 15031, 15671], "queries": {"click": {"state": {"target": ["5", "28", "21"], "time": [2809, 6138, 9825]}, "edge": {"target": [], "time": []}}, "mouseover": {"state": {"target": ["1", "2", "3", "5", "3", "8", "27", "26", "26", "28", "23", "0", "22", "21"], "time": [2247, 2274, 2334, 2582, 3079, 3114, 3176, 3330, 3607, 3684, 7003, 7037, 7107, 7262]}, "edge": {"target": [], "time": []}}, "mouseout": {"state": {"target": ["20", "19", "12", "1", "2", "3", "5", "3", "8", "27", "26", "26", "28", "28", "23", "0", "22", "21"], "time": [743, 807, 1031, 2262, 2294, 2447, 3052, 3107, 3128, 3253, 3393, 3656, 6216, 6919, 7010, 7066, 7142, 9870]}, "edge": {"target": [], "time": []}}}, "displayed_time": "16.17", "trialTime": 18224, "trial_type": "mouselab-mdp", "trial_index": 37, "time_elapsed": 1351718, "internal_node_id": "0.0-6.0-1.0-28.0"}}, {"uniqueid": "w86712303:a68599091", "current_trial": 38, "dateTime": 1693482128334, "trialdata": {"revealed_states": [], "clicked_states": ["21", "16"], "num_clicks_accrued": [0, 0, 0, 0, 0, 0, 0, 0, 0, 0, 0, 0, 0], "stateRewards": ["", -1, 4, -8, 12, 14, 69, -8, 5, -72, -14, 56, -1, -1, -1, 9, 67, 19, 11, -9, -88, -58, 3, 2, -4, -8, 4, 62, 77, -74, 5, -31, 65, 88], "withholdReward": false, "trial_id": "mdp_trial_30", "block": "test", "trialIndex": 31, "score": 68.7, "costs": -4.3, "simulationMode": [null, null, null, null, null], "rewards": [-1, -1, -1, 9, 67], "path": ["0", "0", "12", "13", "14", "15", "16"], "rt": [8363, 194, 94, 193, 163], "actions": ["right", "right", "right", "up", "up"], "actionTimes": [9327, 10031, 10632, 11335, 12000], "queries": {"click": {"state": {"target": ["21", "16"], "time": [1945, 5465]}, "edge": {"target": [], "time": []}}, "mouseover": {"state": {"target": ["12", "22", "21", "19", "14", "15", "16", "15"], "time": [1407, 1486, 1743, 4219, 4279, 5110, 5231, 5794]}, "edge": {"target": [], "time": []}}, "mouseout": {"state": {"target": ["20", "19", "22", "0", "12", "22", "21", "19", "14", "15", "16"], "time": [430, 455, 502, 1023, 1426, 1607, 2014, 4266, 5032, 5159, 5773]}, "edge": {"target": [], "time": []}}}, "displayed_time": "14.96", "trialTime": 16136, "trial_type": "mouselab-mdp", "trial_index": 38, "time_elapsed": 1368110, "internal_node_id": "0.0-6.0-1.0-29.0"}}, {"uniqueid": "w86712303:a68599091", "current_trial": 39, "dateTime": 1693482149742, "trialdata": {"revealed_states": [], "clicked_states": ["5", "18", "33"], "num_clicks_accrued": [0, 0, 0, 0, 0, 0, 0, 0, 0, 0, 0, 0, 0], "stateRewards": ["", -2, -4, 2, 10, -17, 18, 73, 11, -32, 23, -13, -2, -4, 7, 12, -25, 66, -23, 15, 40, -76, -9, 1, 2, -7, -5, -20, 24, 3, -5, 16, -73, 70], "withholdReward": false, "trial_id": "mdp_trial_31", "block": "test", "trialIndex": 32, "score": 54.55, "costs": -6.449999999999999, "simulationMode": [null, null, null, null, null], "rewards": [1, 2, -7, -5, 70], "path": ["0", "0", "23", "24", "25", "30", "33"], "rt": [11531, 175, 137, 115, 217], "actions": ["left", "left", "left", "down", "left"], "actionTimes": [12935, 13614, 14255, 14879, 15599], "queries": {"click": {"state": {"target": ["5", "18", "33"], "time": [2415, 6159, 9408]}, "edge": {"target": [], "time": []}}, "mouseover": {"state": {"target": ["7", "6", "5", "4", "7", "18", "1", "28", "26", "28", "30", "33", "30", "31", "23"], "time": [1917, 1975, 2278, 2639, 2683, 5974, 6812, 6916, 7006, 7167, 7612, 7980, 10020, 10103, 10568]}, "edge": {"target": [], "time": []}}, "mouseout": {"state": {"target": ["15", "18", "12", "0", "7", "6", "5", "5", "4", "7", "18", "1", "28", "26", "28", "30", "33", "30", "31", "23", "26", "23", "0"], "time": [806, 893, 1061, 1847, 1937, 1992, 2492, 2612, 2662, 2742, 6226, 6825, 6978, 7133, 7508, 7855, 9979, 10075, 10499, 10603, 18158, 18646, 19110]}, "edge": {"target": [], "time": []}}}, "displayed_time": "16.10", "trialTime": 21159, "trial_type": "mouselab-mdp", "trial_index": 39, "time_elapsed": 1389519, "internal_node_id": "0.0-6.0-1.0-30.0"}}, {"uniqueid": "w86712303:a68599091", "current_trial": 40, "dateTime": 1693482174534, "trialdata": {"revealed_states": [], "clicked_states": ["17", "5", "27", "32", "21"], "num_clicks_accrued": [0, 0, 0, 0, 0, 0, 0, 0, 0, 0, 0, 0, 0], "stateRewards": ["", -1, -3, -3, 1, -38, 2, -53, -2, -1, -81, 70, -1, 1, -5, -9, 46, 15, 35, -1, -22, 38, 59, -2, 4, -8, 13, 1, -83, -43, 4, 76, 13, 48], "withholdReward": false, "trial_id": "mdp_trial_32", "block": "test", "trialIndex": 33, "score": 21.25, "costs": -10.75, "simulationMode": [null, null, null, null, null], "rewards": [-1, 1, -5, -1, 38], "path": ["0", "0", "12", "13", "14", "19", "21"], "rt": [18869, 3, 148, 38, 94], "actions": ["right", "right", "right", "down", "down"], "actionTimes": [20016, 20527, 21192, 21728, 22328], "queries": {"click": {"state": {"target": ["17", "5", "27", "32", "21"], "time": [3362, 6721, 9928, 13122, 16472]}, "edge": {"target": [], "time": []}}, "mouseover": {"state": {"target": ["12", "13", "17", "16", "6", "5", "8", "11", "27", "30", "32", "21"], "time": [2599, 2632, 2925, 4765, 4848, 5056, 7392, 7433, 7592, 11889, 11952, 14848]}, "edge": {"target": [], "time": []}}, "mouseout": {"state": {"target": ["0", "12", "13", "17", "16", "6", "5", "8", "11", "27", "30", "32", "21"], "time": [1871, 2626, 2647, 3788, 4792, 4924, 7223, 7400, 7495, 11536, 11903, 13494, 16841]}, "edge": {"target": [], "time": []}}}, "displayed_time": "22.83", "trialTime": 24536, "trial_type": "mouselab-mdp", "trial_index": 40, "time_elapsed": 1414311, "internal_node_id": "0.0-6.0-1.0-31.0"}}, {"uniqueid": "w86712303:a68599091", "current_trial": 41, "dateTime": 1693482194324, "trialdata": {"revealed_states": [], "clicked_states": ["10", "22"], "num_clicks_accrued": [0, 0, 0, 0, 0, 0, 0, 0, 0, 0, 0, 0, 0], "stateRewards": ["", 2, -3, 5, -14, -63, -9, -24, -11, -54, -43, 68, 2, -2, -4, 7, -64, 30, 47, 12, -74, 11, 86, 1, -3, 3, 10, -71, -42, -52, -1, -29, -16, 69], "withholdReward": false, "trial_id": "mdp_trial_33", "block": "test", "trialIndex": 34, "score": 89.7, "costs": -4.3, "simulationMode": [null, null, null, null, null], "rewards": [2, -2, -4, 12, 86], "path": ["0", "0", "12", "13", "14", "19", "22"], "rt": [8452, 76, 101, 73, 119], "actions": ["right", "right", "right", "down", "left"], "actionTimes": [12060, 12634, 13235, 13812, 14434], "queries": {"click": {"state": {"target": ["10", "22"], "time": [4971, 8340]}, "edge": {"target": [], "time": []}}, "mouseover": {"state": {"target": ["1", "10", "1", "18", "13", "22", "30", "32", "20"], "time": [4306, 4809, 5293, 5702, 6182, 6307, 9196, 9314, 10983]}, "edge": {"target": [], "time": []}}, "mouseout": {"state": {"target": ["21", "12", "13", "22", "0", "1", "10", "1", "18", "13", "22", "22", "30", "32", "20"], "time": [930, 1779, 1810, 2425, 4185, 4522, 5251, 5342, 6134, 6222, 8821, 8967, 9252, 9981, 18690]}, "edge": {"target": [], "time": []}}}, "displayed_time": "17.61", "trialTime": 19578, "trial_type": "mouselab-mdp", "trial_index": 41, "time_elapsed": 1434101, "internal_node_id": "0.0-6.0-1.0-32.0"}}, {"uniqueid": "w86712303:a68599091", "current_trial": 42, "dateTime": 1693482210597, "trialdata": {"revealed_states": [], "clicked_states": ["9"], "num_clicks_accrued": [0, 0, 0, 0, 0, 0, 0, 0, 0, 0, 0, 0, 0], "stateRewards": ["", 1, 1, -3, 2, 22, -25, -11, -5, 50, 49, 3, 1, -1, 8, 14, -85, -30, 57, -6, -39, -16, 59, -2, -1, 5, 5, 59, -16, 8, 4, 67, 56, -9], "withholdReward": false, "trial_id": "mdp_trial_34", "block": "test", "trialIndex": 35, "score": 41.85, "costs": -2.15, "simulationMode": [null, null, null, null, null], "rewards": [1, 1, -3, -5, 50], "path": ["0", "0", "1", "2", "3", "8", "9"], "rt": [5148, 159, 35, 77, 138], "actions": ["up", "up", "up", "left", "up"], "actionTimes": [6094, 6757, 7293, 7869, 8508], "queries": {"click": {"state": {"target": ["9"], "time": [2311]}, "edge": {"target": [], "time": []}}, "mouseover": {"state": {"target": ["2", "3", "8", "9", "8", "3", "18"], "time": [1429, 1632, 1813, 2092, 3418, 3446, 3883]}, "edge": {"target": [], "time": []}}, "mouseout": {"state": {"target": ["20", "19", "12", "0", "2", "3", "8", "9", "9", "8", "3"], "time": [381, 396, 549, 1285, 1509, 1733, 2014, 2400, 3168, 3426, 3481]}, "edge": {"target": [], "time": []}}}, "displayed_time": "14.95", "trialTime": 16029, "trial_type": "mouselab-mdp", "trial_index": 42, "time_elapsed": 1450374, "internal_node_id": "0.0-6.0-1.0-33.0"}}, {"uniqueid": "w86712303:a68599091", "current_trial": 43, "dateTime": 1693482227885, "trialdata": {"revealed_states": [], "clicked_states": ["21", "16"], "num_clicks_accrued": [0, 0, 0, 0, 0, 0, 0, 0, 0, 0, 0, 0, 0], "stateRewards": ["", 1, -1, 8, -3, 38, 85, -20, -4, 8, 23, 73, 2, -4, 6, -13, 44, 7, -28, -11, -77, 45, -69, 1, -1, -7, -11, 75, -51, -87, 7, 36, -53, -26], "withholdReward": false, "trial_id": "mdp_trial_35", "block": "test", "trialIndex": 36, "score": 33.7, "costs": -4.3, "simulationMode": [null, null, null, null, null], "rewards": [2, -4, 6, -11, 45], "path": ["0", "0", "12", "13", "14", "19", "21"], "rt": [9728, 140, 214, 25, 186], "actions": ["right", "right", "right", "down", "down"], "actionTimes": [10947, 11596, 12308, 12835, 13531], "queries": {"click": {"state": {"target": ["21", "16"], "time": [2229, 6717]}, "edge": {"target": [], "time": []}}, "mouseover": {"state": {"target": ["12", "13", "14", "19", "21", "19", "14", "15", "16", "16"], "time": [1362, 1378, 1450, 1594, 1755, 3032, 3094, 3149, 3413, 3524]}, "edge": {"target": [], "time": []}}, "mouseout": {"state": {"target": ["18", "12", "12", "13", "14", "19", "21", "19", "14", "15", "16", "16"], "time": [619, 822, 1368, 1410, 1491, 1698, 2983, 3073, 3129, 3248, 3469, 6778]}, "edge": {"target": [], "time": []}}}, "displayed_time": "15.22", "trialTime": 17035, "trial_type": "mouselab-mdp", "trial_index": 43, "time_elapsed": 1467662, "internal_node_id": "0.0-6.0-1.0-34.0"}}, {"uniqueid": "w86712303:a68599091", "current_trial": 44, "dateTime": 1693482246493, "trialdata": {"revealed_states": [], "clicked_states": ["5", "33", "20"], "num_clicks_accrued": [0, 0, 0, 0, 0, 0, 0, 0, 0, 0, 0, 0, 0], "stateRewards": ["", -2, -3, 1, -7, 39, -67, 16, 5, -20, 73, 66, -1, 4, 5, -3, 23, -68, -87, -8, 3, -3, 17, 1, -4, -2, -13, -32, 34, 61, -5, -11, -18, 12], "withholdReward": false, "trial_id": "mdp_trial_36", "block": "test", "trialIndex": 37, "score": 21.55, "costs": -6.449999999999999, "simulationMode": [null, null, null, null, null], "rewards": [-2, -3, 1, -7, 39], "path": ["0", "0", "1", "2", "3", "4", "5"], "rt": [11609, 124, 124, 101, 185], "actions": ["up", "up", "up", "right", "up"], "actionTimes": [13336, 13967, 14599, 15207, 15895], "queries": {"click": {"state": {"target": ["5", "33", "20"], "time": [2697, 6104, 9379]}, "edge": {"target": [], "time": []}}, "mouseover": {"state": {"target": ["7", "4", "5", "5", "3", "10", "28", "26", "33", "30", "31", "19", "20", "20"], "time": [2238, 2263, 2334, 2559, 2883, 2923, 2952, 2986, 3459, 6334, 6353, 6409, 6424, 6715]}, "edge": {"target": [], "time": []}}, "mouseout": {"state": {"target": ["16", "0", "7", "4", "5", "5", "3", "10", "28", "26", "33", "30", "31", "19", "20", "20"], "time": [958, 2182, 2250, 2294, 2367, 2840, 2896, 2937, 2973, 3021, 6326, 6344, 6362, 6423, 6437, 12500]}, "edge": {"target": [], "time": []}}}, "displayed_time": "16.40", "trialTime": 18335, "trial_type": "mouselab-mdp", "trial_index": 44, "time_elapsed": 1486269, "internal_node_id": "0.0-6.0-1.0-35.0"}}, {"uniqueid": "w86712303:a68599091", "current_trial": 45, "dateTime": 1693482265902, "trialdata": {"revealed_states": [], "clicked_states": ["5"], "num_clicks_accrued": [0, 0, 0, 0, 0, 0, 0, 0, 0, 0, 0, 0, 0], "stateRewards": ["", -2, 3, -1, -9, 44, 48, -37, -3, 71, -39, 87, -1, 3, -4, 4, -21, 59, -15, -8, -1, 28, -38, 2, 4, 4, 8, -85, -72, -63, 14, 58, 63, -46], "withholdReward": false, "trial_id": "mdp_trial_37", "block": "test", "trialIndex": 38, "score": 32.85, "costs": -2.15, "simulationMode": [null, null, null, null, null], "rewards": [-2, 3, -1, -9, 44], "path": ["0", "0", "1", "2", "3", "4", "5"], "rt": [5164, 86, 112, 454, 214], "actions": ["up", "up", "up", "right", "up"], "actionTimes": [7763, 8347, 8963, 9924, 10635], "queries": {"click": {"state": {"target": ["5"], "time": [3940]}, "edge": {"target": [], "time": []}}, "mouseover": {"state": {"target": ["7", "4", "5", "5", "3", "8"], "time": [3307, 3410, 3522, 3827, 7090, 7123]}, "edge": {"target": [], "time": []}}, "mouseout": {"state": {"target": ["0", "7", "4", "5", "5", "3", "8"], "time": [2606, 3362, 3474, 3628, 7042, 7101, 7150]}, "edge": {"target": [], "time": []}}}, "displayed_time": "16.60", "trialTime": 19164, "trial_type": "mouselab-mdp", "trial_index": 45, "time_elapsed": 1505679, "internal_node_id": "0.0-6.0-1.0-36.0"}}, {"uniqueid": "w86712303:a68599091", "current_trial": 46, "dateTime": 1693482283238, "trialdata": {"revealed_states": [], "clicked_states": ["21", "16"], "num_clicks_accrued": [0, 0, 0, 0, 0, 0, 0, 0, 0, 0, 0, 0, 0], "stateRewards": ["", 1, 4, 5, -5, 58, -80, 75, 6, 25, -39, 46, 2, -2, 4, 2, 59, 31, -22, -12, -61, 15, 72, 1, -2, -7, 8, 77, 76, -23, -7, 71, -15, -3], "withholdReward": false, "trial_id": "mdp_trial_38", "block": "test", "trialIndex": 39, "score": 60.7, "costs": -4.3, "simulationMode": [null, null, null, null, null], "rewards": [2, -2, 4, 2, 59], "path": ["0", "0", "12", "13", "14", "15", "16"], "rt": [8223, 141, 135, 106, 262], "actions": ["right", "right", "right", "up", "up"], "actionTimes": [9979, 10618, 11259, 11874, 12642], "queries": {"click": {"state": {"target": ["21", "16"], "time": [2660, 5955]}, "edge": {"target": [], "time": []}}, "mouseover": {"state": {"target": ["22", "21", "19", "14", "15", "16", "23", "31", "30", "31"], "time": [2362, 2419, 2822, 2843, 2872, 2899, 7135, 7233, 7453, 7621]}, "edge": {"target": [], "time": []}}, "mouseout": {"state": {"target": ["1", "13", "19", "0", "22", "21", "19", "14", "15", "16", "23", "31", "30"], "time": [608, 809, 1209, 2313, 2386, 2788, 2836, 2865, 2886, 6426, 7162, 7399, 7564]}, "edge": {"target": [], "time": []}}}, "displayed_time": "15.76", "trialTime": 17083, "trial_type": "mouselab-mdp", "trial_index": 46, "time_elapsed": 1523014, "internal_node_id": "0.0-6.0-1.0-37.0"}}, {"uniqueid": "w86712303:a68599091", "current_trial": 47, "dateTime": 1693482323491, "trialdata": {"revealed_states": [], "clicked_states": ["5", "28", "18", "20", "21", "31", "33"], "num_clicks_accrued": [0, 0, 0, 0, 0, 0, 0, 0, 0, 0, 0, 0, 0], "stateRewards": ["", -2, 4, 3, 5, -61, 4, 30, 1, -47, 83, 10, 1, 4, 7, -14, 19, -74, -83, 6, -2, -2, -65, -1, -2, 4, -11, 12, -1, -68, 11, -38, -28, 66], "withholdReward": false, "trial_id": "mdp_trial_39", "block": "test", "trialIndex": 40, "score": 62.95, "costs": -15.05, "simulationMode": [null, null, null, null, null], "rewards": [-1, -2, 4, 11, 66], "path": ["0", "0", "23", "24", "25", "30", "33"], "rt": [25896, 176, 185, 66, 625], "actions": ["left", "left", "left", "down", "left"], "actionTimes": [27119, 27800, 28487, 29062, 30191], "queries": {"click": {"state": {"target": ["5", "28", "18", "20", "21", "31", "33"], "time": [1936, 5177, 8681, 12576, 15944, 19712, 23449]}, "edge": {"target": [], "time": []}}, "mouseover": {"state": {"target": ["4", "5", "3", "27", "28", "1", "18", "18", "14", "20", "21", "31", "33"], "time": [1607, 1687, 2252, 2321, 2578, 5746, 5808, 6152, 12111, 12350, 13905, 16898, 23311]}, "edge": {"target": [], "time": []}}, "mouseout": {"state": {"target": ["31", "12", "4", "5", "3", "27", "28", "1", "18", "18", "14", "20", "20", "21", "31", "33", "33", "32"], "time": [566, 774, 1641, 2217, 2266, 2329, 5710, 5772, 5842, 12047, 12158, 12632, 13787, 15999, 22879, 23528, 23933, 31349]}, "edge": {"target": [], "time": []}}}, "displayed_time": "30.69", "trialTime": 39982, "trial_type": "mouselab-mdp", "trial_index": 47, "time_elapsed": 1563268, "internal_node_id": "0.0-6.0-1.0-38.0"}}, {"uniqueid": "w86712303:a68599091", "current_trial": 48, "dateTime": 1693482344949, "trialdata": {"revealed_states": [], "clicked_states": ["21", "16", "5"], "num_clicks_accrued": [0, 0, 0, 0, 0, 0, 0, 0, 0, 0, 0, 0, 0], "stateRewards": ["", -2, -3, 7, -13, 60, 9, 37, -6, 37, 20, 1, 2, -2, -8, 6, -80, -31, -10, -7, 70, -65, -44, -1, 1, 7, 6, -11, 73, -85, 16, -21, 47, 34], "withholdReward": false, "trial_id": "mdp_trial_40", "block": "test", "trialIndex": 41, "score": 42.55, "costs": -6.449999999999999, "simulationMode": [null, null, null, null, null], "rewards": [-2, -3, 7, -13, 60], "path": ["0", "0", "1", "2", "3", "4", "5"], "rt": [12227, 134, 159, 195, 446], "actions": ["up", "up", "up", "right", "up"], "actionTimes": [14186, 14826, 15483, 16178, 17124], "queries": {"click": {"state": {"target": ["21", "16", "5"], "time": [3148, 6819, 10565]}, "edge": {"target": [], "time": []}}, "mouseover": {"state": {"target": ["12", "22", "21", "19", "14", "15", "16", "16", "5"], "time": [2603, 2649, 2946, 4996, 5058, 5197, 6370, 6674, 10308]}, "edge": {"target": [], "time": []}}, "mouseout": {"state": {"target": ["21", "22", "12", "0", "12", "22", "21", "19", "14", "15", "16", "16", "5"], "time": [1041, 1105, 1343, 2554, 2621, 2683, 4947, 5037, 5093, 5266, 6442, 9699, 18945]}, "edge": {"target": [], "time": []}}}, "displayed_time": "17.62", "trialTime": 21106, "trial_type": "mouselab-mdp", "trial_index": 48, "time_elapsed": 1584725, "internal_node_id": "0.0-6.0-1.0-39.0"}}, {"uniqueid": "w86712303:a68599091", "current_trial": 49, "dateTime": 1693482429203, "trialdata": {"rt": 84247, "response": {"Q0": "$-2 to $2", "Q1": "$-16 to $16", "Q2": "$-88 to $88", "Q3": "The cost for clicking on nodes varied between nodes.", "Q4": "Very motivated"}, "question_order": [0, 1, 2, 3, 4], "trial_id": "final_quiz_control", "trial_type": "survey-multi-choice", "trial_index": 49, "time_elapsed": 1668979, "internal_node_id": "0.0-6.0-2.0"}}, {"uniqueid": "w86712303:a68599091", "current_trial": 50, "dateTime": 1693482725802, "trialdata": {"rt": 296593, "response": {"Q0": "So after clicking some of the nodes in the first few rounds, I realized that the furthest nodes have the highest or lowest scores but the cost of revealing them was always worth it till I found one that was positive enough to pay the cost of the reveals I made. If found ones above 40 I would immediately just go for those ones. Below, maybe just click once or twice till I found a good one. But I would always click till I found at least one above 20.", "Q1": "I mostly stuck to this for the whole game since it seemed to always give me positive results.", "Q2": "Not difficult. After the first 5 rounds, I decided to stick to this till it failed. Which it did not."}, "trial_id": "self_report_control", "trial_type": "survey-text", "trial_index": 50, "time_elapsed": 1965579, "internal_node_id": "0.0-6.0-3.0"}}, {"uniqueid": "w86712303:a68599091", "current_trial": 51, "dateTime": 1693482879913, "trialdata": {"rt": 154107, "response": {"Q0": "Strongly disagree", "Q1": "Neither disagree nor agree", "Q2": "Agree", "Q3": "Strongly agree", "Q4": "Disagree", "Q5": "Strongly agree", "Q6": "Strongly disagree"}, "question_order": [0, 1, 2, 3, 4, 5, 6], "trial_id": "self_report_2", "trial_type": "survey-multi-choice", "trial_index": 51, "time_elapsed": 2119690, "internal_node_id": "0.0-6.0-4.0"}}, {"uniqueid": "w86712303:a68599091", "current_trial": 52, "dateTime": 1693482944672, "trialdata": {"rt": 64755, "response": {"gender": "male", "age": "22", "colorblind": "0", "effort": "1"}, "trial_type": "survey-html-form", "trial_index": 52, "time_elapsed": 2184449, "internal_node_id": "0.0-6.0-5.0"}}, {"uniqueid": "w86712303:a68599091", "current_trial": 53, "dateTime": 1693483065999, "trialdata": {"rt": 121323, "response": {"Q0": "No. Made sense. Understood the game. Just was a lot to read. I would say maybe explain the rules while doing an example. Everything made a lot more sense after playing the example.", "Q1": "I have not participated in the HIT.", "Q2": ""}, "trial_type": "survey-text", "trial_index": 53, "time_elapsed": 2305776, "internal_node_id": "0.0-6.0-6.0"}}, {"uniqueid": "w86712303:a68599091", "current_trial": 54, "dateTime": 1693483152904, "trialdata": {"rt": 86902, "stimulus": "<h1>Completion Code Instructions (1/2)</h1>\n<br><br><br><br>\nYou have reached the end of the experiment! The completion code consists of two parts: (1) a code with 2 characters (2) a code with 6 characters. On this page, you will receive the second part of the code. The first part of the completion code will be on the next page.\n<br><br>\nThe second part of your completion code is: <b>EWEK22</b>\n<br><br>\nPlease note this down. Then, press 'Finish HIT' in order to find the first part of your completion code. Once the data has been saved, you will receive this code either in this window or in the original browser window where you started the experiment.\n", "response": 0, "trial_type": "html-button-response", "trial_index": 54, "time_elapsed": 2392681, "internal_node_id": "0.0-6.0-7.0"}}, {"uniqueid": "w86712303:a68599091", "current_trial": 55, "dateTime": 1693483153908, "trialdata": {"success": true, "trial_type": "fullscreen", "trial_index": 55, "time_elapsed": 2393685, "internal_node_id": "0.0-7.0"}}], "questiondata": {"params": {"CODE": "C6DMOQA6", "MIN_TIME": 14, "inspectCost": 1, "startTime": "Thu Aug 31 2023 13:19:17 GMT+0200 (South Africa Standard Time)", "bonusRate": 0.002, "variance": "1_2_4_8_44", "branching": "31123"}, "final_score": 1772.6}, "eventdata": [{"eventtype": "initialized", "value": null, "timestamp": 1693480757398, "interval": 0}, {"eventtype": "window_resize", "value": [1536, 758], "timestamp": 1693480757399, "interval": 1}, {"eventtype": "window_resize", "value": [1536, 758], "timestamp": 1693480757880, "interval": 481}, {"eventtype": "window_resize", "value": [1536, 864], "timestamp": 1693480766367, "interval": 8487}, {"eventtype": "focus", "value": "off", "timestamp": 1693481065781, "interval": 299414}, {"eventtype": "focus", "value": "on", "timestamp": 1693481105633, "interval": 39852}, {"eventtype": "focus", "value": "off", "timestamp": 1693481165531, "interval": 59898}, {"eventtype": "focus", "value": "on", "timestamp": 1693481191417, "interval": 25886}, {"eventtype": "focus", "value": "off", "timestamp": 1693481275380, "interval": 83963}, {"eventtype": "focus", "value": "on", "timestamp": 1693481305113, "interval": 29733}, {"eventtype": "focus", "value": "off", "timestamp": 1693481869210, "interval": 564097}, {"eventtype": "focus", "value": "on", "timestamp": 1693481894606, "interval": 25396}, {"eventtype": "focus", "value": "off", "timestamp": 1693481915841, "interval": 21235}, {"eventtype": "focus", "value": "on", "timestamp": 1693481928229, "interval": 12388}, {"eventtype": "focus", "value": "off", "timestamp": 1693482054785, "interval": 126556}, {"eventtype": "focus", "value": "on", "timestamp": 1693482064343, "interval": 9558}, {"eventtype": "focus", "value": "off", "timestamp": 1693482315632, "interval": 251289}, {"eventtype": "focus", "value": "on", "timestamp": 1693482321286, "interval": 5654}, {"eventtype": "focus", "value": "off", "timestamp": 1693482357328, "interval": 36042}, {"eventtype": "focus", "value": "on", "timestamp": 1693482383341, "interval": 26013}, {"eventtype": "focus", "value": "off", "timestamp": 1693482810325, "interval": 426984}, {"eventtype": "focus", "value": "on", "timestamp": 1693482844330, "interval": 34005}, {"eventtype": "focus", "value": "off", "timestamp": 1693482848734, "interval": 4404}, {"eventtype": "focus", "value": "on", "timestamp": 1693482853420, "interval": 4686}, {"eventtype": "focus", "value": "off", "timestamp": 1693483085710, "interval": 232290}, {"eventtype": "focus", "value": "on", "timestamp": 1693483090068, "interval": 4358}, {"eventtype": "focus", "value": "off", "timestamp": 1693483090885, "interval": 817}, {"eventtype": "focus", "value": "on", "timestamp": 1693483109287, "interval": 18402}, {"eventtype": "focus", "value": "off", "timestamp": 1693483111035, "interval": 1748}, {"eventtype": "focus", "value": "on", "timestamp": 1693483152884, "interval": 41849}, {"eventtype": "window_resize", "value": [1536, 758], "timestamp": 1693483153139, "interval": 255}], "useragent": "Mozilla/5.0 (Windows NT 10.0; Win64; x64) AppleWebKit/537.36 (KHTML, like Gecko) Chrome/116.0.0.0 Safari/537.36", "mode": "live", "id": "w86712303:a68599091", "status": "user data saved", "Beginhit": "2023-08-31 11:19:14.745054", "Beginexp": "2023-08-31 11:19:27.878824", "Endhit": "2023-08-31 11:59:16.61897", "psiturkStatus": 3, "browser": "<redacted>", "platform": "windows", "language": "en-US"}