{"condition": 0, "counterbalance": 0, "assignmentId": "a64340750", "workerId": "w15073287", "hitId": "h34503341", "currenttrial": 55, "bonus": 0, "data": [{"uniqueid": "w15073287:a64340750", "current_trial": 0, "dateTime": 1693564304753, "trialdata": {"success": true, "trial_type": "fullscreen", "trial_index": 0, "time_elapsed": 20065, "internal_node_id": "0.0-0.0"}}, {"uniqueid": "w15073287:a64340750", "current_trial": 1, "dateTime": 1693564317253, "trialdata": {"view_history": [{"page_index": 0, "viewing_time": 12487}], "rt": 12487, "trial_id": "exp_instructions_control", "trial_type": "instructions", "trial_index": 1, "time_elapsed": 32565, "internal_node_id": "0.0-1.0"}}, {"uniqueid": "w15073287:a64340750", "current_trial": 2, "dateTime": 1693564502824, "trialdata": {"view_history": [{"page_index": 0, "viewing_time": 41020}, {"page_index": 1, "viewing_time": 808}, {"page_index": 0, "viewing_time": 10440}, {"page_index": 1, "viewing_time": 72765}, {"page_index": 2, "viewing_time": 24879}, {"page_index": 3, "viewing_time": 35657}], "rt": 185570, "trial_id": "mouselab_instructions_1_control", "trial_type": "instructions", "trial_index": 2, "time_elapsed": 218136, "internal_node_id": "0.0-2.0-1.0"}}, {"uniqueid": "w15073287:a64340750", "current_trial": 3, "dateTime": 1693564522911, "trialdata": {"revealed_states": [], "clicked_states": ["14", "19", "20"], "num_clicks_accrued": [0, 0, 0, 0, 0, 0, 0, 0, 0, 0, 0, 0, 0], "stateRewards": ["", -10, 10, -10, -10, 10, -10, 10, 10, 10, 10, -10, 10, -10, 10, -10, -10, 10, -10, 10, 10, 10, -10, 10, 10, 10, 10, -10, -10, -10, 10, 10, -10, 10], "withholdReward": false, "trial_id": "practice_1", "block": "test", "trialIndex": 0, "score": 32, "costs": -1.5, "simulationMode": [null, null, null, null, null], "rewards": [10, -10, 10, 10, 10], "path": ["0", "0", "12", "13", "14", "19", "20"], "rt": [8358, 46, 142, 112, 136], "actions": ["right", "right", "right", "down", "right"], "actionTimes": [12105, 12675, 13358, 14008, 14672], "queries": {"click": {"state": {"target": ["14", "19", "20"], "time": [4929, 7053, 9994]}, "edge": {"target": [], "time": []}}, "mouseover": {"state": {"target": ["12", "14", "13", "19", "22", "20"], "time": [4568, 4835, 5691, 6910, 9028, 9758]}, "edge": {"target": [], "time": []}}, "mouseout": {"state": {"target": ["1", "1", "12", "14", "13", "19", "22", "19", "20"], "time": [1275, 2981, 4585, 5580, 6746, 8967, 9091, 9419, 11698]}, "edge": {"target": [], "time": []}}}, "displayed_time": "15.21", "trialTime": 19584, "trial_type": "mouselab-mdp", "trial_index": 3, "time_elapsed": 238222, "internal_node_id": "0.0-2.0-2.0-0.0"}}, {"uniqueid": "w15073287:a64340750", "current_trial": 4, "dateTime": 1693564542274, "trialdata": {"revealed_states": [], "clicked_states": ["25", "33", "32", "29", "26"], "num_clicks_accrued": [0, 0, 0, 0, 0, 0, 0, 0, 0, 0, 0, 0, 0], "stateRewards": ["", 10, -10, -10, 10, -10, 10, 10, 10, 10, -10, 10, -10, 10, -10, 10, -10, 10, 10, -10, 10, -10, 10, 10, 10, 10, 10, 10, -10, 10, -10, 10, -10, -10], "withholdReward": false, "trial_id": "practice_2", "block": "test", "trialIndex": 1, "score": 51, "costs": -2.5, "simulationMode": [null, null, null, null, null], "rewards": [10, 10, 10, 10, 10], "path": ["0", "0", "23", "24", "25", "26", "29"], "rt": [11590, 173, 35, 37, 139], "actions": ["left", "left", "left", "up", "left"], "actionTimes": [12758, 13478, 14050, 14635, 15308], "queries": {"click": {"state": {"target": ["25", "33", "32", "29", "26"], "time": [3139, 5255, 7254, 9593, 11543]}, "edge": {"target": [], "time": []}}, "mouseover": {"state": {"target": ["23", "24", "25", "30", "33", "32", "30", "25", "26", "29", "26"], "time": [2004, 2114, 3043, 4682, 5196, 7187, 9118, 9236, 9301, 9529, 11484]}, "edge": {"target": [], "time": []}}, "mouseout": {"state": {"target": ["19", "12", "0", "23", "24", "25", "30", "33", "32", "30", "25", "26", "29"], "time": [483, 622, 1954, 2088, 2153, 4614, 4931, 6610, 9083, 9198, 9250, 9403, 11417]}, "edge": {"target": [], "time": []}}}, "displayed_time": "15.87", "trialTime": 18551, "trial_type": "mouselab-mdp", "trial_index": 4, "time_elapsed": 257586, "internal_node_id": "0.0-2.0-2.0-1.0"}}, {"uniqueid": "w15073287:a64340750", "current_trial": 5, "dateTime": 1693564550359, "trialdata": {"view_history": [{"page_index": 0, "viewing_time": 6156}, {"page_index": 1, "viewing_time": 1928}], "rt": 8084, "trial_id": "mouselab_instructions_2_control", "trial_type": "instructions", "trial_index": 5, "time_elapsed": 265671, "internal_node_id": "0.0-2.0-3.0"}}, {"uniqueid": "w15073287:a64340750", "current_trial": 6, "dateTime": 1693564588719, "trialdata": {"rt": 38356, "response": {"Q0": "The cost for clicking on nodes may vary between nodes.", "Q1": "The better I perform the higher my bonus will be.", "Q2": "No, the amount of cash at each node of the web may be different each time.", "Q3": "To get the highest total score.", "Q4": "Only before moving the spider.", "Q5": "3 seconds"}, "question_order": [0, 1, 2, 3, 4, 5], "correct": {"Q0": "The cost for clicking on nodes may vary between nodes.", "Q1": "The better I perform the higher my bonus will be.", "Q2": "No, the amount of cash at each node of the web may be different each time.", "Q3": "To get the highest total score.", "Q4": "Only before moving the spider.", "Q5": "3 seconds"}, "trial_id": "mouselab_quiz_control", "trial_type": "survey-multi-choice", "trial_index": 6, "time_elapsed": 304031, "internal_node_id": "0.0-2.0-4.0"}}, {"uniqueid": "w15073287:a64340750", "current_trial": 7, "dateTime": 1693564606273, "trialdata": {"rt": 17546, "response": {"Q0": "No"}, "question_order": [0], "trial_id": "repeat_check", "trial_type": "survey-multi-choice", "trial_index": 7, "time_elapsed": 321585, "internal_node_id": "0.0-4.0-0.0"}}, {"uniqueid": "w15073287:a64340750", "current_trial": 8, "dateTime": 1693564610503, "trialdata": {"rt": 4223, "stimulus": "\n<h1> Get ready to start the game! </h1>\n\nThank you for reading the instructions. Get ready start with the 40 rounds of this game.\n<br><br>\nIf you need to take a break, feel free to take one after the end of a round, before continuing to the next one.\n<br><br>\nRemember, the more money the spider gets, the bigger your bonus will be!\n<br><br>\n<div style='text-align: center;'>Press <code>space</code> to begin.</div>\n\n<br><br>\n(If, at any point, the <code>space</code> key does not take you to the next page, click once on the text and try again.)", "response": " ", "trial_id": "mdp_ready", "trial_type": "html-keyboard-response", "trial_index": 8, "time_elapsed": 325815, "internal_node_id": "0.0-6.0-0.0"}}, {"uniqueid": "w15073287:a64340750", "current_trial": 9, "dateTime": 1693564632388, "trialdata": {"revealed_states": [], "clicked_states": ["15", "19"], "num_clicks_accrued": [0, 0, 0, 0, 0, 0, 0, 0, 0, 0, 0, 0, 0], "stateRewards": ["", 1, 2, -5, 14, 54, -14, -25, 16, -5, -87, 78, -1, 1, 3, -3, 52, 53, 53, -10, 73, -69, -48, 2, 3, 1, 8, -62, -7, 85, 7, 82, 52, -28], "withholdReward": false, "trial_id": "mdp_trial_1", "block": "test", "trialIndex": 2, "score": -17.8, "costs": -2.8, "simulationMode": [null, null, null, null, null], "rewards": [2, 3, 1, 7, -28], "path": ["0", "0", "23", "24", "25", "30", "33"], "rt": [8489, 315, 128, 27, 45], "actions": ["left", "left", "left", "down", "left"], "actionTimes": [11791, 12634, 13282, 13879, 14479], "queries": {"click": {"state": {"target": ["15", "19"], "time": [6118, 8620]}, "edge": {"target": [], "time": []}}, "mouseover": {"state": {"target": ["14", "13", "14", "15", "14", "19"], "time": [4230, 4962, 4977, 5824, 8429, 8491]}, "edge": {"target": [], "time": []}}, "mouseout": {"state": {"target": ["0", "14", "13", "14", "15", "14", "19"], "time": [3337, 4770, 4969, 5599, 8383, 8470, 11326]}, "edge": {"target": [], "time": []}}}, "displayed_time": "18.00", "trialTime": 20612, "trial_type": "mouselab-mdp", "trial_index": 9, "time_elapsed": 347700, "internal_node_id": "0.0-6.0-1.0-0.0"}}, {"uniqueid": "w15073287:a64340750", "current_trial": 10, "dateTime": 1693564652279, "trialdata": {"revealed_states": [], "clicked_states": ["15", "25", "33"], "num_clicks_accrued": [0, 0, 0, 0, 0, 0, 0, 0, 0, 0, 0, 0, 0], "stateRewards": ["", -2, 4, 3, 5, -61, 4, 30, 1, -47, 83, 10, 1, 4, 7, -14, 19, -74, -83, 6, -2, -2, -65, -1, -2, 4, -11, 12, -1, -68, 11, -38, -28, 66], "withholdReward": false, "trial_id": "mdp_trial_2", "block": "test", "trialIndex": 3, "score": 73.8, "costs": -4.199999999999999, "simulationMode": [null, null, null, null, null], "rewards": [-1, -2, 4, 11, 66], "path": ["0", "0", "23", "24", "25", "30", "33"], "rt": [10642, 83, 702, 85, 50], "actions": ["left", "left", "left", "down", "left"], "actionTimes": [12025, 12658, 13918, 14541, 15113], "queries": {"click": {"state": {"target": ["15", "25", "33"], "time": [2430, 6228, 9431]}, "edge": {"target": [], "time": []}}, "mouseover": {"state": {"target": ["15", "14", "25", "30", "33"], "time": [2149, 4502, 6184, 8561, 9282]}, "edge": {"target": [], "time": []}}, "mouseout": {"state": {"target": ["0", "0", "15", "14", "25", "30"], "time": [594, 2012, 4418, 5562, 8450, 9217]}, "edge": {"target": [], "time": []}}}, "displayed_time": "16.25", "trialTime": 18783, "trial_type": "mouselab-mdp", "trial_index": 10, "time_elapsed": 367591, "internal_node_id": "0.0-6.0-1.0-1.0"}}, {"uniqueid": "w15073287:a64340750", "current_trial": 11, "dateTime": 1693564674566, "trialdata": {"revealed_states": [], "clicked_states": ["8", "4", "15", "17"], "num_clicks_accrued": [0, 0, 0, 0, 0, 0, 0, 0, 0, 0, 0, 0, 0], "stateRewards": ["", -2, -1, -2, -15, 87, 57, 29, -10, 77, -80, -7, 1, -3, 6, 14, -11, 87, -59, 4, -71, 16, -11, 2, 2, -7, 2, -47, 61, 50, 14, -20, 17, 81], "withholdReward": false, "trial_id": "mdp_trial_3", "block": "test", "trialIndex": 4, "score": 99.4, "costs": -5.6, "simulationMode": [null, null, null, null, null, null], "rewards": [1, -3, 6, 14, 87], "path": ["0", "0", "12", "13", "14", "15", "17"], "rt": [10498, 233, 78, 36, 105, 94], "actions": ["right", "right", "right", "right", "up", "right"], "actionTimes": [12618, 12859, 13491, 14065, 14713, 15362], "queries": {"click": {"state": {"target": ["8", "4", "15", "17"], "time": [3720, 6250, 9636, 11917]}, "edge": {"target": [], "time": []}}, "mouseover": {"state": {"target": ["2", "8", "3", "8", "4", "18", "14", "15", "17"], "time": [2692, 2885, 3481, 3641, 6184, 8988, 9058, 9533, 11836]}, "edge": {"target": [], "time": []}}, "mouseout": {"state": {"target": ["33", "0", "2", "8", "3", "8", "4", "18", "14", "15", "17"], "time": [679, 2588, 2700, 3184, 3540, 5951, 8858, 9053, 9503, 11823, 12237]}, "edge": {"target": [], "time": []}}}, "displayed_time": "16.91", "trialTime": 21092, "trial_type": "mouselab-mdp", "trial_index": 11, "time_elapsed": 389875, "internal_node_id": "0.0-6.0-1.0-2.0"}}, {"uniqueid": "w15073287:a64340750", "current_trial": 12, "dateTime": 1693564699927, "trialdata": {"revealed_states": [], "clicked_states": ["15", "19", "30", "26", "8", "5", "4"], "num_clicks_accrued": [0, 0, 0, 0, 0, 0, 0, 0, 0, 0, 0, 0, 0], "stateRewards": ["", -1, -1, 4, -16, -75, 81, -51, -7, -84, 73, -30, -2, 1, -3, -16, -77, 33, 14, 1, 45, 87, -66, 2, 2, -5, -7, -19, -17, 79, -3, 8, 49, 47], "withholdReward": false, "trial_id": "mdp_trial_4", "block": "test", "trialIndex": 5, "score": -15.8, "costs": -9.8, "simulationMode": [null, null, null, null, null], "rewards": [-2, 1, -3, -16, 14], "path": ["0", "0", "12", "13", "14", "15", "18"], "rt": [15994, 106, 199, 157, 30], "actions": ["right", "right", "right", "up", "left"], "actionTimes": [19966, 20624, 21349, 22047, 22619], "queries": {"click": {"state": {"target": ["15", "19", "30", "26", "8", "5", "4"], "time": [4768, 6655, 8391, 10434, 13032, 15389, 17650]}, "edge": {"target": [], "time": []}}, "mouseover": {"state": {"target": ["12", "15", "19", "22", "30", "25", "26", "3", "8", "3", "5", "4"], "time": [4382, 4690, 5870, 7161, 7999, 9453, 9665, 12724, 12986, 15139, 15281, 15769]}, "edge": {"target": [], "time": []}}, "mouseout": {"state": {"target": ["15", "13", "12", "0", "12", "15", "19", "22", "30", "25", "26", "3", "8", "3", "5", "4"], "time": [588, 902, 2458, 4074, 4417, 5838, 6752, 7204, 9398, 9548, 12438, 12948, 15067, 15274, 15714, 17964]}, "edge": {"target": [], "time": []}}}, "displayed_time": "23.17", "trialTime": 24388, "trial_type": "mouselab-mdp", "trial_index": 12, "time_elapsed": 415239, "internal_node_id": "0.0-6.0-1.0-3.0"}}, {"uniqueid": "w15073287:a64340750", "current_trial": 13, "dateTime": 1693564720598, "trialdata": {"revealed_states": [], "clicked_states": ["17", "15", "30", "26", "8", "11"], "num_clicks_accrued": [0, 0, 0, 0, 0, 0, 0, 0, 0, 0, 0, 0, 0], "stateRewards": ["", 1, -3, -6, -5, 47, 80, -29, 11, -71, 10, -29, -2, 3, -6, 12, 2, -78, -6, 8, 34, -16, -5, -1, 3, 3, -13, 84, -36, -62, -3, -27, 66, 15], "withholdReward": false, "trial_id": "mdp_trial_5", "block": "test", "trialIndex": 6, "score": -76.4, "costs": -8.4, "simulationMode": [null, null, null, null, null, null], "rewards": [1, -3, -6, 11, -71], "path": ["0", "0", "1", "2", "3", "8", "9"], "rt": [12905, 199, 185, 118, 74, 59], "actions": ["up", "up", "up", "up", "left", "up"], "actionTimes": [14284, 14489, 15187, 15853, 16459, 17051], "queries": {"click": {"state": {"target": ["17", "15", "30", "26", "8", "11"], "time": [1991, 3859, 5964, 8369, 10852, 13538]}, "edge": {"target": [], "time": []}}, "mouseover": {"state": {"target": ["18", "17", "15", "14", "19", "22", "31", "30", "26", "33", "10", "3", "8", "33", "9", "11"], "time": [1855, 1889, 2193, 4285, 4448, 4934, 5117, 5327, 8140, 10087, 10641, 10691, 10808, 12237, 13300, 13456]}, "edge": {"target": [], "time": []}}, "mouseout": {"state": {"target": ["3", "18", "17", "15", "14", "19", "22", "31", "30", "26", "33", "10", "3", "8", "8", "33", "8", "9", "11", "23"], "time": [449, 1885, 2085, 4217, 4375, 4919, 5100, 5190, 8078, 9657, 10572, 10685, 10802, 10908, 11557, 13005, 13188, 13442, 18223, 18390]}, "edge": {"target": [], "time": []}}}, "displayed_time": "17.61", "trialTime": 19595, "trial_type": "mouselab-mdp", "trial_index": 13, "time_elapsed": 435910, "internal_node_id": "0.0-6.0-1.0-4.0"}}, {"uniqueid": "w15073287:a64340750", "current_trial": 14, "dateTime": 1693564742721, "trialdata": {"revealed_states": [], "clicked_states": ["15", "19", "30", "33", "31"], "num_clicks_accrued": [0, 0, 0, 0, 0, 0, 0, 0, 0, 0, 0, 0, 0], "stateRewards": ["", 1, -3, -4, -11, -56, 61, -47, -16, -28, -9, 69, -2, -3, -4, -8, 40, -86, 59, -4, 80, 27, 54, -1, 3, -1, 8, 67, 23, 50, 6, 83, -43, -29], "withholdReward": false, "trial_id": "mdp_trial_6", "block": "test", "trialIndex": 7, "score": 83, "costs": -7, "simulationMode": [null, null, null, null, null], "rewards": [-1, 3, -1, 6, 83], "path": ["0", "0", "23", "24", "25", "30", "31"], "rt": [13029, 117, 190, 41, 136], "actions": ["left", "left", "left", "down", "right"], "actionTimes": [14282, 14922, 15647, 16222, 16890], "queries": {"click": {"state": {"target": ["15", "19", "30", "33", "31"], "time": [2481, 4467, 6174, 8752, 11834]}, "edge": {"target": [], "time": []}}, "mouseover": {"state": {"target": ["13", "14", "15", "14", "19", "24", "25", "30", "25", "26", "26", "33", "32", "28", "31", "32"], "time": [1790, 1837, 2418, 4189, 4267, 5640, 5725, 6080, 6963, 7057, 7337, 8606, 10425, 11416, 11773, 12808]}, "edge": {"target": [], "time": []}}, "mouseout": {"state": {"target": ["0", "13", "14", "15", "14", "19", "19", "24", "25", "30", "25", "26", "26", "33", "32", "28", "31", "32"], "time": [1770, 1834, 2023, 4121, 4224, 4536, 5519, 5694, 5871, 6836, 7052, 7073, 8514, 10339, 11204, 11590, 12121, 13990]}, "edge": {"target": [], "time": []}}}, "displayed_time": "17.41", "trialTime": 20081, "trial_type": "mouselab-mdp", "trial_index": 14, "time_elapsed": 458033, "internal_node_id": "0.0-6.0-1.0-5.0"}}, {"uniqueid": "w15073287:a64340750", "current_trial": 15, "dateTime": 1693564765345, "trialdata": {"revealed_states": [], "clicked_states": ["30", "31", "33", "32", "26", "28"], "num_clicks_accrued": [0, 0, 0, 0, 0, 0, 0, 0, 0, 0, 0, 0, 0], "stateRewards": ["", 1, 2, 2, -15, -84, 28, -26, 13, 31, 86, 30, -2, 1, -1, -8, 66, -40, -1, -10, -32, 57, -17, 1, 2, -2, 9, -23, 77, 85, 12, -32, -62, -35], "withholdReward": false, "trial_id": "mdp_trial_7", "block": "test", "trialIndex": 8, "score": 78.6, "costs": -8.4, "simulationMode": [null, null, null, null, null], "rewards": [1, 2, -2, 9, 77], "path": ["0", "0", "23", "24", "25", "26", "28"], "rt": [14211, 43, 112, 102, 36], "actions": ["left", "left", "left", "up", "right"], "actionTimes": [15808, 16387, 17039, 17688, 18271], "queries": {"click": {"state": {"target": ["30", "31", "33", "32", "26", "28"], "time": [2508, 5037, 7243, 9475, 11183, 13240]}, "edge": {"target": [], "time": []}}, "mouseover": {"state": {"target": ["30", "25", "26", "31", "33", "32", "30", "26", "28"], "time": [1654, 2860, 2936, 4965, 7171, 9341, 10240, 10469, 13202]}, "edge": {"target": [], "time": []}}, "mouseout": {"state": {"target": ["0", "30", "25", "26", "31", "30", "30", "33", "32", "30", "26", "28"], "time": [331, 2750, 2890, 4751, 6921, 7071, 7157, 9293, 9520, 10354, 13091, 15072]}, "edge": {"target": [], "time": []}}}, "displayed_time": "18.81", "trialTime": 21056, "trial_type": "mouselab-mdp", "trial_index": 15, "time_elapsed": 480656, "internal_node_id": "0.0-6.0-1.0-6.0"}}, {"uniqueid": "w15073287:a64340750", "current_trial": 16, "dateTime": 1693564784074, "trialdata": {"revealed_states": [], "clicked_states": ["8", "4", "6", "7", "5"], "num_clicks_accrued": [0, 0, 0, 0, 0, 0, 0, 0, 0, 0, 0, 0, 0], "stateRewards": ["", -1, -2, -8, 8, -27, -82, 19, -14, -62, 4, 1, -2, 2, 6, 10, 73, -51, -2, 2, 73, -48, 54, -1, 2, -4, 11, -25, 47, 86, 15, 33, 43, -42], "withholdReward": false, "trial_id": "mdp_trial_8", "block": "test", "trialIndex": 9, "score": 9, "costs": -7, "simulationMode": [null, null, null, null, null, null], "rewards": [-1, -2, -8, 8, 19], "path": ["0", "0", "1", "2", "3", "4", "7"], "rt": [9766, 187, 66, 162, 86, 118], "actions": ["up", "up", "up", "up", "right", "down"], "actionTimes": [11447, 11648, 12264, 12990, 13614, 14280], "queries": {"click": {"state": {"target": ["8", "4", "6", "7", "5"], "time": [2173, 4076, 6273, 8382, 10664]}, "edge": {"target": [], "time": []}}, "mouseover": {"state": {"target": ["1", "10", "8", "3", "4", "6", "7", "4", "5"], "time": [1875, 2045, 2117, 3513, 3597, 6230, 8366, 10484, 10592]}, "edge": {"target": [], "time": []}}, "mouseout": {"state": {"target": ["26", "24", "0", "1", "10", "8", "3", "4", "6", "7", "4"], "time": [92, 220, 1780, 1891, 2060, 3509, 3572, 6165, 8165, 8393, 10516]}, "edge": {"target": [], "time": []}}}, "displayed_time": "16.28", "trialTime": 17842, "trial_type": "mouselab-mdp", "trial_index": 16, "time_elapsed": 499386, "internal_node_id": "0.0-6.0-1.0-7.0"}}, {"uniqueid": "w15073287:a64340750", "current_trial": 17, "dateTime": 1693564814775, "trialdata": {"revealed_states": [], "clicked_states": ["19", "15", "30", "26", "33", "32", "31", "8", "9", "11", "10"], "num_clicks_accrued": [0, 0, 0, 0, 0, 0, 0, 0, 0, 0, 0, 0, 0], "stateRewards": ["", 1, 4, -8, -5, -15, -7, 21, 13, -30, 40, -65, 1, 1, 5, -14, 35, 27, -38, -11, 36, -58, -47, -2, 4, -3, 13, -16, -49, 22, 15, -56, -44, -10], "withholdReward": false, "trial_id": "mdp_trial_9", "block": "test", "trialIndex": 10, "score": 34.599999999999994, "costs": -15.400000000000002, "simulationMode": [null, null, null, null, null, null], "rewards": [1, 4, -8, 13, 40], "path": ["0", "0", "1", "2", "3", "8", "10"], "rt": [22599, 174, 110, 101, 128, 48], "actions": ["up", "up", "up", "up", "left", "down"], "actionTimes": [24524, 24710, 25381, 26052, 26697, 27269], "queries": {"click": {"state": {"target": ["19", "15", "30", "26", "33", "32", "31", "8", "9", "11", "10"], "time": [2551, 4402, 6812, 8573, 10247, 12268, 14173, 16485, 18807, 21230, 23413]}, "edge": {"target": [], "time": []}}, "mouseover": {"state": {"target": ["12", "13", "19", "14", "15", "12", "30", "26", "25", "33", "32", "31", "10", "8", "4", "9", "11", "10"], "time": [2237, 2285, 2478, 3705, 3808, 6485, 6680, 8106, 9085, 9300, 11814, 13689, 16284, 16420, 17673, 18785, 20882, 22754]}, "edge": {"target": [], "time": []}}, "mouseout": {"state": {"target": ["0", "0", "12", "13", "19", "14", "15", "12", "30", "26", "25", "33", "32", "31", "10", "8", "4", "9", "8", "11", "10"], "time": [948, 2169, 2282, 2300, 3615, 3737, 6448, 6547, 7732, 9064, 9104, 11649, 12334, 16162, 16323, 17196, 18621, 20722, 20807, 22667, 23768]}, "edge": {"target": [], "time": []}}}, "displayed_time": "27.81", "trialTime": 29434, "trial_type": "mouselab-mdp", "trial_index": 17, "time_elapsed": 530087, "internal_node_id": "0.0-6.0-1.0-8.0"}}, {"uniqueid": "w15073287:a64340750", "current_trial": 18, "dateTime": 1693564836738, "trialdata": {"revealed_states": [], "clicked_states": [], "num_clicks_accrued": [0, 0, 0, 0, 0, 0, 0, 0, 0, 0, 0, 0, 0], "stateRewards": ["", 1, -3, -1, 9, -34, -40, 22, -7, 45, 53, -11, 2, 4, 5, 15, 21, 37, -49, -3, 80, -28, -34, 1, -3, 1, 1, -40, -6, -5, -16, -85, -86, 59], "withholdReward": false, "trial_id": "mdp_trial_10", "block": "test", "trialIndex": 11, "score": 47, "costs": 0, "simulationMode": [null, null, null, null, null], "rewards": [2, 4, 5, 15, 21], "path": ["0", "0", "12", "13", "14", "15", "16"], "rt": [473, 58, 110, 123, 100], "actions": ["right", "right", "right", "up", "up"], "actionTimes": [5206, 5797, 6479, 7132, 7771], "queries": {"click": {"state": {"target": [], "time": []}, "edge": {"target": [], "time": []}}, "mouseover": {"state": {"target": [], "time": []}, "edge": {"target": [], "time": []}}, "mouseout": {"state": {"target": ["10", "10", "23", "32"], "time": [2332, 2519, 20472, 20696]}, "edge": {"target": [], "time": []}}}, "displayed_time": "18.98", "trialTime": 21090, "trial_type": "mouselab-mdp", "trial_index": 18, "time_elapsed": 552050, "internal_node_id": "0.0-6.0-1.0-9.0"}}, {"uniqueid": "w15073287:a64340750", "current_trial": 19, "dateTime": 1693564857578, "trialdata": {"revealed_states": [], "clicked_states": ["30", "26", "15", "19", "8", "4"], "num_clicks_accrued": [0, 0, 0, 0, 0, 0, 0, 0, 0, 0, 0, 0, 0], "stateRewards": ["", -1, 1, -1, 2, 19, 85, -18, 2, -3, -26, 36, 2, 4, 7, -9, -18, 70, 72, -5, 35, -20, -28, 1, -2, -4, -3, -59, -11, -63, -2, -72, 59, -69], "withholdReward": false, "trial_id": "mdp_trial_11", "block": "test", "trialIndex": 12, "score": 11.6, "costs": -8.4, "simulationMode": [null, null, null, null, null, null], "rewards": [-1, 1, -1, 2, 19], "path": ["0", "0", "1", "2", "3", "4", "5"], "rt": [10665, 209, 69, 1131, 126, 145], "actions": ["up", "up", "up", "up", "right", "up"], "actionTimes": [12466, 12680, 13275, 14937, 15623, 16297], "queries": {"click": {"state": {"target": ["30", "26", "15", "19", "8", "4"], "time": [2275, 4068, 5708, 7609, 9366, 11053]}, "edge": {"target": [], "time": []}}, "mouseover": {"state": {"target": ["30", "25", "26", "15", "14", "19", "1", "10", "8", "3", "4", "3"], "time": [1839, 3256, 3350, 5123, 6307, 6798, 8182, 8209, 8524, 10014, 10462, 11784]}, "edge": {"target": [], "time": []}}, "mouseout": {"state": {"target": ["0", "30", "25", "26", "15", "14", "19", "1", "10", "8", "3", "4", "3"], "time": [819, 3208, 3318, 4736, 6236, 6555, 8091, 8202, 8286, 9931, 10033, 11705, 17818]}, "edge": {"target": [], "time": []}}}, "displayed_time": "16.86", "trialTime": 19471, "trial_type": "mouselab-mdp", "trial_index": 19, "time_elapsed": 572890, "internal_node_id": "0.0-6.0-1.0-10.0"}}, {"uniqueid": "w15073287:a64340750", "current_trial": 20, "dateTime": 1693564876523, "trialdata": {"revealed_states": [], "clicked_states": ["8", "4", "15", "5", "7"], "num_clicks_accrued": [0, 0, 0, 0, 0, 0, 0, 0, 0, 0, 0, 0, 0], "stateRewards": ["", 1, 2, 3, 16, 63, -25, 16, -4, -14, 82, -66, -1, -3, -3, -11, -14, 19, 46, 3, -34, -82, 66, -2, -3, 4, -5, -63, 77, -37, -1, -45, -41, 84], "withholdReward": false, "trial_id": "mdp_trial_12", "block": "test", "trialIndex": 13, "score": 78, "costs": -7, "simulationMode": [null, null, null, null, null, null], "rewards": [1, 2, 3, 16, 63], "path": ["0", "0", "1", "2", "3", "4", "5"], "rt": [9371, 218, 85, 187, 182, 62], "actions": ["up", "up", "up", "up", "right", "up"], "actionTimes": [10438, 10662, 11282, 12007, 12729, 13326], "queries": {"click": {"state": {"target": ["8", "4", "15", "5", "7"], "time": [1762, 3392, 5191, 7542, 9234]}, "edge": {"target": [], "time": []}}, "mouseover": {"state": {"target": ["10", "8", "3", "4", "15", "6", "5", "4", "7"], "time": [1525, 1665, 2426, 2632, 4395, 5847, 6131, 8184, 8995]}, "edge": {"target": [], "time": []}}, "mouseout": {"state": {"target": ["0", "10", "8", "3", "4", "15", "6", "5", "4", "7"], "time": [1442, 1581, 2331, 2464, 4099, 5705, 5861, 8065, 8288, 9329]}, "edge": {"target": [], "time": []}}}, "displayed_time": "15.95", "trialTime": 17641, "trial_type": "mouselab-mdp", "trial_index": 20, "time_elapsed": 591835, "internal_node_id": "0.0-6.0-1.0-11.0"}}, {"uniqueid": "w15073287:a64340750", "current_trial": 21, "dateTime": 1693564907938, "trialdata": {"revealed_states": [], "clicked_states": ["14", "25", "26", "30", "29", "28", "27", "8", "4", "10"], "num_clicks_accrued": [0, 0, 0, 0, 0, 0, 0, 0, 0, 0, 0, 0, 0], "stateRewards": ["", 1, -3, -2, 14, 49, -40, -39, 2, 26, -61, 73, 1, -4, -8, 12, 79, 29, -65, -13, 55, -26, 27, -1, 3, 3, 9, -17, -60, -18, -8, 35, -88, 69], "withholdReward": false, "trial_id": "mdp_trial_13", "block": "test", "trialIndex": 14, "score": -44, "costs": -14.000000000000002, "simulationMode": [null, null, null, null, null, null], "rewards": [1, -3, -2, 14, -40], "path": ["0", "0", "1", "2", "3", "4", "6"], "rt": [20726, 211, 138, 152, 69, 58], "actions": ["up", "up", "up", "up", "right", "right"], "actionTimes": [22278, 22494, 23178, 23877, 24478, 25083], "queries": {"click": {"state": {"target": ["14", "25", "26", "30", "29", "28", "27", "8", "4", "10"], "time": [2246, 4968, 7643, 9786, 11495, 13643, 15599, 17452, 19403, 21025]}, "edge": {"target": [], "time": []}}, "mouseover": {"state": {"target": ["12", "13", "14", "15", "26", "29", "25", "3", "8", "3", "26", "30", "25", "29", "26", "28", "27", "10", "3", "8", "3", "4", "3", "10", "10"], "time": [2026, 2049, 2126, 2752, 4577, 4595, 4875, 5414, 5622, 6144, 7536, 8732, 10395, 10919, 13552, 13580, 15295, 16074, 16769, 16961, 17806, 17977, 19832, 20026, 20263]}, "edge": {"target": [], "time": []}}, "mouseout": {"state": {"target": ["0", "12", "13", "14", "15", "26", "29", "25", "3", "8", "3", "26", "25", "30", "25", "26", "29", "26", "28", "27", "10", "3", "8", "8", "3", "4", "3", "10", "10"], "time": [792, 2044, 2108, 2300, 4517, 4592, 4712, 4985, 5597, 5946, 7353, 8513, 8658, 10392, 10443, 10514, 13276, 13569, 14892, 16001, 16142, 16865, 17564, 17769, 17845, 19828, 19962, 20060, 26319]}, "edge": {"target": [], "time": []}}}, "displayed_time": "25.62", "trialTime": 30206, "trial_type": "mouselab-mdp", "trial_index": 21, "time_elapsed": 623249, "internal_node_id": "0.0-6.0-1.0-12.0"}}, {"uniqueid": "w15073287:a64340750", "current_trial": 22, "dateTime": 1693564927729, "trialdata": {"revealed_states": [], "clicked_states": ["30", "26", "15", "18"], "num_clicks_accrued": [0, 0, 0, 0, 0, 0, 0, 0, 0, 0, 0, 0, 0], "stateRewards": ["", -2, 1, -5, 2, -68, 80, 33, 10, 67, -59, 20, -1, -3, 3, 14, 74, -2, 24, -16, 63, 80, 46, -1, 4, 6, 12, 83, -38, -43, -4, 43, 14, -79], "withholdReward": false, "trial_id": "mdp_trial_14", "block": "test", "trialIndex": 15, "score": 31.4, "costs": -5.6, "simulationMode": [null, null, null, null, null], "rewards": [-1, -3, 3, 14, 24], "path": ["0", "0", "12", "13", "14", "15", "18"], "rt": [9843, 69, 390, 81, 109], "actions": ["right", "right", "right", "up", "left"], "actionTimes": [11716, 12303, 13234, 13834, 14465], "queries": {"click": {"state": {"target": ["30", "26", "15", "18"], "time": [3082, 4939, 6735, 9239]}, "edge": {"target": [], "time": []}}, "mouseover": {"state": {"target": ["30", "25", "26", "28", "15", "18", "19", "18", "17"], "time": [2727, 3738, 3817, 5553, 5671, 7324, 7882, 9101, 10751]}, "edge": {"target": [], "time": []}}, "mouseout": {"state": {"target": ["0", "30", "25", "26", "28", "15", "18", "19", "18", "15", "17"], "time": [2035, 3181, 3749, 5523, 5647, 7264, 7383, 9081, 10698, 10730, 11319]}, "edge": {"target": [], "time": []}}}, "displayed_time": "16.94", "trialTime": 18803, "trial_type": "mouselab-mdp", "trial_index": 22, "time_elapsed": 643041, "internal_node_id": "0.0-6.0-1.0-13.0"}}, {"uniqueid": "w15073287:a64340750", "current_trial": 23, "dateTime": 1693564952341, "trialdata": {"revealed_states": [], "clicked_states": ["8", "4", "15", "18", "17", "16", "21"], "num_clicks_accrued": [0, 0, 0, 0, 0, 0, 0, 0, 0, 0, 0, 0, 0], "stateRewards": ["", 2, -1, 8, -2, -16, 69, -39, -7, -13, -27, -86, 2, -2, 2, 13, -34, -16, -20, -5, 19, 81, 32, -2, -1, 2, -14, 20, 80, 58, 4, 70, 12, 73], "withholdReward": false, "trial_id": "mdp_trial_15", "block": "test", "trialIndex": 16, "score": 68.2, "costs": -9.8, "simulationMode": [null, null, null, null, null], "rewards": [2, -2, 2, -5, 81], "path": ["0", "0", "12", "13", "14", "19", "21"], "rt": [15401, 96, 119, 73, 104], "actions": ["right", "right", "right", "down", "down"], "actionTimes": [17091, 17733, 18390, 19009, 19660], "queries": {"click": {"state": {"target": ["8", "4", "15", "18", "17", "16", "21"], "time": [2591, 4255, 5969, 8236, 10591, 12567, 14675]}, "edge": {"target": [], "time": []}}, "mouseover": {"state": {"target": ["1", "3", "8", "3", "4", "15", "14", "19", "18", "17", "16", "15", "14", "19", "21", "19", "22"], "time": [2161, 2261, 2486, 3005, 3435, 5423, 6537, 6827, 8088, 10506, 12009, 13127, 13638, 13971, 14626, 15888, 16078]}, "edge": {"target": [], "time": []}}, "mouseout": {"state": {"target": ["0", "1", "3", "8", "3", "4", "15", "14", "19", "18", "15", "17", "16", "15", "14", "19", "21", "19", "22"], "time": [2154, 2258, 2377, 2969, 3070, 4889, 6473, 6688, 8060, 9717, 9771, 11589, 13017, 13165, 13786, 14203, 14708, 16011, 21356]}, "edge": {"target": [], "time": []}}}, "displayed_time": "20.18", "trialTime": 23668, "trial_type": "mouselab-mdp", "trial_index": 23, "time_elapsed": 667653, "internal_node_id": "0.0-6.0-1.0-14.0"}}, {"uniqueid": "w15073287:a64340750", "current_trial": 24, "dateTime": 1693564979764, "trialdata": {"revealed_states": [], "clicked_states": ["14", "26", "30", "8", "4", "19", "22", "21", "20"], "num_clicks_accrued": [0, 0, 0, 0, 0, 0, 0, 0, 0, 0, 0, 0, 0], "stateRewards": ["", 1, 1, 7, -11, 80, -20, -53, -14, 3, 31, 27, 2, -1, -8, -10, 33, 41, 86, 9, 78, -37, -13, -1, -2, -6, -8, -80, 75, 4, -16, -49, -74, 24], "withholdReward": false, "trial_id": "mdp_trial_16", "block": "test", "trialIndex": 17, "score": 67.4, "costs": -12.600000000000001, "simulationMode": [null, null, null, null, null], "rewards": [2, -1, -8, 9, 78], "path": ["0", "0", "12", "13", "14", "19", "20"], "rt": [18941, 68, 83, 145, 105], "actions": ["right", "right", "right", "down", "right"], "actionTimes": [20299, 20915, 21553, 22244, 22889], "queries": {"click": {"state": {"target": ["14", "26", "30", "8", "4", "19", "22", "21", "20"], "time": [1936, 3959, 5885, 7717, 9630, 11508, 13817, 15794, 17736]}, "edge": {"target": [], "time": []}}, "mouseover": {"state": {"target": ["13", "14", "19", "24", "25", "26", "25", "30", "10", "8", "3", "4", "18", "19", "15", "22", "21", "20", "15"], "time": [1764, 1809, 2490, 2980, 3185, 3867, 4699, 4848, 6408, 6473, 8366, 8465, 10147, 10436, 11928, 13730, 15081, 16394, 18496]}, "edge": {"target": [], "time": []}}, "mouseout": {"state": {"target": ["0", "13", "14", "19", "24", "25", "26", "25", "30", "10", "8", "3", "4", "18", "19", "15", "22", "21", "20", "15", "18"], "time": [1710, 1805, 2392, 2798, 3068, 3768, 4635, 4805, 6299, 6464, 8295, 8451, 10085, 10212, 11845, 13624, 14479, 15859, 18082, 25251, 25401]}, "edge": {"target": [], "time": []}}}, "displayed_time": "23.45", "trialTime": 26199, "trial_type": "mouselab-mdp", "trial_index": 24, "time_elapsed": 695076, "internal_node_id": "0.0-6.0-1.0-15.0"}}, {"uniqueid": "w15073287:a64340750", "current_trial": 25, "dateTime": 1693564999991, "trialdata": {"revealed_states": [], "clicked_states": ["19", "15", "18"], "num_clicks_accrued": [0, 0, 0, 0, 0, 0, 0, 0, 0, 0, 0, 0, 0], "stateRewards": ["", -1, 4, -5, 9, 29, -75, -42, -16, 24, -28, -41, 2, -3, 1, 10, 60, 47, 55, -1, -53, 22, -40, 2, -3, -6, 4, -26, 44, 54, 15, -76, 42, 14], "withholdReward": false, "trial_id": "mdp_trial_17", "block": "test", "trialIndex": 18, "score": 60.8, "costs": -4.199999999999999, "simulationMode": [null, null, null, null, null], "rewards": [2, -3, 1, 10, 55], "path": ["0", "0", "12", "13", "14", "15", "18"], "rt": [8250, 144, 155, 32, 151], "actions": ["right", "right", "right", "up", "left"], "actionTimes": [9917, 10616, 11289, 11858, 12521], "queries": {"click": {"state": {"target": ["19", "15", "18"], "time": [2787, 4802, 7357]}, "edge": {"target": [], "time": []}}, "mouseover": {"state": {"target": ["19", "15", "0", "30", "12", "18", "18"], "time": [2652, 3349, 5446, 5671, 7039, 7105, 7270]}, "edge": {"target": [], "time": []}}, "mouseout": {"state": {"target": ["0", "19", "15", "0", "30", "12", "18", "18"], "time": [1706, 3245, 5358, 5496, 6951, 7098, 7116, 9331]}, "edge": {"target": [], "time": []}}}, "displayed_time": "16.13", "trialTime": 18897, "trial_type": "mouselab-mdp", "trial_index": 25, "time_elapsed": 715303, "internal_node_id": "0.0-6.0-1.0-16.0"}}, {"uniqueid": "w15073287:a64340750", "current_trial": 26, "dateTime": 1693565020581, "trialdata": {"revealed_states": [], "clicked_states": ["8", "4", "5"], "num_clicks_accrued": [0, 0, 0, 0, 0, 0, 0, 0, 0, 0, 0, 0, 0], "stateRewards": ["", 1, 1, -3, 7, 49, 78, 26, -5, 26, 48, -43, -1, -3, 2, -5, 4, -1, -60, 10, -35, 51, 81, -2, 1, -7, -5, -39, -86, -54, 4, -3, 74, 77], "withholdReward": false, "trial_id": "mdp_trial_18", "block": "test", "trialIndex": 19, "score": 50.8, "costs": -4.199999999999999, "simulationMode": [null, null, null, null, null], "rewards": [1, 1, -3, 7, 49], "path": ["0", "0", "1", "2", "3", "4", "5"], "rt": [8091, 86, 26, 36, 172], "actions": ["up", "up", "up", "right", "up"], "actionTimes": [11041, 11661, 12220, 12801, 13508], "queries": {"click": {"state": {"target": ["8", "4", "5"], "time": [3402, 5396, 7930]}, "edge": {"target": [], "time": []}}, "mouseover": {"state": {"target": ["8", "3", "4", "16", "15", "6", "5", "6", "7", "2"], "time": [3113, 3811, 4048, 5765, 5831, 7665, 7867, 9799, 10098, 10149]}, "edge": {"target": [], "time": []}}, "mouseout": {"state": {"target": ["0", "8", "3", "4", "16", "15", "6", "5", "6", "7", "2", "0"], "time": [2996, 3745, 3945, 5677, 5784, 7634, 7694, 9561, 10020, 10110, 16869, 16916]}, "edge": {"target": [], "time": []}}}, "displayed_time": "17.68", "trialTime": 19184, "trial_type": "mouselab-mdp", "trial_index": 26, "time_elapsed": 735893, "internal_node_id": "0.0-6.0-1.0-17.0"}}, {"uniqueid": "w15073287:a64340750", "current_trial": 27, "dateTime": 1693565050132, "trialdata": {"revealed_states": [], "clicked_states": ["30", "26", "15", "29", "28", "27", "11", "10", "9", "8"], "num_clicks_accrued": [0, 0, 0, 0, 0, 0, 0, 0, 0, 0, 0, 0, 0], "stateRewards": ["", 1, -1, 4, 5, -32, 18, 20, 6, -88, -74, 9, -2, 1, -2, -14, 34, -77, -38, -1, 80, -36, 73, 2, 3, -8, 10, -48, -73, -71, -11, -22, 20, 54], "withholdReward": false, "trial_id": "mdp_trial_19", "block": "test", "trialIndex": 20, "score": 4.999999999999998, "costs": -14.000000000000002, "simulationMode": [null, null, null, null, null], "rewards": [1, -1, 4, 6, 9], "path": ["0", "0", "1", "2", "3", "8", "11"], "rt": [20958, 267, 59, 84, 75], "actions": ["up", "up", "up", "left", "left"], "actionTimes": [22952, 23770, 24366, 24984, 25584], "queries": {"click": {"state": {"target": ["30", "26", "15", "29", "28", "27", "11", "10", "9", "8"], "time": [2685, 4543, 6205, 7872, 9872, 11879, 14093, 16185, 18512, 20558]}, "edge": {"target": [], "time": []}}, "mouseover": {"state": {"target": ["31", "30", "26", "18", "15", "28", "29", "26", "28", "27", "11", "10", "8", "9", "8", "4", "4"], "time": [2459, 2574, 3624, 5088, 5408, 7339, 7553, 9325, 9727, 11333, 13944, 16144, 18238, 18452, 20523, 21178, 22586]}, "edge": {"target": [], "time": []}}, "mouseout": {"state": {"target": ["0", "31", "30", "26", "18", "15", "28", "29", "26", "28", "27", "11", "10", "8", "9", "8", "4", "4", "7"], "time": [2196, 2476, 3525, 4967, 5295, 7184, 7520, 9290, 9395, 10922, 13909, 15793, 16211, 18413, 20308, 21157, 21256, 27485, 27493]}, "edge": {"target": [], "time": []}}}, "displayed_time": "26.12", "trialTime": 28627, "trial_type": "mouselab-mdp", "trial_index": 27, "time_elapsed": 765444, "internal_node_id": "0.0-6.0-1.0-18.0"}}, {"uniqueid": "w15073287:a64340750", "current_trial": 28, "dateTime": 1693565077434, "trialdata": {"revealed_states": [], "clicked_states": ["30", "26", "15", "29", "27", "28"], "num_clicks_accrued": [0, 0, 0, 0, 0, 0, 0, 0, 0, 0, 0, 0, 0], "stateRewards": ["", 1, 4, 5, -5, 58, -80, 75, 6, 25, -39, 46, 2, -2, 4, 2, 59, 31, -22, -12, -61, 15, 72, 1, -2, -7, 8, 77, 76, -23, -7, 71, -15, -3], "withholdReward": false, "trial_id": "mdp_trial_20", "block": "test", "trialIndex": 21, "score": 67.6, "costs": -8.4, "simulationMode": [null, null, null, null, null, null], "rewards": [1, -2, -7, 8, 76], "path": ["0", "0", "23", "24", "25", "26", "28"], "rt": [10916, 352, 48, 669, 111, 102], "actions": ["left", "left", "left", "left", "up", "right"], "actionTimes": [12229, 12585, 13202, 14399, 15061, 15687], "queries": {"click": {"state": {"target": ["30", "26", "15", "29", "27", "28"], "time": [1688, 3565, 5365, 7379, 9428, 11445]}, "edge": {"target": [], "time": []}}, "mouseover": {"state": {"target": ["30", "25", "26", "1", "15", "18", "29", "27", "28"], "time": [1546, 2280, 2337, 4159, 4988, 5862, 6394, 9180, 10733]}, "edge": {"target": [], "time": []}}, "mouseout": {"state": {"target": ["0", "30", "25", "26", "1", "15", "18", "29", "27", "28", "10", "2"], "time": [1329, 2252, 2334, 4034, 4248, 5847, 5934, 8946, 10515, 11810, 19368, 19565]}, "edge": {"target": [], "time": []}}}, "displayed_time": "16.21", "trialTime": 26355, "trial_type": "mouselab-mdp", "trial_index": 28, "time_elapsed": 792746, "internal_node_id": "0.0-6.0-1.0-19.0"}}, {"uniqueid": "w15073287:a64340750", "current_trial": 29, "dateTime": 1693565101114, "trialdata": {"revealed_states": [], "clicked_states": ["15", "19", "22", "21", "20", "29", "26"], "num_clicks_accrued": [0, 0, 0, 0, 0, 0, 0, 0, 0, 0, 0, 0, 0], "stateRewards": ["", -1, 1, -6, -1, 80, 23, 2, -11, 73, -81, 59, 1, 3, 5, -1, -26, 28, -3, 16, -59, -13, -50, -2, -2, 2, 15, -50, 86, 17, -4, 37, 35, 44], "withholdReward": false, "trial_id": "mdp_trial_21", "block": "test", "trialIndex": 22, "score": 20.2, "costs": -9.8, "simulationMode": [null, null, null, null, null], "rewards": [-2, -2, 2, 15, 17], "path": ["0", "0", "23", "24", "25", "26", "29"], "rt": [15979, 82, 103, 71, 30], "actions": ["left", "left", "left", "up", "left"], "actionTimes": [18213, 18849, 19497, 20106, 20667], "queries": {"click": {"state": {"target": ["15", "19", "22", "21", "20", "29", "26"], "time": [3560, 5469, 8229, 10176, 12104, 14145, 16232]}, "edge": {"target": [], "time": []}}, "mouseover": {"state": {"target": ["15", "15", "14", "19", "23", "24", "30", "22", "21", "20", "20", "0", "23", "29", "26"], "time": [3300, 3451, 3931, 4052, 6082, 6154, 6437, 8165, 9436, 10557, 10981, 12661, 12694, 13147, 15377]}, "edge": {"target": [], "time": []}}, "mouseout": {"state": {"target": ["0", "15", "15", "15", "14", "19", "23", "24", "30", "19", "22", "21", "20", "20", "0", "23", "29", "26", "24"], "time": [3119, 3315, 3614, 3866, 3953, 6032, 6151, 6286, 7553, 7827, 8999, 10411, 10567, 12563, 12690, 12766, 15235, 21833, 21866]}, "edge": {"target": [], "time": []}}}, "displayed_time": "21.21", "trialTime": 22650, "trial_type": "mouselab-mdp", "trial_index": 29, "time_elapsed": 816426, "internal_node_id": "0.0-6.0-1.0-20.0"}}, {"uniqueid": "w15073287:a64340750", "current_trial": 30, "dateTime": 1693565122483, "trialdata": {"revealed_states": [], "clicked_states": ["19", "15", "30", "18", "17"], "num_clicks_accrued": [0, 0, 0, 0, 0, 0, 0, 0, 0, 0, 0, 0, 0], "stateRewards": ["", -1, 4, -8, 12, 14, 69, -8, 5, -72, -14, 56, -1, -1, -1, 9, 67, 19, 11, -9, -88, -58, 3, 2, -4, -8, 4, 62, 77, -74, 5, -31, 65, 88], "withholdReward": false, "trial_id": "mdp_trial_22", "block": "test", "trialIndex": 23, "score": 18, "costs": -7, "simulationMode": [null, null, null, null, null, null], "rewards": [-1, -1, -1, 9, 19], "path": ["0", "0", "12", "13", "14", "15", "17"], "rt": [10338, 200, 113, 1216, 149, 154], "actions": ["right", "right", "right", "right", "up", "right"], "actionTimes": [12665, 12869, 13503, 15277, 15975, 16669], "queries": {"click": {"state": {"target": ["19", "15", "30", "18", "17"], "time": [2855, 4810, 6567, 9142, 11267]}, "edge": {"target": [], "time": []}}, "mouseover": {"state": {"target": ["19", "14", "15", "30", "18", "18", "15", "17"], "time": [2784, 3373, 3395, 5538, 7299, 7640, 10403, 10474]}, "edge": {"target": [], "time": []}}, "mouseout": {"state": {"target": ["0", "19", "14", "15", "30", "18", "18", "18", "15", "17", "16", "15"], "time": [2388, 3367, 3389, 4888, 7110, 7309, 9210, 10390, 10445, 11758, 15632, 17670]}, "edge": {"target": [], "time": []}}}, "displayed_time": "17.22", "trialTime": 20293, "trial_type": "mouselab-mdp", "trial_index": 30, "time_elapsed": 837795, "internal_node_id": "0.0-6.0-1.0-21.0"}}, {"uniqueid": "w15073287:a64340750", "current_trial": 31, "dateTime": 1693565142692, "trialdata": {"revealed_states": [], "clicked_states": ["30", "26", "8", "33", "32"], "num_clicks_accrued": [0, 0, 0, 0, 0, 0, 0, 0, 0, 0, 0, 0, 0], "stateRewards": ["", 1, -2, -8, -13, 4, 34, -84, -4, -49, 88, -70, -1, 3, -4, 10, -77, 13, -34, 15, -21, -16, 27, 1, -2, 8, -8, -6, 38, -26, 6, -15, 66, -3], "withholdReward": false, "trial_id": "mdp_trial_23", "block": "test", "trialIndex": 24, "score": 72, "costs": -7, "simulationMode": [null, null, null, null, null], "rewards": [1, -2, 8, 6, 66], "path": ["0", "0", "23", "24", "25", "30", "32"], "rt": [10877, 143, 139, 96, 166], "actions": ["left", "left", "left", "down", "down"], "actionTimes": [12990, 13660, 14361, 14996, 15703], "queries": {"click": {"state": {"target": ["30", "26", "8", "33", "32"], "time": [2610, 4421, 6530, 8368, 10497]}, "edge": {"target": [], "time": []}}, "mouseover": {"state": {"target": ["30", "26", "26", "8", "8", "10", "33", "32", "31"], "time": [2195, 3035, 3300, 5903, 6386, 7148, 7465, 10469, 11320]}, "edge": {"target": [], "time": []}}, "mouseout": {"state": {"target": ["31", "30", "24", "23", "0", "30", "26", "26", "8", "8", "10", "33", "32", "31"], "time": [204, 770, 801, 897, 2154, 2669, 3064, 5598, 5998, 7121, 7283, 10062, 10966, 16950]}, "edge": {"target": [], "time": []}}}, "displayed_time": "17.00", "trialTime": 18977, "trial_type": "mouselab-mdp", "trial_index": 31, "time_elapsed": 858004, "internal_node_id": "0.0-6.0-1.0-22.0"}}, {"uniqueid": "w15073287:a64340750", "current_trial": 32, "dateTime": 1693565162907, "trialdata": {"revealed_states": [], "clicked_states": ["19", "15", "18", "17"], "num_clicks_accrued": [0, 0, 0, 0, 0, 0, 0, 0, 0, 0, 0, 0, 0], "stateRewards": ["", -2, 3, -1, -9, 44, 48, -37, -3, 71, -39, 87, -1, 3, -4, 4, -21, 59, -15, -8, -1, 28, -38, 2, 4, 4, 8, -85, -72, -63, 14, 58, 63, -46], "withholdReward": false, "trial_id": "mdp_trial_24", "block": "test", "trialIndex": 25, "score": 55.4, "costs": -5.6, "simulationMode": [null, null, null, null, null], "rewards": [-1, 3, -4, 4, 59], "path": ["0", "0", "12", "13", "14", "15", "17"], "rt": [9456, 102, 184, 130, 128], "actions": ["right", "right", "right", "up", "right"], "actionTimes": [12673, 13331, 14057, 14745, 15425], "queries": {"click": {"state": {"target": ["19", "15", "18", "17"], "time": [3840, 5732, 8166, 10138]}, "edge": {"target": [], "time": []}}, "mouseover": {"state": {"target": ["18", "19", "14", "15", "6", "4", "18", "17", "16"], "time": [3659, 3698, 4917, 5076, 6797, 7210, 8029, 9934, 11616]}, "edge": {"target": [], "time": []}}, "mouseout": {"state": {"target": ["0", "18", "19", "14", "15", "6", "4", "18", "15", "17", "16", "22"], "time": [2471, 3695, 4864, 4981, 6611, 6847, 7967, 9826, 9913, 11286, 16684, 16811]}, "edge": {"target": [], "time": []}}}, "displayed_time": "18.02", "trialTime": 19219, "trial_type": "mouselab-mdp", "trial_index": 32, "time_elapsed": 878217, "internal_node_id": "0.0-6.0-1.0-23.0"}}, {"uniqueid": "w15073287:a64340750", "current_trial": 33, "dateTime": 1693565181724, "trialdata": {"revealed_states": [], "clicked_states": ["30", "26", "29", "27"], "num_clicks_accrued": [0, 0, 0, 0, 0, 0, 0, 0, 0, 0, 0, 0, 0], "stateRewards": ["", -2, 2, 3, -7, -31, -33, 29, -8, -57, 50, -83, -1, -1, 5, 13, -23, -62, 25, 5, -66, -85, 14, 1, -2, -1, 16, 71, 33, -19, -14, 5, -43, 79], "withholdReward": false, "trial_id": "mdp_trial_25", "block": "test", "trialIndex": 26, "score": 79.4, "costs": -5.6, "simulationMode": [null, null, null, null, null], "rewards": [1, -2, -1, 16, 71], "path": ["0", "0", "23", "24", "25", "26", "27"], "rt": [9849, 102, 114, 28, 74], "actions": ["left", "left", "left", "up", "up"], "actionTimes": [11296, 11932, 12580, 13162, 13772], "queries": {"click": {"state": {"target": ["30", "26", "29", "27"], "time": [2003, 3961, 6477, 8805]}, "edge": {"target": [], "time": []}}, "mouseover": {"state": {"target": ["31", "30", "25", "26", "28", "15", "28", "29", "27"], "time": [1852, 1885, 3303, 3551, 4467, 4584, 6093, 6404, 8750]}, "edge": {"target": [], "time": []}}, "mouseout": {"state": {"target": ["0", "31", "30", "25", "26", "28", "15", "28", "29", "27", "28"], "time": [1737, 1870, 3122, 3451, 4444, 4580, 5981, 6109, 8609, 10502, 16366]}, "edge": {"target": [], "time": []}}}, "displayed_time": "16.06", "trialTime": 17876, "trial_type": "mouselab-mdp", "trial_index": 33, "time_elapsed": 897036, "internal_node_id": "0.0-6.0-1.0-24.0"}}, {"uniqueid": "w15073287:a64340750", "current_trial": 34, "dateTime": 1693565199562, "trialdata": {"revealed_states": [], "clicked_states": ["19", "15", "18"], "num_clicks_accrued": [0, 0, 0, 0, 0, 0, 0, 0, 0, 0, 0, 0, 0], "stateRewards": ["", 1, -2, -8, -3, 31, -84, -55, -14, 15, -58, 17, -2, -3, 7, 7, -12, 48, 67, 4, -44, -68, 46, 2, 3, -5, -7, 76, 27, 5, 11, 57, 52, 59], "withholdReward": false, "trial_id": "mdp_trial_26", "block": "test", "trialIndex": 27, "score": 71.8, "costs": -4.199999999999999, "simulationMode": [null, null, null, null, null], "rewards": [-2, -3, 7, 7, 67], "path": ["0", "0", "12", "13", "14", "15", "18"], "rt": [7364, 138, 311, 59, 30], "actions": ["right", "right", "right", "up", "left"], "actionTimes": [8857, 9528, 10402, 11008, 11570], "queries": {"click": {"state": {"target": ["19", "15", "18"], "time": [2183, 4139, 6449]}, "edge": {"target": [], "time": []}}, "mouseover": {"state": {"target": ["19", "14", "15", "14", "22", "18", "16"], "time": [2124, 3401, 3505, 4597, 4717, 6354, 8218]}, "edge": {"target": [], "time": []}}, "mouseout": {"state": {"target": ["0", "19", "14", "15", "14", "22", "18", "16", "22"], "time": [1654, 3291, 3487, 4240, 4667, 6328, 6508, 14879, 14992]}, "edge": {"target": [], "time": []}}}, "displayed_time": "15.92", "trialTime": 16968, "trial_type": "mouselab-mdp", "trial_index": 34, "time_elapsed": 914874, "internal_node_id": "0.0-6.0-1.0-25.0"}}, {"uniqueid": "w15073287:a64340750", "current_trial": 35, "dateTime": 1693565219462, "trialdata": {"revealed_states": [], "clicked_states": ["30", "33", "32", "31"], "num_clicks_accrued": [0, 0, 0, 0, 0, 0, 0, 0, 0, 0, 0, 0, 0], "stateRewards": ["", -1, -3, 1, 13, -64, -29, 12, -4, -33, 50, 56, 2, -3, 4, 11, -64, -58, -55, 12, 47, 38, -25, -2, 2, 5, -15, 85, 7, 84, 10, 8, 57, 26], "withholdReward": false, "trial_id": "mdp_trial_27", "block": "test", "trialIndex": 28, "score": 66.4, "costs": -5.6, "simulationMode": [null, null, null, null, null, null], "rewards": [-2, 2, 5, 10, 57], "path": ["0", "0", "23", "24", "25", "30", "32"], "rt": [8048, 177, 155, 117, 27, 83], "actions": ["left", "left", "left", "left", "down", "down"], "actionTimes": [9931, 10110, 10788, 11466, 12007, 12632], "queries": {"click": {"state": {"target": ["30", "33", "32", "31"], "time": [2507, 4748, 6975, 9334]}, "edge": {"target": [], "time": []}}, "mouseover": {"state": {"target": ["30", "25", "26", "33", "32", "31"], "time": [2442, 2962, 3066, 4573, 6461, 7523]}, "edge": {"target": [], "time": []}}, "mouseout": {"state": {"target": ["0", "30", "25", "26", "33", "32", "31", "31"], "time": [1917, 2922, 3061, 4561, 6383, 7269, 13849, 17021]}, "edge": {"target": [], "time": []}}}, "displayed_time": "16.82", "trialTime": 18992, "trial_type": "mouselab-mdp", "trial_index": 35, "time_elapsed": 934774, "internal_node_id": "0.0-6.0-1.0-26.0"}}, {"uniqueid": "w15073287:a64340750", "current_trial": 36, "dateTime": 1693565239229, "trialdata": {"revealed_states": [], "clicked_states": ["30", "26", "19", "22", "21"], "num_clicks_accrued": [0, 0, 0, 0, 0, 0, 0, 0, 0, 0, 0, 0, 0], "stateRewards": ["", 1, 1, -6, -2, 7, 77, 3, 16, -16, 66, 31, -1, 3, -8, -6, 33, -50, -48, 7, -60, -66, 36, 2, -3, 3, -7, -12, -61, -79, -4, 8, 74, -70], "withholdReward": false, "trial_id": "mdp_trial_28", "block": "test", "trialIndex": 29, "score": 30, "costs": -7, "simulationMode": [null, null, null, null, null], "rewards": [-1, 3, -8, 7, 36], "path": ["0", "0", "12", "13", "14", "19", "22"], "rt": [12163, 211, 42, 36, 28], "actions": ["right", "right", "right", "down", "left"], "actionTimes": [13886, 14691, 15258, 15825, 16419], "queries": {"click": {"state": {"target": ["30", "26", "19", "22", "21"], "time": [2147, 4041, 5967, 8836, 11017]}, "edge": {"target": [], "time": []}}, "mouseover": {"state": {"target": ["30", "26", "28", "22", "19", "14", "15", "22", "21", "20", "19", "19"], "time": [1773, 3022, 4561, 4916, 5040, 6669, 6725, 8773, 9469, 12518, 13108, 13347]}, "edge": {"target": [], "time": []}}, "mouseout": {"state": {"target": ["0", "30", "26", "28", "22", "19", "14", "15", "22", "21", "20", "19", "19", "19"], "time": [1770, 2814, 4556, 4668, 4954, 6590, 6721, 8391, 9335, 11348, 13098, 13257, 13537, 17418]}, "edge": {"target": [], "time": []}}}, "displayed_time": "16.94", "trialTime": 18884, "trial_type": "mouselab-mdp", "trial_index": 36, "time_elapsed": 954540, "internal_node_id": "0.0-6.0-1.0-27.0"}}, {"uniqueid": "w15073287:a64340750", "current_trial": 37, "dateTime": 1693565257813, "trialdata": {"revealed_states": [], "clicked_states": ["30", "33", "32"], "num_clicks_accrued": [0, 0, 0, 0, 0, 0, 0, 0, 0, 0, 0, 0, 0], "stateRewards": ["", -1, -3, -7, -7, -76, 30, -49, 11, -70, 56, 2, 1, 4, -3, -14, -59, -83, -25, -9, -21, -67, -73, -2, 4, 4, -9, -11, -32, 60, 9, -87, 22, -64], "withholdReward": false, "trial_id": "mdp_trial_29", "block": "test", "trialIndex": 30, "score": 32.8, "costs": -4.199999999999999, "simulationMode": [null, null, null, null, null], "rewards": [-2, 4, 4, 9, 22], "path": ["0", "0", "23", "24", "25", "30", "32"], "rt": [8591, 133, 48, 233, 152], "actions": ["left", "left", "left", "down", "down"], "actionTimes": [10217, 10875, 11450, 12223, 12895], "queries": {"click": {"state": {"target": ["30", "33", "32"], "time": [2348, 5454, 7474]}, "edge": {"target": [], "time": []}}, "mouseover": {"state": {"target": ["0", "30", "25", "26", "33", "33", "32", "31"], "time": [2070, 2257, 2775, 3061, 4485, 4838, 7360, 9238]}, "edge": {"target": [], "time": []}}, "mouseout": {"state": {"target": ["12", "0", "30", "25", "26", "33", "33", "32", "31"], "time": [588, 2093, 2404, 2888, 4426, 4522, 6961, 8485, 14042]}, "edge": {"target": [], "time": []}}}, "displayed_time": "16.19", "trialTime": 17637, "trial_type": "mouselab-mdp", "trial_index": 37, "time_elapsed": 973124, "internal_node_id": "0.0-6.0-1.0-28.0"}}, {"uniqueid": "w15073287:a64340750", "current_trial": 38, "dateTime": 1693565279933, "trialdata": {"revealed_states": [], "clicked_states": ["19", "15", "4", "8", "11", "10", "9"], "num_clicks_accrued": [0, 0, 0, 0, 0, 0, 0, 0, 0, 0, 0, 0, 0], "stateRewards": ["", -2, -3, -6, -7, 9, 16, 65, 5, -41, 20, -25, -1, -4, 1, -11, -49, -4, 71, 1, 39, -62, 52, -2, -3, 7, -9, -28, -70, 84, 8, 24, -58, 82], "withholdReward": false, "trial_id": "mdp_trial_30", "block": "test", "trialIndex": 31, "score": 4.199999999999999, "costs": -9.8, "simulationMode": [null, null, null, null, null], "rewards": [-2, -3, -6, 5, 20], "path": ["0", "0", "1", "2", "3", "8", "10"], "rt": [14756, 59, 378, 18, 44], "actions": ["up", "up", "up", "left", "down"], "actionTimes": [16273, 16890, 17825, 18400, 18976], "queries": {"click": {"state": {"target": ["19", "15", "4", "8", "11", "10", "9"], "time": [1848, 3867, 5837, 7809, 10043, 12028, 14333]}, "edge": {"target": [], "time": []}}, "mouseover": {"state": {"target": ["19", "14", "15", "4", "8", "11", "10", "8", "9", "4"], "time": [1592, 2458, 2527, 4859, 6301, 9980, 11713, 13830, 14030, 15611]}, "edge": {"target": [], "time": []}}, "mouseout": {"state": {"target": ["0", "19", "14", "15", "4", "8", "11", "10", "8", "9", "4"], "time": [1578, 2366, 2515, 4624, 6194, 9899, 11478, 13650, 13848, 15150, 15670]}, "edge": {"target": [], "time": []}}}, "displayed_time": "19.51", "trialTime": 21399, "trial_type": "mouselab-mdp", "trial_index": 38, "time_elapsed": 995244, "internal_node_id": "0.0-6.0-1.0-29.0"}}, {"uniqueid": "w15073287:a64340750", "current_trial": 39, "dateTime": 1693565321381, "trialdata": {"revealed_states": [], "clicked_states": ["30", "26", "19", "20", "21", "22", "18", "15", "8", "10", "9", "11", "6", "7", "5"], "num_clicks_accrued": [0, 0, 0, 0, 0, 0, 0, 0, 0, 0, 0, 0, 0], "stateRewards": ["", -2, -1, 3, -3, 71, -58, -21, 7, -10, -75, -37, 2, 4, -1, -12, -79, -29, -48, 3, -41, -10, -30, -1, -2, 1, -15, 13, 66, 22, -1, -42, -86, -55], "withholdReward": false, "trial_id": "mdp_trial_31", "block": "test", "trialIndex": 32, "score": 47, "costs": -20.999999999999996, "simulationMode": [null, null, null, null, null], "rewards": [-2, -1, 3, -3, 71], "path": ["0", "0", "1", "2", "3", "4", "5"], "rt": [34520, 77, 51, 166, 50], "actions": ["up", "up", "up", "right", "up"], "actionTimes": [35791, 36398, 36985, 37703, 38314], "queries": {"click": {"state": {"target": ["30", "26", "19", "20", "21", "22", "18", "15", "8", "10", "9", "11", "6", "7", "5"], "time": [2465, 4463, 6389, 8789, 11656, 13777, 16808, 18966, 20930, 23140, 25219, 27223, 29699, 31722, 33775]}, "edge": {"target": [], "time": []}}, "mouseover": {"state": {"target": ["0", "31", "32", "30", "25", "26", "19", "19", "14", "15", "15", "20", "21", "22", "14", "15", "18", "15", "8", "3", "8", "10", "9", "11", "3", "4", "6", "7", "4", "5"], "time": [1673, 1785, 1856, 2206, 3758, 3952, 5163, 5578, 7384, 7484, 7850, 8730, 11498, 13104, 15682, 15857, 16616, 18718, 19355, 19833, 20636, 22955, 25091, 26605, 29403, 29507, 29653, 31669, 33352, 33519]}, "edge": {"target": [], "time": []}}, "mouseout": {"state": {"target": ["0", "0", "31", "32", "30", "25", "26", "19", "19", "14", "15", "15", "19", "20", "20", "21", "22", "14", "15", "18", "15", "8", "3", "8", "10", "9", "11", "3", "4", "6", "6", "7", "4", "5", "4", "7", "0"], "time": [582, 1739, 1824, 1920, 3663, 3839, 5145, 5324, 7230, 7423, 7507, 8497, 8706, 8805, 10880, 11756, 15402, 15782, 15972, 18420, 19242, 19812, 20574, 22732, 23200, 26370, 29322, 29422, 29571, 29713, 31584, 33054, 33396, 35340, 39673, 39720, 39931]}, "edge": {"target": [], "time": []}}}, "displayed_time": "38.90", "trialTime": 40735, "trial_type": "mouselab-mdp", "trial_index": 39, "time_elapsed": 1036693, "internal_node_id": "0.0-6.0-1.0-30.0"}}, {"uniqueid": "w15073287:a64340750", "current_trial": 40, "dateTime": 1693565353562, "trialdata": {"revealed_states": [], "clicked_states": ["30", "26", "8", "4", "10", "11", "9", "15", "19", "22"], "num_clicks_accrued": [0, 0, 0, 0, 0, 0, 0, 0, 0, 0, 0, 0, 0], "stateRewards": ["", 2, 3, -2, -8, -8, -41, 74, 15, -23, -80, 1, 1, 3, 3, -15, -63, -78, 67, 13, 75, -41, 86, 2, -2, 6, -3, -8, -49, 50, -6, 83, 74, 80], "withholdReward": false, "trial_id": "mdp_trial_32", "block": "test", "trialIndex": 33, "score": 92, "costs": -14.000000000000002, "simulationMode": [null, null, null, null, null], "rewards": [1, 3, 3, 13, 86], "path": ["0", "0", "12", "13", "14", "19", "22"], "rt": [21250, 102, 26, 41, 174], "actions": ["right", "right", "right", "down", "left"], "actionTimes": [22892, 23535, 24085, 24653, 25366], "queries": {"click": {"state": {"target": ["30", "26", "8", "4", "10", "11", "9", "15", "19", "22"], "time": [2492, 4127, 6020, 7792, 9557, 11484, 13491, 16393, 18579, 20856]}, "edge": {"target": [], "time": []}}, "mouseover": {"state": {"target": ["30", "26", "8", "3", "4", "10", "11", "9", "2", "15", "14", "19", "3", "8", "12", "22", "21", "21"], "time": [2434, 3175, 5234, 6269, 6842, 8436, 10728, 12916, 16078, 16316, 18453, 18492, 19475, 20508, 20593, 20762, 21823, 22327]}, "edge": {"target": [], "time": []}}, "mouseout": {"state": {"target": ["0", "30", "26", "8", "3", "4", "10", "11", "9", "2", "15", "14", "19", "3", "8", "12", "22", "22", "21", "21"], "time": [1871, 2962, 4909, 6224, 6312, 8263, 10444, 12698, 15894, 16129, 18415, 18486, 19276, 19490, 20556, 20610, 20871, 21541, 21866, 26341]}, "edge": {"target": [], "time": []}}}, "displayed_time": "25.92", "trialTime": 31253, "trial_type": "mouselab-mdp", "trial_index": 40, "time_elapsed": 1068874, "internal_node_id": "0.0-6.0-1.0-31.0"}}, {"uniqueid": "w15073287:a64340750", "current_trial": 41, "dateTime": 1693565373193, "trialdata": {"revealed_states": [], "clicked_states": ["19", "15", "30", "26", "29"], "num_clicks_accrued": [0, 0, 0, 0, 0, 0, 0, 0, 0, 0, 0, 0, 0], "stateRewards": ["", 1, 1, 4, 11, 83, -66, 18, -16, -23, 5, 25, 1, -3, 1, -12, 18, 24, -86, -11, -64, 36, 40, 2, 1, -6, 13, 55, 29, 72, -2, 81, -72, -41], "withholdReward": false, "trial_id": "mdp_trial_33", "block": "test", "trialIndex": 34, "score": 75, "costs": -7, "simulationMode": [null, null, null, null, null], "rewards": [2, 1, -6, 13, 72], "path": ["0", "0", "23", "24", "25", "26", "29"], "rt": [11195, 34, 151, 128, 437], "actions": ["left", "left", "left", "up", "left"], "actionTimes": [13046, 13637, 14324, 14982, 15989], "queries": {"click": {"state": {"target": ["19", "15", "30", "26", "29"], "time": [2641, 4572, 6515, 8390, 10804]}, "edge": {"target": [], "time": []}}, "mouseover": {"state": {"target": ["15", "13", "12", "22", "19", "14", "15", "15", "18", "1", "30", "25", "26", "8", "29"], "time": [1891, 2164, 2205, 2371, 2549, 2934, 3056, 3455, 4852, 5074, 5142, 7424, 7476, 9618, 10720]}, "edge": {"target": [], "time": []}}, "mouseout": {"state": {"target": ["12", "0", "15", "13", "12", "22", "19", "14", "15", "15", "18", "1", "30", "25", "26", "8", "29", "25"], "time": [640, 1875, 2123, 2180, 2293, 2398, 2685, 3005, 3073, 4825, 5000, 5138, 7420, 7472, 9059, 10487, 14791, 16996]}, "edge": {"target": [], "time": []}}}, "displayed_time": "17.04", "trialTime": 18498, "trial_type": "mouselab-mdp", "trial_index": 41, "time_elapsed": 1088505, "internal_node_id": "0.0-6.0-1.0-32.0"}}, {"uniqueid": "w15073287:a64340750", "current_trial": 42, "dateTime": 1693565392079, "trialdata": {"revealed_states": [], "clicked_states": ["8", "4", "6"], "num_clicks_accrued": [0, 0, 0, 0, 0, 0, 0, 0, 0, 0, 0, 0, 0], "stateRewards": ["", -1, -3, 3, 5, 56, 39, 50, -1, -80, 33, -46, 1, -2, -6, -8, 87, 48, 54, -11, -20, -64, -54, -2, 3, -7, -3, 12, 88, 35, -16, -46, -70, -3], "withholdReward": false, "trial_id": "mdp_trial_34", "block": "test", "trialIndex": 35, "score": 38.8, "costs": -4.199999999999999, "simulationMode": [null, null, null, null, null], "rewards": [-1, -3, 3, 5, 39], "path": ["0", "0", "1", "2", "3", "4", "6"], "rt": [6885, 180, 27, 31, 243], "actions": ["up", "up", "up", "right", "right"], "actionTimes": [8759, 9472, 10018, 10598, 11382], "queries": {"click": {"state": {"target": ["8", "4", "6"], "time": [2472, 4268, 6504]}, "edge": {"target": [], "time": []}}, "mouseover": {"state": {"target": ["8", "3", "4", "15", "6", "5", "1"], "time": [2285, 3041, 4157, 5140, 6463, 8224, 8720]}, "edge": {"target": [], "time": []}}, "mouseout": {"state": {"target": ["0", "8", "3", "4", "15", "6", "5", "1", "1"], "time": [2268, 2815, 3392, 4904, 6291, 6568, 8663, 9015, 17131]}, "edge": {"target": [], "time": []}}}, "displayed_time": "16.33", "trialTime": 17834, "trial_type": "mouselab-mdp", "trial_index": 42, "time_elapsed": 1107391, "internal_node_id": "0.0-6.0-1.0-33.0"}}, {"uniqueid": "w15073287:a64340750", "current_trial": 43, "dateTime": 1693565410742, "trialdata": {"revealed_states": [], "clicked_states": ["30", "26", "19", "20", "21"], "num_clicks_accrued": [0, 0, 0, 0, 0, 0, 0, 0, 0, 0, 0, 0, 0], "stateRewards": ["", 1, 2, -3, -6, 50, -7, 7, -7, -80, 21, -1, 2, 2, 4, -1, 33, 84, 1, 14, -53, 81, 6, -2, -2, -3, -9, -87, -38, -59, -5, -74, -3, -71], "withholdReward": false, "trial_id": "mdp_trial_35", "block": "test", "trialIndex": 36, "score": 96, "costs": -7, "simulationMode": [null, null, null, null, null], "rewards": [2, 2, 4, 14, 81], "path": ["0", "0", "12", "13", "14", "19", "21"], "rt": [11182, 22, 128, 170, 63], "actions": ["right", "right", "right", "down", "down"], "actionTimes": [12307, 12858, 13542, 14246, 14850], "queries": {"click": {"state": {"target": ["30", "26", "19", "20", "21"], "time": [1921, 3871, 5771, 8074, 10207]}, "edge": {"target": [], "time": []}}, "mouseover": {"state": {"target": ["31", "30", "25", "26", "26", "19", "15", "20", "21", "22"], "time": [1575, 1756, 2420, 2521, 2896, 4566, 6634, 7991, 10132, 11729]}, "edge": {"target": [], "time": []}}, "mouseout": {"state": {"target": ["1", "0", "0", "31", "30", "25", "26", "26", "19", "15", "19", "20", "21", "22"], "time": [354, 521, 1474, 1692, 2308, 2487, 2570, 4214, 6353, 7733, 7812, 10047, 11540, 16647]}, "edge": {"target": [], "time": []}}}, "displayed_time": "16.02", "trialTime": 17613, "trial_type": "mouselab-mdp", "trial_index": 43, "time_elapsed": 1126054, "internal_node_id": "0.0-6.0-1.0-34.0"}}, {"uniqueid": "w15073287:a64340750", "current_trial": 44, "dateTime": 1693565428920, "trialdata": {"revealed_states": [], "clicked_states": ["30", "26", "8", "11", "9", "10"], "num_clicks_accrued": [0, 0, 0, 0, 0, 0, 0, 0, 0, 0, 0, 0, 0], "stateRewards": ["", 2, 4, -3, 16, -58, 30, -35, 11, -60, 47, 27, -2, -1, -7, -16, 23, -70, 68, -10, -65, -43, -34, -2, 1, 7, 9, -63, 34, -31, -8, -12, -86, 59], "withholdReward": false, "trial_id": "mdp_trial_36", "block": "test", "trialIndex": 37, "score": 52.6, "costs": -8.4, "simulationMode": [null, null, null, null, null, null], "rewards": [2, 4, -3, 11, 47], "path": ["0", "0", "1", "2", "3", "8", "10"], "rt": [11825, 196, 22, 26, 64, 137], "actions": ["up", "up", "up", "up", "left", "down"], "actionTimes": [12939, 13139, 13689, 14252, 14837, 15530], "queries": {"click": {"state": {"target": ["30", "26", "8", "11", "9", "10"], "time": [1948, 3923, 5634, 7870, 9989, 11954]}, "edge": {"target": [], "time": []}}, "mouseover": {"state": {"target": ["25", "30", "25", "26", "8", "29", "11", "11", "9", "8", "10", "2", "15"], "time": [1771, 1890, 2752, 2873, 4624, 6723, 7674, 7834, 9235, 10646, 10966, 12642, 12725]}, "edge": {"target": [], "time": []}}, "mouseout": {"state": {"target": ["0", "25", "30", "25", "26", "8", "29", "11", "11", "9", "9", "8", "10", "2", "15", "19"], "time": [1541, 1869, 2105, 2803, 4020, 6223, 7618, 7691, 8982, 10042, 10480, 10851, 12631, 12676, 12788, 16968]}, "edge": {"target": [], "time": []}}}, "displayed_time": "16.05", "trialTime": 17540, "trial_type": "mouselab-mdp", "trial_index": 44, "time_elapsed": 1144231, "internal_node_id": "0.0-6.0-1.0-35.0"}}, {"uniqueid": "w15073287:a64340750", "current_trial": 45, "dateTime": 1693565451267, "trialdata": {"revealed_states": [], "clicked_states": ["8", "10", "11", "19", "20", "22"], "num_clicks_accrued": [0, 0, 0, 0, 0, 0, 0, 0, 0, 0, 0, 0, 0], "stateRewards": ["", 2, -1, 5, 8, 75, -35, -77, 1, -9, -81, -58, 1, 2, -7, 5, 77, -16, 19, 16, -10, -18, 40, -2, 3, 7, -5, 64, 1, -62, 10, 27, 10, 65], "withholdReward": false, "trial_id": "mdp_trial_37", "block": "test", "trialIndex": 38, "score": 43.6, "costs": -8.4, "simulationMode": [null, null, null, null, null], "rewards": [1, 2, -7, 16, 40], "path": ["0", "0", "12", "13", "14", "19", "22"], "rt": [15472, 171, 51, 50, 145], "actions": ["right", "right", "right", "down", "left"], "actionTimes": [16313, 17042, 17633, 18222, 18898], "queries": {"click": {"state": {"target": ["8", "10", "11", "19", "20", "22"], "time": [1690, 4473, 6918, 9654, 11947, 14173]}, "edge": {"target": [], "time": []}}, "mouseover": {"state": {"target": ["8", "3", "4", "10", "11", "9", "7", "18", "14", "19", "20", "22", "21"], "time": [1608, 2785, 3009, 4454, 6851, 8935, 9186, 9240, 9391, 9551, 11822, 14132, 15487]}, "edge": {"target": [], "time": []}}, "mouseout": {"state": {"target": ["0", "8", "3", "4", "10", "11", "9", "7", "18", "14", "19", "20", "19", "22", "21"], "time": [1183, 2756, 2999, 4391, 4502, 8251, 9135, 9209, 9340, 9435, 11772, 13858, 14019, 15357, 20074]}, "edge": {"target": [], "time": []}}}, "displayed_time": "19.45", "trialTime": 20987, "trial_type": "mouselab-mdp", "trial_index": 45, "time_elapsed": 1166578, "internal_node_id": "0.0-6.0-1.0-36.0"}}, {"uniqueid": "w15073287:a64340750", "current_trial": 46, "dateTime": 1693565478801, "trialdata": {"revealed_states": [], "clicked_states": ["26", "30", "31", "33", "32", "8", "4", "5", "7"], "num_clicks_accrued": [0, 0, 0, 0, 0, 0, 0, 0, 0, 0, 0, 0, 0], "stateRewards": ["", -2, 1, -7, 9, 8, 25, 61, -7, -17, 69, -81, 1, 4, -4, -11, 16, 67, 44, 3, 6, -45, -54, -2, 3, 6, -11, -15, 32, -47, 3, -39, -6, -88], "withholdReward": false, "trial_id": "mdp_trial_38", "block": "test", "trialIndex": 39, "score": -6.600000000000001, "costs": -12.600000000000001, "simulationMode": [null, null, null, null, null], "rewards": [1, 4, -4, -11, 16], "path": ["0", "0", "12", "13", "14", "15", "16"], "rt": [20291, 541, 81, 166, 83], "actions": ["right", "right", "right", "up", "up"], "actionTimes": [21314, 22381, 23020, 23701, 24336], "queries": {"click": {"state": {"target": ["26", "30", "31", "33", "32", "8", "4", "5", "7"], "time": [1718, 3633, 6201, 8154, 10310, 12355, 14505, 17234, 19196]}, "edge": {"target": [], "time": []}}, "mouseover": {"state": {"target": ["24", "26", "25", "30", "28", "10", "8", "31", "33", "32", "8", "3", "4", "15", "5", "7"], "time": [1213, 1622, 3051, 3234, 4136, 4248, 4397, 6133, 7326, 10257, 11381, 14333, 14456, 16524, 17117, 18940]}, "edge": {"target": [], "time": []}}, "mouseout": {"state": {"target": ["0", "24", "26", "26", "25", "30", "28", "10", "8", "30", "31", "30", "33", "32", "8", "3", "4", "4", "15", "5", "7", "15"], "time": [1202, 1507, 1767, 3021, 3158, 4074, 4169, 4356, 5870, 6106, 7149, 7271, 10205, 10367, 14307, 14357, 14566, 16218, 16733, 18935, 19252, 25354]}, "edge": {"target": [], "time": []}}}, "displayed_time": "24.87", "trialTime": 26402, "trial_type": "mouselab-mdp", "trial_index": 46, "time_elapsed": 1194112, "internal_node_id": "0.0-6.0-1.0-37.0"}}, {"uniqueid": "w15073287:a64340750", "current_trial": 47, "dateTime": 1693565496981, "trialdata": {"revealed_states": [], "clicked_states": ["30", "33", "32"], "num_clicks_accrued": [0, 0, 0, 0, 0, 0, 0, 0, 0, 0, 0, 0, 0], "stateRewards": ["", 2, 4, 4, 9, -88, -10, 44, 16, -54, 64, 78, 1, 2, 5, 16, 80, 36, 7, -4, 9, -47, -70, -1, -3, 6, -16, 11, 80, 28, 8, -1, 34, -17], "withholdReward": false, "trial_id": "mdp_trial_39", "block": "test", "trialIndex": 40, "score": 39.8, "costs": -4.199999999999999, "simulationMode": [null, null, null, null, null], "rewards": [-1, -3, 6, 8, 34], "path": ["0", "0", "23", "24", "25", "30", "32"], "rt": [7846, 332, 257, 62, 184], "actions": ["left", "left", "left", "down", "down"], "actionTimes": [8821, 9673, 10448, 11050, 11753], "queries": {"click": {"state": {"target": ["30", "33", "32"], "time": [1919, 4455, 6492]}, "edge": {"target": [], "time": []}}, "mouseover": {"state": {"target": ["0", "23", "24", "30", "25", "26", "33", "32", "31"], "time": [1325, 1472, 1603, 1876, 3957, 3984, 4303, 6253, 8387]}, "edge": {"target": [], "time": []}}, "mouseout": {"state": {"target": ["0", "0", "23", "24", "30", "25", "26", "33", "32", "31"], "time": [537, 1391, 1585, 1658, 2958, 3972, 4255, 6220, 6554, 13636]}, "edge": {"target": [], "time": []}}}, "displayed_time": "15.93", "trialTime": 17317, "trial_type": "mouselab-mdp", "trial_index": 47, "time_elapsed": 1212292, "internal_node_id": "0.0-6.0-1.0-38.0"}}, {"uniqueid": "w15073287:a64340750", "current_trial": 48, "dateTime": 1693565522661, "trialdata": {"revealed_states": [], "clicked_states": ["30", "33"], "num_clicks_accrued": [0, 0, 0, 0, 0, 0, 0, 0, 0, 0, 0, 0, 0], "stateRewards": ["", -1, -4, -3, 1, -45, -67, -24, 14, 32, 22, 22, -1, 1, -5, -7, 72, 84, -79, -5, 19, -40, -2, -1, -2, 8, -3, 84, -25, -28, 11, 64, -66, 77], "withholdReward": false, "trial_id": "mdp_trial_40", "block": "test", "trialIndex": 41, "score": 90.2, "costs": -2.8, "simulationMode": [null, null, null, null, null], "rewards": [-1, -2, 8, 11, 77], "path": ["0", "0", "23", "24", "25", "30", "33"], "rt": [5375, 291, 128, 634, 356], "actions": ["left", "left", "left", "down", "left"], "actionTimes": [13613, 14430, 15103, 16270, 17173], "queries": {"click": {"state": {"target": ["30", "33"], "time": [9223, 11538]}, "edge": {"target": [], "time": []}}, "mouseover": {"state": {"target": ["0", "31", "30", "26", "33"], "time": [8681, 8825, 9106, 10703, 11422]}, "edge": {"target": [], "time": []}}, "mouseout": {"state": {"target": ["0", "0", "31", "30", "26", "33"], "time": [7669, 8739, 8985, 10371, 11387, 13322]}, "edge": {"target": [], "time": []}}}, "displayed_time": "22.79", "trialTime": 25013, "trial_type": "mouselab-mdp", "trial_index": 48, "time_elapsed": 1237972, "internal_node_id": "0.0-6.0-1.0-39.0"}}, {"uniqueid": "w15073287:a64340750", "current_trial": 49, "dateTime": 1693565576372, "trialdata": {"rt": 53707, "response": {"Q0": "$-2 to $2", "Q1": "$-16 to $16", "Q2": "$-88 to $88", "Q3": "The cost for clicking on nodes varied between nodes.", "Q4": "Slightly motivated"}, "question_order": [0, 1, 2, 3, 4], "trial_id": "final_quiz_control", "trial_type": "survey-multi-choice", "trial_index": 49, "time_elapsed": 1291684, "internal_node_id": "0.0-6.0-2.0"}}, {"uniqueid": "w15073287:a64340750", "current_trial": 50, "dateTime": 1693565645967, "trialdata": {"rt": 69578, "response": {"Q0": "Inspect the further out nodes because the larger values would cancel out the smaller losses on the closer nodes.", "Q1": "No", "Q2": "I didn't improve."}, "trial_id": "self_report_control", "trial_type": "survey-text", "trial_index": 50, "time_elapsed": 1361279, "internal_node_id": "0.0-6.0-3.0"}}, {"uniqueid": "w15073287:a64340750", "current_trial": 51, "dateTime": 1693565666634, "trialdata": {"rt": 20661, "response": {"gender": "female", "age": "25", "colorblind": "0", "effort": "0"}, "trial_type": "survey-html-form", "trial_index": 51, "time_elapsed": 1381946, "internal_node_id": "0.0-6.0-4.0"}}, {"uniqueid": "w15073287:a64340750", "current_trial": 52, "dateTime": 1693565678863, "trialdata": {"rt": 12215, "response": {"Q0": "No", "Q1": "No", "Q2": ""}, "trial_type": "survey-text", "trial_index": 52, "time_elapsed": 1394175, "internal_node_id": "0.0-6.0-5.0"}}, {"uniqueid": "w15073287:a64340750", "current_trial": 53, "dateTime": 1693565696937, "trialdata": {"rt": 18068, "stimulus": "<h1>Completion Code Instructions (1/2)</h1>\n<br><br><br><br>\nYou have reached the end of the experiment! The completion code consists of two parts: (1) a code with 2 characters (2) a code with 6 characters. On this page, you will receive the second part of the code. The first part of the completion code will be on the next page.\n<br><br>\nThe second part of your completion code is: <b>EWEK22</b>\n<br><br>\nPlease note this down. Then, press 'Finish HIT' in order to find the first part of your completion code. Once the data has been saved, you will receive this code either in this window or in the original browser window where you started the experiment.\n", "response": 0, "trial_type": "html-button-response", "trial_index": 53, "time_elapsed": 1412249, "internal_node_id": "0.0-6.0-6.0"}}, {"uniqueid": "w15073287:a64340750", "current_trial": 54, "dateTime": 1693565697960, "trialdata": {"success": true, "trial_type": "fullscreen", "trial_index": 54, "time_elapsed": 1413272, "internal_node_id": "0.0-7.0"}}], "questiondata": {"params": {"CODE": "C6DMOQA6", "MIN_TIME": 14, "inspectCost": 1, "startTime": "Fri Sep 01 2023 11:31:23 GMT+0100 (British Summer Time)", "bonusRate": 0.002, "variance": "1_2_4_8_44", "branching": "31123"}, "final_score": 1730.8}, "eventdata": [{"eventtype": "initialized", "value": null, "timestamp": 1693564283484, "interval": 0}, {"eventtype": "window_resize", "value": [2560, 1337], "timestamp": 1693564283484, "interval": 0}, {"eventtype": "focus", "value": "on", "timestamp": 1693564283607, "interval": 123}, {"eventtype": "window_resize", "value": [2560, 1337], "timestamp": 1693564283830, "interval": 223}, {"eventtype": "focus", "value": "off", "timestamp": 1693564288583, "interval": 4753}, {"eventtype": "focus", "value": "on", "timestamp": 1693564303602, "interval": 15019}, {"eventtype": "window_resize", "value": [2560, 1440], "timestamp": 1693564304206, "interval": 604}, {"eventtype": "focus", "value": "off", "timestamp": 1693564306374, "interval": 2168}, {"eventtype": "focus", "value": "on", "timestamp": 1693564317193, "interval": 10819}, {"eventtype": "focus", "value": "off", "timestamp": 1693564599220, "interval": 282027}, {"eventtype": "focus", "value": "on", "timestamp": 1693564605110, "interval": 5890}, {"eventtype": "focus", "value": "off", "timestamp": 1693565692007, "interval": 1086897}, {"eventtype": "focus", "value": "on", "timestamp": 1693565696890, "interval": 4883}, {"eventtype": "window_resize", "value": [2560, 1337], "timestamp": 1693565697450, "interval": 560}], "useragent": "Mozilla/5.0 (Windows NT 10.0; Win64; x64; rv:109.0) Gecko/20100101 Firefox/116.0", "mode": "live", "id": "w15073287:a64340750", "status": "user data saved", "Beginhit": "2023-09-01 10:31:20.879559", "Beginexp": "2023-09-01 10:31:44.080327", "Endhit": "2023-09-01 10:54:57.708127", "psiturkStatus": 3, "browser": "<redacted>", "platform": "windows", "language": "en-GB"}