{"condition": 1, "counterbalance": 0, "assignmentId": "a47486811", "workerId": "w76723214", "hitId": "h98057723", "currenttrial": 62, "bonus": 0, "data": [{"uniqueid": "w76723214:a47486811", "current_trial": 0, "dateTime": 1691070937993, "trialdata": {"success": true, "trial_type": "fullscreen", "trial_index": 0, "time_elapsed": 5531, "internal_node_id": "0.0-0.0"}}, {"uniqueid": "w76723214:a47486811", "current_trial": 1, "dateTime": 1691071016155, "trialdata": {"view_history": [{"page_index": 0, "viewing_time": 78144}], "rt": 78145, "trial_id": "exp_instructions_misaligned", "trial_type": "instructions", "trial_index": 1, "time_elapsed": 83692, "internal_node_id": "0.0-1.0"}}, {"uniqueid": "w76723214:a47486811", "current_trial": 2, "dateTime": 1691071020692, "trialdata": {"success": true, "trial_type": "fullscreen", "trial_index": 2, "time_elapsed": 88230, "internal_node_id": "0.0-2.0-0.0"}}, {"uniqueid": "w76723214:a47486811", "current_trial": 3, "dateTime": 1691071606026, "trialdata": {"view_history": [{"page_index": 0, "viewing_time": 199101}, {"page_index": 1, "viewing_time": 183942}, {"page_index": 0, "viewing_time": 30318}, {"page_index": 1, "viewing_time": 59829}, {"page_index": 2, "viewing_time": 47111}, {"page_index": 3, "viewing_time": 65024}], "rt": 585327, "trial_id": "mouselab_instructions_1_misaligned", "trial_type": "instructions", "trial_index": 3, "time_elapsed": 673564, "internal_node_id": "0.0-2.0-1.0"}}, {"uniqueid": "w76723214:a47486811", "current_trial": 4, "dateTime": 1691071631227, "trialdata": {"revealed_states": [], "clicked_states": ["25"], "num_clicks_accrued": [0, 0, 0, 0, 0, 0, 0, 0, 0, 0, 0, 0, 0], "stateRewards": ["", -10, 10, -10, 10, -10, -10, 10, -10, 10, -10, 10, 10, 10, 10, 10, -10, 10, 10, -10, -10, 10, -10, -10, -10, -10, -10, 10, -10, -10, -10, 10, -10, 10], "withholdReward": false, "trial_id": "practice_1", "block": "test", "trialIndex": 0, "score": -47, "costs": -0.5, "simulationMode": [null, null, null, null, null], "rewards": [-10, -10, -10, -10, -10], "path": ["0", "0", "23", "24", "25", "26", "29"], "rt": [6480, 514, 101, 2394, 152], "actions": ["left", "left", "left", "up", "left"], "actionTimes": [9049, 10094, 10733, 13655, 14353], "queries": {"click": {"state": {"target": ["25"], "time": [5738]}, "edge": {"target": [], "time": []}}, "mouseover": {"state": {"target": ["23", "24", "25", "24", "23", "0", "23"], "time": [4102, 4286, 4386, 7050, 7583, 8017, 8266]}, "edge": {"target": [], "time": []}}, "mouseout": {"state": {"target": ["23", "0", "23", "24", "25", "24", "23", "0", "23"], "time": [689, 1073, 4219, 4334, 6884, 7399, 7860, 8218, 22353]}, "edge": {"target": [], "time": []}}}, "displayed_time": "14.89", "trialTime": 23740, "trial_type": "mouselab-mdp", "trial_index": 4, "time_elapsed": 698764, "internal_node_id": "0.0-2.0-2.0-0.0"}}, {"uniqueid": "w76723214:a47486811", "current_trial": 5, "dateTime": 1691071660033, "trialdata": {"revealed_states": [], "clicked_states": ["17", "25", "33"], "num_clicks_accrued": [0, 0, 0, 0, 0, 0, 0, 0, 0, 0, 0, 0, 0], "stateRewards": ["", -10, -10, -10, -10, -10, 10, 10, -10, -10, -10, 10, 10, 10, -10, 10, 10, -10, 10, 10, 10, -10, -10, 10, 10, 10, -10, -10, -10, -10, -10, -10, 10, -10], "withholdReward": false, "trial_id": "practice_2", "block": "test", "trialIndex": 1, "score": -48, "costs": -1.5, "simulationMode": [null, null, null, null, null], "rewards": [-10, -10, -10, -10, -10], "path": ["0", "0", "1", "2", "3", "4", "5"], "rt": [16461, 342, 126, 522, 70], "actions": ["up", "up", "up", "right", "up"], "actionTimes": [19940, 20817, 21470, 22520, 23114], "queries": {"click": {"state": {"target": ["17", "25", "33"], "time": [9047, 13466, 15112]}, "edge": {"target": [], "time": []}}, "mouseover": {"state": {"target": ["13", "14", "15", "16", "17", "15", "18", "1", "10", "23", "24", "25", "30", "33", "32"], "time": [6869, 7302, 7652, 7986, 8350, 10188, 10272, 10898, 11181, 11931, 12546, 12915, 14503, 14647, 16559]}, "edge": {"target": [], "time": []}}, "mouseout": {"state": {"target": ["23", "1", "0", "13", "14", "15", "16", "17", "15", "18", "1", "10", "23", "24", "25", "30", "33", "32"], "time": [1572, 1640, 6052, 7269, 7504, 7851, 8152, 9057, 10240, 10351, 11031, 11447, 12012, 12614, 14412, 14569, 16378, 17276]}, "edge": {"target": [], "time": []}}}, "displayed_time": "23.64", "trialTime": 28009, "trial_type": "mouselab-mdp", "trial_index": 5, "time_elapsed": 727571, "internal_node_id": "0.0-2.0-2.0-1.0"}}, {"uniqueid": "w76723214:a47486811", "current_trial": 6, "dateTime": 1691071740234, "trialdata": {"view_history": [{"page_index": 0, "viewing_time": 62302}, {"page_index": 1, "viewing_time": 17891}], "rt": 80195, "trial_id": "mouselab_instructions_2_misaligned", "trial_type": "instructions", "trial_index": 6, "time_elapsed": 807772, "internal_node_id": "0.0-2.0-3.0"}}, {"uniqueid": "w76723214:a47486811", "current_trial": 7, "dateTime": 1691071822658, "trialdata": {"rt": 82414, "response": {"Q0": "It is less costly to inspect further nodes.", "Q1": "I will receive a $1 bonus if I perform well, otherwise I will receive no bonus.", "Q2": "No, the amount of cash at each node of the web may be different each time.", "Q3": "To get the highest total score.", "Q4": "Only before moving the spider.", "Q5": "3 seconds"}, "question_order": [0, 1, 2, 3, 4, 5], "correct": {"Q0": "The cost for clicking on nodes may vary between nodes.", "Q1": "The better I perform the higher my bonus will be.", "Q2": "No, the amount of cash at each node of the web may be different each time.", "Q3": "To get the highest total score.", "Q4": "Only before moving the spider.", "Q5": "3 seconds"}, "trial_id": "mouselab_quiz_misaligned", "trial_type": "survey-multi-choice", "trial_index": 7, "time_elapsed": 890196, "internal_node_id": "0.0-2.0-4.0"}}, {"uniqueid": "w76723214:a47486811", "current_trial": 8, "dateTime": 1691071841292, "trialdata": {"success": true, "trial_type": "fullscreen", "trial_index": 8, "time_elapsed": 908830, "internal_node_id": "0.0-2.1-0.1"}}, {"uniqueid": "w76723214:a47486811", "current_trial": 9, "dateTime": 1691071882355, "trialdata": {"view_history": [{"page_index": 0, "viewing_time": 3908}, {"page_index": 1, "viewing_time": 31288}, {"page_index": 2, "viewing_time": 3339}, {"page_index": 3, "viewing_time": 2520}], "rt": 41055, "trial_id": "mouselab_instructions_1_misaligned", "trial_type": "instructions", "trial_index": 9, "time_elapsed": 949893, "internal_node_id": "0.0-2.1-1.1"}}, {"uniqueid": "w76723214:a47486811", "current_trial": 10, "dateTime": 1691071902692, "trialdata": {"revealed_states": [], "clicked_states": ["20"], "num_clicks_accrued": [0, 0, 0, 0, 0, 0, 0, 0, 0, 0, 0, 0, 0], "stateRewards": ["", -10, 10, -10, 10, -10, -10, 10, -10, 10, -10, 10, 10, 10, 10, 10, -10, 10, 10, -10, -10, 10, -10, -10, -10, -10, -10, 10, -10, -10, -10, 10, -10, 10], "withholdReward": false, "trial_id": "practice_1", "block": "test", "trialIndex": 2, "score": 13, "costs": -0.5, "simulationMode": [null, null, null, null, null], "rewards": [10, 10, 10, -10, -10], "path": ["0", "0", "12", "13", "14", "19", "20"], "rt": [8051, 230, 327, 62, 396], "actions": ["right", "right", "right", "down", "right"], "actionTimes": [12098, 12854, 13691, 14270, 15189], "queries": {"click": {"state": {"target": ["20"], "time": [10426]}, "edge": {"target": [], "time": []}}, "mouseover": {"state": {"target": ["23", "23", "31", "25", "30", "31", "14", "20"], "time": [5174, 5541, 6224, 6976, 7889, 8289, 8940, 9886]}, "edge": {"target": [], "time": []}}, "mouseout": {"state": {"target": ["0", "23", "23", "31", "25", "30", "31", "14", "20"], "time": [2876, 5441, 5591, 6474, 7787, 8254, 8310, 9737, 11399]}, "edge": {"target": [], "time": []}}}, "displayed_time": "15.71", "trialTime": 19452, "trial_type": "mouselab-mdp", "trial_index": 10, "time_elapsed": 970230, "internal_node_id": "0.0-2.1-2.1-0.1"}}, {"uniqueid": "w76723214:a47486811", "current_trial": 11, "dateTime": 1691071919698, "trialdata": {"revealed_states": [], "clicked_states": ["32"], "num_clicks_accrued": [0, 0, 0, 0, 0, 0, 0, 0, 0, 0, 0, 0, 0], "stateRewards": ["", -10, -10, -10, -10, -10, 10, 10, -10, -10, -10, 10, 10, 10, -10, 10, 10, -10, 10, 10, 10, -10, -10, 10, 10, 10, -10, -10, -10, -10, -10, -10, 10, -10], "withholdReward": false, "trial_id": "practice_2", "block": "test", "trialIndex": 3, "score": 33, "costs": -0.5, "simulationMode": [null, null, null, null, null], "rewards": [10, 10, 10, -10, 10], "path": ["0", "0", "23", "24", "25", "30", "32"], "rt": [5511, 117, 283, 56, 550], "actions": ["left", "left", "left", "down", "down"], "actionTimes": [8030, 8673, 9479, 10076, 11180], "queries": {"click": {"state": {"target": ["32"], "time": [5586]}, "edge": {"target": [], "time": []}}, "mouseover": {"state": {"target": ["31", "30", "32"], "time": [4271, 4319, 4955]}, "edge": {"target": [], "time": []}}, "mouseout": {"state": {"target": ["14", "13", "12", "0", "31", "30", "32"], "time": [1222, 1291, 1421, 3037, 4290, 4571, 6502]}, "edge": {"target": [], "time": []}}}, "displayed_time": "11.71", "trialTime": 15523, "trial_type": "mouselab-mdp", "trial_index": 11, "time_elapsed": 987235, "internal_node_id": "0.0-2.1-2.1-1.1"}}, {"uniqueid": "w76723214:a47486811", "current_trial": 12, "dateTime": 1691071933250, "trialdata": {"view_history": [{"page_index": 0, "viewing_time": 11136}, {"page_index": 1, "viewing_time": 2410}], "rt": 13547, "trial_id": "mouselab_instructions_2_misaligned", "trial_type": "instructions", "trial_index": 12, "time_elapsed": 1000788, "internal_node_id": "0.0-2.1-3.1"}}, {"uniqueid": "w76723214:a47486811", "current_trial": 13, "dateTime": 1691072028142, "trialdata": {"rt": 94884, "response": {"Q0": "The cost for clicking on nodes may vary between nodes.", "Q1": "The better I perform the higher my bonus will be.", "Q2": "No, the amount of cash at each node of the web may be different each time.", "Q3": "To get the highest total score.", "Q4": "Only before moving the spider.", "Q5": "3 seconds"}, "question_order": [0, 1, 2, 3, 4, 5], "correct": {"Q0": "The cost for clicking on nodes may vary between nodes.", "Q1": "The better I perform the higher my bonus will be.", "Q2": "No, the amount of cash at each node of the web may be different each time.", "Q3": "To get the highest total score.", "Q4": "Only before moving the spider.", "Q5": "3 seconds"}, "trial_id": "mouselab_quiz_misaligned", "trial_type": "survey-multi-choice", "trial_index": 13, "time_elapsed": 1095680, "internal_node_id": "0.0-2.1-4.1"}}, {"uniqueid": "w76723214:a47486811", "current_trial": 14, "dateTime": 1691072241082, "trialdata": {"rt": 212925, "stimulus": "\n<h1> Get ready to start the game! </h1>\n\nThank you for reading the instructions. Get ready start with the 40 rounds of this game.\n<br><br>\nIf you need to take a break, feel free to take one after the end of a round, before continuing to the next one.\n<br><br>\nRemember, the more money the spider gets, the bigger your bonus will be!\n<br><br>\n<div style='text-align: center;'>Press <code>space</code> to begin.</div>\n\n<br><br>\n(If, at any point, the <code>space</code> key does not take you to the next page, click once on the text and try again.)", "response": " ", "trial_id": "mdp_ready", "trial_type": "html-keyboard-response", "trial_index": 14, "time_elapsed": 1308620, "internal_node_id": "0.0-4.0-0.0"}}, {"uniqueid": "w76723214:a47486811", "current_trial": 15, "dateTime": 1691072264263, "trialdata": {"revealed_states": [], "clicked_states": [], "num_clicks_accrued": [0, 0, 0, 0, 0, 0, 0, 0, 0, 0, 0, 0, 0], "stateRewards": ["", -2, 2, -4, -4, -59, 88, 62, -3, 69, -15, -34, 1, -2, -5, 7, -54, -20, 78, -16, -74, -53, -21, 2, -4, 2, 13, -8, -44, 26, 9, 72, 4, 17], "withholdReward": false, "trial_id": "mdp_trial_1", "block": "test", "trialIndex": 4, "score": 26, "costs": 0, "simulationMode": [null, null, null, null, null], "rewards": [2, -4, 2, 9, 17], "path": ["0", "0", "23", "24", "25", "30", "33"], "rt": [9186, 4, 318, 623, 198], "actions": ["left", "left", "left", "down", "left"], "actionTimes": [12342, 12877, 13747, 14888, 15616], "queries": {"click": {"state": {"target": [], "time": []}, "edge": {"target": [], "time": []}}, "mouseover": {"state": {"target": ["0", "23", "24", "25", "30", "33", "24", "25"], "time": [4005, 4103, 4637, 4922, 5253, 5769, 9732, 10952]}, "edge": {"target": [], "time": []}}, "mouseout": {"state": {"target": ["0", "0", "23", "24", "25", "30", "33", "24", "25"], "time": [2239, 4054, 4387, 4804, 5204, 5686, 9182, 10631, 21489]}, "edge": {"target": [], "time": []}}}, "displayed_time": "17.16", "trialTime": 22173, "trial_type": "mouselab-mdp", "trial_index": 15, "time_elapsed": 1331800, "internal_node_id": "0.0-4.0-1.0-0.0"}}, {"uniqueid": "w76723214:a47486811", "current_trial": 16, "dateTime": 1691072288913, "trialdata": {"revealed_states": [], "clicked_states": ["20"], "num_clicks_accrued": [0, 0, 0, 0, 0, 0, 0, 0, 0, 0, 0, 0, 0], "stateRewards": ["", 1, 2, -8, 9, 18, -83, -11, 6, -64, -48, 17, -2, -2, -5, -3, -24, -3, -86, -2, 48, -41, -22, -2, 4, 7, 8, 81, 13, -48, 10, 61, 19, 57], "withholdReward": false, "trial_id": "mdp_trial_2", "block": "test", "trialIndex": 5, "score": 34.85, "costs": -2.15, "simulationMode": [null, null, null, null, null, null], "rewards": [-2, -2, -5, -2, 48], "path": ["0", "0", "12", "13", "14", "19", "20"], "rt": [4064, 2904, 193, 361, 117, 287], "actions": ["right", "right", "right", "right", "down", "right"], "actionTimes": [6815, 9735, 10460, 11345, 11986, 12805], "queries": {"click": {"state": {"target": ["20"], "time": [4555]}, "edge": {"target": [], "time": []}}, "mouseover": {"state": {"target": ["12", "13", "14", "20"], "time": [3416, 3467, 3567, 3999]}, "edge": {"target": [], "time": []}}, "mouseout": {"state": {"target": ["25", "24", "0", "12", "13", "14", "20"], "time": [1384, 1434, 3383, 3437, 3532, 3617, 9277]}, "edge": {"target": [], "time": []}}}, "displayed_time": "16.75", "trialTime": 23541, "trial_type": "mouselab-mdp", "trial_index": 16, "time_elapsed": 1356450, "internal_node_id": "0.0-4.0-1.0-1.0"}}, {"uniqueid": "w76723214:a47486811", "current_trial": 17, "dateTime": 1691072319798, "trialdata": {"revealed_states": [], "clicked_states": [], "num_clicks_accrued": [0, 0, 0, 0, 0, 0, 0, 0, 0, 0, 0, 0, 0], "stateRewards": ["", -1, -3, 1, 13, -64, -29, 12, -4, -33, 50, 56, 2, -3, 4, 11, -64, -58, -55, 12, 47, 38, -25, -2, 2, 5, -15, 85, 7, 84, 10, 8, 57, 26], "withholdReward": false, "trial_id": "mdp_trial_3", "block": "test", "trialIndex": 6, "score": -19, "costs": 0, "simulationMode": [null, null, null, null, null], "rewards": [-1, -3, 1, 13, -29], "path": ["0", "0", "1", "2", "3", "4", "6"], "rt": [10634, 84, 140, 44, 232], "actions": ["up", "up", "up", "right", "right"], "actionTimes": [16050, 16649, 17322, 17889, 18656], "queries": {"click": {"state": {"target": [], "time": []}, "edge": {"target": [], "time": []}}, "mouseover": {"state": {"target": ["18", "15", "2", "3", "4", "6"], "time": [6496, 7362, 8677, 9258, 10010, 10926]}, "edge": {"target": [], "time": []}}, "mouseout": {"state": {"target": ["19", "12", "0", "18", "15", "2", "3", "4"], "time": [3598, 3900, 5950, 7179, 7596, 9143, 9959, 10742]}, "edge": {"target": [], "time": []}}}, "displayed_time": "19.42", "trialTime": 29749, "trial_type": "mouselab-mdp", "trial_index": 17, "time_elapsed": 1387336, "internal_node_id": "0.0-4.0-1.0-2.0"}}, {"uniqueid": "w76723214:a47486811", "current_trial": 18, "dateTime": 1691072343512, "trialdata": {"revealed_states": [], "clicked_states": ["29"], "num_clicks_accrued": [0, 0, 0, 0, 0, 0, 0, 0, 0, 0, 0, 0, 0], "stateRewards": ["", 1, -2, -2, 10, -31, -77, 35, 9, -47, 8, 48, -2, 1, -4, -3, -26, -50, 43, -11, 76, -38, 17, 1, -1, 6, 10, 15, -9, 12, -8, 85, 11, -55], "withholdReward": false, "trial_id": "mdp_trial_4", "block": "test", "trialIndex": 7, "score": 25.85, "costs": -2.15, "simulationMode": [null, null, null, null, null, null], "rewards": [1, -1, 6, 10, 12], "path": ["0", "0", "23", "24", "25", "26", "29"], "rt": [4896, 964, 46, 138, 781, 204], "actions": ["left", "left", "left", "left", "up", "left"], "actionTimes": [7384, 8358, 8944, 9624, 10940, 11673], "queries": {"click": {"state": {"target": ["29"], "time": [5338]}, "edge": {"target": [], "time": []}}, "mouseover": {"state": {"target": ["23", "24", "25", "26", "29"], "time": [3251, 3384, 3551, 3701, 4349]}, "edge": {"target": [], "time": []}}, "mouseout": {"state": {"target": ["6", "12", "0", "23", "24", "25", "26"], "time": [204, 1169, 3168, 3334, 3451, 3585, 4218]}, "edge": {"target": [], "time": []}}}, "displayed_time": "16.49", "trialTime": 22546, "trial_type": "mouselab-mdp", "trial_index": 18, "time_elapsed": 1411049, "internal_node_id": "0.0-4.0-1.0-3.0"}}, {"uniqueid": "w76723214:a47486811", "current_trial": 19, "dateTime": 1691072372886, "trialdata": {"revealed_states": [], "clicked_states": [], "num_clicks_accrued": [0, 0, 0, 0, 0, 0, 0, 0, 0, 0, 0, 0, 0], "stateRewards": ["", 1, -1, 4, 5, -32, 18, 20, 6, -88, -74, 9, -2, 1, -2, -14, 34, -77, -38, -1, 80, -36, 73, 2, 3, -8, 10, -48, -73, -71, -11, -22, 20, 54], "withholdReward": false, "trial_id": "mdp_trial_5", "block": "test", "trialIndex": 8, "score": -94, "costs": 0, "simulationMode": [null, null, null, null, null], "rewards": [-2, 1, -2, -14, -77], "path": ["0", "0", "12", "13", "14", "15", "17"], "rt": [5249, 308, 287, 535, 101], "actions": ["right", "right", "right", "up", "right"], "actionTimes": [9000, 9835, 10647, 11718, 12349], "queries": {"click": {"state": {"target": [], "time": []}, "edge": {"target": [], "time": []}}, "mouseover": {"state": {"target": ["12", "13", "14", "15", "17"], "time": [4774, 4925, 5373, 6455, 7340]}, "edge": {"target": [], "time": []}}, "mouseout": {"state": {"target": ["29", "24", "23", "0", "12", "13", "14", "15", "17", "17"], "time": [2110, 2292, 2376, 2591, 4857, 5123, 6339, 7088, 27548, 27634]}, "edge": {"target": [], "time": []}}}, "displayed_time": "17.76", "trialTime": 27983, "trial_type": "mouselab-mdp", "trial_index": 19, "time_elapsed": 1440423, "internal_node_id": "0.0-4.0-1.0-4.0"}}, {"uniqueid": "w76723214:a47486811", "current_trial": 20, "dateTime": 1691072397311, "trialdata": {"revealed_states": [], "clicked_states": [], "num_clicks_accrued": [0, 0, 0, 0, 0, 0, 0, 0, 0, 0, 0, 0, 0], "stateRewards": ["", -1, -4, -1, -11, 43, 69, 39, 4, 17, -20, -82, -2, -1, 4, 8, -79, 24, -79, 11, 36, 64, 41, 2, 4, -1, 11, -79, -47, 75, -3, 63, -36, -19], "withholdReward": false, "trial_id": "mdp_trial_6", "block": "test", "trialIndex": 9, "score": 76, "costs": 0, "simulationMode": [null, null, null, null, null], "rewards": [-2, -1, 4, 11, 64], "path": ["0", "0", "12", "13", "14", "19", "21"], "rt": [1983, 348, 226, 48, 49], "actions": ["right", "right", "right", "down", "down"], "actionTimes": [4751, 5673, 6432, 7004, 7623], "queries": {"click": {"state": {"target": [], "time": []}, "edge": {"target": [], "time": []}}, "mouseover": {"state": {"target": [], "time": []}, "edge": {"target": [], "time": []}}, "mouseout": {"state": {"target": ["15", "13", "12", "0", "0"], "time": [314, 1347, 1414, 1580, 22262]}, "edge": {"target": [], "time": []}}}, "displayed_time": "16.77", "trialTime": 22726, "trial_type": "mouselab-mdp", "trial_index": 20, "time_elapsed": 1464849, "internal_node_id": "0.0-4.0-1.0-5.0"}}, {"uniqueid": "w76723214:a47486811", "current_trial": 21, "dateTime": 1691072433768, "trialdata": {"revealed_states": [], "clicked_states": [], "num_clicks_accrued": [0, 0, 0, 0, 0, 0, 0, 0, 0, 0, 0, 0, 0], "stateRewards": ["", -1, 2, -2, 13, -56, -28, 10, 14, 53, -80, -29, 1, -3, -3, -14, 14, 9, -40, -9, 18, 18, 48, 1, 1, 1, -9, 64, -39, -9, 7, -52, -78, 7], "withholdReward": false, "trial_id": "mdp_trial_7", "block": "test", "trialIndex": 10, "score": 17, "costs": 0, "simulationMode": [null, null, null, null, null], "rewards": [1, 1, 1, 7, 7], "path": ["0", "0", "23", "24", "25", "30", "33"], "rt": [2811, 79, 275, 246, 402], "actions": ["left", "left", "left", "down", "left"], "actionTimes": [5869, 6471, 7269, 8044, 8981], "queries": {"click": {"state": {"target": [], "time": []}, "edge": {"target": [], "time": []}}, "mouseover": {"state": {"target": [], "time": []}, "edge": {"target": [], "time": []}}, "mouseout": {"state": {"target": [], "time": []}, "edge": {"target": [], "time": []}}}, "displayed_time": "17.06", "trialTime": 34648, "trial_type": "mouselab-mdp", "trial_index": 21, "time_elapsed": 1501304, "internal_node_id": "0.0-4.0-1.0-6.0"}}, {"uniqueid": "w76723214:a47486811", "current_trial": 22, "dateTime": 1691072460054, "trialdata": {"revealed_states": [], "clicked_states": [], "num_clicks_accrued": [0, 0, 0, 0, 0, 0, 0, 0, 0, 0, 0, 0, 0], "stateRewards": ["", 2, 4, -3, 16, -58, 30, -35, 11, -60, 47, 27, -2, -1, -7, -16, 23, -70, 68, -10, -65, -43, -34, -2, 1, 7, 9, -63, 34, -31, -8, -12, -86, 59], "withholdReward": false, "trial_id": "mdp_trial_8", "block": "test", "trialIndex": 11, "score": -14, "costs": 0, "simulationMode": [null, null, null, null, null], "rewards": [-2, 1, 7, -8, -12], "path": ["0", "0", "23", "24", "25", "30", "31"], "rt": [10075, 280, 155, 593, 147], "actions": ["left", "left", "left", "down", "right"], "actionTimes": [15307, 16168, 16853, 17961, 18638], "queries": {"click": {"state": {"target": [], "time": []}, "edge": {"target": [], "time": []}}, "mouseover": {"state": {"target": ["23", "23", "24", "25", "26", "29", "25", "30", "33", "30", "31"], "time": [7721, 8689, 8787, 9285, 9936, 10490, 11146, 11249, 11699, 12455, 12715]}, "edge": {"target": [], "time": []}}, "mouseout": {"state": {"target": ["0", "23", "23", "24", "25", "26", "29", "25", "30", "33", "30"], "time": [7637, 8361, 8775, 9038, 9768, 10086, 11067, 11201, 11317, 12432, 12565]}, "edge": {"target": [], "time": []}}}, "displayed_time": "19.23", "trialTime": 24957, "trial_type": "mouselab-mdp", "trial_index": 22, "time_elapsed": 1527591, "internal_node_id": "0.0-4.0-1.0-7.0"}}, {"uniqueid": "w76723214:a47486811", "current_trial": 23, "dateTime": 1691072486102, "trialdata": {"revealed_states": [], "clicked_states": [], "num_clicks_accrued": [0, 0, 0, 0, 0, 0, 0, 0, 0, 0, 0, 0, 0], "stateRewards": ["", -1, 1, 6, -6, 70, 66, 67, -16, -75, -35, 37, -1, 4, 4, -6, 47, -9, 63, 15, 21, -63, 13, 1, 3, -6, 10, 79, -29, 18, -15, 9, -67, -19], "withholdReward": false, "trial_id": "mdp_trial_9", "block": "test", "trialIndex": 12, "score": 35, "costs": 0, "simulationMode": [null, null, null, null, null], "rewards": [-1, 4, 4, 15, 13], "path": ["0", "0", "12", "13", "14", "19", "22"], "rt": [7214, 132, 211, 190, 458], "actions": ["right", "right", "right", "down", "left"], "actionTimes": [10992, 11662, 12405, 13140, 14139], "queries": {"click": {"state": {"target": [], "time": []}, "edge": {"target": [], "time": []}}, "mouseover": {"state": {"target": ["13", "14", "14", "15", "15", "18", "13", "22", "22"], "time": [5583, 5748, 7015, 7201, 7449, 7531, 7781, 8114, 8730]}, "edge": {"target": [], "time": []}}, "mouseout": {"state": {"target": ["31", "0", "13", "14", "14", "15", "15", "18", "13", "22"], "time": [1172, 1569, 5666, 6782, 7132, 7281, 7499, 7731, 8014, 8547]}, "edge": {"target": [], "time": []}}}, "displayed_time": "17.78", "trialTime": 24259, "trial_type": "mouselab-mdp", "trial_index": 23, "time_elapsed": 1553640, "internal_node_id": "0.0-4.0-1.0-8.0"}}, {"uniqueid": "w76723214:a47486811", "current_trial": 24, "dateTime": 1691072614828, "trialdata": {"revealed_states": [], "clicked_states": [], "num_clicks_accrued": [0, 0, 0, 0, 0, 0, 0, 0, 0, 0, 0, 0, 0], "stateRewards": ["", 2, 3, -6, -5, -3, 55, 40, 11, 61, 11, 51, 2, -4, -6, 9, -25, 29, -15, -6, 7, -77, -2, -2, -4, 1, 14, -43, -1, 56, -12, -54, 41, -74], "withholdReward": false, "trial_id": "mdp_trial_10", "block": "test", "trialIndex": 13, "score": 61, "costs": 0, "simulationMode": [null, null, null, null, null], "rewards": [2, 3, -6, 11, 51], "path": ["0", "0", "1", "2", "3", "8", "11"], "rt": [4796, 46, 114, 761, 27], "actions": ["up", "up", "up", "left", "left"], "actionTimes": [11723, 12307, 12971, 14242, 14801], "queries": {"click": {"state": {"target": [], "time": []}, "edge": {"target": [], "time": []}}, "mouseover": {"state": {"target": ["1", "10", "11"], "time": [9440, 9606, 9756]}, "edge": {"target": [], "time": []}}, "mouseout": {"state": {"target": ["22", "0", "1", "10", "11", "8", "10", "28"], "time": [4243, 9272, 9556, 9655, 125492, 125725, 125841, 126325]}, "edge": {"target": [], "time": []}}}, "displayed_time": "20.93", "trialTime": 126836, "trial_type": "mouselab-mdp", "trial_index": 24, "time_elapsed": 1682365, "internal_node_id": "0.0-4.0-1.0-9.0"}}, {"uniqueid": "w76723214:a47486811", "current_trial": 25, "dateTime": 1691072646082, "trialdata": {"revealed_states": [], "clicked_states": [], "num_clicks_accrued": [0, 0, 0, 0, 0, 0, 0, 0, 0, 0, 0, 0, 0], "stateRewards": ["", 2, -2, 7, -11, -76, -65, -23, 16, -58, 30, 81, 1, 2, 7, 14, 9, 55, -2, 6, 11, -15, 31, -1, -1, -3, 2, 15, 2, 46, 15, 18, 45, -34], "withholdReward": false, "trial_id": "mdp_trial_11", "block": "test", "trialIndex": 14, "score": 22, "costs": 0, "simulationMode": [null, null, null, null, null], "rewards": [1, 2, 7, 14, -2], "path": ["0", "0", "12", "13", "14", "15", "18"], "rt": [4598, 177, 233, 171, 37], "actions": ["right", "right", "right", "up", "left"], "actionTimes": [7897, 8599, 9365, 10097, 10686], "queries": {"click": {"state": {"target": [], "time": []}, "edge": {"target": [], "time": []}}, "mouseover": {"state": {"target": ["12", "13", "18", "18", "18"], "time": [4731, 4846, 5363, 5562, 5980]}, "edge": {"target": [], "time": []}}, "mouseout": {"state": {"target": ["0", "12", "13", "18", "18", "18", "12"], "time": [2280, 4796, 4949, 5478, 5662, 29283, 29491]}, "edge": {"target": [], "time": []}}}, "displayed_time": "17.30", "trialTime": 29886, "trial_type": "mouselab-mdp", "trial_index": 25, "time_elapsed": 1713619, "internal_node_id": "0.0-4.0-1.0-10.0"}}, {"uniqueid": "w76723214:a47486811", "current_trial": 26, "dateTime": 1691072677017, "trialdata": {"revealed_states": [], "clicked_states": ["10"], "num_clicks_accrued": [0, 0, 0, 0, 0, 0, 0, 0, 0, 0, 0, 0, 0], "stateRewards": ["", -1, -3, -5, -14, -13, -47, 79, 8, -60, -64, 41, -1, 2, 3, 13, -46, 61, -79, -11, -64, -65, 23, 1, -2, 6, -14, 46, 32, 21, 7, 75, -66, 15], "withholdReward": false, "trial_id": "mdp_trial_12", "block": "test", "trialIndex": 15, "score": 37.85, "costs": -2.15, "simulationMode": [null, null, null, null, null], "rewards": [-1, -3, -5, 8, 41], "path": ["0", "0", "1", "2", "3", "8", "11"], "rt": [5456, 305, 199, 99, 184], "actions": ["up", "up", "up", "left", "left"], "actionTimes": [12327, 13156, 13880, 14499, 15220], "queries": {"click": {"state": {"target": ["10"], "time": [8682]}, "edge": {"target": [], "time": []}}, "mouseover": {"state": {"target": ["1", "10", "26"], "time": [8076, 8177, 11408]}, "edge": {"target": [], "time": []}}, "mouseout": {"state": {"target": ["0", "1", "10", "26", "26", "28"], "time": [7960, 8126, 11262, 11475, 26562, 26608]}, "edge": {"target": [], "time": []}}}, "displayed_time": "20.87", "trialTime": 29520, "trial_type": "mouselab-mdp", "trial_index": 26, "time_elapsed": 1744555, "internal_node_id": "0.0-4.0-1.0-11.0"}}, {"uniqueid": "w76723214:a47486811", "current_trial": 27, "dateTime": 1691072700037, "trialdata": {"revealed_states": [], "clicked_states": [], "num_clicks_accrued": [0, 0, 0, 0, 0, 0, 0, 0, 0, 0, 0, 0, 0], "stateRewards": ["", 2, -1, 8, -2, -16, 69, -39, -7, -13, -27, -86, 2, -2, 2, 13, -34, -16, -20, -5, 19, 81, 32, -2, -1, 2, -14, 20, 80, 58, 4, 70, 12, 73], "withholdReward": false, "trial_id": "mdp_trial_13", "block": "test", "trialIndex": 16, "score": 16, "costs": 0, "simulationMode": [null, null, null, null, null], "rewards": [2, -2, 2, -5, 19], "path": ["0", "0", "12", "13", "14", "19", "20"], "rt": [5566, 7, 371, 134, 496], "actions": ["right", "right", "right", "down", "right"], "actionTimes": [8044, 8631, 9552, 10216, 11243], "queries": {"click": {"state": {"target": [], "time": []}, "edge": {"target": [], "time": []}}, "mouseover": {"state": {"target": ["12", "15", "17"], "time": [5487, 6121, 6221]}, "edge": {"target": [], "time": []}}, "mouseout": {"state": {"target": ["0", "12", "15", "17"], "time": [1089, 5508, 6185, 6270]}, "edge": {"target": [], "time": []}}}, "displayed_time": "16.48", "trialTime": 21494, "trial_type": "mouselab-mdp", "trial_index": 27, "time_elapsed": 1767574, "internal_node_id": "0.0-4.0-1.0-12.0"}}, {"uniqueid": "w76723214:a47486811", "current_trial": 28, "dateTime": 1691072721988, "trialdata": {"revealed_states": [], "clicked_states": [], "num_clicks_accrued": [0, 0, 0, 0, 0, 0, 0, 0, 0, 0, 0, 0, 0], "stateRewards": ["", -1, 2, 5, -6, 13, -64, -47, 8, -79, -80, -33, 1, 2, -2, -16, 56, -71, -10, 3, 29, 44, 85, -1, 4, 5, 4, -36, -56, 19, 8, 52, -13, -2], "withholdReward": false, "trial_id": "mdp_trial_14", "block": "test", "trialIndex": 17, "score": 3, "costs": 0, "simulationMode": [null, null, null, null, null], "rewards": [-1, 4, 5, 8, -13], "path": ["0", "0", "23", "24", "25", "30", "32"], "rt": [4759, 86, 479, 195, 214], "actions": ["left", "left", "left", "down", "down"], "actionTimes": [8533, 9148, 10156, 10873, 11645], "queries": {"click": {"state": {"target": [], "time": []}, "edge": {"target": [], "time": []}}, "mouseover": {"state": {"target": ["23", "24", "30", "33", "33", "32"], "time": [4890, 5122, 5405, 5654, 6221, 6753]}, "edge": {"target": [], "time": []}}, "mouseout": {"state": {"target": ["14", "0", "23", "24", "30", "33", "33", "32", "32"], "time": [2125, 4822, 5039, 5156, 5504, 5970, 6372, 19281, 19374]}, "edge": {"target": [], "time": []}}}, "displayed_time": "17.77", "trialTime": 20169, "trial_type": "mouselab-mdp", "trial_index": 28, "time_elapsed": 1789525, "internal_node_id": "0.0-4.0-1.0-13.0"}}, {"uniqueid": "w76723214:a47486811", "current_trial": 29, "dateTime": 1691072744132, "trialdata": {"revealed_states": [], "clicked_states": [], "num_clicks_accrued": [0, 0, 0, 0, 0, 0, 0, 0, 0, 0, 0, 0, 0], "stateRewards": ["", 1, 1, -5, 10, -31, 73, 14, -8, -23, 63, -70, -1, 2, 8, 7, 25, -59, 27, -10, -40, -71, -15, -2, 3, -8, -5, -19, 77, -34, 7, 67, 63, 19], "withholdReward": false, "trial_id": "mdp_trial_15", "block": "test", "trialIndex": 18, "score": -24, "costs": 0, "simulationMode": [null, null, null, null, null], "rewards": [1, 1, -5, 10, -31], "path": ["0", "0", "1", "2", "3", "4", "5"], "rt": [5198, 28, 103, 18, 83], "actions": ["up", "up", "up", "right", "up"], "actionTimes": [8466, 9026, 9681, 10225, 10845], "queries": {"click": {"state": {"target": [], "time": []}, "edge": {"target": [], "time": []}}, "mouseover": {"state": {"target": ["1", "7", "4", "5", "5"], "time": [4984, 6065, 6282, 6531, 6787]}, "edge": {"target": [], "time": []}}, "mouseout": {"state": {"target": ["0", "1", "7", "4", "5", "5", "6", "2", "10", "28"], "time": [4665, 5182, 6180, 6481, 6663, 16939, 19437, 19523, 19572, 19753]}, "edge": {"target": [], "time": []}}}, "displayed_time": "17.27", "trialTime": 20179, "trial_type": "mouselab-mdp", "trial_index": 29, "time_elapsed": 1811670, "internal_node_id": "0.0-4.0-1.0-14.0"}}, {"uniqueid": "w76723214:a47486811", "current_trial": 30, "dateTime": 1691072768744, "trialdata": {"revealed_states": [], "clicked_states": ["29"], "num_clicks_accrued": [0, 0, 0, 0, 0, 0, 0, 0, 0, 0, 0, 0, 0], "stateRewards": ["", 2, -1, 5, 8, 75, -35, -77, 1, -9, -81, -58, 1, 2, -7, 5, 77, -16, 19, 16, -10, -18, 40, -2, 3, 7, -5, 64, 1, -62, 10, 27, 10, 65], "withholdReward": false, "trial_id": "mdp_trial_16", "block": "test", "trialIndex": 19, "score": -61.15, "costs": -2.15, "simulationMode": [null, null, null, null, null, null], "rewards": [-2, 3, 7, -5, -62], "path": ["0", "0", "23", "24", "25", "26", "29"], "rt": [4328, 1019, 199, 419, 37, 596], "actions": ["left", "left", "left", "left", "up", "left"], "actionTimes": [6740, 7767, 8523, 9474, 10045, 11165], "queries": {"click": {"state": {"target": ["29"], "time": [4940]}, "edge": {"target": [], "time": []}}, "mouseover": {"state": {"target": ["28", "26", "29"], "time": [3676, 3743, 3977]}, "edge": {"target": [], "time": []}}, "mouseout": {"state": {"target": ["31", "32", "0", "28", "26", "29", "26", "28"], "time": [18, 55, 911, 3710, 3790, 4956, 22043, 22175]}, "edge": {"target": [], "time": []}}}, "displayed_time": "16.41", "trialTime": 22472, "trial_type": "mouselab-mdp", "trial_index": 30, "time_elapsed": 1836281, "internal_node_id": "0.0-4.0-1.0-15.0"}}, {"uniqueid": "w76723214:a47486811", "current_trial": 31, "dateTime": 1691072792339, "trialdata": {"revealed_states": [], "clicked_states": ["27", "24"], "num_clicks_accrued": [0, 0, 0, 0, 0, 0, 0, 0, 0, 0, 0, 0, 0], "stateRewards": ["", -1, -4, 8, 8, -68, 47, 24, -7, -61, 49, -69, -1, -1, 8, -7, 42, 1, -45, -11, 10, -63, -6, 1, 4, 6, -16, 79, -37, -58, -12, 81, 18, -53], "withholdReward": false, "trial_id": "mdp_trial_17", "block": "test", "trialIndex": 20, "score": -44.5, "costs": -2.5, "simulationMode": [null, null, null, null, null], "rewards": [1, 4, 6, -16, -37], "path": ["0", "0", "23", "24", "25", "26", "28"], "rt": [9710, 42, 416, 109, 567], "actions": ["left", "left", "left", "up", "right"], "actionTimes": [12292, 12871, 13825, 14468, 15562], "queries": {"click": {"state": {"target": ["27", "24"], "time": [5440, 9107]}, "edge": {"target": [], "time": []}}, "mouseover": {"state": {"target": ["23", "24", "26", "27", "27", "28", "24"], "time": [4338, 4554, 4687, 4821, 4979, 6652, 7353]}, "edge": {"target": [], "time": []}}, "mouseout": {"state": {"target": ["0", "23", "24", "26", "27", "27", "28", "24"], "time": [4120, 4504, 4591, 4753, 4853, 6534, 6715, 11564]}, "edge": {"target": [], "time": []}}}, "displayed_time": "16.59", "trialTime": 20805, "trial_type": "mouselab-mdp", "trial_index": 31, "time_elapsed": 1859877, "internal_node_id": "0.0-4.0-1.0-16.0"}}, {"uniqueid": "w76723214:a47486811", "current_trial": 32, "dateTime": 1691072814749, "trialdata": {"revealed_states": [], "clicked_states": [], "num_clicks_accrued": [0, 0, 0, 0, 0, 0, 0, 0, 0, 0, 0, 0, 0], "stateRewards": ["", 1, -4, 6, -3, 40, 76, -51, 5, -24, -63, 44, -2, -2, 8, 1, 76, -85, -58, 10, 59, 20, 11, -2, 3, -3, 3, -82, -10, 54, -7, -57, -6, -32], "withholdReward": false, "trial_id": "mdp_trial_18", "block": "test", "trialIndex": 21, "score": -41, "costs": 0, "simulationMode": [null, null, null, null, null], "rewards": [-2, 3, -3, -7, -32], "path": ["0", "0", "23", "24", "25", "30", "33"], "rt": [5050, 79, 362, 528, 504], "actions": ["left", "left", "left", "down", "left"], "actionTimes": [8367, 8990, 9889, 10966, 12002], "queries": {"click": {"state": {"target": [], "time": []}, "edge": {"target": [], "time": []}}, "mouseover": {"state": {"target": [], "time": []}, "edge": {"target": [], "time": []}}, "mouseout": {"state": {"target": ["0", "1"], "time": [1543, 1794]}, "edge": {"target": [], "time": []}}}, "displayed_time": "17.32", "trialTime": 20076, "trial_type": "mouselab-mdp", "trial_index": 32, "time_elapsed": 1882287, "internal_node_id": "0.0-4.0-1.0-17.0"}}, {"uniqueid": "w76723214:a47486811", "current_trial": 33, "dateTime": 1691072835019, "trialdata": {"revealed_states": [], "clicked_states": [], "num_clicks_accrued": [0, 0, 0, 0, 0, 0, 0, 0, 0, 0, 0, 0, 0], "stateRewards": ["", -1, 2, -2, 5, 80, -61, -27, 12, 44, -26, -75, -2, -4, 1, -16, 42, -49, -50, 4, -44, 2, 80, -2, -2, 5, -2, 59, 10, 24, 7, -48, -86, -44], "withholdReward": false, "trial_id": "mdp_trial_19", "block": "test", "trialIndex": 22, "score": 21, "costs": 0, "simulationMode": [null, null, null, null, null], "rewards": [-2, -4, 1, -16, 42], "path": ["0", "0", "12", "13", "14", "15", "16"], "rt": [2090, 112, 311, 493, 437], "actions": ["right", "right", "right", "up", "up"], "actionTimes": [4472, 5113, 5953, 6961, 7943], "queries": {"click": {"state": {"target": [], "time": []}, "edge": {"target": [], "time": []}}, "mouseover": {"state": {"target": [], "time": []}, "edge": {"target": [], "time": []}}, "mouseout": {"state": {"target": ["0"], "time": [1405]}, "edge": {"target": [], "time": []}}}, "displayed_time": "16.39", "trialTime": 18093, "trial_type": "mouselab-mdp", "trial_index": 33, "time_elapsed": 1902557, "internal_node_id": "0.0-4.0-1.0-18.0"}}, {"uniqueid": "w76723214:a47486811", "current_trial": 34, "dateTime": 1691072855789, "trialdata": {"revealed_states": [], "clicked_states": ["31"], "num_clicks_accrued": [0, 0, 0, 0, 0, 0, 0, 0, 0, 0, 0, 0, 0], "stateRewards": ["", 2, -1, 3, -12, -83, 6, -33, 9, 28, 24, -50, -2, -1, -2, -5, -87, 37, 82, 12, 80, -5, 10, -2, -3, -6, 9, 22, -1, 16, 9, 77, -62, 58], "withholdReward": false, "trial_id": "mdp_trial_20", "block": "test", "trialIndex": 23, "score": -5.15, "costs": -2.15, "simulationMode": [null, null, null, null, null], "rewards": [-2, -3, -6, 9, -1], "path": ["0", "0", "23", "24", "25", "26", "28"], "rt": [5653, 98, 258, 975, 7], "actions": ["left", "left", "left", "up", "right"], "actionTimes": [7964, 8593, 9385, 10898, 11427], "queries": {"click": {"state": {"target": ["31"], "time": [4556]}, "edge": {"target": [], "time": []}}, "mouseover": {"state": {"target": ["0", "23", "24", "31"], "time": [3564, 3612, 3732, 4101]}, "edge": {"target": [], "time": []}}, "mouseout": {"state": {"target": ["0", "0", "23", "24"], "time": [1229, 3589, 3667, 4037]}, "edge": {"target": [], "time": []}}}, "displayed_time": "16.31", "trialTime": 18429, "trial_type": "mouselab-mdp", "trial_index": 34, "time_elapsed": 1923327, "internal_node_id": "0.0-4.0-1.0-19.0"}}, {"uniqueid": "w76723214:a47486811", "current_trial": 35, "dateTime": 1691072882222, "trialdata": {"revealed_states": [], "clicked_states": ["11"], "num_clicks_accrued": [0, 0, 0, 0, 0, 0, 0, 0, 0, 0, 0, 0, 0], "stateRewards": ["", -2, 4, -5, -12, 85, -24, -18, -15, -78, -22, 26, -1, -1, 2, 14, -45, 52, -23, 7, -33, 24, -6, -2, -4, 5, -7, -16, 36, -39, 5, 71, -87, -23], "withholdReward": false, "trial_id": "mdp_trial_21", "block": "test", "trialIndex": 24, "score": 67.85, "costs": -2.15, "simulationMode": [null, null, null, null, null, null], "rewards": [-2, 4, -5, -12, 85], "path": ["0", "0", "1", "2", "3", "4", "5"], "rt": [4561, 753, 115, 248, 111, 122], "actions": ["up", "up", "up", "up", "right", "up"], "actionTimes": [7760, 8525, 9175, 9955, 10601, 11260], "queries": {"click": {"state": {"target": ["11"], "time": [5486]}, "edge": {"target": [], "time": []}}, "mouseover": {"state": {"target": ["10", "11"], "time": [4648, 4881]}, "edge": {"target": [], "time": []}}, "mouseout": {"state": {"target": ["31", "0", "10", "11", "11", "26", "25", "30", "33"], "time": [1235, 4448, 4684, 7706, 20285, 21597, 21747, 22063, 23012]}, "edge": {"target": [], "time": []}}}, "displayed_time": "17.20", "trialTime": 23632, "trial_type": "mouselab-mdp", "trial_index": 35, "time_elapsed": 1949760, "internal_node_id": "0.0-4.0-1.0-20.0"}}, {"uniqueid": "w76723214:a47486811", "current_trial": 36, "dateTime": 1691072901874, "trialdata": {"revealed_states": [], "clicked_states": [], "num_clicks_accrued": [0, 0, 0, 0, 0, 0, 0, 0, 0, 0, 0, 0, 0], "stateRewards": ["", 2, -4, -4, 13, -80, 62, 13, -11, 57, -13, -44, 1, 4, 3, -4, -29, -88, 15, 16, -58, 68, -45, -1, -3, -1, -9, -44, -86, -19, -7, -36, 59, 66], "withholdReward": false, "trial_id": "mdp_trial_22", "block": "test", "trialIndex": 25, "score": 19, "costs": 0, "simulationMode": [null, null, null, null, null], "rewards": [1, 4, 3, -4, 15], "path": ["0", "0", "12", "13", "14", "15", "18"], "rt": [5431, 200, 248, 347, 113], "actions": ["right", "right", "right", "up", "left"], "actionTimes": [8845, 9575, 10357, 11239, 11899], "queries": {"click": {"state": {"target": [], "time": []}, "edge": {"target": [], "time": []}}, "mouseover": {"state": {"target": ["12", "17"], "time": [4504, 4897]}, "edge": {"target": [], "time": []}}, "mouseout": {"state": {"target": ["31", "23", "0", "12"], "time": [1565, 1782, 4470, 4536]}, "edge": {"target": [], "time": []}}}, "displayed_time": "17.41", "trialTime": 18059, "trial_type": "mouselab-mdp", "trial_index": 36, "time_elapsed": 1969411, "internal_node_id": "0.0-4.0-1.0-21.0"}}, {"uniqueid": "w76723214:a47486811", "current_trial": 37, "dateTime": 1691072924078, "trialdata": {"revealed_states": [], "clicked_states": [], "num_clicks_accrued": [0, 0, 0, 0, 0, 0, 0, 0, 0, 0, 0, 0, 0], "stateRewards": ["", 2, 3, 6, -12, -29, 12, 87, 4, 35, -30, 67, 2, 3, -5, -9, 44, 69, -8, 1, 45, -8, 28, -2, -1, -8, 11, -12, -5, 81, 9, 87, 82, 88], "withholdReward": false, "trial_id": "mdp_trial_23", "block": "test", "trialIndex": 26, "score": 86, "costs": 0, "simulationMode": [null, null, null, null, null], "rewards": [2, 3, 6, -12, 87], "path": ["0", "0", "1", "2", "3", "4", "7"], "rt": [4968, 143, 444, 77, 8], "actions": ["up", "up", "up", "right", "down"], "actionTimes": [8232, 8898, 9882, 10501, 11131], "queries": {"click": {"state": {"target": [], "time": []}, "edge": {"target": [], "time": []}}, "mouseover": {"state": {"target": ["0", "10", "11"], "time": [5190, 5407, 6340]}, "edge": {"target": [], "time": []}}, "mouseout": {"state": {"target": ["17", "12", "0", "10"], "time": [1060, 1276, 5258, 5724]}, "edge": {"target": [], "time": []}}}, "displayed_time": "17.26", "trialTime": 19978, "trial_type": "mouselab-mdp", "trial_index": 37, "time_elapsed": 1991616, "internal_node_id": "0.0-4.0-1.0-22.0"}}, {"uniqueid": "w76723214:a47486811", "current_trial": 38, "dateTime": 1691072945483, "trialdata": {"revealed_states": [], "clicked_states": [], "num_clicks_accrued": [0, 0, 0, 0, 0, 0, 0, 0, 0, 0, 0, 0, 0], "stateRewards": ["", 2, -1, -2, -5, -47, -57, -33, -11, 31, -18, -72, -2, 1, -4, -8, -46, -53, -50, 15, -85, -9, 39, -2, -2, 1, 14, -1, -8, 53, -12, -41, -74, 62], "withholdReward": false, "trial_id": "mdp_trial_24", "block": "test", "trialIndex": 27, "score": 64, "costs": 0, "simulationMode": [null, null, null, null, null], "rewards": [-2, -2, 1, 14, 53], "path": ["0", "0", "23", "24", "25", "26", "29"], "rt": [2317, 174, 426, 451, 531], "actions": ["left", "left", "left", "up", "left"], "actionTimes": [5708, 6411, 7374, 8353, 9416], "queries": {"click": {"state": {"target": [], "time": []}, "edge": {"target": [], "time": []}}, "mouseover": {"state": {"target": ["1"], "time": [4412]}, "edge": {"target": [], "time": []}}, "mouseout": {"state": {"target": ["11", "1", "18", "14"], "time": [1344, 4460, 12800, 12884]}, "edge": {"target": [], "time": []}}}, "displayed_time": "17.39", "trialTime": 18923, "trial_type": "mouselab-mdp", "trial_index": 38, "time_elapsed": 2013021, "internal_node_id": "0.0-4.0-1.0-23.0"}}, {"uniqueid": "w76723214:a47486811", "current_trial": 39, "dateTime": 1691072966490, "trialdata": {"revealed_states": [], "clicked_states": [], "num_clicks_accrued": [0, 0, 0, 0, 0, 0, 0, 0, 0, 0, 0, 0, 0], "stateRewards": ["", -1, -3, 4, -10, -5, 79, -87, -2, 53, 29, -20, -2, -1, -5, 10, 27, 86, 46, -16, -29, 40, 3, 2, 4, -1, -6, 37, 79, -29, 7, 86, -62, 29], "withholdReward": false, "trial_id": "mdp_trial_25", "block": "test", "trialIndex": 28, "score": 27, "costs": 0, "simulationMode": [null, null, null, null, null], "rewards": [-1, -3, 4, -2, 29], "path": ["0", "0", "1", "2", "3", "8", "10"], "rt": [4653, 61, 191, 491, 112], "actions": ["up", "up", "up", "left", "down"], "actionTimes": [7987, 8576, 9299, 10319, 10977], "queries": {"click": {"state": {"target": [], "time": []}, "edge": {"target": [], "time": []}}, "mouseover": {"state": {"target": ["10"], "time": [5748]}, "edge": {"target": [], "time": []}}, "mouseout": {"state": {"target": ["20", "19", "22", "12", "0", "10"], "time": [1452, 1503, 1552, 1636, 1735, 6700]}, "edge": {"target": [], "time": []}}}, "displayed_time": "17.34", "trialTime": 18427, "trial_type": "mouselab-mdp", "trial_index": 39, "time_elapsed": 2034027, "internal_node_id": "0.0-4.0-1.0-24.0"}}, {"uniqueid": "w76723214:a47486811", "current_trial": 40, "dateTime": 1691072989315, "trialdata": {"revealed_states": [], "clicked_states": [], "num_clicks_accrued": [0, 0, 0, 0, 0, 0, 0, 0, 0, 0, 0, 0, 0], "stateRewards": ["", -2, 4, 3, 5, -61, 4, 30, 1, -47, 83, 10, 1, 4, 7, -14, 19, -74, -83, 6, -2, -2, -65, -1, -2, 4, -11, 12, -1, -68, 11, -38, -28, 66], "withholdReward": false, "trial_id": "mdp_trial_26", "block": "test", "trialIndex": 29, "score": -78, "costs": 0, "simulationMode": [null, null, null, null, null], "rewards": [-1, -2, 4, -11, -68], "path": ["0", "0", "23", "24", "25", "26", "29"], "rt": [5519, 332, 101, 79, 208], "actions": ["left", "left", "left", "up", "left"], "actionTimes": [8328, 9209, 9849, 10463, 11241], "queries": {"click": {"state": {"target": [], "time": []}, "edge": {"target": [], "time": []}}, "mouseover": {"state": {"target": ["1", "10", "11", "10"], "time": [5640, 5740, 5873, 6506]}, "edge": {"target": [], "time": []}}, "mouseout": {"state": {"target": ["0", "1", "10", "11", "10"], "time": [3954, 5673, 5808, 6439, 6528]}, "edge": {"target": [], "time": []}}}, "displayed_time": "16.81", "trialTime": 21262, "trial_type": "mouselab-mdp", "trial_index": 40, "time_elapsed": 2056852, "internal_node_id": "0.0-4.0-1.0-25.0"}}, {"uniqueid": "w76723214:a47486811", "current_trial": 41, "dateTime": 1691073010492, "trialdata": {"revealed_states": [], "clicked_states": [], "num_clicks_accrued": [0, 0, 0, 0, 0, 0, 0, 0, 0, 0, 0, 0, 0], "stateRewards": ["", 1, 1, 5, 6, -29, -7, 3, -16, 9, -46, 65, -1, 4, -1, -16, -63, -77, -87, 8, 80, -50, 43, -1, -1, -5, 5, -38, -71, -62, 9, 81, -50, -52], "withholdReward": false, "trial_id": "mdp_trial_27", "block": "test", "trialIndex": 30, "score": -50, "costs": 0, "simulationMode": [null, null, null, null, null], "rewards": [-1, -1, -5, 9, -52], "path": ["0", "0", "23", "24", "25", "30", "33"], "rt": [5597, 483, 259, 27, 156], "actions": ["left", "left", "left", "down", "left"], "actionTimes": [8275, 9303, 10098, 10660, 11367], "queries": {"click": {"state": {"target": [], "time": []}, "edge": {"target": [], "time": []}}, "mouseover": {"state": {"target": ["23", "24", "30", "30", "33"], "time": [3946, 4197, 4729, 5096, 5345]}, "edge": {"target": [], "time": []}}, "mouseout": {"state": {"target": ["23", "24", "30", "30"], "time": [4028, 4629, 4997, 5244]}, "edge": {"target": [], "time": []}}}, "displayed_time": "16.68", "trialTime": 18750, "trial_type": "mouselab-mdp", "trial_index": 41, "time_elapsed": 2078030, "internal_node_id": "0.0-4.0-1.0-26.0"}}, {"uniqueid": "w76723214:a47486811", "current_trial": 42, "dateTime": 1691073031924, "trialdata": {"revealed_states": [], "clicked_states": [], "num_clicks_accrued": [0, 0, 0, 0, 0, 0, 0, 0, 0, 0, 0, 0, 0], "stateRewards": ["", 2, 4, -5, 7, 81, 35, 6, 11, 14, -72, 42, -1, 2, 3, -7, -77, -44, -40, -15, -85, 51, -32, -2, -1, -5, 7, -74, 47, 52, 16, -49, 48, -46], "withholdReward": false, "trial_id": "mdp_trial_28", "block": "test", "trialIndex": 31, "score": -47, "costs": 0, "simulationMode": [null, null, null, null, null], "rewards": [-1, 2, 3, -7, -44], "path": ["0", "0", "12", "13", "14", "15", "17"], "rt": [5410, 25, 655, 105, 341], "actions": ["right", "right", "right", "up", "right"], "actionTimes": [8139, 8700, 9901, 10556, 11432], "queries": {"click": {"state": {"target": [], "time": []}, "edge": {"target": [], "time": []}}, "mouseover": {"state": {"target": ["12", "13", "19", "20"], "time": [3762, 3864, 4226, 4526]}, "edge": {"target": [], "time": []}}, "mouseout": {"state": {"target": ["0", "12", "13", "19", "20"], "time": [3727, 3828, 3926, 4410, 13550]}, "edge": {"target": [], "time": []}}}, "displayed_time": "16.73", "trialTime": 18350, "trial_type": "mouselab-mdp", "trial_index": 42, "time_elapsed": 2099461, "internal_node_id": "0.0-4.0-1.0-27.0"}}, {"uniqueid": "w76723214:a47486811", "current_trial": 43, "dateTime": 1691073060797, "trialdata": {"revealed_states": [], "clicked_states": ["11", "6", "5"], "num_clicks_accrued": [0, 0, 0, 0, 0, 0, 0, 0, 0, 0, 0, 0, 0], "stateRewards": ["", -2, 1, -7, 9, 8, 25, 61, -7, -17, 69, -81, 1, 4, -4, -11, 16, 67, 44, 3, 6, -45, -54, -2, 3, 6, -11, -15, 32, -47, 3, -39, -6, -88], "withholdReward": false, "trial_id": "mdp_trial_29", "block": "test", "trialIndex": 32, "score": -38.45, "costs": -6.449999999999999, "simulationMode": [null, null, null, null, null], "rewards": [-2, 1, -7, -7, -17], "path": ["0", "0", "1", "2", "3", "8", "9"], "rt": [11568, 20, 680, 427, 65], "actions": ["up", "up", "up", "left", "up"], "actionTimes": [14970, 15593, 16812, 17762, 18354], "queries": {"click": {"state": {"target": ["11", "6", "5"], "time": [5687, 8581, 11679]}, "edge": {"target": [], "time": []}}, "mouseover": {"state": {"target": ["1", "2", "3", "8", "11", "7", "6", "4", "5"], "time": [4605, 4674, 4769, 4885, 5004, 7746, 7938, 9678, 9928]}, "edge": {"target": [], "time": []}}, "mouseout": {"state": {"target": ["14", "13", "12", "1", "2", "3", "8", "11", "7", "6", "4", "5"], "time": [1003, 1054, 1104, 4637, 4703, 4802, 4937, 6759, 7852, 9615, 9777, 12803]}, "edge": {"target": [], "time": []}}}, "displayed_time": "18.89", "trialTime": 25953, "trial_type": "mouselab-mdp", "trial_index": 43, "time_elapsed": 2128334, "internal_node_id": "0.0-4.0-1.0-28.0"}}, {"uniqueid": "w76723214:a47486811", "current_trial": 44, "dateTime": 1691073080330, "trialdata": {"revealed_states": [], "clicked_states": [], "num_clicks_accrued": [0, 0, 0, 0, 0, 0, 0, 0, 0, 0, 0, 0, 0], "stateRewards": ["", 1, 4, 5, 8, -55, -11, 8, 16, -37, 77, -22, -2, 3, -8, -10, 45, 87, -67, 4, 17, -33, -22, -1, -3, 7, 6, -39, -85, 75, -1, 7, -48, 45], "withholdReward": false, "trial_id": "mdp_trial_30", "block": "test", "trialIndex": 33, "score": -25, "costs": 0, "simulationMode": [null, null, null, null, null], "rewards": [-2, 3, -8, 4, -22], "path": ["0", "0", "12", "13", "14", "19", "22"], "rt": [5080, 609, 181, 110, 297], "actions": ["right", "right", "right", "down", "left"], "actionTimes": [8352, 9502, 10249, 10888, 11733], "queries": {"click": {"state": {"target": [], "time": []}, "edge": {"target": [], "time": []}}, "mouseover": {"state": {"target": ["15", "14", "22"], "time": [4883, 5268, 6215]}, "edge": {"target": [], "time": []}}, "mouseout": {"state": {"target": ["2", "1", "15", "14", "22"], "time": [1785, 1885, 5181, 6017, 14275]}, "edge": {"target": [], "time": []}}}, "displayed_time": "17.27", "trialTime": 17878, "trial_type": "mouselab-mdp", "trial_index": 44, "time_elapsed": 2147866, "internal_node_id": "0.0-4.0-1.0-29.0"}}, {"uniqueid": "w76723214:a47486811", "current_trial": 45, "dateTime": 1691073102179, "trialdata": {"revealed_states": [], "clicked_states": [], "num_clicks_accrued": [0, 0, 0, 0, 0, 0, 0, 0, 0, 0, 0, 0, 0], "stateRewards": ["", -1, 4, -3, 3, 57, -61, 5, -11, 23, -1, 34, -2, -4, -1, -13, 27, 38, -36, 4, -45, 21, 88, 1, -2, -1, 1, -69, -5, -78, -12, -9, 38, -54], "withholdReward": false, "trial_id": "mdp_trial_31", "block": "test", "trialIndex": 34, "score": -6, "costs": 0, "simulationMode": [null, null, null, null, null], "rewards": [1, -2, -1, 1, -5], "path": ["0", "0", "23", "24", "25", "26", "28"], "rt": [4388, 86, 319, 11, 68], "actions": ["left", "left", "left", "up", "right"], "actionTimes": [7426, 8053, 8914, 9453, 10052], "queries": {"click": {"state": {"target": [], "time": []}, "edge": {"target": [], "time": []}}, "mouseover": {"state": {"target": ["23", "24", "25", "30", "33", "25", "28"], "time": [3846, 3912, 4011, 4478, 4744, 5211, 5727]}, "edge": {"target": [], "time": []}}, "mouseout": {"state": {"target": ["22", "0", "23", "24", "25", "30", "33", "25", "28", "23"], "time": [1197, 1496, 3883, 3962, 4112, 4663, 5162, 5250, 17319, 18964]}, "edge": {"target": [], "time": []}}}, "displayed_time": "17.04", "trialTime": 19326, "trial_type": "mouselab-mdp", "trial_index": 45, "time_elapsed": 2169716, "internal_node_id": "0.0-4.0-1.0-30.0"}}, {"uniqueid": "w76723214:a47486811", "current_trial": 46, "dateTime": 1691073124137, "trialdata": {"revealed_states": [], "clicked_states": ["8", "9"], "num_clicks_accrued": [0, 0, 0, 0, 0, 0, 0, 0, 0, 0, 0, 0, 0], "stateRewards": ["", -2, 3, 3, -14, 62, 36, 49, 16, 11, 17, -84, 2, -1, 6, 2, -82, -73, 49, -6, -87, 48, 50, -1, -2, -1, -16, -11, 37, -44, 4, 55, 73, -10], "withholdReward": false, "trial_id": "mdp_trial_32", "block": "test", "trialIndex": 35, "score": 35.3, "costs": -3.7, "simulationMode": [null, null, null, null, null], "rewards": [-2, 3, 3, -14, 49], "path": ["0", "0", "1", "2", "3", "4", "7"], "rt": [8744, 195, 166, 219, 11], "actions": ["up", "up", "up", "right", "down"], "actionTimes": [11211, 11954, 12662, 13410, 13947], "queries": {"click": {"state": {"target": ["8", "9"], "time": [5336, 7864]}, "edge": {"target": [], "time": []}}, "mouseover": {"state": {"target": ["1", "2", "8", "9", "3"], "time": [3787, 4121, 4887, 6335, 9561]}, "edge": {"target": [], "time": []}}, "mouseout": {"state": {"target": ["0", "1", "2", "8", "9", "3", "4", "2", "23"], "time": [3690, 3989, 4222, 6290, 9211, 9691, 18424, 18506, 18689]}, "edge": {"target": [], "time": []}}}, "displayed_time": "16.47", "trialTime": 18980, "trial_type": "mouselab-mdp", "trial_index": 46, "time_elapsed": 2191674, "internal_node_id": "0.0-4.0-1.0-31.0"}}, {"uniqueid": "w76723214:a47486811", "current_trial": 47, "dateTime": 1691073144080, "trialdata": {"revealed_states": [], "clicked_states": ["33"], "num_clicks_accrued": [0, 0, 0, 0, 0, 0, 0, 0, 0, 0, 0, 0, 0], "stateRewards": ["", -1, -2, -8, 8, -27, -82, 19, -14, -62, 4, 1, -2, 2, 6, 10, 73, -51, -2, 2, 73, -48, 54, -1, 2, -4, 11, -25, 47, 86, 15, 33, 43, -42], "withholdReward": false, "trial_id": "mdp_trial_33", "block": "test", "trialIndex": 36, "score": 52.85, "costs": -2.15, "simulationMode": [null, null, null, null, null, null], "rewards": [-1, 2, -4, 15, 43], "path": ["0", "0", "23", "24", "25", "30", "32"], "rt": [3900, 335, 369, 325, 140, 300], "actions": ["left", "left", "left", "left", "down", "down"], "actionTimes": [6352, 6699, 7604, 8410, 9090, 9929], "queries": {"click": {"state": {"target": ["33"], "time": [4722]}, "edge": {"target": [], "time": []}}, "mouseover": {"state": {"target": ["23", "24", "25", "33", "25"], "time": [3502, 3573, 3642, 3934, 5903]}, "edge": {"target": [], "time": []}}, "mouseout": {"state": {"target": ["23", "24", "25", "33"], "time": [3541, 3610, 3701, 5779]}, "edge": {"target": [], "time": []}}}, "displayed_time": "16.45", "trialTime": 17109, "trial_type": "mouselab-mdp", "trial_index": 47, "time_elapsed": 2211617, "internal_node_id": "0.0-4.0-1.0-32.0"}}, {"uniqueid": "w76723214:a47486811", "current_trial": 48, "dateTime": 1691073165656, "trialdata": {"revealed_states": [], "clicked_states": [], "num_clicks_accrued": [0, 0, 0, 0, 0, 0, 0, 0, 0, 0, 0, 0, 0], "stateRewards": ["", 2, -3, -8, 14, -7, -51, 73, 2, 36, 36, -43, -1, 3, -4, 1, 6, 87, -65, 15, 61, -42, -83, -1, 3, -2, -7, 30, -48, 35, 13, 26, 60, 78], "withholdReward": false, "trial_id": "mdp_trial_34", "block": "test", "trialIndex": 37, "score": -66, "costs": 0, "simulationMode": [null, null, null, null, null], "rewards": [-1, 3, -4, 1, -65], "path": ["0", "0", "12", "13", "14", "15", "18"], "rt": [5399, 460, 584, 500, 23], "actions": ["right", "right", "right", "up", "left"], "actionTimes": [9948, 10951, 12144, 13304, 13866], "queries": {"click": {"state": {"target": [], "time": []}, "edge": {"target": [], "time": []}}, "mouseover": {"state": {"target": ["0", "0", "13", "14", "15", "18"], "time": [4972, 5257, 6054, 6357, 6805, 7170]}, "edge": {"target": [], "time": []}}, "mouseout": {"state": {"target": ["25", "1", "0", "0", "13", "14", "15"], "time": [1028, 1343, 5038, 5389, 6205, 6546, 7021]}, "edge": {"target": [], "time": []}}}, "displayed_time": "18.55", "trialTime": 19209, "trial_type": "mouselab-mdp", "trial_index": 48, "time_elapsed": 2233193, "internal_node_id": "0.0-4.0-1.0-33.0"}}, {"uniqueid": "w76723214:a47486811", "current_trial": 49, "dateTime": 1691073190438, "trialdata": {"revealed_states": [], "clicked_states": ["11", "5", "6"], "num_clicks_accrued": [0, 0, 0, 0, 0, 0, 0, 0, 0, 0, 0, 0, 0], "stateRewards": ["", -2, 2, -5, 1, 42, -63, -58, -6, 2, 16, 81, -2, 4, 7, -10, 33, 3, -33, -2, -52, -84, -27, 2, -3, -3, 15, -74, -14, -5, -5, -84, 79, -31], "withholdReward": false, "trial_id": "mdp_trial_35", "block": "test", "trialIndex": 38, "score": 31.55, "costs": -6.449999999999999, "simulationMode": [null, null, null, null, null, null], "rewards": [-2, 2, -5, 1, 42], "path": ["0", "0", "1", "2", "3", "4", "5"], "rt": [11591, 578, 487, 190, 13, 624], "actions": ["up", "up", "up", "up", "right", "up"], "actionTimes": [15489, 16076, 17106, 17840, 18393, 19569], "queries": {"click": {"state": {"target": ["11", "5", "6"], "time": [5906, 9402, 12700]}, "edge": {"target": [], "time": []}}, "mouseover": {"state": {"target": ["4", "3", "8", "11", "8", "3", "4", "5", "6"], "time": [4986, 5047, 5136, 5304, 7014, 7481, 8453, 8897, 10632]}, "edge": {"target": [], "time": []}}, "mouseout": {"state": {"target": ["18", "0", "4", "3", "8", "11", "11", "8", "3", "4", "5"], "time": [1620, 4707, 5020, 5103, 5217, 5924, 6972, 7221, 8384, 8529, 10416]}, "edge": {"target": [], "time": []}}}, "displayed_time": "20.11", "trialTime": 22175, "trial_type": "mouselab-mdp", "trial_index": 49, "time_elapsed": 2257974, "internal_node_id": "0.0-4.0-1.0-34.0"}}, {"uniqueid": "w76723214:a47486811", "current_trial": 50, "dateTime": 1691073211598, "trialdata": {"revealed_states": [], "clicked_states": [], "num_clicks_accrued": [0, 0, 0, 0, 0, 0, 0, 0, 0, 0, 0, 0, 0], "stateRewards": ["", 1, 4, -8, -5, -15, -7, 21, 13, -30, 40, -65, 1, 1, 5, -14, 35, 27, -38, -11, 36, -58, -47, -2, 4, -3, 13, -16, -49, 22, 15, -56, -44, -10], "withholdReward": false, "trial_id": "mdp_trial_36", "block": "test", "trialIndex": 39, "score": -37, "costs": 0, "simulationMode": [null, null, null, null, null], "rewards": [-2, 4, -3, 13, -49], "path": ["0", "0", "23", "24", "25", "26", "28"], "rt": [3093, 19, 446, 519, 48], "actions": ["left", "left", "left", "up", "right"], "actionTimes": [6416, 6966, 7992, 9059, 9655], "queries": {"click": {"state": {"target": [], "time": []}, "edge": {"target": [], "time": []}}, "mouseover": {"state": {"target": [], "time": []}, "edge": {"target": [], "time": []}}, "mouseout": {"state": {"target": ["20", "22", "0"], "time": [949, 1097, 1610]}, "edge": {"target": [], "time": []}}}, "displayed_time": "17.32", "trialTime": 18051, "trial_type": "mouselab-mdp", "trial_index": 50, "time_elapsed": 2279135, "internal_node_id": "0.0-4.0-1.0-35.0"}}, {"uniqueid": "w76723214:a47486811", "current_trial": 51, "dateTime": 1691073233767, "trialdata": {"revealed_states": [], "clicked_states": [], "num_clicks_accrued": [0, 0, 0, 0, 0, 0, 0, 0, 0, 0, 0, 0, 0], "stateRewards": ["", 2, -4, 4, 9, 69, 9, -75, 12, -86, 66, 25, -1, 3, 2, -13, -88, -3, 1, 4, -69, 49, -84, 2, -1, 4, 2, -18, -81, -52, -15, -69, -54, 25], "withholdReward": false, "trial_id": "mdp_trial_37", "block": "test", "trialIndex": 40, "score": -64, "costs": 0, "simulationMode": [null, null, null, null, null], "rewards": [2, -1, 4, -15, -54], "path": ["0", "0", "23", "24", "25", "30", "32"], "rt": [5322, 510, 134, 16, 266], "actions": ["left", "left", "left", "down", "down"], "actionTimes": [8230, 9301, 9978, 10523, 11327], "queries": {"click": {"state": {"target": [], "time": []}, "edge": {"target": [], "time": []}}, "mouseover": {"state": {"target": ["0", "23", "24", "25", "26", "29", "26", "25", "30", "33"], "time": [4073, 4165, 4220, 4471, 5356, 5599, 5934, 6199, 6431, 6533]}, "edge": {"target": [], "time": []}}, "mouseout": {"state": {"target": ["0", "0", "23", "24", "25", "26", "29", "26", "25", "30"], "time": [1503, 4121, 4213, 4270, 5333, 5405, 5834, 6150, 6331, 6457]}, "edge": {"target": [], "time": []}}}, "displayed_time": "16.91", "trialTime": 18815, "trial_type": "mouselab-mdp", "trial_index": 51, "time_elapsed": 2301304, "internal_node_id": "0.0-4.0-1.0-36.0"}}, {"uniqueid": "w76723214:a47486811", "current_trial": 52, "dateTime": 1691073255865, "trialdata": {"revealed_states": [], "clicked_states": [], "num_clicks_accrued": [0, 0, 0, 0, 0, 0, 0, 0, 0, 0, 0, 0, 0], "stateRewards": ["", -2, 3, -1, -9, 44, 48, -37, -3, 71, -39, 87, -1, 3, -4, 4, -21, 59, -15, -8, -1, 28, -38, 2, 4, 4, 8, -85, -72, -63, 14, 58, 63, -46], "withholdReward": false, "trial_id": "mdp_trial_38", "block": "test", "trialIndex": 41, "score": -42, "costs": 0, "simulationMode": [null, null, null, null, null], "rewards": [-2, 3, -1, -3, -39], "path": ["0", "0", "1", "2", "3", "8", "10"], "rt": [5027, 530, 175, 49, 189], "actions": ["up", "up", "up", "left", "down"], "actionTimes": [8112, 9174, 9948, 10538, 11284], "queries": {"click": {"state": {"target": [], "time": []}, "edge": {"target": [], "time": []}}, "mouseover": {"state": {"target": ["2", "8", "11", "8", "10"], "time": [3763, 3980, 5262, 6096, 6210]}, "edge": {"target": [], "time": []}}, "mouseout": {"state": {"target": ["33", "30", "24", "23", "2", "8", "11", "8", "10", "2", "1", "25"], "time": [1166, 1247, 1368, 1581, 3846, 4148, 6044, 6124, 14316, 15104, 18134, 18282]}, "edge": {"target": [], "time": []}}}, "displayed_time": "17.09", "trialTime": 19514, "trial_type": "mouselab-mdp", "trial_index": 52, "time_elapsed": 2323403, "internal_node_id": "0.0-4.0-1.0-37.0"}}, {"uniqueid": "w76723214:a47486811", "current_trial": 53, "dateTime": 1691073283758, "trialdata": {"revealed_states": [], "clicked_states": ["7", "6", "9", "20"], "num_clicks_accrued": [0, 0, 0, 0, 0, 0, 0, 0, 0, 0, 0, 0, 0], "stateRewards": ["", -2, 3, 8, -9, 59, 41, -50, -1, 82, 66, 33, 2, -2, 7, 8, 1, -38, 12, -16, 24, -37, 67, 1, 4, -2, 5, 35, -83, 28, 8, -27, 69, -64], "withholdReward": false, "trial_id": "mdp_trial_39", "block": "test", "trialIndex": 42, "score": 81.4, "costs": -8.6, "simulationMode": [null, null, null, null, null], "rewards": [-2, 3, 8, -1, 82], "path": ["0", "0", "1", "2", "3", "8", "9"], "rt": [14704, 517, 203, 420, 34], "actions": ["up", "up", "up", "left", "up"], "actionTimes": [17772, 18839, 19588, 20558, 21127], "queries": {"click": {"state": {"target": ["7", "6", "9", "20"], "time": [4787, 8366, 11501, 14979]}, "edge": {"target": [], "time": []}}, "mouseover": {"state": {"target": ["7", "7", "6", "4", "3", "9", "3", "18", "15", "20"], "time": [3854, 4269, 6505, 9628, 9740, 9955, 13224, 13330, 13378, 13673]}, "edge": {"target": [], "time": []}}, "mouseout": {"state": {"target": ["31", "23", "0", "7", "7", "6", "4", "3", "9", "3", "18", "15"], "time": [908, 1237, 1455, 3903, 5952, 9537, 9703, 9845, 13214, 13261, 13368, 13415]}, "edge": {"target": [], "time": []}}}, "displayed_time": "21.66", "trialTime": 24669, "trial_type": "mouselab-mdp", "trial_index": 53, "time_elapsed": 2351295, "internal_node_id": "0.0-4.0-1.0-38.0"}}, {"uniqueid": "w76723214:a47486811", "current_trial": 54, "dateTime": 1691073315985, "trialdata": {"revealed_states": [], "clicked_states": [], "num_clicks_accrued": [0, 0, 0, 0, 0, 0, 0, 0, 0, 0, 0, 0, 0], "stateRewards": ["", 1, -2, -3, 14, -42, -87, -37, -11, -50, 33, -44, -2, 4, -7, 13, 48, -75, -66, 12, 23, -2, 82, 1, -4, 3, 12, 51, -15, -26, -11, -52, -29, 82], "withholdReward": false, "trial_id": "mdp_trial_40", "block": "test", "trialIndex": 43, "score": 56, "costs": 0, "simulationMode": [null, null, null, null, null], "rewards": [-2, 4, -7, 13, 48], "path": ["0", "0", "12", "13", "14", "15", "16"], "rt": [5004, 706, 173, 23, 516], "actions": ["right", "right", "right", "up", "up"], "actionTimes": [18980, 20231, 20955, 21499, 22547], "queries": {"click": {"state": {"target": [], "time": []}, "edge": {"target": [], "time": []}}, "mouseover": {"state": {"target": ["12", "18", "6", "5"], "time": [15021, 15589, 16022, 16420]}, "edge": {"target": [], "time": []}}, "mouseout": {"state": {"target": ["20", "22", "0", "0", "12", "18", "6", "5"], "time": [1617, 2282, 8093, 14970, 15088, 15939, 16169, 27576]}, "edge": {"target": [], "time": []}}}, "displayed_time": "27.98", "trialTime": 29418, "trial_type": "mouselab-mdp", "trial_index": 54, "time_elapsed": 2383522, "internal_node_id": "0.0-4.0-1.0-39.0"}}, {"uniqueid": "w76723214:a47486811", "current_trial": 55, "dateTime": 1691073425693, "trialdata": {"rt": 109700, "response": {"Q0": "$-88 to $88", "Q1": "$-16 to $16", "Q2": "$-88 to $88", "Q3": "The cost for clicking on nodes varied between nodes.", "Q4": "Very motivated"}, "question_order": [0, 1, 2, 3, 4], "trial_id": "final_quiz_control", "trial_type": "survey-multi-choice", "trial_index": 55, "time_elapsed": 2493230, "internal_node_id": "0.0-4.0-2.0"}}, {"uniqueid": "w76723214:a47486811", "current_trial": 56, "dateTime": 1691073660284, "trialdata": {"rt": 234567, "response": {"Q0": "I tried reaching for the higher up nodes or the lower nodes, I scored more there, I think.", "Q1": "no, it got better for a minute, and then I started getting major losses", "Q2": "Trying to balance how much I use to inspect nodes beforehand, and dealing with predicting a pattern of values that seemed more random."}, "trial_id": "self_report_control", "trial_type": "survey-text", "trial_index": 56, "time_elapsed": 2727821, "internal_node_id": "0.0-4.0-3.0"}}, {"uniqueid": "w76723214:a47486811", "current_trial": 57, "dateTime": 1691073757782, "trialdata": {"rt": 97484, "response": {"Q0": "Agree", "Q1": "Neither disagree nor agree", "Q2": "Agree", "Q3": "Disagree", "Q4": "Neither disagree nor agree", "Q5": "Agree", "Q6": "Disagree"}, "question_order": [0, 1, 2, 3, 4, 5, 6], "trial_id": "self_report_2", "trial_type": "survey-multi-choice", "trial_index": 57, "time_elapsed": 2825319, "internal_node_id": "0.0-4.0-4.0"}}, {"uniqueid": "w76723214:a47486811", "current_trial": 58, "dateTime": 1691073793165, "trialdata": {"rt": 35370, "response": {"gender": "male", "age": "29", "colorblind": "0", "effort": "0"}, "trial_type": "survey-html-form", "trial_index": 58, "time_elapsed": 2860703, "internal_node_id": "0.0-4.0-5.0"}}, {"uniqueid": "w76723214:a47486811", "current_trial": 59, "dateTime": 1691073836577, "trialdata": {"rt": 43392, "response": {"Q0": "no", "Q1": "no, it was my first time seeing a game like this", "Q2": ""}, "trial_type": "survey-text", "trial_index": 59, "time_elapsed": 2904115, "internal_node_id": "0.0-4.0-6.0"}}, {"uniqueid": "w76723214:a47486811", "current_trial": 60, "dateTime": 1691073844981, "trialdata": {"rt": 8393, "stimulus": "Press 'Finish HIT' in order to reach the completion code. Once the data has been saved, you will receive the code either in this window or in the original browser window where you started the experiment.\n", "response": 0, "trial_type": "html-button-response", "trial_index": 60, "time_elapsed": 2912519, "internal_node_id": "0.0-5.0"}}, {"uniqueid": "w76723214:a47486811", "current_trial": 61, "dateTime": 1691073845988, "trialdata": {"success": true, "trial_type": "fullscreen", "trial_index": 61, "time_elapsed": 2913526, "internal_node_id": "0.0-6.0"}}], "questiondata": {"params": {"CODE": "C6DMOQA6", "MIN_TIME": 14, "inspectCost": 1, "startTime": "Thu Aug 03 2023 15:55:28 GMT+0200 (South Africa Standard Time)", "bonusRate": 0.002, "variance": "1_2_4_8_44", "branching": "31123"}, "final_score": 140.25}, "eventdata": [{"eventtype": "initialized", "value": null, "timestamp": 1691070928145, "interval": 0}, {"eventtype": "window_resize", "value": [1024, 664], "timestamp": 1691070928146, "interval": 1}, {"eventtype": "window_resize", "value": [1024, 664], "timestamp": 1691070928674, "interval": 528}, {"eventtype": "window_resize", "value": [1366, 768], "timestamp": 1691070937316, "interval": 8642}, {"eventtype": "focus", "value": "off", "timestamp": 1691071837702, "interval": 900386}, {"eventtype": "focus", "value": "on", "timestamp": 1691071837703, "interval": 1}, {"eventtype": "window_resize", "value": [1024, 664], "timestamp": 1691071837935, "interval": 232}, {"eventtype": "window_resize", "value": [1366, 768], "timestamp": 1691071840606, "interval": 2671}, {"eventtype": "window_resize", "value": [1024, 664], "timestamp": 1691073845370, "interval": 2004764}], "useragent": "Mozilla/5.0 (Windows NT 10.0; Win64; x64) AppleWebKit/537.36 (KHTML, like Gecko) Chrome/115.0.0.0 Safari/537.36", "mode": "live", "id": "w76723214:a47486811", "status": "user data saved", "Beginhit": "2023-08-03 13:55:21.677636", "Beginexp": "2023-08-03 13:55:38.696617", "Endhit": "2023-08-03 14:44:08.601724", "psiturkStatus": 3, "browser": "<redacted>", "platform": "windows", "language": "en-US"}