{"condition": 1, "counterbalance": 0, "assignmentId": "a45369919", "workerId": "w37402854", "hitId": "h65388660", "currenttrial": 62, "bonus": 0, "data": [{"uniqueid": "w37402854:a45369919", "current_trial": 0, "dateTime": 1693580130276, "trialdata": {"success": true, "trial_type": "fullscreen", "trial_index": 0, "time_elapsed": 4050, "internal_node_id": "0.0-0.0"}}, {"uniqueid": "w37402854:a45369919", "current_trial": 1, "dateTime": 1693580142669, "trialdata": {"view_history": [{"page_index": 0, "viewing_time": 12386}], "rt": 12386, "trial_id": "exp_instructions_misaligned", "trial_type": "instructions", "trial_index": 1, "time_elapsed": 16444, "internal_node_id": "0.0-1.0"}}, {"uniqueid": "w37402854:a45369919", "current_trial": 2, "dateTime": 1693580237285, "trialdata": {"view_history": [{"page_index": 0, "viewing_time": 34211}, {"page_index": 1, "viewing_time": 45304}, {"page_index": 2, "viewing_time": 12535}, {"page_index": 3, "viewing_time": 2554}], "rt": 94605, "trial_id": "mouselab_instructions_1_misaligned", "trial_type": "instructions", "trial_index": 2, "time_elapsed": 111060, "internal_node_id": "0.0-2.0-1.0"}}, {"uniqueid": "w37402854:a45369919", "current_trial": 3, "dateTime": 1693580256855, "trialdata": {"revealed_states": [], "clicked_states": [], "num_clicks_accrued": [0, 0, 0, 0, 0, 0, 0, 0, 0, 0, 0, 0, 0], "stateRewards": ["", 10, -10, 10, 10, -10, -10, 10, 10, 10, -10, -10, 10, 10, -10, 10, 10, -10, 10, -10, -10, -10, 10, 10, -10, 10, 10, -10, -10, 10, 10, -10, 10, 10], "withholdReward": false, "trial_id": "practice_1", "block": "test", "trialIndex": 0, "score": 13.5, "costs": 0, "simulationMode": [null, null, null, null, null], "rewards": [10, 10, -10, -10, 10], "path": ["0", "0", "12", "13", "14", "19", "22"], "rt": [2588, 2303, 1415, 1814, 2855], "actions": ["right", "right", "right", "down", "left"], "actionTimes": [5019, 7847, 9786, 12118, 15493], "queries": {"click": {"state": {"target": [], "time": []}, "edge": {"target": [], "time": []}}, "mouseover": {"state": {"target": [], "time": []}, "edge": {"target": [], "time": []}}, "mouseout": {"state": {"target": [], "time": []}, "edge": {"target": [], "time": []}}}, "displayed_time": "16.00", "trialTime": 18679, "trial_type": "mouselab-mdp", "trial_index": 3, "time_elapsed": 130629, "internal_node_id": "0.0-2.0-2.0-0.0"}}, {"uniqueid": "w37402854:a45369919", "current_trial": 4, "dateTime": 1693580267164, "trialdata": {"revealed_states": [], "clicked_states": [], "num_clicks_accrued": [0, 0, 0, 0, 0, 0, 0, 0, 0, 0, 0, 0, 0], "stateRewards": ["", 10, 10, 10, -10, 10, 10, 10, -10, -10, -10, 10, 10, 10, 10, -10, 10, -10, -10, 10, -10, -10, -10, 10, -10, -10, 10, -10, 10, -10, -10, 10, -10, -10], "withholdReward": false, "trial_id": "practice_2", "block": "test", "trialIndex": 1, "score": 33.5, "costs": 0, "simulationMode": [null, null, null, null, null], "rewards": [10, 10, 10, -10, 10], "path": ["0", "0", "1", "2", "3", "4", "5"], "rt": [1376, 309, 294, 319, 281], "actions": ["up", "up", "up", "right", "up"], "actionTimes": [3373, 4208, 5028, 5868, 6645], "queries": {"click": {"state": {"target": [], "time": []}, "edge": {"target": [], "time": []}}, "mouseover": {"state": {"target": [], "time": []}, "edge": {"target": [], "time": []}}, "mouseout": {"state": {"target": ["0", "0"], "time": [1081, 8591]}, "edge": {"target": [], "time": []}}}, "displayed_time": "7.16", "trialTime": 9525, "trial_type": "mouselab-mdp", "trial_index": 4, "time_elapsed": 140938, "internal_node_id": "0.0-2.0-2.0-1.0"}}, {"uniqueid": "w37402854:a45369919", "current_trial": 5, "dateTime": 1693580302644, "trialdata": {"view_history": [{"page_index": 0, "viewing_time": 33506}, {"page_index": 1, "viewing_time": 1971}], "rt": 35477, "trial_id": "mouselab_instructions_2_misaligned", "trial_type": "instructions", "trial_index": 5, "time_elapsed": 176419, "internal_node_id": "0.0-2.0-3.0"}}, {"uniqueid": "w37402854:a45369919", "current_trial": 6, "dateTime": 1693580334775, "trialdata": {"rt": 32125, "response": {"Q0": "The cost for clicking on nodes may vary between nodes.", "Q1": "The better I perform the higher my bonus will be.", "Q2": "No, the amount of cash at each node of the web may be different each time.", "Q3": "To get the highest total score.", "Q4": "Any time during the round.", "Q5": "3 seconds"}, "question_order": [0, 1, 2, 3, 4, 5], "correct": {"Q0": "The cost for clicking on nodes may vary between nodes.", "Q1": "The better I perform the higher my bonus will be.", "Q2": "No, the amount of cash at each node of the web may be different each time.", "Q3": "To get the highest total score.", "Q4": "Only before moving the spider.", "Q5": "3 seconds"}, "trial_id": "mouselab_quiz_misaligned", "trial_type": "survey-multi-choice", "trial_index": 6, "time_elapsed": 208550, "internal_node_id": "0.0-2.0-4.0"}}, {"uniqueid": "w37402854:a45369919", "current_trial": 7, "dateTime": 1693580342332, "trialdata": {"success": true, "trial_type": "fullscreen", "trial_index": 7, "time_elapsed": 216106, "internal_node_id": "0.0-2.1-0.1-0.1"}}, {"uniqueid": "w37402854:a45369919", "current_trial": 8, "dateTime": 1693580348920, "trialdata": {"view_history": [{"page_index": 0, "viewing_time": 2093}, {"page_index": 1, "viewing_time": 1864}, {"page_index": 2, "viewing_time": 1665}, {"page_index": 3, "viewing_time": 962}], "rt": 6584, "trial_id": "mouselab_instructions_1_misaligned", "trial_type": "instructions", "trial_index": 8, "time_elapsed": 222695, "internal_node_id": "0.0-2.1-1.1"}}, {"uniqueid": "w37402854:a45369919", "current_trial": 9, "dateTime": 1693580356740, "trialdata": {"revealed_states": [], "clicked_states": [], "num_clicks_accrued": [0, 0, 0, 0, 0, 0, 0, 0, 0, 0, 0, 0, 0], "stateRewards": ["", 10, -10, 10, 10, -10, -10, 10, 10, 10, -10, -10, 10, 10, -10, 10, 10, -10, 10, -10, -10, -10, 10, 10, -10, 10, 10, -10, -10, 10, 10, -10, 10, 10], "withholdReward": false, "trial_id": "practice_1", "block": "test", "trialIndex": 2, "score": 33.5, "costs": 0, "simulationMode": [null, null, null, null, null], "rewards": [10, 10, -10, 10, 10], "path": ["0", "0", "12", "13", "14", "15", "16"], "rt": [277, 145, 131, 466, 44], "actions": ["right", "right", "right", "up", "up"], "actionTimes": [1849, 2511, 3160, 4144, 4704], "queries": {"click": {"state": {"target": [], "time": []}, "edge": {"target": [], "time": []}}, "mouseover": {"state": {"target": [], "time": []}, "edge": {"target": [], "time": []}}, "mouseout": {"state": {"target": ["0"], "time": [5659]}, "edge": {"target": [], "time": []}}}, "displayed_time": "5.22", "trialTime": 6928, "trial_type": "mouselab-mdp", "trial_index": 9, "time_elapsed": 230514, "internal_node_id": "0.0-2.1-2.1-0.1"}}, {"uniqueid": "w37402854:a45369919", "current_trial": 10, "dateTime": 1693580363664, "trialdata": {"revealed_states": [], "clicked_states": [], "num_clicks_accrued": [0, 0, 0, 0, 0, 0, 0, 0, 0, 0, 0, 0, 0], "stateRewards": ["", 10, 10, 10, -10, 10, 10, 10, -10, -10, -10, 10, 10, 10, 10, -10, 10, -10, -10, 10, -10, -10, -10, 10, -10, -10, 10, -10, 10, -10, -10, 10, -10, -10], "withholdReward": false, "trial_id": "practice_2", "block": "test", "trialIndex": 3, "score": 33.5, "costs": 0, "simulationMode": [null, null, null, null, null], "rewards": [10, 10, 10, -10, 10], "path": ["0", "0", "1", "2", "3", "8", "11"], "rt": [506, 117, 48, 155, 10], "actions": ["up", "up", "up", "left", "left"], "actionTimes": [2076, 2709, 3272, 3960, 4486], "queries": {"click": {"state": {"target": [], "time": []}, "edge": {"target": [], "time": []}}, "mouseover": {"state": {"target": [], "time": []}, "edge": {"target": [], "time": []}}, "mouseout": {"state": {"target": ["0", "12"], "time": [5552, 5690]}, "edge": {"target": [], "time": []}}}, "displayed_time": "5.03", "trialTime": 6170, "trial_type": "mouselab-mdp", "trial_index": 10, "time_elapsed": 237438, "internal_node_id": "0.0-2.1-2.1-1.1"}}, {"uniqueid": "w37402854:a45369919", "current_trial": 11, "dateTime": 1693580377951, "trialdata": {"view_history": [{"page_index": 0, "viewing_time": 12589}, {"page_index": 1, "viewing_time": 1694}], "rt": 14283, "trial_id": "mouselab_instructions_2_misaligned", "trial_type": "instructions", "trial_index": 11, "time_elapsed": 251726, "internal_node_id": "0.0-2.1-3.1"}}, {"uniqueid": "w37402854:a45369919", "current_trial": 12, "dateTime": 1693580402787, "trialdata": {"rt": 24832, "response": {"Q0": "The cost for clicking on nodes may vary between nodes.", "Q1": "The better I perform the higher my bonus will be.", "Q2": "No, the amount of cash at each node of the web may be different each time.", "Q3": "To get the highest total score.", "Q4": "Only before moving the spider.", "Q5": "3 seconds"}, "question_order": [0, 1, 2, 3, 4, 5], "correct": {"Q0": "The cost for clicking on nodes may vary between nodes.", "Q1": "The better I perform the higher my bonus will be.", "Q2": "No, the amount of cash at each node of the web may be different each time.", "Q3": "To get the highest total score.", "Q4": "Only before moving the spider.", "Q5": "3 seconds"}, "trial_id": "mouselab_quiz_misaligned", "trial_type": "survey-multi-choice", "trial_index": 12, "time_elapsed": 276562, "internal_node_id": "0.0-2.1-4.1"}}, {"uniqueid": "w37402854:a45369919", "current_trial": 13, "dateTime": 1693580407678, "trialdata": {"rt": 4879, "response": {"Q0": "No"}, "question_order": [0], "trial_id": "repeat_check", "trial_type": "survey-multi-choice", "trial_index": 13, "time_elapsed": 281452, "internal_node_id": "0.0-4.0-0.0"}}, {"uniqueid": "w37402854:a45369919", "current_trial": 14, "dateTime": 1693580409271, "trialdata": {"rt": 1584, "stimulus": "\n<h1> Get ready to start the game! </h1>\n\nThank you for reading the instructions. Get ready start with the 40 rounds of this game.\n<br><br>\nIf you need to take a break, feel free to take one after the end of a round, before continuing to the next one.\n<br><br>\nRemember, the more money the spider gets, the bigger your bonus will be!\n<br><br>\n<div style='text-align: center;'>Press <code>space</code> to begin.</div>\n\n<br><br>\n(If, at any point, the <code>space</code> key does not take you to the next page, click once on the text and try again.)", "response": " ", "trial_id": "mdp_ready", "trial_type": "html-keyboard-response", "trial_index": 14, "time_elapsed": 283045, "internal_node_id": "0.0-6.0-0.0"}}, {"uniqueid": "w37402854:a45369919", "current_trial": 15, "dateTime": 1693580428392, "trialdata": {"revealed_states": [], "clicked_states": [], "num_clicks_accrued": [0, 0, 0, 0, 0, 0, 0, 0, 0, 0, 0, 0, 0], "stateRewards": ["", -2, 3, -1, 2, -72, 63, 20, -1, 62, -66, 39, -2, 3, -6, 14, 22, 47, 1, 8, -49, -1, -41, 2, 2, -6, -16, -64, -60, -34, 16, 54, 22, -7], "withholdReward": false, "trial_id": "mdp_trial_1", "block": "test", "trialIndex": 4, "score": 68, "costs": 0, "simulationMode": [null, null, null, null, null], "rewards": [2, 2, -6, 16, 54], "path": ["0", "0", "23", "24", "25", "30", "31"], "rt": [900, 209, 304, 275, 247], "actions": ["left", "left", "left", "down", "right"], "actionTimes": [2771, 3507, 4334, 5121, 5893], "queries": {"click": {"state": {"target": [], "time": []}, "edge": {"target": [], "time": []}}, "mouseover": {"state": {"target": [], "time": []}, "edge": {"target": [], "time": []}}, "mouseout": {"state": {"target": ["0", "0"], "time": [1164, 7394]}, "edge": {"target": [], "time": []}}}, "displayed_time": "15.88", "trialTime": 18240, "trial_type": "mouselab-mdp", "trial_index": 15, "time_elapsed": 302167, "internal_node_id": "0.0-6.0-1.0-0.0"}}, {"uniqueid": "w37402854:a45369919", "current_trial": 16, "dateTime": 1693580446626, "trialdata": {"revealed_states": [], "clicked_states": [], "num_clicks_accrued": [0, 0, 0, 0, 0, 0, 0, 0, 0, 0, 0, 0, 0], "stateRewards": ["", -2, 2, 2, -6, 9, 37, 50, -13, -7, -18, -75, -2, -4, 4, 7, 23, -57, -66, -7, -81, -48, -76, 1, 1, -8, 1, 51, -2, 70, 14, 59, 71, -37], "withholdReward": false, "trial_id": "mdp_trial_2", "block": "test", "trialIndex": 5, "score": -29, "costs": 0, "simulationMode": [null, null, null, null, null], "rewards": [-2, 2, 2, -13, -18], "path": ["0", "0", "1", "2", "3", "8", "10"], "rt": [1067, 187, 259, 212, 244], "actions": ["up", "up", "up", "left", "down"], "actionTimes": [2899, 3609, 4381, 5117, 5881], "queries": {"click": {"state": {"target": [], "time": []}, "edge": {"target": [], "time": []}}, "mouseover": {"state": {"target": [], "time": []}, "edge": {"target": [], "time": []}}, "mouseout": {"state": {"target": ["0"], "time": [14459]}, "edge": {"target": [], "time": []}}}, "displayed_time": "15.84", "trialTime": 17461, "trial_type": "mouselab-mdp", "trial_index": 16, "time_elapsed": 320400, "internal_node_id": "0.0-6.0-1.0-1.0"}}, {"uniqueid": "w37402854:a45369919", "current_trial": 17, "dateTime": 1693580464829, "trialdata": {"revealed_states": [], "clicked_states": [], "num_clicks_accrued": [0, 0, 0, 0, 0, 0, 0, 0, 0, 0, 0, 0, 0], "stateRewards": ["", 2, 3, 6, -5, -74, -53, 17, -12, 46, 44, 18, -2, 4, 1, -8, 22, -23, -49, 9, -45, 55, 81, 1, -1, -7, -16, -83, -71, -45, 2, 51, 82, 61], "withholdReward": false, "trial_id": "mdp_trial_3", "block": "test", "trialIndex": 6, "score": 45, "costs": 0, "simulationMode": [null, null, null, null, null], "rewards": [2, 3, 6, -12, 46], "path": ["0", "0", "1", "2", "3", "8", "9"], "rt": [500, 86, 170, 114, 166], "actions": ["up", "up", "up", "left", "up"], "actionTimes": [2340, 2945, 3611, 4238, 4924], "queries": {"click": {"state": {"target": [], "time": []}, "edge": {"target": [], "time": []}}, "mouseover": {"state": {"target": [], "time": []}, "edge": {"target": [], "time": []}}, "mouseout": {"state": {"target": ["0"], "time": [7421]}, "edge": {"target": [], "time": []}}}, "displayed_time": "15.85", "trialTime": 17199, "trial_type": "mouselab-mdp", "trial_index": 17, "time_elapsed": 338603, "internal_node_id": "0.0-6.0-1.0-2.0"}}, {"uniqueid": "w37402854:a45369919", "current_trial": 18, "dateTime": 1693580483102, "trialdata": {"revealed_states": [], "clicked_states": [], "num_clicks_accrued": [0, 0, 0, 0, 0, 0, 0, 0, 0, 0, 0, 0, 0], "stateRewards": ["", -2, -2, -7, -13, -10, 49, -68, -1, 84, 70, 88, 1, 4, 4, 12, -57, 25, 30, 8, -1, -77, 57, 2, 3, 2, 3, -18, -80, 23, -15, -41, 70, 11], "withholdReward": false, "trial_id": "mdp_trial_4", "block": "test", "trialIndex": 7, "score": 74, "costs": 0, "simulationMode": [null, null, null, null, null], "rewards": [1, 4, 4, 8, 57], "path": ["0", "0", "12", "13", "14", "19", "22"], "rt": [1958, 174, 198, 140, 345], "actions": ["right", "right", "right", "down", "left"], "actionTimes": [3698, 4386, 5110, 5768, 6623], "queries": {"click": {"state": {"target": [], "time": []}, "edge": {"target": [], "time": []}}, "mouseover": {"state": {"target": [], "time": []}, "edge": {"target": [], "time": []}}, "mouseout": {"state": {"target": ["0"], "time": [16504]}, "edge": {"target": [], "time": []}}}, "displayed_time": "15.75", "trialTime": 17239, "trial_type": "mouselab-mdp", "trial_index": 18, "time_elapsed": 356876, "internal_node_id": "0.0-6.0-1.0-3.0"}}, {"uniqueid": "w37402854:a45369919", "current_trial": 19, "dateTime": 1693580500669, "trialdata": {"revealed_states": [], "clicked_states": [], "num_clicks_accrued": [0, 0, 0, 0, 0, 0, 0, 0, 0, 0, 0, 0, 0], "stateRewards": ["", -1, -4, 8, 8, -68, 47, 24, -7, -61, 49, -69, -1, -1, 8, -7, 42, 1, -45, -11, 10, -63, -6, 1, 4, 6, -16, 79, -37, -58, -12, 81, 18, -53], "withholdReward": false, "trial_id": "mdp_trial_5", "block": "test", "trialIndex": 8, "score": 5, "costs": 0, "simulationMode": [null, null, null, null, null], "rewards": [-1, -1, 8, -11, 10], "path": ["0", "0", "12", "13", "14", "19", "20"], "rt": [457, 157, 199, 439, 227], "actions": ["right", "right", "right", "down", "right"], "actionTimes": [2163, 2845, 3563, 4511, 5250], "queries": {"click": {"state": {"target": [], "time": []}, "edge": {"target": [], "time": []}}, "mouseover": {"state": {"target": [], "time": []}, "edge": {"target": [], "time": []}}, "mouseout": {"state": {"target": ["0"], "time": [7822]}, "edge": {"target": [], "time": []}}}, "displayed_time": "15.71", "trialTime": 16516, "trial_type": "mouselab-mdp", "trial_index": 19, "time_elapsed": 374444, "internal_node_id": "0.0-6.0-1.0-4.0"}}, {"uniqueid": "w37402854:a45369919", "current_trial": 20, "dateTime": 1693580517427, "trialdata": {"revealed_states": [], "clicked_states": [], "num_clicks_accrued": [0, 0, 0, 0, 0, 0, 0, 0, 0, 0, 0, 0, 0], "stateRewards": ["", 2, -3, 5, -14, -63, -9, -24, -11, -54, -43, 68, 2, -2, -4, 7, -64, 30, 47, 12, -74, 11, 86, 1, -3, 3, 10, -71, -42, -52, -1, -29, -16, 69], "withholdReward": false, "trial_id": "mdp_trial_6", "block": "test", "trialIndex": 9, "score": 69, "costs": 0, "simulationMode": [null, null, null, null, null], "rewards": [1, -3, 3, -1, 69], "path": ["0", "0", "23", "24", "25", "30", "33"], "rt": [558, 159, 229, 191, 341], "actions": ["left", "left", "left", "down", "left"], "actionTimes": [1849, 2522, 3277, 3983, 4838], "queries": {"click": {"state": {"target": [], "time": []}, "edge": {"target": [], "time": []}}, "mouseover": {"state": {"target": [], "time": []}, "edge": {"target": [], "time": []}}, "mouseout": {"state": {"target": ["0"], "time": [746]}, "edge": {"target": [], "time": []}}}, "displayed_time": "15.30", "trialTime": 15686, "trial_type": "mouselab-mdp", "trial_index": 20, "time_elapsed": 391201, "internal_node_id": "0.0-6.0-1.0-5.0"}}, {"uniqueid": "w37402854:a45369919", "current_trial": 21, "dateTime": 1693580535020, "trialdata": {"revealed_states": [], "clicked_states": [], "num_clicks_accrued": [0, 0, 0, 0, 0, 0, 0, 0, 0, 0, 0, 0, 0], "stateRewards": ["", -2, -1, -6, -14, -55, 78, -13, 11, 14, -71, 59, 2, 2, 6, -6, 9, 38, 14, 7, 85, 11, 68, 1, -4, -1, -3, -63, -85, 9, -2, 63, -86, -10], "withholdReward": false, "trial_id": "mdp_trial_7", "block": "test", "trialIndex": 10, "score": 42, "costs": 0, "simulationMode": [null, null, null, null, null], "rewards": [2, 2, 6, -6, 38], "path": ["0", "0", "12", "13", "14", "15", "17"], "rt": [1415, 161, 163, 152, 262], "actions": ["right", "right", "right", "up", "right"], "actionTimes": [2746, 3426, 4095, 4766, 5550], "queries": {"click": {"state": {"target": [], "time": []}, "edge": {"target": [], "time": []}}, "mouseover": {"state": {"target": [], "time": []}, "edge": {"target": [], "time": []}}, "mouseout": {"state": {"target": ["0", "0", "0"], "time": [673, 13890, 15921]}, "edge": {"target": [], "time": []}}}, "displayed_time": "15.33", "trialTime": 16644, "trial_type": "mouselab-mdp", "trial_index": 21, "time_elapsed": 408794, "internal_node_id": "0.0-6.0-1.0-6.0"}}, {"uniqueid": "w37402854:a45369919", "current_trial": 22, "dateTime": 1693580553389, "trialdata": {"revealed_states": [], "clicked_states": [], "num_clicks_accrued": [0, 0, 0, 0, 0, 0, 0, 0, 0, 0, 0, 0, 0], "stateRewards": ["", 2, -1, -4, -13, 74, 77, 3, 2, -43, -2, -11, 2, 3, 7, 11, -26, -29, -33, -3, -3, -13, -3, 1, 3, -7, 14, -59, 33, 9, -5, 34, 79, 68], "withholdReward": false, "trial_id": "mdp_trial_8", "block": "test", "trialIndex": 11, "score": -13, "costs": 0, "simulationMode": [null, null, null, null, null], "rewards": [2, -1, -4, -13, 3], "path": ["0", "0", "1", "2", "3", "4", "7"], "rt": [551, 124, 182, 117, 199], "actions": ["up", "up", "up", "right", "down"], "actionTimes": [1946, 2584, 3291, 3928, 4641], "queries": {"click": {"state": {"target": [], "time": []}, "edge": {"target": [], "time": []}}, "mouseover": {"state": {"target": [], "time": []}, "edge": {"target": [], "time": []}}, "mouseout": {"state": {"target": [], "time": []}, "edge": {"target": [], "time": []}}}, "displayed_time": "15.41", "trialTime": 17270, "trial_type": "mouselab-mdp", "trial_index": 22, "time_elapsed": 427163, "internal_node_id": "0.0-6.0-1.0-7.0"}}, {"uniqueid": "w37402854:a45369919", "current_trial": 23, "dateTime": 1693580572069, "trialdata": {"revealed_states": [], "clicked_states": [], "num_clicks_accrued": [0, 0, 0, 0, 0, 0, 0, 0, 0, 0, 0, 0, 0], "stateRewards": ["", 1, 1, -2, 7, -31, -6, 76, 1, -36, -16, -53, 2, 1, 7, 13, -47, -10, 47, -7, 72, 46, -56, -2, -2, -2, 11, -80, 44, 38, 16, 67, 85, -78], "withholdReward": false, "trial_id": "mdp_trial_9", "block": "test", "trialIndex": 12, "score": -24, "costs": 0, "simulationMode": [null, null, null, null, null], "rewards": [1, 1, -2, 7, -31], "path": ["0", "0", "1", "2", "3", "4", "5"], "rt": [545, 104, 86, 74, 140], "actions": ["up", "up", "up", "right", "up"], "actionTimes": [1848, 2464, 3061, 3651, 4314], "queries": {"click": {"state": {"target": [], "time": []}, "edge": {"target": [], "time": []}}, "mouseover": {"state": {"target": [], "time": []}, "edge": {"target": [], "time": []}}, "mouseout": {"state": {"target": ["0"], "time": [672]}, "edge": {"target": [], "time": []}}}, "displayed_time": "15.31", "trialTime": 17627, "trial_type": "mouselab-mdp", "trial_index": 23, "time_elapsed": 445844, "internal_node_id": "0.0-6.0-1.0-8.0"}}, {"uniqueid": "w37402854:a45369919", "current_trial": 24, "dateTime": 1693580589322, "trialdata": {"revealed_states": [], "clicked_states": [], "num_clicks_accrued": [0, 0, 0, 0, 0, 0, 0, 0, 0, 0, 0, 0, 0], "stateRewards": ["", 1, 1, 1, 15, -76, 52, -32, 14, -57, 37, 49, 1, -4, -3, 6, 83, -76, 25, 9, 36, -1, -17, -1, 4, 4, -2, -22, -21, 58, -15, -57, 49, -24], "withholdReward": false, "trial_id": "mdp_trial_10", "block": "test", "trialIndex": 13, "score": 70, "costs": 0, "simulationMode": [null, null, null, null, null], "rewards": [1, 1, 1, 15, 52], "path": ["0", "0", "1", "2", "3", "4", "6"], "rt": [578, 98, 87, 84, 358], "actions": ["up", "up", "up", "right", "right"], "actionTimes": [1853, 2467, 3075, 3670, 4564], "queries": {"click": {"state": {"target": [], "time": []}, "edge": {"target": [], "time": []}}, "mouseover": {"state": {"target": [], "time": []}, "edge": {"target": [], "time": []}}, "mouseout": {"state": {"target": ["0", "0", "0"], "time": [25, 152, 15542]}, "edge": {"target": [], "time": []}}}, "displayed_time": "15.29", "trialTime": 16140, "trial_type": "mouselab-mdp", "trial_index": 24, "time_elapsed": 463096, "internal_node_id": "0.0-6.0-1.0-9.0"}}, {"uniqueid": "w37402854:a45369919", "current_trial": 25, "dateTime": 1693580607162, "trialdata": {"revealed_states": [], "clicked_states": [], "num_clicks_accrued": [0, 0, 0, 0, 0, 0, 0, 0, 0, 0, 0, 0, 0], "stateRewards": ["", -1, -2, -8, 8, -27, -82, 19, -14, -62, 4, 1, -2, 2, 6, 10, 73, -51, -2, 2, 73, -48, 54, -1, 2, -4, 11, -25, 47, 86, 15, 33, 43, -42], "withholdReward": false, "trial_id": "mdp_trial_11", "block": "test", "trialIndex": 14, "score": 45, "costs": 0, "simulationMode": [null, null, null, null, null], "rewards": [-1, 2, -4, 15, 33], "path": ["0", "0", "23", "24", "25", "30", "31"], "rt": [749, 87, 163, 102, 168], "actions": ["left", "left", "left", "down", "right"], "actionTimes": [2344, 2958, 3635, 4236, 4920], "queries": {"click": {"state": {"target": [], "time": []}, "edge": {"target": [], "time": []}}, "mouseover": {"state": {"target": [], "time": []}, "edge": {"target": [], "time": []}}, "mouseout": {"state": {"target": [], "time": []}, "edge": {"target": [], "time": []}}}, "displayed_time": "15.60", "trialTime": 16724, "trial_type": "mouselab-mdp", "trial_index": 25, "time_elapsed": 480936, "internal_node_id": "0.0-6.0-1.0-10.0"}}, {"uniqueid": "w37402854:a45369919", "current_trial": 26, "dateTime": 1693580624174, "trialdata": {"revealed_states": [], "clicked_states": [], "num_clicks_accrued": [0, 0, 0, 0, 0, 0, 0, 0, 0, 0, 0, 0, 0], "stateRewards": ["", 1, 2, -3, -5, 66, -50, -47, -5, 1, 28, -27, 1, 1, -1, -6, 37, -25, 56, 1, -82, -66, -40, -1, -4, -7, 15, -61, -23, 26, 10, 14, -56, 29], "withholdReward": false, "trial_id": "mdp_trial_12", "block": "test", "trialIndex": 15, "score": 51, "costs": 0, "simulationMode": [null, null, null, null, null], "rewards": [1, 1, -1, -6, 56], "path": ["0", "0", "12", "13", "14", "15", "18"], "rt": [732, 87, 128, 98, 134], "actions": ["right", "right", "right", "up", "left"], "actionTimes": [1796, 2404, 3053, 3672, 4326], "queries": {"click": {"state": {"target": [], "time": []}, "edge": {"target": [], "time": []}}, "mouseover": {"state": {"target": [], "time": []}, "edge": {"target": [], "time": []}}, "mouseout": {"state": {"target": ["0", "0", "12"], "time": [444, 7773, 15467]}, "edge": {"target": [], "time": []}}}, "displayed_time": "15.07", "trialTime": 16024, "trial_type": "mouselab-mdp", "trial_index": 26, "time_elapsed": 497948, "internal_node_id": "0.0-6.0-1.0-11.0"}}, {"uniqueid": "w37402854:a45369919", "current_trial": 27, "dateTime": 1693580642101, "trialdata": {"revealed_states": [], "clicked_states": [], "num_clicks_accrued": [0, 0, 0, 0, 0, 0, 0, 0, 0, 0, 0, 0, 0], "stateRewards": ["", 2, -1, 4, -9, -43, 7, 54, -13, 38, -40, -83, -1, 2, -8, -10, 34, -33, 11, -14, -79, 65, 26, 1, 2, 4, 10, 21, 1, 86, 4, -53, 28, -29], "withholdReward": false, "trial_id": "mdp_trial_13", "block": "test", "trialIndex": 16, "score": 18, "costs": 0, "simulationMode": [null, null, null, null, null], "rewards": [1, 2, 4, 10, 1], "path": ["0", "0", "23", "24", "25", "26", "28"], "rt": [587, 37, 152, 108, 148], "actions": ["left", "left", "left", "up", "right"], "actionTimes": [2287, 2842, 3510, 4146, 4818], "queries": {"click": {"state": {"target": [], "time": []}, "edge": {"target": [], "time": []}}, "mouseover": {"state": {"target": [], "time": []}, "edge": {"target": [], "time": []}}, "mouseout": {"state": {"target": ["0"], "time": [622]}, "edge": {"target": [], "time": []}}}, "displayed_time": "15.71", "trialTime": 16740, "trial_type": "mouselab-mdp", "trial_index": 27, "time_elapsed": 515876, "internal_node_id": "0.0-6.0-1.0-12.0"}}, {"uniqueid": "w37402854:a45369919", "current_trial": 28, "dateTime": 1693580659584, "trialdata": {"revealed_states": [], "clicked_states": [], "num_clicks_accrued": [0, 0, 0, 0, 0, 0, 0, 0, 0, 0, 0, 0, 0], "stateRewards": ["", 2, -1, 1, 10, -52, 86, -22, -2, -14, -63, 38, 1, 3, 7, -8, 11, -32, -27, 9, -71, 40, -87, -2, -1, 5, -7, 12, 31, -57, 13, 86, -58, 29], "withholdReward": false, "trial_id": "mdp_trial_14", "block": "test", "trialIndex": 17, "score": 44, "costs": 0, "simulationMode": [null, null, null, null, null], "rewards": [-2, -1, 5, 13, 29], "path": ["0", "0", "23", "24", "25", "30", "33"], "rt": [629, 134, 156, 130, 168], "actions": ["left", "left", "left", "down", "left"], "actionTimes": [1649, 2299, 2969, 3593, 4280], "queries": {"click": {"state": {"target": [], "time": []}, "edge": {"target": [], "time": []}}, "mouseover": {"state": {"target": [], "time": []}, "edge": {"target": [], "time": []}}, "mouseout": {"state": {"target": ["0"], "time": [310]}, "edge": {"target": [], "time": []}}}, "displayed_time": "15.03", "trialTime": 16442, "trial_type": "mouselab-mdp", "trial_index": 28, "time_elapsed": 533358, "internal_node_id": "0.0-6.0-1.0-13.0"}}, {"uniqueid": "w37402854:a45369919", "current_trial": 29, "dateTime": 1693580677123, "trialdata": {"revealed_states": [], "clicked_states": [], "num_clicks_accrued": [0, 0, 0, 0, 0, 0, 0, 0, 0, 0, 0, 0, 0], "stateRewards": ["", 1, 2, 8, -2, 23, -69, -18, -16, 54, -21, 71, -1, -4, 7, 11, 43, -6, 88, 6, -55, 72, 43, 1, -3, -2, -1, 68, -31, -54, 4, -8, 25, -2], "withholdReward": false, "trial_id": "mdp_trial_15", "block": "test", "trialIndex": 18, "score": -60, "costs": 0, "simulationMode": [null, null, null, null, null], "rewards": [1, 2, 8, -2, -69], "path": ["0", "0", "1", "2", "3", "4", "6"], "rt": [461, 130, 129, 88, 220], "actions": ["up", "up", "up", "right", "right"], "actionTimes": [1796, 2439, 3090, 3697, 4426], "queries": {"click": {"state": {"target": [], "time": []}, "edge": {"target": [], "time": []}}, "mouseover": {"state": {"target": [], "time": []}, "edge": {"target": [], "time": []}}, "mouseout": {"state": {"target": ["0"], "time": [692]}, "edge": {"target": [], "time": []}}}, "displayed_time": "15.34", "trialTime": 16573, "trial_type": "mouselab-mdp", "trial_index": 29, "time_elapsed": 550897, "internal_node_id": "0.0-6.0-1.0-14.0"}}, {"uniqueid": "w37402854:a45369919", "current_trial": 30, "dateTime": 1693580694504, "trialdata": {"revealed_states": [], "clicked_states": [], "num_clicks_accrued": [0, 0, 0, 0, 0, 0, 0, 0, 0, 0, 0, 0, 0], "stateRewards": ["", -2, -3, -5, 8, 27, 11, 43, -6, -24, -87, 69, -2, 1, 1, 9, 19, 48, -37, 9, -14, 45, 62, 1, 2, 1, 16, -81, -41, 22, 4, -6, -63, 47], "withholdReward": false, "trial_id": "mdp_trial_16", "block": "test", "trialIndex": 19, "score": -5, "costs": 0, "simulationMode": [null, null, null, null, null], "rewards": [-2, 1, 1, 9, -14], "path": ["0", "0", "12", "13", "14", "19", "20"], "rt": [390, 116, 122, 105, 202], "actions": ["right", "right", "right", "down", "right"], "actionTimes": [1516, 2150, 2793, 3423, 4140], "queries": {"click": {"state": {"target": [], "time": []}, "edge": {"target": [], "time": []}}, "mouseover": {"state": {"target": [], "time": []}, "edge": {"target": [], "time": []}}, "mouseout": {"state": {"target": ["0"], "time": [369]}, "edge": {"target": [], "time": []}}}, "displayed_time": "15.14", "trialTime": 16358, "trial_type": "mouselab-mdp", "trial_index": 30, "time_elapsed": 568278, "internal_node_id": "0.0-6.0-1.0-15.0"}}, {"uniqueid": "w37402854:a45369919", "current_trial": 31, "dateTime": 1693580711862, "trialdata": {"revealed_states": [], "clicked_states": [], "num_clicks_accrued": [0, 0, 0, 0, 0, 0, 0, 0, 0, 0, 0, 0, 0], "stateRewards": ["", 1, 4, 7, -16, -84, -6, -46, -12, -7, -49, -26, -1, 2, -4, 2, 22, 37, -64, 1, 88, -13, -10, 1, -4, -2, 5, 2, -10, -34, 9, 66, 55, 38], "withholdReward": false, "trial_id": "mdp_trial_17", "block": "test", "trialIndex": 20, "score": 86, "costs": 0, "simulationMode": [null, null, null, null, null], "rewards": [-1, 2, -4, 1, 88], "path": ["0", "0", "12", "13", "14", "19", "20"], "rt": [349, 155, 144, 108, 329], "actions": ["right", "right", "right", "down", "right"], "actionTimes": [1190, 1865, 2510, 3134, 3989], "queries": {"click": {"state": {"target": [], "time": []}, "edge": {"target": [], "time": []}}, "mouseover": {"state": {"target": [], "time": []}, "edge": {"target": [], "time": []}}, "mouseout": {"state": {"target": [], "time": []}, "edge": {"target": [], "time": []}}}, "displayed_time": "14.85", "trialTime": 16404, "trial_type": "mouselab-mdp", "trial_index": 31, "time_elapsed": 585636, "internal_node_id": "0.0-6.0-1.0-16.0"}}, {"uniqueid": "w37402854:a45369919", "current_trial": 32, "dateTime": 1693580729156, "trialdata": {"revealed_states": [], "clicked_states": [], "num_clicks_accrued": [0, 0, 0, 0, 0, 0, 0, 0, 0, 0, 0, 0, 0], "stateRewards": ["", -2, 4, -3, -13, 63, -36, 62, 11, 78, 34, -51, 2, -2, 8, -6, -40, -18, 31, 9, 64, 39, 79, 1, 4, -4, 15, -12, 76, 73, -10, -77, 86, -4], "withholdReward": false, "trial_id": "mdp_trial_18", "block": "test", "trialIndex": 21, "score": 89, "costs": 0, "simulationMode": [null, null, null, null, null], "rewards": [1, 4, -4, 15, 73], "path": ["0", "0", "23", "24", "25", "26", "29"], "rt": [587, 74, 211, 77, 147], "actions": ["left", "left", "left", "up", "left"], "actionTimes": [1473, 2066, 2801, 3400, 4070], "queries": {"click": {"state": {"target": [], "time": []}, "edge": {"target": [], "time": []}}, "mouseover": {"state": {"target": [], "time": []}, "edge": {"target": [], "time": []}}, "mouseout": {"state": {"target": ["0"], "time": [15]}, "edge": {"target": [], "time": []}}}, "displayed_time": "14.90", "trialTime": 16306, "trial_type": "mouselab-mdp", "trial_index": 32, "time_elapsed": 602930, "internal_node_id": "0.0-6.0-1.0-17.0"}}, {"uniqueid": "w37402854:a45369919", "current_trial": 33, "dateTime": 1693580749218, "trialdata": {"revealed_states": [], "clicked_states": [], "num_clicks_accrued": [0, 0, 0, 0, 0, 0, 0, 0, 0, 0, 0, 0, 0], "stateRewards": ["", 1, -3, -4, -11, -56, 61, -47, -16, -28, -9, 69, -2, -3, -4, -8, 40, -86, 59, -4, 80, 27, 54, -1, 3, -1, 8, 67, 23, 50, 6, 83, -43, -29], "withholdReward": false, "trial_id": "mdp_trial_19", "block": "test", "trialIndex": 22, "score": -50, "costs": 0, "simulationMode": [null, null, null, null, null], "rewards": [1, -3, -4, -16, -28], "path": ["0", "0", "1", "2", "3", "8", "9"], "rt": [625, 100, 71, 83, 84], "actions": ["up", "up", "up", "left", "up"], "actionTimes": [2040, 2653, 3241, 3833, 4436], "queries": {"click": {"state": {"target": [], "time": []}, "edge": {"target": [], "time": []}}, "mouseover": {"state": {"target": [], "time": []}, "edge": {"target": [], "time": []}}, "mouseout": {"state": {"target": ["0"], "time": [958]}, "edge": {"target": [], "time": []}}}, "displayed_time": "15.43", "trialTime": 19041, "trial_type": "mouselab-mdp", "trial_index": 33, "time_elapsed": 622992, "internal_node_id": "0.0-6.0-1.0-18.0"}}, {"uniqueid": "w37402854:a45369919", "current_trial": 34, "dateTime": 1693580766471, "trialdata": {"revealed_states": [], "clicked_states": [], "num_clicks_accrued": [0, 0, 0, 0, 0, 0, 0, 0, 0, 0, 0, 0, 0], "stateRewards": ["", -1, 1, 8, -8, -49, 62, -78, 16, 28, -81, 78, -2, -3, -1, -4, 67, 49, -2, -13, -16, -39, 83, 1, -4, 4, -5, -20, 7, 84, 7, -32, -59, 19], "withholdReward": false, "trial_id": "mdp_trial_20", "block": "test", "trialIndex": 23, "score": -24, "costs": 0, "simulationMode": [null, null, null, null, null], "rewards": [1, -4, 4, 7, -32], "path": ["0", "0", "23", "24", "25", "30", "31"], "rt": [867, 76, 110, 88, 136], "actions": ["left", "left", "left", "down", "right"], "actionTimes": [2085, 2672, 3312, 3919, 4566], "queries": {"click": {"state": {"target": [], "time": []}, "edge": {"target": [], "time": []}}, "mouseover": {"state": {"target": [], "time": []}, "edge": {"target": [], "time": []}}, "mouseout": {"state": {"target": ["0"], "time": [158]}, "edge": {"target": [], "time": []}}}, "displayed_time": "15.22", "trialTime": 16188, "trial_type": "mouselab-mdp", "trial_index": 34, "time_elapsed": 640245, "internal_node_id": "0.0-6.0-1.0-19.0"}}, {"uniqueid": "w37402854:a45369919", "current_trial": 35, "dateTime": 1693580783329, "trialdata": {"revealed_states": [], "clicked_states": [], "num_clicks_accrued": [0, 0, 0, 0, 0, 0, 0, 0, 0, 0, 0, 0, 0], "stateRewards": ["", 1, -2, -8, -13, 4, 34, -84, -4, -49, 88, -70, -1, 3, -4, 10, -77, 13, -34, 15, -21, -16, 27, 1, -2, 8, -8, -6, 38, -26, 6, -15, 66, -3], "withholdReward": false, "trial_id": "mdp_trial_21", "block": "test", "trialIndex": 24, "score": 75, "costs": 0, "simulationMode": [null, null, null, null, null], "rewards": [1, -2, -8, -4, 88], "path": ["0", "0", "1", "2", "3", "8", "10"], "rt": [1070, 58, 131, 92, 84], "actions": ["up", "up", "up", "left", "down"], "actionTimes": [2242, 2837, 3466, 4078, 4688], "queries": {"click": {"state": {"target": [], "time": []}, "edge": {"target": [], "time": []}}, "mouseover": {"state": {"target": [], "time": []}, "edge": {"target": [], "time": []}}, "mouseout": {"state": {"target": ["0"], "time": [650]}, "edge": {"target": [], "time": []}}}, "displayed_time": "15.18", "trialTime": 15878, "trial_type": "mouselab-mdp", "trial_index": 35, "time_elapsed": 657104, "internal_node_id": "0.0-6.0-1.0-20.0"}}, {"uniqueid": "w37402854:a45369919", "current_trial": 36, "dateTime": 1693580800957, "trialdata": {"revealed_states": [], "clicked_states": [], "num_clicks_accrued": [0, 0, 0, 0, 0, 0, 0, 0, 0, 0, 0, 0, 0], "stateRewards": ["", -1, -3, -6, 14, 41, 18, 63, -14, 80, 21, 17, -2, -4, -2, -5, 13, 70, 8, -4, -64, -10, -20, 2, -1, 4, -1, -17, -55, 42, -7, 47, 54, 15], "withholdReward": false, "trial_id": "mdp_trial_22", "block": "test", "trialIndex": 25, "score": 52, "costs": 0, "simulationMode": [null, null, null, null, null], "rewards": [2, -1, 4, -7, 54], "path": ["0", "0", "23", "24", "25", "30", "32"], "rt": [434, 106, 142, 29, 433], "actions": ["left", "left", "left", "down", "down"], "actionTimes": [1989, 2622, 3289, 3869, 4811], "queries": {"click": {"state": {"target": [], "time": []}, "edge": {"target": [], "time": []}}, "mouseover": {"state": {"target": [], "time": []}, "edge": {"target": [], "time": []}}, "mouseout": {"state": {"target": ["0"], "time": [1037]}, "edge": {"target": [], "time": []}}}, "displayed_time": "15.56", "trialTime": 16630, "trial_type": "mouselab-mdp", "trial_index": 36, "time_elapsed": 674732, "internal_node_id": "0.0-6.0-1.0-21.0"}}, {"uniqueid": "w37402854:a45369919", "current_trial": 37, "dateTime": 1693580818070, "trialdata": {"revealed_states": [], "clicked_states": [], "num_clicks_accrued": [0, 0, 0, 0, 0, 0, 0, 0, 0, 0, 0, 0, 0], "stateRewards": ["", -2, -3, 8, -4, -30, 31, 69, 9, 66, 87, 64, -2, 2, 8, 5, 47, 16, -39, -8, -54, 51, -19, 1, -2, -2, -11, -25, -26, 43, -9, 19, -84, 86], "withholdReward": false, "trial_id": "mdp_trial_23", "block": "test", "trialIndex": 26, "score": 76, "costs": 0, "simulationMode": [null, null, null, null, null], "rewards": [-2, -3, 8, 9, 64], "path": ["0", "0", "1", "2", "3", "8", "11"], "rt": [468, 71, 75, 48, 103], "actions": ["up", "up", "up", "left", "left"], "actionTimes": [1933, 2524, 3108, 3682, 4317], "queries": {"click": {"state": {"target": [], "time": []}, "edge": {"target": [], "time": []}}, "mouseover": {"state": {"target": [], "time": []}, "edge": {"target": [], "time": []}}, "mouseout": {"state": {"target": ["0"], "time": [983]}, "edge": {"target": [], "time": []}}}, "displayed_time": "15.47", "trialTime": 16175, "trial_type": "mouselab-mdp", "trial_index": 37, "time_elapsed": 691844, "internal_node_id": "0.0-6.0-1.0-22.0"}}, {"uniqueid": "w37402854:a45369919", "current_trial": 38, "dateTime": 1693580835232, "trialdata": {"revealed_states": [], "clicked_states": [], "num_clicks_accrued": [0, 0, 0, 0, 0, 0, 0, 0, 0, 0, 0, 0, 0], "stateRewards": ["", -1, 3, -5, -2, -13, -9, -34, -7, -81, 32, 35, -2, -2, 1, -14, -32, 81, 7, 4, 82, 56, -8, -1, 3, -8, 6, -24, -24, -53, 2, 38, 61, 54], "withholdReward": false, "trial_id": "mdp_trial_24", "block": "test", "trialIndex": 27, "score": 57, "costs": 0, "simulationMode": [null, null, null, null, null], "rewards": [-2, -2, 1, 4, 56], "path": ["0", "0", "12", "13", "14", "19", "21"], "rt": [582, 119, 191, 156, 1613], "actions": ["right", "right", "right", "down", "down"], "actionTimes": [1858, 2489, 3195, 3877, 6020], "queries": {"click": {"state": {"target": [], "time": []}, "edge": {"target": [], "time": []}}, "mouseover": {"state": {"target": [], "time": []}, "edge": {"target": [], "time": []}}, "mouseout": {"state": {"target": ["0", "0", "12", "22"], "time": [760, 4385, 4487, 15709]}, "edge": {"target": [], "time": []}}}, "displayed_time": "15.29", "trialTime": 16152, "trial_type": "mouselab-mdp", "trial_index": 38, "time_elapsed": 709006, "internal_node_id": "0.0-6.0-1.0-23.0"}}, {"uniqueid": "w37402854:a45369919", "current_trial": 39, "dateTime": 1693580852912, "trialdata": {"revealed_states": [], "clicked_states": ["1"], "num_clicks_accrued": [0, 0, 0, 0, 0, 0, 0, 0, 0, 0, 0, 0, 0], "stateRewards": ["", 1, -2, 7, -14, 88, -56, -44, -14, 64, -51, -57, -2, 3, -4, -9, -11, 19, -77, -1, 68, 75, -67, -1, 1, -2, 5, -37, 70, -34, -10, -72, 63, -41], "withholdReward": false, "trial_id": "mdp_trial_25", "block": "test", "trialIndex": 28, "score": -88.75, "costs": 0.25, "simulationMode": [null, null, null, null, null], "rewards": [-2, 3, -4, -9, -77], "path": ["0", "0", "12", "13", "14", "15", "18"], "rt": [1709, 147, 135, 131, 181], "actions": ["right", "right", "right", "up", "left"], "actionTimes": [2981, 3639, 4304, 4961, 5671], "queries": {"click": {"state": {"target": ["1"], "time": [1930]}, "edge": {"target": [], "time": []}}, "mouseover": {"state": {"target": ["1"], "time": [1676]}, "edge": {"target": [], "time": []}}, "mouseout": {"state": {"target": ["0"], "time": [1578]}, "edge": {"target": [], "time": []}}}, "displayed_time": "15.27", "trialTime": 16501, "trial_type": "mouselab-mdp", "trial_index": 39, "time_elapsed": 726686, "internal_node_id": "0.0-6.0-1.0-24.0"}}, {"uniqueid": "w37402854:a45369919", "current_trial": 40, "dateTime": 1693580870558, "trialdata": {"revealed_states": [], "clicked_states": [], "num_clicks_accrued": [0, 0, 0, 0, 0, 0, 0, 0, 0, 0, 0, 0, 0], "stateRewards": ["", -2, -3, -7, 7, -54, -69, -4, -14, -77, 22, 40, -2, -1, 5, 6, -35, 50, -60, 10, -28, 75, 57, 1, -4, -2, 2, 68, 34, -18, 12, 3, -21, -43], "withholdReward": false, "trial_id": "mdp_trial_26", "block": "test", "trialIndex": 29, "score": -21, "costs": 0, "simulationMode": [null, null, null, null, null], "rewards": [1, -4, -2, 2, -18], "path": ["0", "0", "23", "24", "25", "26", "29"], "rt": [490, 118, 114, 42, 90], "actions": ["left", "left", "left", "up", "left"], "actionTimes": [1887, 2525, 3154, 3718, 4332], "queries": {"click": {"state": {"target": [], "time": []}, "edge": {"target": [], "time": []}}, "mouseover": {"state": {"target": [], "time": []}, "edge": {"target": [], "time": []}}, "mouseout": {"state": {"target": ["1"], "time": [609]}, "edge": {"target": [], "time": []}}}, "displayed_time": "15.41", "trialTime": 16640, "trial_type": "mouselab-mdp", "trial_index": 40, "time_elapsed": 744332, "internal_node_id": "0.0-6.0-1.0-25.0"}}, {"uniqueid": "w37402854:a45369919", "current_trial": 41, "dateTime": 1693580888948, "trialdata": {"revealed_states": [], "clicked_states": ["12"], "num_clicks_accrued": [0, 0, 0, 0, 0, 0, 0, 0, 0, 0, 0, 0, 0], "stateRewards": ["", -2, -3, -3, 9, 79, 67, 22, -15, -56, 27, -85, -2, 4, -4, -15, -20, -32, 60, 15, 71, 57, 17, 1, 2, -8, 15, -37, -81, 82, 15, 21, -3, 2], "withholdReward": false, "trial_id": "mdp_trial_27", "block": "test", "trialIndex": 30, "score": 12.25, "costs": 0.25, "simulationMode": [null, null, null, null, null], "rewards": [1, 2, -8, 15, 2], "path": ["0", "0", "23", "24", "25", "30", "33"], "rt": [2366, 263, 288, 147, 177], "actions": ["left", "left", "left", "down", "left"], "actionTimes": [4015, 4795, 5609, 6274, 6972], "queries": {"click": {"state": {"target": ["12"], "time": [2179]}, "edge": {"target": [], "time": []}}, "mouseover": {"state": {"target": ["12"], "time": [1944]}, "edge": {"target": [], "time": []}}, "mouseout": {"state": {"target": ["0"], "time": [1730]}, "edge": {"target": [], "time": []}}}, "displayed_time": "15.66", "trialTime": 17347, "trial_type": "mouselab-mdp", "trial_index": 41, "time_elapsed": 762722, "internal_node_id": "0.0-6.0-1.0-26.0"}}, {"uniqueid": "w37402854:a45369919", "current_trial": 42, "dateTime": 1693580906756, "trialdata": {"revealed_states": [], "clicked_states": ["1"], "num_clicks_accrued": [0, 0, 0, 0, 0, 0, 0, 0, 0, 0, 0, 0, 0], "stateRewards": ["", 1, -1, 8, -3, 38, 85, -20, -4, 8, 23, 73, 2, -4, 6, -13, 44, 7, -28, -11, -77, 45, -69, 1, -1, -7, -11, 75, -51, -87, 7, 36, -53, -26], "withholdReward": false, "trial_id": "mdp_trial_28", "block": "test", "trialIndex": 31, "score": -14.75, "costs": 0.25, "simulationMode": [null, null, null, null, null], "rewards": [1, -1, 8, -3, -20], "path": ["0", "0", "1", "2", "3", "4", "7"], "rt": [1724, 108, 165, 342, 193], "actions": ["up", "up", "up", "right", "down"], "actionTimes": [2944, 3573, 4260, 5109, 5824], "queries": {"click": {"state": {"target": ["1"], "time": [1793]}, "edge": {"target": [], "time": []}}, "mouseover": {"state": {"target": ["1"], "time": [1500]}, "edge": {"target": [], "time": []}}, "mouseout": {"state": {"target": ["12", "0", "1"], "time": [201, 452, 2129]}, "edge": {"target": [], "time": []}}}, "displayed_time": "15.23", "trialTime": 16688, "trial_type": "mouselab-mdp", "trial_index": 42, "time_elapsed": 780530, "internal_node_id": "0.0-6.0-1.0-27.0"}}, {"uniqueid": "w37402854:a45369919", "current_trial": 43, "dateTime": 1693580923758, "trialdata": {"revealed_states": [], "clicked_states": ["12"], "num_clicks_accrued": [0, 0, 0, 0, 0, 0, 0, 0, 0, 0, 0, 0, 0], "stateRewards": ["", 2, 4, 4, 9, -88, -10, 44, 16, -54, 64, 78, 1, 2, 5, 16, 80, 36, 7, -4, 9, -47, -70, -1, -3, 6, -16, 11, 80, 28, 8, -1, 34, -17], "withholdReward": false, "trial_id": "mdp_trial_29", "block": "test", "trialIndex": 32, "score": 31.25, "costs": 0.25, "simulationMode": [null, null, null, null, null], "rewards": [1, 2, 5, 16, 7], "path": ["0", "0", "12", "13", "14", "15", "18"], "rt": [1566, 119, 158, 117, 96], "actions": ["right", "right", "right", "up", "left"], "actionTimes": [2929, 3559, 4233, 4873, 5499], "queries": {"click": {"state": {"target": ["12"], "time": [1793]}, "edge": {"target": [], "time": []}}, "mouseover": {"state": {"target": ["12"], "time": [1387]}, "edge": {"target": [], "time": []}}, "mouseout": {"state": {"target": ["0"], "time": [692]}, "edge": {"target": [], "time": []}}}, "displayed_time": "15.37", "trialTime": 15995, "trial_type": "mouselab-mdp", "trial_index": 43, "time_elapsed": 797532, "internal_node_id": "0.0-6.0-1.0-28.0"}}, {"uniqueid": "w37402854:a45369919", "current_trial": 44, "dateTime": 1693580940545, "trialdata": {"revealed_states": [], "clicked_states": [], "num_clicks_accrued": [0, 0, 0, 0, 0, 0, 0, 0, 0, 0, 0, 0, 0], "stateRewards": ["", 1, 1, -6, -2, 7, 77, 3, 16, -16, 66, 31, -1, 3, -8, -6, 33, -50, -48, 7, -60, -66, 36, 2, -3, 3, -7, -12, -61, -79, -4, 8, 74, -70], "withholdReward": false, "trial_id": "mdp_trial_30", "block": "test", "trialIndex": 33, "score": -62, "costs": 0, "simulationMode": [null, null, null, null, null], "rewards": [-1, 3, -8, -6, -50], "path": ["0", "0", "12", "13", "14", "15", "17"], "rt": [629, 112, 129, 1297, 102], "actions": ["right", "right", "right", "up", "right"], "actionTimes": [1763, 2369, 3021, 4839, 5461], "queries": {"click": {"state": {"target": [], "time": []}, "edge": {"target": [], "time": []}}, "mouseover": {"state": {"target": [], "time": []}, "edge": {"target": [], "time": []}}, "mouseout": {"state": {"target": ["0"], "time": [540]}, "edge": {"target": [], "time": []}}}, "displayed_time": "15.14", "trialTime": 15794, "trial_type": "mouselab-mdp", "trial_index": 44, "time_elapsed": 814320, "internal_node_id": "0.0-6.0-1.0-29.0"}}, {"uniqueid": "w37402854:a45369919", "current_trial": 45, "dateTime": 1693580958063, "trialdata": {"revealed_states": [], "clicked_states": [], "num_clicks_accrued": [0, 0, 0, 0, 0, 0, 0, 0, 0, 0, 0, 0, 0], "stateRewards": ["", -1, -2, 8, -6, -79, -6, 87, 9, -5, -66, -38, 2, 2, 5, -6, -82, 74, 85, -8, 67, -30, -15, 1, -2, -2, -2, 87, 64, 49, 7, 2, -38, -9], "withholdReward": false, "trial_id": "mdp_trial_31", "block": "test", "trialIndex": 34, "score": -79, "costs": 0, "simulationMode": [null, null, null, null, null], "rewards": [2, 2, 5, -6, -82], "path": ["0", "0", "12", "13", "14", "15", "16"], "rt": [336, 97, 56, 967, 109], "actions": ["right", "right", "right", "up", "up"], "actionTimes": [1864, 2483, 3073, 4553, 5188], "queries": {"click": {"state": {"target": [], "time": []}, "edge": {"target": [], "time": []}}, "mouseover": {"state": {"target": [], "time": []}, "edge": {"target": [], "time": []}}, "mouseout": {"state": {"target": ["0", "1", "2", "4", "7"], "time": [9183, 9213, 9231, 11160, 11194]}, "edge": {"target": [], "time": []}}}, "displayed_time": "15.53", "trialTime": 16568, "trial_type": "mouselab-mdp", "trial_index": 45, "time_elapsed": 831837, "internal_node_id": "0.0-6.0-1.0-30.0"}}, {"uniqueid": "w37402854:a45369919", "current_trial": 46, "dateTime": 1693580975177, "trialdata": {"revealed_states": [], "clicked_states": [], "num_clicks_accrued": [0, 0, 0, 0, 0, 0, 0, 0, 0, 0, 0, 0, 0], "stateRewards": ["", 2, -1, -3, 16, -3, -16, -62, -1, 13, -26, 43, -1, 4, 3, -9, -54, -37, -3, -12, -71, -68, -57, 1, -3, 2, -9, 2, -2, -9, -11, 84, -52, 55], "withholdReward": false, "trial_id": "mdp_trial_32", "block": "test", "trialIndex": 35, "score": 44, "costs": 0, "simulationMode": [null, null, null, null, null], "rewards": [1, -3, 2, -11, 55], "path": ["0", "0", "23", "24", "25", "30", "33"], "rt": [470, 125, 110, 71, 149], "actions": ["left", "left", "left", "down", "left"], "actionTimes": [1385, 2033, 2664, 3260, 3933], "queries": {"click": {"state": {"target": [], "time": []}, "edge": {"target": [], "time": []}}, "mouseover": {"state": {"target": [], "time": []}, "edge": {"target": [], "time": []}}, "mouseout": {"state": {"target": ["0"], "time": [352]}, "edge": {"target": [], "time": []}}}, "displayed_time": "14.92", "trialTime": 16110, "trial_type": "mouselab-mdp", "trial_index": 46, "time_elapsed": 848951, "internal_node_id": "0.0-6.0-1.0-31.0"}}, {"uniqueid": "w37402854:a45369919", "current_trial": 47, "dateTime": 1693580993138, "trialdata": {"revealed_states": [], "clicked_states": [], "num_clicks_accrued": [0, 0, 0, 0, 0, 0, 0, 0, 0, 0, 0, 0, 0], "stateRewards": ["", 1, 4, -8, -5, -15, -7, 21, 13, -30, 40, -65, 1, 1, 5, -14, 35, 27, -38, -11, 36, -58, -47, -2, 4, -3, 13, -16, -49, 22, 15, -56, -44, -10], "withholdReward": false, "trial_id": "mdp_trial_33", "block": "test", "trialIndex": 36, "score": 13, "costs": 0, "simulationMode": [null, null, null, null, null], "rewards": [1, 4, -8, -5, 21], "path": ["0", "0", "1", "2", "3", "4", "7"], "rt": [357, 88, 107, 31, 644], "actions": ["up", "up", "up", "right", "down"], "actionTimes": [2070, 2682, 3298, 3840, 5005], "queries": {"click": {"state": {"target": [], "time": []}, "edge": {"target": [], "time": []}}, "mouseover": {"state": {"target": [], "time": []}, "edge": {"target": [], "time": []}}, "mouseout": {"state": {"target": ["0"], "time": [1000]}, "edge": {"target": [], "time": []}}}, "displayed_time": "15.71", "trialTime": 16940, "trial_type": "mouselab-mdp", "trial_index": 47, "time_elapsed": 866912, "internal_node_id": "0.0-6.0-1.0-32.0"}}, {"uniqueid": "w37402854:a45369919", "current_trial": 48, "dateTime": 1693581010839, "trialdata": {"revealed_states": [], "clicked_states": [], "num_clicks_accrued": [0, 0, 0, 0, 0, 0, 0, 0, 0, 0, 0, 0, 0], "stateRewards": ["", 2, -4, 4, 9, 69, 9, -75, 12, -86, 66, 25, -1, 3, 2, -13, -88, -3, 1, 4, -69, 49, -84, 2, -1, 4, 2, -18, -81, -52, -15, -69, -54, 25], "withholdReward": false, "trial_id": "mdp_trial_34", "block": "test", "trialIndex": 37, "score": -74, "costs": 0, "simulationMode": [null, null, null, null, null], "rewards": [2, -1, 4, 2, -81], "path": ["0", "0", "23", "24", "25", "26", "28"], "rt": [415, 108, 112, 96, 85], "actions": ["left", "left", "left", "up", "right"], "actionTimes": [2100, 2735, 3371, 3988, 4590], "queries": {"click": {"state": {"target": [], "time": []}, "edge": {"target": [], "time": []}}, "mouseover": {"state": {"target": [], "time": []}, "edge": {"target": [], "time": []}}, "mouseout": {"state": {"target": ["0"], "time": [1032]}, "edge": {"target": [], "time": []}}}, "displayed_time": "15.69", "trialTime": 16768, "trial_type": "mouselab-mdp", "trial_index": 48, "time_elapsed": 884613, "internal_node_id": "0.0-6.0-1.0-33.0"}}, {"uniqueid": "w37402854:a45369919", "current_trial": 49, "dateTime": 1693581028254, "trialdata": {"revealed_states": [], "clicked_states": [], "num_clicks_accrued": [0, 0, 0, 0, 0, 0, 0, 0, 0, 0, 0, 0, 0], "stateRewards": ["", 1, -4, -6, -1, -21, 17, -72, 10, 77, 67, -46, -1, 4, -2, 14, -66, -49, -45, -15, -52, 23, -67, 2, -2, -2, 15, -3, 45, -64, 5, -44, 83, 61], "withholdReward": false, "trial_id": "mdp_trial_35", "block": "test", "trialIndex": 38, "score": 10, "costs": 0, "simulationMode": [null, null, null, null, null], "rewards": [2, -2, -2, 15, -3], "path": ["0", "0", "23", "24", "25", "26", "27"], "rt": [397, 118, 139, 146, 215], "actions": ["left", "left", "left", "up", "up"], "actionTimes": [1820, 2457, 3111, 3784, 4526], "queries": {"click": {"state": {"target": [], "time": []}, "edge": {"target": [], "time": []}}, "mouseover": {"state": {"target": [], "time": []}, "edge": {"target": [], "time": []}}, "mouseout": {"state": {"target": ["0"], "time": [910]}, "edge": {"target": [], "time": []}}}, "displayed_time": "15.43", "trialTime": 16491, "trial_type": "mouselab-mdp", "trial_index": 49, "time_elapsed": 902028, "internal_node_id": "0.0-6.0-1.0-34.0"}}, {"uniqueid": "w37402854:a45369919", "current_trial": 50, "dateTime": 1693581045409, "trialdata": {"revealed_states": [], "clicked_states": [], "num_clicks_accrued": [0, 0, 0, 0, 0, 0, 0, 0, 0, 0, 0, 0, 0], "stateRewards": ["", 1, 1, 7, -11, 80, -20, -53, -14, 3, 31, 27, 2, -1, -8, -10, 33, 41, 86, 9, 78, -37, -13, -1, -2, -6, -8, -80, 75, 4, -16, -49, -74, 24], "withholdReward": false, "trial_id": "mdp_trial_36", "block": "test", "trialIndex": 39, "score": 26, "costs": 0, "simulationMode": [null, null, null, null, null], "rewards": [1, 1, 7, -14, 31], "path": ["0", "0", "1", "2", "3", "8", "10"], "rt": [541, 98, 69, 82, 110], "actions": ["up", "up", "up", "left", "down"], "actionTimes": [1711, 2328, 2920, 3514, 4143], "queries": {"click": {"state": {"target": [], "time": []}, "edge": {"target": [], "time": []}}, "mouseover": {"state": {"target": [], "time": []}, "edge": {"target": [], "time": []}}, "mouseout": {"state": {"target": ["0"], "time": [674]}, "edge": {"target": [], "time": []}}}, "displayed_time": "15.18", "trialTime": 16152, "trial_type": "mouselab-mdp", "trial_index": 50, "time_elapsed": 919183, "internal_node_id": "0.0-6.0-1.0-35.0"}}, {"uniqueid": "w37402854:a45369919", "current_trial": 51, "dateTime": 1693581063006, "trialdata": {"revealed_states": [], "clicked_states": [], "num_clicks_accrued": [0, 0, 0, 0, 0, 0, 0, 0, 0, 0, 0, 0, 0], "stateRewards": ["", -2, 2, 5, -14, -56, 64, 84, -5, 52, 39, 85, -2, 1, 7, 8, 21, 29, -78, -9, -10, -69, 10, -2, -1, -7, 15, 72, 20, 41, -2, 52, 80, 22], "withholdReward": false, "trial_id": "mdp_trial_37", "block": "test", "trialIndex": 40, "score": 10, "costs": 0, "simulationMode": [null, null, null, null, null], "rewards": [-2, -1, -7, -2, 22], "path": ["0", "0", "23", "24", "25", "30", "33"], "rt": [1293, 109, 170, 143, 147], "actions": ["left", "left", "left", "down", "left"], "actionTimes": [2872, 3501, 4193, 4849, 5519], "queries": {"click": {"state": {"target": [], "time": []}, "edge": {"target": [], "time": []}}, "mouseover": {"state": {"target": [], "time": []}, "edge": {"target": [], "time": []}}, "mouseout": {"state": {"target": [], "time": []}, "edge": {"target": [], "time": []}}}, "displayed_time": "15.59", "trialTime": 16587, "trial_type": "mouselab-mdp", "trial_index": 51, "time_elapsed": 936780, "internal_node_id": "0.0-6.0-1.0-36.0"}}, {"uniqueid": "w37402854:a45369919", "current_trial": 52, "dateTime": 1693581080772, "trialdata": {"revealed_states": [], "clicked_states": [], "num_clicks_accrued": [0, 0, 0, 0, 0, 0, 0, 0, 0, 0, 0, 0, 0], "stateRewards": ["", -2, -3, 7, -13, 60, 9, 37, -6, 37, 20, 1, 2, -2, -8, 6, -80, -31, -10, -7, 70, -65, -44, -1, 1, 7, 6, -11, 73, -85, 16, -21, 47, 34], "withholdReward": false, "trial_id": "mdp_trial_38", "block": "test", "trialIndex": 41, "score": -2, "costs": 0, "simulationMode": [null, null, null, null, null], "rewards": [-2, -3, 7, -13, 9], "path": ["0", "0", "1", "2", "3", "4", "6"], "rt": [482, 101, 130, 97, 136], "actions": ["up", "up", "up", "right", "right"], "actionTimes": [2232, 2873, 3521, 4137, 4798], "queries": {"click": {"state": {"target": [], "time": []}, "edge": {"target": [], "time": []}}, "mouseover": {"state": {"target": [], "time": []}, "edge": {"target": [], "time": []}}, "mouseout": {"state": {"target": ["0"], "time": [742]}, "edge": {"target": [], "time": []}}}, "displayed_time": "15.76", "trialTime": 16650, "trial_type": "mouselab-mdp", "trial_index": 52, "time_elapsed": 954547, "internal_node_id": "0.0-6.0-1.0-37.0"}}, {"uniqueid": "w37402854:a45369919", "current_trial": 53, "dateTime": 1693581098489, "trialdata": {"revealed_states": [], "clicked_states": [], "num_clicks_accrued": [0, 0, 0, 0, 0, 0, 0, 0, 0, 0, 0, 0, 0], "stateRewards": ["", -2, 3, -1, -9, 44, 48, -37, -3, 71, -39, 87, -1, 3, -4, 4, -21, 59, -15, -8, -1, 28, -38, 2, 4, 4, 8, -85, -72, -63, 14, 58, 63, -46], "withholdReward": false, "trial_id": "mdp_trial_39", "block": "test", "trialIndex": 42, "score": 35, "costs": 0, "simulationMode": [null, null, null, null, null], "rewards": [-2, 3, -1, -9, 44], "path": ["0", "0", "1", "2", "3", "4", "5"], "rt": [1641, 98, 141, 129, 202], "actions": ["up", "up", "up", "right", "up"], "actionTimes": [3060, 3678, 4336, 4975, 5698], "queries": {"click": {"state": {"target": [], "time": []}, "edge": {"target": [], "time": []}}, "mouseover": {"state": {"target": [], "time": []}, "edge": {"target": [], "time": []}}, "mouseout": {"state": {"target": [], "time": []}, "edge": {"target": [], "time": []}}}, "displayed_time": "15.43", "trialTime": 16619, "trial_type": "mouselab-mdp", "trial_index": 53, "time_elapsed": 972263, "internal_node_id": "0.0-6.0-1.0-38.0"}}, {"uniqueid": "w37402854:a45369919", "current_trial": 54, "dateTime": 1693581116887, "trialdata": {"revealed_states": [], "clicked_states": [], "num_clicks_accrued": [0, 0, 0, 0, 0, 0, 0, 0, 0, 0, 0, 0, 0], "stateRewards": ["", -2, 1, 6, -2, -10, -78, -69, 14, -15, 7, -1, 1, -1, -2, 13, 77, 32, 87, 5, -74, 30, -26, 1, 3, 4, 12, 39, 54, -43, 2, 10, 23, 13], "withholdReward": false, "trial_id": "mdp_trial_40", "block": "test", "trialIndex": 43, "score": 43, "costs": 0, "simulationMode": [null, null, null, null, null], "rewards": [1, -1, -2, 13, 32], "path": ["0", "0", "12", "13", "14", "15", "17"], "rt": [1080, 158, 146, 160, 193], "actions": ["right", "right", "right", "up", "right"], "actionTimes": [2614, 3267, 3938, 4617, 5336], "queries": {"click": {"state": {"target": [], "time": []}, "edge": {"target": [], "time": []}}, "mouseover": {"state": {"target": [], "time": []}, "edge": {"target": [], "time": []}}, "mouseout": {"state": {"target": ["0"], "time": [193]}, "edge": {"target": [], "time": []}}}, "displayed_time": "15.54", "trialTime": 17440, "trial_type": "mouselab-mdp", "trial_index": 54, "time_elapsed": 990661, "internal_node_id": "0.0-6.0-1.0-39.0"}}, {"uniqueid": "w37402854:a45369919", "current_trial": 55, "dateTime": 1693581159780, "trialdata": {"rt": 42888, "response": {"Q0": "$-2 to $2", "Q1": "$-16 to $16", "Q2": "$-88 to $88", "Q3": "The cost for clicking on nodes varied between nodes.", "Q4": "Slightly motivated"}, "question_order": [0, 1, 2, 3, 4], "trial_id": "final_quiz_control", "trial_type": "survey-multi-choice", "trial_index": 55, "time_elapsed": 1033555, "internal_node_id": "0.0-6.0-2.0"}}, {"uniqueid": "w37402854:a45369919", "current_trial": 56, "dateTime": 1693581229692, "trialdata": {"rt": 69904, "response": {"Q0": "I picked similar routes each time and if it was negative I would go down the same way the next time ", "Q1": "I just mixed up where I went ", "Q2": "I think the fact that you could only see one node's value if you used the inspector was hard, since the nodes changed each time even seeing a positive value for the node doesn't mean it would be a positive outcome "}, "trial_id": "self_report_control", "trial_type": "survey-text", "trial_index": 56, "time_elapsed": 1103467, "internal_node_id": "0.0-6.0-3.0"}}, {"uniqueid": "w37402854:a45369919", "current_trial": 57, "dateTime": 1693581266129, "trialdata": {"rt": 36430, "response": {"Q0": "Agree", "Q1": "Disagree", "Q2": "Agree", "Q3": "Agree", "Q4": "Disagree", "Q5": "Agree", "Q6": "Disagree"}, "question_order": [0, 1, 2, 3, 4, 5, 6], "trial_id": "self_report_2", "trial_type": "survey-multi-choice", "trial_index": 57, "time_elapsed": 1139904, "internal_node_id": "0.0-6.0-4.0"}}, {"uniqueid": "w37402854:a45369919", "current_trial": 58, "dateTime": 1693581284695, "trialdata": {"rt": 18556, "response": {"gender": "female", "age": "19", "colorblind": "0", "effort": "1"}, "trial_type": "survey-html-form", "trial_index": 58, "time_elapsed": 1158470, "internal_node_id": "0.0-6.0-5.0"}}, {"uniqueid": "w37402854:a45369919", "current_trial": 59, "dateTime": 1693581307466, "trialdata": {"rt": 22764, "response": {"Q0": "The nodule inspector ", "Q1": "No", "Q2": "No"}, "trial_type": "survey-text", "trial_index": 59, "time_elapsed": 1181241, "internal_node_id": "0.0-6.0-6.0"}}, {"uniqueid": "w37402854:a45369919", "current_trial": 60, "dateTime": 1693581330516, "trialdata": {"rt": 23043, "stimulus": "<h1>Completion Code Instructions (1/2)</h1>\n<br><br><br><br>\nYou have reached the end of the experiment! The completion code consists of two parts: (1) a code with 2 characters (2) a code with 6 characters. On this page, you will receive the second part of the code. The first part of the completion code will be on the next page.\n<br><br>\nThe second part of your completion code is: <b>EWEK22</b>\n<br><br>\nPlease note this down. Then, press 'Next' in order to find the first part of your completion code. Once the data has been saved, you will receive this code either in this window or in the original browser window where you started the experiment.\n <br><br>\n<h2 style='color: red;'>Note: this is <strong>NOT</strong> the full completion code. Copy this down and click 'Next' to get the full completion code on the next page.</h2>", "response": 0, "trial_type": "html-button-response", "trial_index": 60, "time_elapsed": 1204290, "internal_node_id": "0.0-6.0-7.0"}}, {"uniqueid": "w37402854:a45369919", "current_trial": 61, "dateTime": 1693581331525, "trialdata": {"success": true, "trial_type": "fullscreen", "trial_index": 61, "time_elapsed": 1205299, "internal_node_id": "0.0-7.0"}}], "questiondata": {"params": {"CODE": "C6DMOQA6", "MIN_TIME": 14, "inspectCost": 1, "startTime": "Fri Sep 01 2023 15:55:25 GMT+0100 (British Summer Time)", "bonusRate": 0.002, "variance": "1_2_4_8_44", "branching": "31123"}, "final_score": 644}, "eventdata": [{"eventtype": "initialized", "value": null, "timestamp": 1693580125161, "interval": 0}, {"eventtype": "window_resize", "value": [1440, 783], "timestamp": 1693580125162, "interval": 1}, {"eventtype": "window_resize", "value": [1440, 783], "timestamp": 1693580125512, "interval": 350}, {"eventtype": "window_resize", "value": [1440, 900], "timestamp": 1693580129481, "interval": 3969}, {"eventtype": "focus", "value": "off", "timestamp": 1693580338744, "interval": 209263}, {"eventtype": "focus", "value": "on", "timestamp": 1693580338909, "interval": 165}, {"eventtype": "window_resize", "value": [1440, 783], "timestamp": 1693580338963, "interval": 54}, {"eventtype": "window_resize", "value": [1440, 900], "timestamp": 1693580341543, "interval": 2580}, {"eventtype": "window_resize", "value": [1440, 783], "timestamp": 1693581330734, "interval": 989191}], "useragent": "Mozilla/5.0 (Macintosh; Intel Mac OS X 10_15_7) AppleWebKit/537.36 (KHTML, like Gecko) Chrome/116.0.0.0 Safari/537.36", "mode": "live", "id": "w37402854:a45369919", "status": "user data saved", "Beginhit": "2023-09-01 14:55:24.046098", "Beginexp": "2023-09-01 14:55:30.394705", "Endhit": "2023-09-01 15:15:32.063389", "psiturkStatus": 3, "browser": "<redacted>", "platform": "macos", "language": "en-GB"}