{"condition": 1, "counterbalance": 0, "assignmentId": "a37645315", "workerId": "w28391368", "hitId": "h57636370", "currenttrial": 56, "bonus": 0, "data": [{"uniqueid": "w28391368:a37645315", "current_trial": 0, "dateTime": 1691142048725, "trialdata": {"success": true, "trial_type": "fullscreen", "trial_index": 0, "time_elapsed": 16555, "internal_node_id": "0.0-0.0"}}, {"uniqueid": "w28391368:a37645315", "current_trial": 1, "dateTime": 1691142081176, "trialdata": {"view_history": [{"page_index": 0, "viewing_time": 32443}], "rt": 32444, "trial_id": "exp_instructions_misaligned", "trial_type": "instructions", "trial_index": 1, "time_elapsed": 49008, "internal_node_id": "0.0-1.0"}}, {"uniqueid": "w28391368:a37645315", "current_trial": 2, "dateTime": 1691142085868, "trialdata": {"success": true, "trial_type": "fullscreen", "trial_index": 2, "time_elapsed": 53700, "internal_node_id": "0.0-2.0-0.0"}}, {"uniqueid": "w28391368:a37645315", "current_trial": 3, "dateTime": 1691142398463, "trialdata": {"view_history": [{"page_index": 0, "viewing_time": 131767}, {"page_index": 1, "viewing_time": 100507}, {"page_index": 2, "viewing_time": 28175}, {"page_index": 3, "viewing_time": 52134}], "rt": 312582, "trial_id": "mouselab_instructions_1_misaligned", "trial_type": "instructions", "trial_index": 3, "time_elapsed": 366294, "internal_node_id": "0.0-2.0-1.0"}}, {"uniqueid": "w28391368:a37645315", "current_trial": 4, "dateTime": 1691142527177, "trialdata": {"revealed_states": [], "clicked_states": ["12", "14", "19", "21", "1", "23", "24", "25", "30", "32", "3", "2", "8", "10", "9", "5", "7", "4", "6", "18", "13", "15", "17", "16", "20", "22", "27", "28", "26", "29", "33", "31", "11"], "num_clicks_accrued": [0, 0, 0, 0, 0, 0, 0, 0, 0, 0, 0, 0, 0], "stateRewards": ["", 10, 10, 10, -10, 10, -10, 10, 10, -10, -10, 10, -10, -10, 10, -10, 10, 10, -10, 10, 10, 10, -10, 10, -10, 10, -10, 10, 10, 10, -10, 10, -10, -10], "withholdReward": false, "trial_id": "practice_1", "block": "test", "trialIndex": 0, "score": -23, "costs": -16.5, "simulationMode": [null, null, null, null, null], "rewards": [10, -10, 10, -10, -10], "path": ["0", "0", "23", "24", "25", "30", "32"], "rt": [118065, 412, 266, 27, 544], "actions": ["left", "left", "left", "down", "down"], "actionTimes": [121662, 122603, 123393, 124054, 125136], "queries": {"click": {"state": {"target": ["12", "14", "19", "21", "1", "23", "24", "25", "30", "32", "3", "2", "8", "10", "9", "5", "7", "4", "6", "18", "13", "15", "17", "16", "20", "22", "27", "28", "26", "29", "33", "31", "11"], "time": [5378, 8735, 10825, 12924, 19249, 22439, 25886, 28067, 29439, 31449, 33823, 37079, 39646, 42415, 45031, 47317, 49606, 51515, 53370, 57215, 59250, 61760, 64087, 66806, 69569, 71983, 82579, 85929, 88572, 90483, 92921, 94901, 97825]}, "edge": {"target": [], "time": []}}, "mouseover": {"state": {"target": ["0", "0", "12", "0", "1", "13", "22", "14", "19", "21", "20", "0", "28", "26", "24", "0", "1", "23", "24", "25", "25", "30", "32", "31", "23", "2", "3", "2", "8", "10", "8", "9", "9", "6", "5", "4", "7", "4", "6", "13", "12", "18", "13", "22", "13", "15", "17", "16", "20", "19", "22", "31", "31", "23", "0", "12", "12", "23", "31", "30", "30", "25", "26", "27", "26", "28", "26", "29", "33", "30", "31", "0", "10", "11", "12", "13", "14", "19", "21", "0", "0", "0", "19", "14", "15", "16", "22", "13", "12", "23", "23"], "time": [3967, 4700, 5070, 6884, 7235, 7665, 7966, 8439, 9617, 12538, 14486, 15187, 15286, 16320, 16636, 18780, 18998, 22279, 25297, 26559, 27781, 29003, 30546, 32689, 32741, 32872, 33521, 36089, 39306, 42192, 44138, 44272, 44606, 46271, 46689, 49004, 49186, 51102, 52899, 55417, 55483, 56918, 58532, 58662, 58946, 61413, 63612, 66278, 68352, 71355, 71621, 73655, 77304, 77670, 77720, 78056, 80339, 81406, 81471, 81504, 81688, 81770, 81871, 82320, 84689, 85104, 87470, 89948, 92665, 93886, 93977, 96647, 97165, 97402, 101042, 101158, 101558, 103675, 104444, 105260, 106892, 107442, 108733, 109200, 109317, 109433, 113816, 113951, 117383, 120376, 121258]}, "edge": {"target": [], "time": []}}, "mouseout": {"state": {"target": ["0", "1", "0", "0", "0", "0", "12", "0", "1", "12", "13", "22", "14", "19", "21", "20", "19", "0", "28", "26", "24", "0", "1", "1", "23", "23", "24", "25", "25", "25", "30", "32", "31", "23", "2", "3", "2", "8", "10", "8", "9", "9", "6", "5", "5", "4", "7", "4", "6", "13", "12", "18", "13", "22", "13", "15", "15", "17", "16", "20", "19", "22", "31", "31", "23", "0", "12", "12", "23", "31", "30", "30", "25", "26", "27", "26", "28", "26", "29", "33", "33", "30", "31", "0", "10", "11", "12", "13", "14", "19", "21", "0", "0", "0", "19", "14", "15", "16", "22", "13", "12", "23"], "time": [681, 999, 1681, 2985, 4085, 4749, 6833, 6968, 7402, 7532, 7867, 8188, 9555, 12420, 14269, 14704, 14753, 15232, 16272, 16337, 16722, 18879, 19899, 21780, 22842, 25197, 26533, 27332, 28280, 28900, 30242, 32638, 32722, 32758, 32909, 36054, 39184, 42087, 42579, 44189, 44323, 46108, 46543, 47509, 48970, 49086, 49725, 52834, 54867, 55452, 55517, 58515, 58581, 58798, 61295, 61770, 63315, 66114, 68220, 70445, 71487, 73454, 73672, 77387, 77687, 77736, 79187, 81254, 81440, 81488, 81557, 81705, 81822, 81904, 84605, 84772, 87420, 89650, 92166, 93044, 93850, 93918, 96348, 96931, 97265, 99194, 101107, 101508, 103525, 104341, 104891, 106192, 107025, 108043, 109017, 109250, 109350, 109468, 113851, 114166, 117717, 120674]}, "edge": {"target": [], "time": []}}}, "displayed_time": "125.67", "trialTime": 127482, "trial_type": "mouselab-mdp", "trial_index": 4, "time_elapsed": 495008, "internal_node_id": "0.0-2.0-2.0-0.0"}}, {"uniqueid": "w28391368:a37645315", "current_trial": 5, "dateTime": 1691142553672, "trialdata": {"revealed_states": [], "clicked_states": [], "num_clicks_accrued": [0, 0, 0, 0, 0, 0, 0, 0, 0, 0, 0, 0, 0], "stateRewards": ["", -10, -10, -10, -10, 10, 10, -10, -10, -10, -10, -10, 10, -10, -10, 10, 10, 10, -10, 10, -10, 10, -10, -10, -10, 10, -10, 10, -10, -10, -10, 10, 10, 10], "withholdReward": false, "trial_id": "practice_2", "block": "test", "trialIndex": 1, "score": -6.5, "costs": 0, "simulationMode": [null, null, null, null, null], "rewards": [-10, -10, 10, -10, 10], "path": ["0", "0", "23", "24", "25", "30", "32"], "rt": [2007, 9144, 276, 147, 372], "actions": ["left", "left", "left", "down", "down"], "actionTimes": [8906, 18566, 19364, 20032, 20927], "queries": {"click": {"state": {"target": [], "time": []}, "edge": {"target": [], "time": []}}, "mouseover": {"state": {"target": ["0"], "time": [8299]}, "edge": {"target": [], "time": []}}, "mouseout": {"state": {"target": ["2", "4", "6", "0", "0", "23", "24", "13", "12", "12", "20", "19", "22"], "time": [594, 644, 6098, 8347, 11099, 12599, 13682, 17815, 17933, 23770, 24336, 24554, 24836]}, "edge": {"target": [], "time": []}}}, "displayed_time": "21.44", "trialTime": 26064, "trial_type": "mouselab-mdp", "trial_index": 5, "time_elapsed": 521503, "internal_node_id": "0.0-2.0-2.0-1.0"}}, {"uniqueid": "w28391368:a37645315", "current_trial": 6, "dateTime": 1691142597377, "trialdata": {"view_history": [{"page_index": 0, "viewing_time": 23758}, {"page_index": 1, "viewing_time": 19940}], "rt": 43699, "trial_id": "mouselab_instructions_2_misaligned", "trial_type": "instructions", "trial_index": 6, "time_elapsed": 565209, "internal_node_id": "0.0-2.0-3.0"}}, {"uniqueid": "w28391368:a37645315", "current_trial": 7, "dateTime": 1691142658042, "trialdata": {"rt": 60658, "response": {"Q0": "The cost for clicking on nodes may vary between nodes.", "Q1": "The better I perform the higher my bonus will be.", "Q2": "No, the amount of cash at each node of the web may be different each time.", "Q3": "To get the highest total score.", "Q4": "Only before moving the spider.", "Q5": "3 seconds"}, "question_order": [0, 1, 2, 3, 4, 5], "correct": {"Q0": "The cost for clicking on nodes may vary between nodes.", "Q1": "The better I perform the higher my bonus will be.", "Q2": "No, the amount of cash at each node of the web may be different each time.", "Q3": "To get the highest total score.", "Q4": "Only before moving the spider.", "Q5": "3 seconds"}, "trial_id": "mouselab_quiz_misaligned", "trial_type": "survey-multi-choice", "trial_index": 7, "time_elapsed": 625874, "internal_node_id": "0.0-2.0-4.0"}}, {"uniqueid": "w28391368:a37645315", "current_trial": 8, "dateTime": 1691142681817, "trialdata": {"rt": 23764, "stimulus": "\n<h1> Get ready to start the game! </h1>\n\nThank you for reading the instructions. Get ready start with the 40 rounds of this game.\n<br><br>\nIf you need to take a break, feel free to take one after the end of a round, before continuing to the next one.\n<br><br>\nRemember, the more money the spider gets, the bigger your bonus will be!\n<br><br>\n<div style='text-align: center;'>Press <code>space</code> to begin.</div>\n\n<br><br>\n(If, at any point, the <code>space</code> key does not take you to the next page, click once on the text and try again.)", "response": " ", "trial_id": "mdp_ready", "trial_type": "html-keyboard-response", "trial_index": 8, "time_elapsed": 649649, "internal_node_id": "0.0-4.0-0.0"}}, {"uniqueid": "w28391368:a37645315", "current_trial": 9, "dateTime": 1691142703532, "trialdata": {"revealed_states": [], "clicked_states": ["24", "14"], "num_clicks_accrued": [0, 0, 0, 0, 0, 0, 0, 0, 0, 0, 0, 0, 0], "stateRewards": ["", 1, 2, 8, -2, 23, -69, -18, -16, 54, -21, 71, -1, -4, 7, 11, 43, -6, 88, 6, -55, 72, 43, 1, -3, -2, -1, 68, -31, -54, 4, -8, 25, -2], "withholdReward": false, "trial_id": "mdp_trial_1", "block": "test", "trialIndex": 2, "score": 78.7, "costs": -1.2999999999999998, "simulationMode": [null, null, null, null, null], "rewards": [-1, -4, 7, 6, 72], "path": ["0", "0", "12", "13", "14", "19", "21"], "rt": [8910, 962, 359, 388, 234], "actions": ["right", "right", "right", "down", "down"], "actionTimes": [11997, 13472, 14350, 15276, 16031], "queries": {"click": {"state": {"target": ["24", "14"], "time": [5667, 8066]}, "edge": {"target": [], "time": []}}, "mouseover": {"state": {"target": ["23", "24", "23", "14", "19"], "time": [4788, 5404, 7021, 7771, 8864]}, "edge": {"target": [], "time": []}}, "mouseout": {"state": {"target": ["15", "18", "13", "12", "23", "24", "24", "23", "14", "19"], "time": [1079, 1130, 1278, 1378, 5353, 5751, 7004, 7071, 8810, 8989]}, "edge": {"target": [], "time": []}}}, "displayed_time": "17.09", "trialTime": 21276, "trial_type": "mouselab-mdp", "trial_index": 9, "time_elapsed": 671363, "internal_node_id": "0.0-4.0-1.0-0.0"}}, {"uniqueid": "w28391368:a37645315", "current_trial": 10, "dateTime": 1691142724640, "trialdata": {"revealed_states": [], "clicked_states": ["3", "5"], "num_clicks_accrued": [0, 0, 0, 0, 0, 0, 0, 0, 0, 0, 0, 0, 0], "stateRewards": ["", 2, -4, 4, 9, 69, 9, -75, 12, -86, 66, 25, -1, 3, 2, -13, -88, -3, 1, 4, -69, 49, -84, 2, -1, 4, 2, -18, -81, -52, -15, -69, -54, 25], "withholdReward": false, "trial_id": "mdp_trial_2", "block": "test", "trialIndex": 3, "score": 76.9, "costs": -3.0999999999999996, "simulationMode": [null, null, null, null, null], "rewards": [2, -4, 4, 9, 69], "path": ["0", "0", "1", "2", "3", "4", "5"], "rt": [6169, 412, 76, 236, 702], "actions": ["up", "up", "up", "right", "up"], "actionTimes": [8571, 9507, 10105, 10877, 12102], "queries": {"click": {"state": {"target": ["3", "5"], "time": [3710, 5388]}, "edge": {"target": [], "time": []}}, "mouseover": {"state": {"target": ["1", "2", "3", "4", "5"], "time": [2840, 3073, 3508, 5008, 5090]}, "edge": {"target": [], "time": []}}, "mouseout": {"state": {"target": ["19", "0", "1", "2", "3", "4", "5", "5", "16", "6", "13"], "time": [1655, 2741, 2923, 3289, 4959, 5025, 5470, 5795, 15650, 18856, 18941]}, "edge": {"target": [], "time": []}}}, "displayed_time": "16.41", "trialTime": 20626, "trial_type": "mouselab-mdp", "trial_index": 10, "time_elapsed": 692471, "internal_node_id": "0.0-4.0-1.0-1.0"}}, {"uniqueid": "w28391368:a37645315", "current_trial": 11, "dateTime": 1691142745159, "trialdata": {"revealed_states": [], "clicked_states": ["25", "32"], "num_clicks_accrued": [0, 0, 0, 0, 0, 0, 0, 0, 0, 0, 0, 0, 0], "stateRewards": ["", 2, -3, -4, -1, 25, -16, 16, 10, -71, -20, -55, 1, 3, -4, -9, 1, 32, 11, -6, 32, -50, -41, -1, 4, 4, -8, 7, -81, 70, 2, -52, 45, -10], "withholdReward": false, "trial_id": "mdp_trial_3", "block": "test", "trialIndex": 4, "score": 50.9, "costs": -3.0999999999999996, "simulationMode": [null, null, null, null, null, null], "rewards": [-1, 4, 4, 2, 45], "path": ["0", "0", "23", "24", "25", "30", "32"], "rt": [4740, 1042, 149, 134, 196, 532], "actions": ["left", "left", "left", "left", "down", "down"], "actionTimes": [8359, 9406, 10079, 10747, 11524, 12596], "queries": {"click": {"state": {"target": ["25", "32"], "time": [4915, 6505]}, "edge": {"target": [], "time": []}}, "mouseover": {"state": {"target": ["0", "23", "24", "25", "24", "23", "32"], "time": [4271, 4389, 4488, 4588, 5495, 5549, 6172]}, "edge": {"target": [], "time": []}}, "mouseout": {"state": {"target": ["13", "27", "0", "0", "0", "23", "24", "25", "25", "24", "23", "32", "32"], "time": [1071, 2138, 2938, 3971, 4339, 4454, 4538, 5019, 5463, 5542, 5571, 6811, 17659]}, "edge": {"target": [], "time": []}}}, "displayed_time": "17.63", "trialTime": 19927, "trial_type": "mouselab-mdp", "trial_index": 11, "time_elapsed": 712991, "internal_node_id": "0.0-4.0-1.0-2.0"}}, {"uniqueid": "w28391368:a37645315", "current_trial": 12, "dateTime": 1691142766067, "trialdata": {"revealed_states": [], "clicked_states": ["14"], "num_clicks_accrued": [0, 0, 0, 0, 0, 0, 0, 0, 0, 0, 0, 0, 0], "stateRewards": ["", -1, 1, -1, 2, 19, 85, -18, 2, -3, -26, 36, 2, 4, 7, -9, -18, 70, 72, -5, 35, -20, -28, 1, -2, -4, -3, -59, -11, -63, -2, -72, 59, -69], "withholdReward": false, "trial_id": "mdp_trial_4", "block": "test", "trialIndex": 5, "score": -12.95, "costs": -0.95, "simulationMode": [null, null, null, null, null], "rewards": [2, 4, 7, -5, -20], "path": ["0", "0", "12", "13", "14", "19", "21"], "rt": [3630, 529, 279, 6459, 281], "actions": ["right", "right", "right", "down", "down"], "actionTimes": [7003, 8077, 8901, 15879, 16681], "queries": {"click": {"state": {"target": ["14"], "time": [5675]}, "edge": {"target": [], "time": []}}, "mouseover": {"state": {"target": ["12", "13", "14", "14"], "time": [3726, 3782, 3828, 4591]}, "edge": {"target": [], "time": []}}, "mouseout": {"state": {"target": ["30", "25", "24", "23", "0", "12", "13", "12", "0", "12", "13", "14", "14"], "time": [295, 495, 573, 640, 690, 757, 2774, 2840, 3674, 3758, 3810, 3844, 11815]}, "edge": {"target": [], "time": []}}}, "displayed_time": "17.38", "trialTime": 20316, "trial_type": "mouselab-mdp", "trial_index": 12, "time_elapsed": 733898, "internal_node_id": "0.0-4.0-1.0-3.0"}}, {"uniqueid": "w28391368:a37645315", "current_trial": 13, "dateTime": 1691142795439, "trialdata": {"revealed_states": [], "clicked_states": ["27"], "num_clicks_accrued": [0, 0, 0, 0, 0, 0, 0, 0, 0, 0, 0, 0, 0], "stateRewards": ["", 2, -3, 5, 11, -79, 54, 11, -9, -78, 33, 22, -2, -1, 2, 14, 43, 34, 1, 10, 49, -65, 39, -1, 1, -1, 3, -16, -2, 11, 2, 12, 48, -65], "withholdReward": false, "trial_id": "mdp_trial_5", "block": "test", "trialIndex": 6, "score": 46.85, "costs": -2.15, "simulationMode": [null, null, null, null, null], "rewards": [-1, 1, -1, 2, 48], "path": ["0", "0", "23", "24", "25", "30", "32"], "rt": [11819, 469, 153, 726, 1427], "actions": ["left", "left", "left", "down", "down"], "actionTimes": [18072, 19064, 19754, 21015, 22965], "queries": {"click": {"state": {"target": ["27"], "time": [7778]}, "edge": {"target": [], "time": []}}, "mouseover": {"state": {"target": ["1", "10", "28", "26", "27", "26", "25", "24", "23", "0", "11", "9", "8", "2", "18", "15", "17", "13", "12", "23", "24", "23", "0", "12", "13"], "time": [6397, 6761, 7045, 7412, 7562, 8678, 9735, 10336, 10471, 10557, 11912, 12179, 13264, 13329, 13429, 13483, 13712, 16148, 16215, 16434, 16599, 16781, 16866, 16966, 17064]}, "edge": {"target": [], "time": []}}, "mouseout": {"state": {"target": ["14", "13", "14", "14", "15", "7", "1", "0", "1", "10", "28", "26", "27", "26", "25", "24", "23", "0", "11", "9", "8", "2", "18", "15", "17", "13", "12", "23", "24", "23", "0", "12", "13", "18", "16", "20", "21"], "time": [4262, 5028, 5061, 5178, 5227, 5363, 5445, 5777, 6712, 6780, 7362, 7431, 8453, 9670, 10299, 10427, 10509, 11813, 11946, 13230, 13280, 13362, 13463, 13662, 16049, 16181, 16265, 16465, 16699, 16848, 16931, 17015, 21735, 21816, 27510, 27792, 28290]}, "edge": {"target": [], "time": []}}}, "displayed_time": "23.50", "trialTime": 28854, "trial_type": "mouselab-mdp", "trial_index": 13, "time_elapsed": 763270, "internal_node_id": "0.0-4.0-1.0-4.0"}}, {"uniqueid": "w28391368:a37645315", "current_trial": 14, "dateTime": 1691142814320, "trialdata": {"revealed_states": [], "clicked_states": ["1"], "num_clicks_accrued": [0, 0, 0, 0, 0, 0, 0, 0, 0, 0, 0, 0, 0], "stateRewards": ["", 2, 3, -1, 6, 44, -4, -59, -14, -3, 64, 16, 1, -3, 3, 6, 3, 49, 19, 3, -49, -14, -86, 1, 2, -3, -8, -33, 14, 32, -13, -77, -47, -67], "withholdReward": false, "trial_id": "mdp_trial_6", "block": "test", "trialIndex": 7, "score": 54.25, "costs": 0.25, "simulationMode": [null, null, null, null, null], "rewards": [2, 3, -1, 6, 44], "path": ["0", "0", "1", "2", "3", "4", "5"], "rt": [3163, 159, 335, 6274, 345], "actions": ["up", "up", "up", "right", "up"], "actionTimes": [5470, 6153, 7012, 13805, 14664], "queries": {"click": {"state": {"target": ["1"], "time": [3472]}, "edge": {"target": [], "time": []}}, "mouseover": {"state": {"target": ["12", "1", "2"], "time": [2654, 3052, 4147]}, "edge": {"target": [], "time": []}}, "mouseout": {"state": {"target": ["22", "19", "14", "13", "12", "12", "1", "2", "3", "4", "6"], "time": [436, 1185, 1418, 1469, 1520, 2954, 3601, 11615, 16847, 17063, 17332]}, "edge": {"target": [], "time": []}}}, "displayed_time": "16.32", "trialTime": 18297, "trial_type": "mouselab-mdp", "trial_index": 14, "time_elapsed": 782152, "internal_node_id": "0.0-4.0-1.0-5.0"}}, {"uniqueid": "w28391368:a37645315", "current_trial": 15, "dateTime": 1691142834158, "trialdata": {"revealed_states": [], "clicked_states": ["21"], "num_clicks_accrued": [0, 0, 0, 0, 0, 0, 0, 0, 0, 0, 0, 0, 0], "stateRewards": ["", -1, -3, -6, -2, -7, 80, -45, -3, -38, -72, 76, 2, 1, 7, 4, -62, 14, -74, 14, -87, -21, -88, -2, 1, -7, -10, 66, 56, -76, 10, -29, -72, -70], "withholdReward": false, "trial_id": "mdp_trial_7", "block": "test", "trialIndex": 8, "score": -50.15, "costs": -2.15, "simulationMode": [null, null, null, null, null, null], "rewards": [2, 1, 7, 4, -62], "path": ["0", "0", "12", "13", "14", "15", "16"], "rt": [3615, 1466, 343, 373, 357, 581], "actions": ["right", "right", "right", "right", "up", "up"], "actionTimes": [6562, 8033, 8896, 9791, 10675, 11911], "queries": {"click": {"state": {"target": ["21"], "time": [4146]}, "edge": {"target": [], "time": []}}, "mouseover": {"state": {"target": ["0", "12", "13", "14", "21"], "time": [3039, 3180, 3462, 3530, 3764]}, "edge": {"target": [], "time": []}}, "mouseout": {"state": {"target": ["6", "7", "1", "0", "12", "13", "14", "21"], "time": [1330, 2095, 2143, 3129, 3428, 3496, 3562, 4484]}, "edge": {"target": [], "time": []}}}, "displayed_time": "16.95", "trialTime": 19391, "trial_type": "mouselab-mdp", "trial_index": 15, "time_elapsed": 801989, "internal_node_id": "0.0-4.0-1.0-6.0"}}, {"uniqueid": "w28391368:a37645315", "current_trial": 16, "dateTime": 1691142852833, "trialdata": {"revealed_states": [], "clicked_states": ["25"], "num_clicks_accrued": [0, 0, 0, 0, 0, 0, 0, 0, 0, 0, 0, 0, 0], "stateRewards": ["", 1, -3, -1, 9, -34, -40, 22, -7, 45, 53, -11, 2, 4, 5, 15, 21, 37, -49, -3, 80, -28, -34, 1, -3, 1, 1, -40, -6, -5, -16, -85, -86, 59], "withholdReward": false, "trial_id": "mdp_trial_8", "block": "test", "trialIndex": 9, "score": -103.95, "costs": -0.95, "simulationMode": [null, null, null, null, null], "rewards": [1, -3, 1, -16, -86], "path": ["0", "0", "23", "24", "25", "30", "32"], "rt": [3603, 3399, 109, 1775, 235], "actions": ["left", "left", "left", "down", "down"], "actionTimes": [5776, 9701, 10354, 12654, 13415], "queries": {"click": {"state": {"target": ["25"], "time": [3341]}, "edge": {"target": [], "time": []}}, "mouseover": {"state": {"target": ["23", "24", "25", "30", "31"], "time": [2624, 2711, 3108, 4007, 4892]}, "edge": {"target": [], "time": []}}, "mouseout": {"state": {"target": ["0", "23", "24", "25", "30", "31"], "time": [1607, 2642, 3026, 3917, 4843, 4944]}, "edge": {"target": [], "time": []}}}, "displayed_time": "16.18", "trialTime": 18112, "trial_type": "mouselab-mdp", "trial_index": 16, "time_elapsed": 820664, "internal_node_id": "0.0-4.0-1.0-7.0"}}, {"uniqueid": "w28391368:a37645315", "current_trial": 17, "dateTime": 1691142881592, "trialdata": {"revealed_states": [], "clicked_states": ["5", "9", "16"], "num_clicks_accrued": [0, 0, 0, 0, 0, 0, 0, 0, 0, 0, 0, 0, 0], "stateRewards": ["", 1, -3, -4, -11, -56, 61, -47, -16, -28, -9, 69, -2, -3, -4, -8, 40, -86, 59, -4, 80, 27, 54, -1, 3, -1, 8, 67, 23, 50, 6, 83, -43, -29], "withholdReward": false, "trial_id": "mdp_trial_9", "block": "test", "trialIndex": 10, "score": 16.55, "costs": -6.449999999999999, "simulationMode": [null, null, null, null, null], "rewards": [-2, -3, -4, -8, 40], "path": ["0", "0", "12", "13", "14", "15", "16"], "rt": [14742, 357, 64, 539, 83], "actions": ["right", "right", "right", "up", "up"], "actionTimes": [19903, 20780, 21360, 22442, 23057], "queries": {"click": {"state": {"target": ["5", "9", "16"], "time": [6189, 10444, 15829]}, "edge": {"target": [], "time": []}}, "mouseover": {"state": {"target": ["7", "4", "5", "5", "9", "3", "7", "18", "15", "17", "17", "16"], "time": [5576, 5609, 5649, 5959, 10124, 14253, 14319, 14403, 14669, 14720, 15002, 15542]}, "edge": {"target": [], "time": []}}, "mouseout": {"state": {"target": ["24", "1", "0", "1", "2", "1", "1", "7", "7", "4", "5", "5", "9", "3", "7", "18", "15", "17", "17", "16"], "time": [66, 466, 1080, 1258, 3574, 3657, 3890, 4326, 5593, 5633, 5665, 10025, 14236, 14286, 14370, 14619, 14702, 14804, 15487, 26823]}, "edge": {"target": [], "time": []}}}, "displayed_time": "23.60", "trialTime": 28115, "trial_type": "mouselab-mdp", "trial_index": 17, "time_elapsed": 849424, "internal_node_id": "0.0-4.0-1.0-8.0"}}, {"uniqueid": "w28391368:a37645315", "current_trial": 18, "dateTime": 1691142903235, "trialdata": {"revealed_states": [], "clicked_states": ["32"], "num_clicks_accrued": [0, 0, 0, 0, 0, 0, 0, 0, 0, 0, 0, 0, 0], "stateRewards": ["", 1, 1, -7, -9, -44, 24, -83, -15, 44, -24, 72, -2, -3, 4, -5, 57, 55, 29, -11, 22, 12, -25, -1, 2, 7, 12, 33, -8, 47, -4, 8, 50, -4], "withholdReward": false, "trial_id": "mdp_trial_10", "block": "test", "trialIndex": 11, "score": 51.85, "costs": -2.15, "simulationMode": [null, null, null, null, null], "rewards": [-1, 2, 7, -4, 50], "path": ["0", "0", "23", "24", "25", "30", "32"], "rt": [5287, 174, 126, 119, 154], "actions": ["left", "left", "left", "down", "down"], "actionTimes": [9097, 9819, 10508, 11156, 11830], "queries": {"click": {"state": {"target": ["32"], "time": [5661]}, "edge": {"target": [], "time": []}}, "mouseover": {"state": {"target": ["23", "30", "30", "32"], "time": [4571, 5104, 5219, 5420]}, "edge": {"target": [], "time": []}}, "mouseout": {"state": {"target": ["16", "7", "2", "1", "0", "23", "30", "30", "32"], "time": [2650, 2754, 2903, 2954, 4538, 4590, 5137, 5288, 13729]}, "edge": {"target": [], "time": []}}}, "displayed_time": "17.81", "trialTime": 20935, "trial_type": "mouselab-mdp", "trial_index": 18, "time_elapsed": 871066, "internal_node_id": "0.0-4.0-1.0-9.0"}}, {"uniqueid": "w28391368:a37645315", "current_trial": 19, "dateTime": 1691142923918, "trialdata": {"revealed_states": [], "clicked_states": ["20"], "num_clicks_accrued": [0, 0, 0, 0, 0, 0, 0, 0, 0, 0, 0, 0, 0], "stateRewards": ["", 1, 1, -6, -2, 7, 77, 3, 16, -16, 66, 31, -1, 3, -8, -6, 33, -50, -48, 7, -60, -66, 36, 2, -3, 3, -7, -12, -61, -79, -4, 8, 74, -70], "withholdReward": false, "trial_id": "mdp_trial_11", "block": "test", "trialIndex": 12, "score": 18.85, "costs": -2.15, "simulationMode": [null, null, null, null, null], "rewards": [-1, 3, -8, -6, 33], "path": ["0", "0", "12", "13", "14", "15", "16"], "rt": [4421, 7, 141, 1262, 585], "actions": ["right", "right", "right", "up", "up"], "actionTimes": [6002, 6526, 7196, 8981, 10092], "queries": {"click": {"state": {"target": ["20"], "time": [2600]}, "edge": {"target": [], "time": []}}, "mouseover": {"state": {"target": ["12", "19", "20", "19", "21"], "time": [2000, 2081, 2333, 3644, 4901]}, "edge": {"target": [], "time": []}}, "mouseout": {"state": {"target": ["0", "0", "12", "19", "20", "19", "21", "19"], "time": [623, 1981, 2024, 2116, 3624, 3724, 12569, 12607]}, "edge": {"target": [], "time": []}}}, "displayed_time": "15.59", "trialTime": 19985, "trial_type": "mouselab-mdp", "trial_index": 19, "time_elapsed": 891750, "internal_node_id": "0.0-4.0-1.0-10.0"}}, {"uniqueid": "w28391368:a37645315", "current_trial": 20, "dateTime": 1691142941494, "trialdata": {"revealed_states": [], "clicked_states": [], "num_clicks_accrued": [0, 0, 0, 0, 0, 0, 0, 0, 0, 0, 0, 0, 0], "stateRewards": ["", 2, -4, -8, -15, 71, -43, -41, 7, -17, 20, 67, -1, -1, -4, 6, 37, -24, -47, 9, 34, 57, 45, 1, 2, -4, -5, -23, 88, -5, 13, -40, 43, 44], "withholdReward": false, "trial_id": "mdp_trial_12", "block": "test", "trialIndex": 13, "score": -20, "costs": 0, "simulationMode": [null, null, null, null, null], "rewards": [2, -4, -8, 7, -17], "path": ["0", "0", "1", "2", "3", "8", "9"], "rt": [9016, 26, 93, 98, 156], "actions": ["up", "up", "up", "left", "up"], "actionTimes": [10175, 10723, 11380, 12036, 12711], "queries": {"click": {"state": {"target": [], "time": []}, "edge": {"target": [], "time": []}}, "mouseover": {"state": {"target": ["1", "1", "2", "8", "9"], "time": [1975, 5056, 5142, 5258, 5576]}, "edge": {"target": [], "time": []}}, "mouseout": {"state": {"target": ["0", "1", "1", "2", "8", "9", "8", "1"], "time": [293, 4092, 5109, 5175, 5326, 13799, 16181, 16232]}, "edge": {"target": [], "time": []}}}, "displayed_time": "15.17", "trialTime": 16796, "trial_type": "mouselab-mdp", "trial_index": 20, "time_elapsed": 909325, "internal_node_id": "0.0-4.0-1.0-11.0"}}, {"uniqueid": "w28391368:a37645315", "current_trial": 21, "dateTime": 1691142967691, "trialdata": {"revealed_states": [], "clicked_states": [], "num_clicks_accrued": [0, 0, 0, 0, 0, 0, 0, 0, 0, 0, 0, 0, 0], "stateRewards": ["", 1, -3, -6, -5, 47, 80, -29, 11, -71, 10, -29, -2, 3, -6, 12, 2, -78, -6, 8, 34, -16, -5, -1, 3, 3, -13, 84, -36, -62, -3, -27, 66, 15], "withholdReward": false, "trial_id": "mdp_trial_13", "block": "test", "trialIndex": 14, "score": -13, "costs": 0, "simulationMode": [null, null, null, null, null], "rewards": [-2, 3, -6, 8, -16], "path": ["0", "0", "12", "13", "14", "19", "21"], "rt": [2053, 61, 89, 108, 164], "actions": ["right", "right", "right", "down", "down"], "actionTimes": [11127, 11719, 12349, 12986, 13679], "queries": {"click": {"state": {"target": [], "time": []}, "edge": {"target": [], "time": []}}, "mouseover": {"state": {"target": ["12", "12"], "time": [10000, 10466]}, "edge": {"target": [], "time": []}}, "mouseout": {"state": {"target": ["11", "27", "26", "24", "12", "0", "12", "12", "2", "10", "0", "0"], "time": [7949, 8015, 8083, 8182, 8464, 8539, 10265, 24122, 24320, 24436, 24630, 25102]}, "edge": {"target": [], "time": []}}}, "displayed_time": "23.08", "trialTime": 25401, "trial_type": "mouselab-mdp", "trial_index": 21, "time_elapsed": 935523, "internal_node_id": "0.0-4.0-1.0-12.0"}}, {"uniqueid": "w28391368:a37645315", "current_trial": 22, "dateTime": 1691142986445, "trialdata": {"revealed_states": [], "clicked_states": ["25", "27"], "num_clicks_accrued": [0, 0, 0, 0, 0, 0, 0, 0, 0, 0, 0, 0, 0], "stateRewards": ["", -1, 2, 7, 8, 75, 67, -11, 6, 52, -17, 38, -1, 4, -8, 14, 74, -37, -17, -12, 52, 55, 71, -2, -1, -5, 2, 21, 6, -88, -14, 64, -61, -47], "withholdReward": false, "trial_id": "mdp_trial_14", "block": "test", "trialIndex": 15, "score": 11.9, "costs": -3.0999999999999996, "simulationMode": [null, null, null, null, null], "rewards": [-2, -1, -5, 2, 21], "path": ["0", "0", "23", "24", "25", "26", "27"], "rt": [6820, 326, 513, 666, 183], "actions": ["left", "left", "left", "up", "up"], "actionTimes": [7991, 8853, 9894, 11082, 11812], "queries": {"click": {"state": {"target": ["25", "27"], "time": [2744, 4052]}, "edge": {"target": [], "time": []}}, "mouseover": {"state": {"target": ["24", "25", "26", "27", "28", "23"], "time": [2026, 2510, 3509, 3695, 6477, 6577]}, "edge": {"target": [], "time": []}}, "mouseout": {"state": {"target": ["1", "24", "25", "26", "27", "28", "23", "0"], "time": [331, 2310, 3505, 3578, 6412, 6572, 6594, 17098]}, "edge": {"target": [], "time": []}}}, "displayed_time": "15.18", "trialTime": 17468, "trial_type": "mouselab-mdp", "trial_index": 22, "time_elapsed": 954277, "internal_node_id": "0.0-4.0-1.0-13.0"}}, {"uniqueid": "w28391368:a37645315", "current_trial": 23, "dateTime": 1691143006873, "trialdata": {"revealed_states": [], "clicked_states": [], "num_clicks_accrued": [0, 0, 0, 0, 0, 0, 0, 0, 0, 0, 0, 0, 0], "stateRewards": ["", -2, 3, -5, -7, 66, 43, -60, -4, -70, -75, 4, -1, 2, 2, -13, 54, 11, -40, -1, 77, 32, 15, -2, 3, -8, -9, -35, 83, -27, 6, -74, -34, 44], "withholdReward": false, "trial_id": "mdp_trial_15", "block": "test", "trialIndex": 16, "score": 34, "costs": 0, "simulationMode": [null, null, null, null, null], "rewards": [-1, 2, 2, -1, 32], "path": ["0", "0", "12", "13", "14", "19", "21"], "rt": [2577, 16, 667, 1220, 323], "actions": ["right", "right", "right", "down", "down"], "actionTimes": [3685, 4214, 5413, 7151, 7987], "queries": {"click": {"state": {"target": [], "time": []}, "edge": {"target": [], "time": []}}, "mouseover": {"state": {"target": [], "time": []}, "edge": {"target": [], "time": []}}, "mouseout": {"state": {"target": ["0", "0", "31", "28"], "time": [542, 19251, 19412, 19513]}, "edge": {"target": [], "time": []}}}, "displayed_time": "15.12", "trialTime": 19675, "trial_type": "mouselab-mdp", "trial_index": 23, "time_elapsed": 974705, "internal_node_id": "0.0-4.0-1.0-14.0"}}, {"uniqueid": "w28391368:a37645315", "current_trial": 24, "dateTime": 1691143026454, "trialdata": {"revealed_states": [], "clicked_states": [], "num_clicks_accrued": [0, 0, 0, 0, 0, 0, 0, 0, 0, 0, 0, 0, 0], "stateRewards": ["", 2, -1, -3, 16, -3, -16, -62, -1, 13, -26, 43, -1, 4, 3, -9, -54, -37, -3, -12, -71, -68, -57, 1, -3, 2, -9, 2, -2, -9, -11, 84, -52, 55], "withholdReward": false, "trial_id": "mdp_trial_16", "block": "test", "trialIndex": 17, "score": 11, "costs": 0, "simulationMode": [null, null, null, null, null], "rewards": [2, -1, -3, 16, -3], "path": ["0", "0", "1", "2", "3", "4", "5"], "rt": [1160, 412, 137, 232, 353], "actions": ["up", "up", "up", "right", "up"], "actionTimes": [4496, 5423, 6078, 6842, 7732], "queries": {"click": {"state": {"target": [], "time": []}, "edge": {"target": [], "time": []}}, "mouseover": {"state": {"target": [], "time": []}, "edge": {"target": [], "time": []}}, "mouseout": {"state": {"target": ["10", "1", "0", "0", "12", "13", "18", "6", "5"], "time": [18, 2519, 2669, 9103, 9386, 9419, 9452, 9485, 11971]}, "edge": {"target": [], "time": []}}}, "displayed_time": "17.34", "trialTime": 18780, "trial_type": "mouselab-mdp", "trial_index": 24, "time_elapsed": 994285, "internal_node_id": "0.0-4.0-1.0-15.0"}}, {"uniqueid": "w28391368:a37645315", "current_trial": 25, "dateTime": 1691143044030, "trialdata": {"revealed_states": [], "clicked_states": [], "num_clicks_accrued": [0, 0, 0, 0, 0, 0, 0, 0, 0, 0, 0, 0, 0], "stateRewards": ["", -2, 2, -2, -7, -50, -62, -45, 7, 36, -24, -72, -1, -1, 8, -1, -67, 20, -52, 2, 35, -50, 80, -1, 1, 6, -6, -70, 6, 88, 8, -47, 74, -19], "withholdReward": false, "trial_id": "mdp_trial_17", "block": "test", "trialIndex": 18, "score": -62, "costs": 0, "simulationMode": [null, null, null, null, null], "rewards": [-1, -1, 8, -1, -67], "path": ["0", "0", "12", "13", "14", "15", "16"], "rt": [1577, 499, 12, 339, 111], "actions": ["right", "right", "right", "up", "up"], "actionTimes": [3445, 4470, 4987, 5912, 6598], "queries": {"click": {"state": {"target": [], "time": []}, "edge": {"target": [], "time": []}}, "mouseover": {"state": {"target": ["12", "13", "19", "22"], "time": [2317, 2353, 2416, 2750]}, "edge": {"target": [], "time": []}}, "mouseout": {"state": {"target": ["5", "1", "1", "12", "13", "19", "22", "22"], "time": [null, 282, 832, 2338, 2368, 2583, 2886, 15664]}, "edge": {"target": [], "time": []}}}, "displayed_time": "15.88", "trialTime": 16640, "trial_type": "mouselab-mdp", "trial_index": 25, "time_elapsed": 1011861, "internal_node_id": "0.0-4.0-1.0-16.0"}}, {"uniqueid": "w28391368:a37645315", "current_trial": 26, "dateTime": 1691143063819, "trialdata": {"revealed_states": [], "clicked_states": [], "num_clicks_accrued": [0, 0, 0, 0, 0, 0, 0, 0, 0, 0, 0, 0, 0], "stateRewards": ["", -2, -3, -5, 8, 27, 11, 43, -6, -24, -87, 69, -2, 1, 1, 9, 19, 48, -37, 9, -14, 45, 62, 1, 2, 1, 16, -81, -41, 22, 4, -6, -63, 47], "withholdReward": false, "trial_id": "mdp_trial_18", "block": "test", "trialIndex": 19, "score": -55, "costs": 0, "simulationMode": [null, null, null, null, null], "rewards": [1, 2, 1, 4, -63], "path": ["0", "0", "23", "24", "25", "30", "32"], "rt": [3204, 55, 439, 489, 522], "actions": ["left", "left", "left", "down", "down"], "actionTimes": [4844, 5426, 6404, 7408, 8464], "queries": {"click": {"state": {"target": [], "time": []}, "edge": {"target": [], "time": []}}, "mouseover": {"state": {"target": [], "time": []}, "edge": {"target": [], "time": []}}, "mouseout": {"state": {"target": ["22", "0", "0", "0", "12"], "time": [846, 1010, 17750, 17784, 17873]}, "edge": {"target": [], "time": []}}}, "displayed_time": "15.65", "trialTime": 18912, "trial_type": "mouselab-mdp", "trial_index": 26, "time_elapsed": 1031650, "internal_node_id": "0.0-4.0-1.0-17.0"}}, {"uniqueid": "w28391368:a37645315", "current_trial": 27, "dateTime": 1691143095225, "trialdata": {"revealed_states": [], "clicked_states": [], "num_clicks_accrued": [0, 0, 0, 0, 0, 0, 0, 0, 0, 0, 0, 0, 0], "stateRewards": ["", -1, 1, -2, 5, 73, 15, 61, 8, 7, 38, 76, 2, 2, -4, -6, -6, -26, 43, -5, -45, -85, -35, -2, 1, -4, 15, -10, 69, 72, -11, 84, -49, -38], "withholdReward": false, "trial_id": "mdp_trial_19", "block": "test", "trialIndex": 20, "score": 79, "costs": 0, "simulationMode": [null, null, null, null, null], "rewards": [-2, 1, -4, 15, 69], "path": ["0", "0", "23", "24", "25", "26", "28"], "rt": [1976, 297, 226, 112, 59], "actions": ["left", "left", "left", "up", "right"], "actionTimes": [3713, 4545, 5298, 5931, 6569], "queries": {"click": {"state": {"target": [], "time": []}, "edge": {"target": [], "time": []}}, "mouseover": {"state": {"target": [], "time": []}, "edge": {"target": [], "time": []}}, "mouseout": {"state": {"target": ["0", "0", "0", "25", "0", "23"], "time": [110, 859, 13090, 13256, 27825, 30026]}, "edge": {"target": [], "time": []}}}, "displayed_time": "15.74", "trialTime": 30523, "trial_type": "mouselab-mdp", "trial_index": 27, "time_elapsed": 1063057, "internal_node_id": "0.0-4.0-1.0-18.0"}}, {"uniqueid": "w28391368:a37645315", "current_trial": 28, "dateTime": 1691143118460, "trialdata": {"revealed_states": [], "clicked_states": [], "num_clicks_accrued": [0, 0, 0, 0, 0, 0, 0, 0, 0, 0, 0, 0, 0], "stateRewards": ["", 1, 4, -4, 14, 35, 51, 19, -13, 54, 78, -74, -2, -1, -3, 13, -11, -42, -73, -15, -24, -3, -69, 2, -1, 5, 16, -27, 73, 58, 9, -60, 5, -60], "withholdReward": false, "trial_id": "mdp_trial_20", "block": "test", "trialIndex": 21, "score": 66, "costs": 0, "simulationMode": [null, null, null, null, null], "rewards": [1, 4, -4, -13, 78], "path": ["0", "0", "1", "2", "3", "8", "10"], "rt": [1942, 19, 93, 736, 220], "actions": ["up", "up", "up", "left", "down"], "actionTimes": [7157, 7715, 8322, 9665, 10428], "queries": {"click": {"state": {"target": [], "time": []}, "edge": {"target": [], "time": []}}, "mouseover": {"state": {"target": [], "time": []}, "edge": {"target": [], "time": []}}, "mouseout": {"state": {"target": ["0", "1", "2", "3", "8", "8", "10", "1"], "time": [871, 922, 971, 3554, 3705, 4170, 4208, 4238]}, "edge": {"target": [], "time": []}}}, "displayed_time": "19.22", "trialTime": 22285, "trial_type": "mouselab-mdp", "trial_index": 28, "time_elapsed": 1086291, "internal_node_id": "0.0-4.0-1.0-19.0"}}, {"uniqueid": "w28391368:a37645315", "current_trial": 29, "dateTime": 1691143138786, "trialdata": {"revealed_states": [], "clicked_states": [], "num_clicks_accrued": [0, 0, 0, 0, 0, 0, 0, 0, 0, 0, 0, 0, 0], "stateRewards": ["", -1, -2, -8, 8, -27, -82, 19, -14, -62, 4, 1, -2, 2, 6, 10, 73, -51, -2, 2, 73, -48, 54, -1, 2, -4, 11, -25, 47, 86, 15, 33, 43, -42], "withholdReward": false, "trial_id": "mdp_trial_21", "block": "test", "trialIndex": 22, "score": -35, "costs": 0, "simulationMode": [null, null, null, null, null], "rewards": [-2, 2, 6, 10, -51], "path": ["0", "0", "12", "13", "14", "15", "17"], "rt": [1482, 143, 294, 242, 160], "actions": ["right", "right", "right", "up", "right"], "actionTimes": [3271, 3939, 4782, 5589, 6275], "queries": {"click": {"state": {"target": [], "time": []}, "edge": {"target": [], "time": []}}, "mouseover": {"state": {"target": [], "time": []}, "edge": {"target": [], "time": []}}, "mouseout": {"state": {"target": ["1", "0", "0", "1", "14", "13"], "time": [1086, 7041, 12745, 12846, 18543, 18627]}, "edge": {"target": [], "time": []}}}, "displayed_time": "15.79", "trialTime": 19189, "trial_type": "mouselab-mdp", "trial_index": 29, "time_elapsed": 1106617, "internal_node_id": "0.0-4.0-1.0-20.0"}}, {"uniqueid": "w28391368:a37645315", "current_trial": 30, "dateTime": 1691143159553, "trialdata": {"revealed_states": [], "clicked_states": [], "num_clicks_accrued": [0, 0, 0, 0, 0, 0, 0, 0, 0, 0, 0, 0, 0], "stateRewards": ["", -1, 1, 3, -8, -23, -15, -14, -11, -23, 58, 68, 1, 3, 5, 12, -17, -41, -7, -10, -4, 82, 10, 1, 4, -4, 11, 73, 55, -55, -1, -86, -86, 54], "withholdReward": false, "trial_id": "mdp_trial_22", "block": "test", "trialIndex": 23, "score": 4, "costs": 0, "simulationMode": [null, null, null, null, null], "rewards": [1, 3, 5, 12, -17], "path": ["0", "0", "12", "13", "14", "15", "16"], "rt": [1229, 342, 608, 56, 636], "actions": ["right", "right", "right", "up", "up"], "actionTimes": [5583, 6469, 7643, 8251, 9430], "queries": {"click": {"state": {"target": [], "time": []}, "edge": {"target": [], "time": []}}, "mouseover": {"state": {"target": [], "time": []}, "edge": {"target": [], "time": []}}, "mouseout": {"state": {"target": ["0", "7", "4", "6", "7", "1", "23", "0", "0"], "time": [1595, 1862, 1880, 2030, 2113, 3012, 3278, 4372, 10175]}, "edge": {"target": [], "time": []}}}, "displayed_time": "18.36", "trialTime": 19783, "trial_type": "mouselab-mdp", "trial_index": 30, "time_elapsed": 1127385, "internal_node_id": "0.0-4.0-1.0-21.0"}}, {"uniqueid": "w28391368:a37645315", "current_trial": 31, "dateTime": 1691143178091, "trialdata": {"revealed_states": [], "clicked_states": [], "num_clicks_accrued": [0, 0, 0, 0, 0, 0, 0, 0, 0, 0, 0, 0, 0], "stateRewards": ["", -2, -4, 2, 10, -17, 18, 73, 11, -32, 23, -13, -2, -4, 7, 12, -25, 66, -23, 15, 40, -76, -9, 1, 2, -7, -5, -20, 24, 3, -5, 16, -73, 70], "withholdReward": false, "trial_id": "mdp_trial_23", "block": "test", "trialIndex": 24, "score": 61, "costs": 0, "simulationMode": [null, null, null, null, null], "rewards": [1, 2, -7, -5, 70], "path": ["0", "0", "23", "24", "25", "30", "33"], "rt": [1007, 1936, 43, 1814, 352], "actions": ["left", "left", "left", "down", "left"], "actionTimes": [2702, 5151, 5756, 8157, 9046], "queries": {"click": {"state": {"target": [], "time": []}, "edge": {"target": [], "time": []}}, "mouseover": {"state": {"target": [], "time": []}, "edge": {"target": [], "time": []}}, "mouseout": {"state": {"target": ["1", "0", "0"], "time": [777, 842, 1258]}, "edge": {"target": [], "time": []}}}, "displayed_time": "15.71", "trialTime": 17125, "trial_type": "mouselab-mdp", "trial_index": 31, "time_elapsed": 1145922, "internal_node_id": "0.0-4.0-1.0-22.0"}}, {"uniqueid": "w28391368:a37645315", "current_trial": 32, "dateTime": 1691143197670, "trialdata": {"revealed_states": [], "clicked_states": [], "num_clicks_accrued": [0, 0, 0, 0, 0, 0, 0, 0, 0, 0, 0, 0, 0], "stateRewards": ["", 1, -1, 1, 13, 31, -56, 72, 2, 41, 5, 63, -2, -3, -2, 3, -71, -26, 52, 13, -31, 24, -67, 2, -2, 5, 4, 66, 43, 72, 9, 86, -26, 44], "withholdReward": false, "trial_id": "mdp_trial_24", "block": "test", "trialIndex": 25, "score": 30, "costs": 0, "simulationMode": [null, null, null, null, null], "rewards": [-2, -3, -2, 13, 24], "path": ["0", "0", "12", "13", "14", "19", "21"], "rt": [2146, 69, 45, 100, 483], "actions": ["right", "right", "right", "down", "down"], "actionTimes": [3811, 4421, 4990, 5644, 6657], "queries": {"click": {"state": {"target": [], "time": []}, "edge": {"target": [], "time": []}}, "mouseover": {"state": {"target": ["12"], "time": [2488]}, "edge": {"target": [], "time": []}}, "mouseout": {"state": {"target": ["2", "1", "0", "0", "12"], "time": [235, 286, 382, 2437, 2652]}, "edge": {"target": [], "time": []}}}, "displayed_time": "15.68", "trialTime": 18745, "trial_type": "mouselab-mdp", "trial_index": 32, "time_elapsed": 1165501, "internal_node_id": "0.0-4.0-1.0-23.0"}}, {"uniqueid": "w28391368:a37645315", "current_trial": 33, "dateTime": 1691143216388, "trialdata": {"revealed_states": [], "clicked_states": [], "num_clicks_accrued": [0, 0, 0, 0, 0, 0, 0, 0, 0, 0, 0, 0, 0], "stateRewards": ["", 1, 1, -3, 7, 49, 78, 26, -5, 26, 48, -43, -1, -3, 2, -5, 4, -1, -60, 10, -35, 51, 81, -2, 1, -7, -5, -39, -86, -54, 4, -3, 74, 77], "withholdReward": false, "trial_id": "mdp_trial_25", "block": "test", "trialIndex": 26, "score": -8, "costs": 0, "simulationMode": [null, null, null, null, null], "rewards": [-1, -3, 2, -5, -1], "path": ["0", "0", "12", "13", "14", "15", "17"], "rt": [689, 132, 54, 254, 569], "actions": ["right", "right", "right", "up", "right"], "actionTimes": [2728, 3420, 4020, 4802, 5928], "queries": {"click": {"state": {"target": [], "time": []}, "edge": {"target": [], "time": []}}, "mouseover": {"state": {"target": [], "time": []}, "edge": {"target": [], "time": []}}, "mouseout": {"state": {"target": ["12", "0", "31"], "time": [924, 6786, 16929]}, "edge": {"target": [], "time": []}}}, "displayed_time": "16.05", "trialTime": 17234, "trial_type": "mouselab-mdp", "trial_index": 33, "time_elapsed": 1184219, "internal_node_id": "0.0-4.0-1.0-24.0"}}, {"uniqueid": "w28391368:a37645315", "current_trial": 34, "dateTime": 1691143234707, "trialdata": {"revealed_states": [], "clicked_states": [], "num_clicks_accrued": [0, 0, 0, 0, 0, 0, 0, 0, 0, 0, 0, 0, 0], "stateRewards": ["", -2, -4, -8, 8, 63, -50, -19, -7, -17, -31, 31, 1, 3, -5, 12, -35, -63, -29, -4, -17, -75, -79, -2, -3, -2, 8, -3, -85, 10, -2, -82, -82, 56], "withholdReward": false, "trial_id": "mdp_trial_26", "block": "test", "trialIndex": 27, "score": -52, "costs": 0, "simulationMode": [null, null, null, null, null], "rewards": [-2, -4, -8, -7, -31], "path": ["0", "0", "1", "2", "3", "8", "10"], "rt": [845, 8, 284, 828, 607], "actions": ["up", "up", "up", "left", "down"], "actionTimes": [2681, 3234, 4045, 5418, 6578], "queries": {"click": {"state": {"target": [], "time": []}, "edge": {"target": [], "time": []}}, "mouseover": {"state": {"target": [], "time": []}, "edge": {"target": [], "time": []}}, "mouseout": {"state": {"target": ["0"], "time": [1945]}, "edge": {"target": [], "time": []}}}, "displayed_time": "15.85", "trialTime": 17031, "trial_type": "mouselab-mdp", "trial_index": 34, "time_elapsed": 1202538, "internal_node_id": "0.0-4.0-1.0-25.0"}}, {"uniqueid": "w28391368:a37645315", "current_trial": 35, "dateTime": 1691143256500, "trialdata": {"revealed_states": [], "clicked_states": [], "num_clicks_accrued": [0, 0, 0, 0, 0, 0, 0, 0, 0, 0, 0, 0, 0], "stateRewards": ["", -2, -3, 8, 14, -73, 73, 84, -12, -2, -50, -17, 2, 1, -2, -9, -44, -27, -33, 16, -63, -47, -66, -2, 1, 4, -5, -33, -11, 50, 9, 38, -79, 31], "withholdReward": false, "trial_id": "mdp_trial_27", "block": "test", "trialIndex": 28, "score": 48, "costs": 0, "simulationMode": [null, null, null, null, null], "rewards": [-2, 1, 4, -5, 50], "path": ["0", "0", "23", "24", "25", "26", "29"], "rt": [8170, 426, 68, 694, 430], "actions": ["left", "left", "left", "up", "left"], "actionTimes": [13045, 14013, 14660, 15895, 16839], "queries": {"click": {"state": {"target": [], "time": []}, "edge": {"target": [], "time": []}}, "mouseover": {"state": {"target": ["0", "23"], "time": [5702, 7621]}, "edge": {"target": [], "time": []}}, "mouseout": {"state": {"target": ["0", "12", "0", "23"], "time": [3457, 3969, 5737, 8655]}, "edge": {"target": [], "time": []}}}, "displayed_time": "18.88", "trialTime": 20712, "trial_type": "mouselab-mdp", "trial_index": 35, "time_elapsed": 1224332, "internal_node_id": "0.0-4.0-1.0-26.0"}}, {"uniqueid": "w28391368:a37645315", "current_trial": 36, "dateTime": 1691143287131, "trialdata": {"revealed_states": [], "clicked_states": [], "num_clicks_accrued": [0, 0, 0, 0, 0, 0, 0, 0, 0, 0, 0, 0, 0], "stateRewards": ["", 2, 3, 8, 11, 25, -80, 6, -4, -56, 84, -23, -2, -4, -3, 4, -51, -9, -61, -15, -64, 67, -35, 1, -1, -7, -6, 83, 59, -15, 12, -79, 56, 41], "withholdReward": false, "trial_id": "mdp_trial_28", "block": "test", "trialIndex": 29, "score": -56, "costs": 0, "simulationMode": [null, null, null, null, null], "rewards": [2, 3, 8, 11, -80], "path": ["0", "0", "1", "2", "3", "4", "6"], "rt": [3496, 446, 114, 118, 50], "actions": ["up", "up", "up", "right", "right"], "actionTimes": [9416, 10385, 11034, 11693, 12383], "queries": {"click": {"state": {"target": [], "time": []}, "edge": {"target": [], "time": []}}, "mouseover": {"state": {"target": ["1", "5", "4", "2"], "time": [6861, 7243, 8412, 8496]}, "edge": {"target": [], "time": []}}, "mouseout": {"state": {"target": ["13", "18", "15", "12", "0", "1", "5", "4", "2", "1", "0"], "time": [3021, 3523, 3672, 4892, 6828, 6885, 8394, 8443, 8547, 13546, 28284]}, "edge": {"target": [], "time": []}}}, "displayed_time": "19.92", "trialTime": 29621, "trial_type": "mouselab-mdp", "trial_index": 36, "time_elapsed": 1254962, "internal_node_id": "0.0-4.0-1.0-27.0"}}, {"uniqueid": "w28391368:a37645315", "current_trial": 37, "dateTime": 1691143309242, "trialdata": {"revealed_states": [], "clicked_states": [], "num_clicks_accrued": [0, 0, 0, 0, 0, 0, 0, 0, 0, 0, 0, 0, 0], "stateRewards": ["", -2, 4, -7, -3, -76, 39, -28, 10, 14, 12, 60, 2, -3, 6, -10, 88, -34, -41, -3, 72, -13, -56, 1, 3, 2, 8, -51, 23, -57, 1, 14, -46, -16], "withholdReward": false, "trial_id": "mdp_trial_29", "block": "test", "trialIndex": 30, "score": -9, "costs": 0, "simulationMode": [null, null, null, null, null], "rewards": [1, 3, 2, 1, -16], "path": ["0", "0", "23", "24", "25", "30", "33"], "rt": [925, 150, 279, 2029, 1523], "actions": ["left", "left", "left", "down", "left"], "actionTimes": [2725, 3442, 4271, 6853, 8891], "queries": {"click": {"state": {"target": [], "time": []}, "edge": {"target": [], "time": []}}, "mouseover": {"state": {"target": [], "time": []}, "edge": {"target": [], "time": []}}, "mouseout": {"state": {"target": ["0", "0", "0", "1", "7", "4"], "time": [1167, 5174, 10357, 10389, 10422, 10440]}, "edge": {"target": [], "time": []}}}, "displayed_time": "15.81", "trialTime": 20605, "trial_type": "mouselab-mdp", "trial_index": 37, "time_elapsed": 1277073, "internal_node_id": "0.0-4.0-1.0-28.0"}}, {"uniqueid": "w28391368:a37645315", "current_trial": 38, "dateTime": 1691143333640, "trialdata": {"revealed_states": [], "clicked_states": [], "num_clicks_accrued": [0, 0, 0, 0, 0, 0, 0, 0, 0, 0, 0, 0, 0], "stateRewards": ["", 2, -4, 1, -12, -59, -53, -74, 16, -88, -66, 66, 1, -2, 8, -9, -14, 22, 25, -1, -39, 47, -14, -1, -1, -2, 1, -4, 52, -26, 15, -7, 46, 43], "withholdReward": false, "trial_id": "mdp_trial_30", "block": "test", "trialIndex": 31, "score": 53, "costs": 0, "simulationMode": [null, null, null, null, null], "rewards": [1, -2, 8, -1, 47], "path": ["0", "0", "12", "13", "14", "19", "21"], "rt": [2344, 487, 907, 270, 595], "actions": ["right", "right", "right", "down", "down"], "actionTimes": [9598, 10680, 12122, 12922, 14058], "queries": {"click": {"state": {"target": [], "time": []}, "edge": {"target": [], "time": []}}, "mouseover": {"state": {"target": ["12"], "time": [9074]}, "edge": {"target": [], "time": []}}, "mouseout": {"state": {"target": ["9", "8", "3", "11", "9", "9", "3", "2", "0", "12"], "time": [3217, 3651, 4636, 6020, 6086, 6136, 6218, 6254, 8776, 15242]}, "edge": {"target": [], "time": []}}}, "displayed_time": "21.26", "trialTime": 23168, "trial_type": "mouselab-mdp", "trial_index": 38, "time_elapsed": 1301471, "internal_node_id": "0.0-4.0-1.0-29.0"}}, {"uniqueid": "w28391368:a37645315", "current_trial": 39, "dateTime": 1691143358577, "trialdata": {"revealed_states": [], "clicked_states": [], "num_clicks_accrued": [0, 0, 0, 0, 0, 0, 0, 0, 0, 0, 0, 0, 0], "stateRewards": ["", -1, 3, 1, -11, -22, -36, 19, -5, -70, -52, 50, -2, -4, 4, -2, -41, -83, 29, -2, 22, 10, -6, -2, 3, -2, 14, 54, 44, 77, -9, -65, -37, -40], "withholdReward": false, "trial_id": "mdp_trial_31", "block": "test", "trialIndex": 32, "score": 25, "costs": 0, "simulationMode": [null, null, null, null, null], "rewards": [-2, -4, 4, -2, 29], "path": ["0", "0", "12", "13", "14", "15", "18"], "rt": [1120, 243, 104, 212, 445], "actions": ["right", "right", "right", "up", "left"], "actionTimes": [6258, 7047, 7688, 8427, 9417], "queries": {"click": {"state": {"target": [], "time": []}, "edge": {"target": [], "time": []}}, "mouseover": {"state": {"target": [], "time": []}, "edge": {"target": [], "time": []}}, "mouseout": {"state": {"target": ["0", "12", "0"], "time": [3765, 4164, 10384]}, "edge": {"target": [], "time": []}}}, "displayed_time": "19.14", "trialTime": 23539, "trial_type": "mouselab-mdp", "trial_index": 39, "time_elapsed": 1326409, "internal_node_id": "0.0-4.0-1.0-30.0"}}, {"uniqueid": "w28391368:a37645315", "current_trial": 40, "dateTime": 1691143378949, "trialdata": {"revealed_states": [], "clicked_states": [], "num_clicks_accrued": [0, 0, 0, 0, 0, 0, 0, 0, 0, 0, 0, 0, 0], "stateRewards": ["", -1, -3, 3, 5, 56, 39, 50, -1, -80, 33, -46, 1, -2, -6, -8, 87, 48, 54, -11, -20, -64, -54, -2, 3, -7, -3, 12, 88, 35, -16, -46, -70, -3], "withholdReward": false, "trial_id": "mdp_trial_32", "block": "test", "trialIndex": 33, "score": -92, "costs": 0, "simulationMode": [null, null, null, null, null], "rewards": [-2, 3, -7, -16, -70], "path": ["0", "0", "23", "24", "25", "30", "32"], "rt": [1570, 336, 581, 1925, 121], "actions": ["left", "left", "left", "down", "down"], "actionTimes": [4667, 5533, 6687, 9164, 9806], "queries": {"click": {"state": {"target": [], "time": []}, "edge": {"target": [], "time": []}}, "mouseover": {"state": {"target": ["0"], "time": [3772]}, "edge": {"target": [], "time": []}}, "mouseout": {"state": {"target": ["23", "0", "12", "0", "0", "31", "31", "23", "23", "31"], "time": [1355, 1389, 1787, 2022, 3821, 8521, 14844, 15227, 18409, 18774]}, "edge": {"target": [], "time": []}}}, "displayed_time": "17.11", "trialTime": 19283, "trial_type": "mouselab-mdp", "trial_index": 40, "time_elapsed": 1346780, "internal_node_id": "0.0-4.0-1.0-31.0"}}, {"uniqueid": "w28391368:a37645315", "current_trial": 41, "dateTime": 1691143406620, "trialdata": {"revealed_states": [], "clicked_states": [], "num_clicks_accrued": [0, 0, 0, 0, 0, 0, 0, 0, 0, 0, 0, 0, 0], "stateRewards": ["", -1, -3, 4, -10, -5, 79, -87, -2, 53, 29, -20, -2, -1, -5, 10, 27, 86, 46, -16, -29, 40, 3, 2, 4, -1, -6, 37, 79, -29, 7, 86, -62, 29], "withholdReward": false, "trial_id": "mdp_trial_33", "block": "test", "trialIndex": 34, "score": -30, "costs": 0, "simulationMode": [null, null, null, null, null], "rewards": [2, 4, -1, -6, -29], "path": ["0", "0", "23", "24", "25", "26", "29"], "rt": [1400, 546, 151, 18688, 16], "actions": ["left", "left", "left", "up", "left"], "actionTimes": [3388, 4476, 5151, 24384, 24954], "queries": {"click": {"state": {"target": [], "time": []}, "edge": {"target": [], "time": []}}, "mouseover": {"state": {"target": [], "time": []}, "edge": {"target": [], "time": []}}, "mouseout": {"state": {"target": ["0", "0", "0", "10", "8", "10", "1"], "time": [1137, 8274, 9073, 20940, 22239, 22554, 25888]}, "edge": {"target": [], "time": []}}}, "displayed_time": "25.57", "trialTime": 26757, "trial_type": "mouselab-mdp", "trial_index": 41, "time_elapsed": 1374452, "internal_node_id": "0.0-4.0-1.0-32.0"}}, {"uniqueid": "w28391368:a37645315", "current_trial": 42, "dateTime": 1691143429290, "trialdata": {"revealed_states": [], "clicked_states": [], "num_clicks_accrued": [0, 0, 0, 0, 0, 0, 0, 0, 0, 0, 0, 0, 0], "stateRewards": ["", 1, 1, -2, 7, -31, -6, 76, 1, -36, -16, -53, 2, 1, 7, 13, -47, -10, 47, -7, 72, 46, -56, -2, -2, -2, 11, -80, 44, 38, 16, 67, 85, -78], "withholdReward": false, "trial_id": "mdp_trial_34", "block": "test", "trialIndex": 35, "score": 49, "costs": 0, "simulationMode": [null, null, null, null, null], "rewards": [2, 1, 7, -7, 46], "path": ["0", "0", "12", "13", "14", "19", "21"], "rt": [1383, 189, 100, 289, 80], "actions": ["right", "right", "right", "down", "down"], "actionTimes": [3724, 4447, 5148, 5977, 6668], "queries": {"click": {"state": {"target": [], "time": []}, "edge": {"target": [], "time": []}}, "mouseover": {"state": {"target": [], "time": []}, "edge": {"target": [], "time": []}}, "mouseout": {"state": {"target": ["0", "0", "0", "0"], "time": [1369, 7755, 19835, 20170]}, "edge": {"target": [], "time": []}}}, "displayed_time": "16.35", "trialTime": 21210, "trial_type": "mouselab-mdp", "trial_index": 42, "time_elapsed": 1397121, "internal_node_id": "0.0-4.0-1.0-33.0"}}, {"uniqueid": "w28391368:a37645315", "current_trial": 43, "dateTime": 1691143466458, "trialdata": {"revealed_states": [], "clicked_states": [], "num_clicks_accrued": [0, 0, 0, 0, 0, 0, 0, 0, 0, 0, 0, 0, 0], "stateRewards": ["", -1, -4, -1, -5, -28, -23, -15, -15, -38, 59, -87, 2, 2, -5, 9, -55, -39, -71, -6, 85, -85, -11, -1, -2, 5, -10, 1, 25, 41, -4, 69, -35, 86], "withholdReward": false, "trial_id": "mdp_trial_35", "block": "test", "trialIndex": 36, "score": -34, "costs": 0, "simulationMode": [null, null, null, null, null], "rewards": [-1, -4, -1, -5, -23], "path": ["0", "0", "1", "2", "3", "4", "6"], "rt": [960, 305, 340, 15, 410], "actions": ["up", "up", "up", "right", "right"], "actionTimes": [4326, 5200, 6090, 6637, 7584], "queries": {"click": {"state": {"target": [], "time": []}, "edge": {"target": [], "time": []}}, "mouseover": {"state": {"target": [], "time": []}, "edge": {"target": [], "time": []}}, "mouseout": {"state": {"target": ["0", "0", "21", "21"], "time": [2823, 8474, 13488, 14305]}, "edge": {"target": [], "time": []}}}, "displayed_time": "17.37", "trialTime": 36030, "trial_type": "mouselab-mdp", "trial_index": 43, "time_elapsed": 1434290, "internal_node_id": "0.0-4.0-1.0-34.0"}}, {"uniqueid": "w28391368:a37645315", "current_trial": 44, "dateTime": 1691143489574, "trialdata": {"revealed_states": [], "clicked_states": [], "num_clicks_accrued": [0, 0, 0, 0, 0, 0, 0, 0, 0, 0, 0, 0, 0], "stateRewards": ["", -1, 3, 8, 9, -53, 20, -84, 2, -28, -62, -31, -1, -2, -7, 2, 51, 58, 45, -4, -17, -41, 36, 2, -2, -7, -15, 29, -54, -37, -16, -43, 65, -17], "withholdReward": false, "trial_id": "mdp_trial_36", "block": "test", "trialIndex": 37, "score": -66, "costs": 0, "simulationMode": [null, null, null, null, null], "rewards": [2, -2, -7, -16, -43], "path": ["0", "0", "23", "24", "25", "30", "31"], "rt": [1183, 347, 6, 125, 134], "actions": ["left", "left", "left", "down", "right"], "actionTimes": [2797, 3678, 4240, 4892, 5559], "queries": {"click": {"state": {"target": [], "time": []}, "edge": {"target": [], "time": []}}, "mouseover": {"state": {"target": [], "time": []}, "edge": {"target": [], "time": []}}, "mouseout": {"state": {"target": ["23", "0", "12", "21"], "time": [660, 6976, 11577, 20181]}, "edge": {"target": [], "time": []}}}, "displayed_time": "15.62", "trialTime": 21757, "trial_type": "mouselab-mdp", "trial_index": 44, "time_elapsed": 1457405, "internal_node_id": "0.0-4.0-1.0-35.0"}}, {"uniqueid": "w28391368:a37645315", "current_trial": 45, "dateTime": 1691143514426, "trialdata": {"revealed_states": [], "clicked_states": [], "num_clicks_accrued": [0, 0, 0, 0, 0, 0, 0, 0, 0, 0, 0, 0, 0], "stateRewards": ["", 1, 1, -5, 10, -31, 73, 14, -8, -23, 63, -70, -1, 2, 8, 7, 25, -59, 27, -10, -40, -71, -15, -2, 3, -8, -5, -19, 77, -34, 7, 67, 63, 19], "withholdReward": false, "trial_id": "mdp_trial_37", "block": "test", "trialIndex": 38, "score": -46, "costs": 0, "simulationMode": [null, null, null, null, null], "rewards": [-2, 3, -8, -5, -34], "path": ["0", "0", "23", "24", "25", "26", "29"], "rt": [1901, 8, 183, 332, 157], "actions": ["left", "left", "left", "up", "left"], "actionTimes": [5059, 5614, 6354, 7228, 7921], "queries": {"click": {"state": {"target": [], "time": []}, "edge": {"target": [], "time": []}}, "mouseover": {"state": {"target": [], "time": []}, "edge": {"target": [], "time": []}}, "mouseout": {"state": {"target": ["14", "13", "12", "18"], "time": [2197, 2215, 2263, 9997]}, "edge": {"target": [], "time": []}}}, "displayed_time": "17.16", "trialTime": 23643, "trial_type": "mouselab-mdp", "trial_index": 45, "time_elapsed": 1482257, "internal_node_id": "0.0-4.0-1.0-36.0"}}, {"uniqueid": "w28391368:a37645315", "current_trial": 46, "dateTime": 1691143538715, "trialdata": {"revealed_states": [], "clicked_states": [], "num_clicks_accrued": [0, 0, 0, 0, 0, 0, 0, 0, 0, 0, 0, 0, 0], "stateRewards": ["", -1, 3, 8, 10, -86, 61, -36, 10, 17, -60, 24, -1, -3, 3, 11, 50, 60, 33, -3, -20, 58, -6, 1, -4, -4, 13, -70, -71, 43, 14, 52, 82, -11], "withholdReward": false, "trial_id": "mdp_trial_38", "block": "test", "trialIndex": 39, "score": 43, "costs": 0, "simulationMode": [null, null, null, null, null], "rewards": [-1, -3, 3, 11, 33], "path": ["0", "0", "12", "13", "14", "15", "18"], "rt": [1422, 2167, 652, 160, 140], "actions": ["right", "right", "right", "up", "left"], "actionTimes": [3620, 6327, 7506, 8206, 8942], "queries": {"click": {"state": {"target": [], "time": []}, "edge": {"target": [], "time": []}}, "mouseover": {"state": {"target": [], "time": []}, "edge": {"target": [], "time": []}}, "mouseout": {"state": {"target": ["0", "0", "0", "12", "13", "14"], "time": [1502, 11223, 14352, 14451, 14469, 14501]}, "edge": {"target": [], "time": []}}}, "displayed_time": "16.21", "trialTime": 23058, "trial_type": "mouselab-mdp", "trial_index": 46, "time_elapsed": 1506546, "internal_node_id": "0.0-4.0-1.0-37.0"}}, {"uniqueid": "w28391368:a37645315", "current_trial": 47, "dateTime": 1691143558910, "trialdata": {"revealed_states": [], "clicked_states": [], "num_clicks_accrued": [0, 0, 0, 0, 0, 0, 0, 0, 0, 0, 0, 0, 0], "stateRewards": ["", 2, -3, -8, 14, -7, -51, 73, 2, 36, 36, -43, -1, 3, -4, 1, 6, 87, -65, 15, 61, -42, -83, -1, 3, -2, -7, 30, -48, 35, 13, 26, 60, 78], "withholdReward": false, "trial_id": "mdp_trial_39", "block": "test", "trialIndex": 40, "score": 78, "costs": 0, "simulationMode": [null, null, null, null, null], "rewards": [2, -3, -8, 14, 73], "path": ["0", "0", "1", "2", "3", "4", "7"], "rt": [2590, 235, 245, 67, 85], "actions": ["up", "up", "up", "right", "down"], "actionTimes": [6218, 6982, 7758, 8424, 9159], "queries": {"click": {"state": {"target": [], "time": []}, "edge": {"target": [], "time": []}}, "mouseover": {"state": {"target": [], "time": []}, "edge": {"target": [], "time": []}}, "mouseout": {"state": {"target": ["17", "15", "18", "12", "0", "0"], "time": [1539, 1555, 1616, 1641, 1747, 10335]}, "edge": {"target": [], "time": []}}}, "displayed_time": "17.64", "trialTime": 18520, "trial_type": "mouselab-mdp", "trial_index": 47, "time_elapsed": 1526742, "internal_node_id": "0.0-4.0-1.0-38.0"}}, {"uniqueid": "w28391368:a37645315", "current_trial": 48, "dateTime": 1691143593132, "trialdata": {"revealed_states": [], "clicked_states": [], "num_clicks_accrued": [0, 0, 0, 0, 0, 0, 0, 0, 0, 0, 0, 0, 0], "stateRewards": ["", 1, 2, -3, -5, 66, -50, -47, -5, 1, 28, -27, 1, 1, -1, -6, 37, -25, 56, 1, -82, -66, -40, -1, -4, -7, 15, -61, -23, 26, 10, 14, -56, 29], "withholdReward": false, "trial_id": "mdp_trial_40", "block": "test", "trialIndex": 41, "score": -30, "costs": 0, "simulationMode": [null, null, null, null, null], "rewards": [1, 1, -1, -6, -25], "path": ["0", "0", "12", "13", "14", "15", "17"], "rt": [1148, 208, 351, 319, 107], "actions": ["right", "right", "right", "up", "right"], "actionTimes": [4224, 5001, 5911, 6896, 7530], "queries": {"click": {"state": {"target": [], "time": []}, "edge": {"target": [], "time": []}}, "mouseover": {"state": {"target": [], "time": []}, "edge": {"target": [], "time": []}}, "mouseout": {"state": {"target": ["1", "0"], "time": [1816, 30593]}, "edge": {"target": [], "time": []}}}, "displayed_time": "17.08", "trialTime": 31488, "trial_type": "mouselab-mdp", "trial_index": 48, "time_elapsed": 1560963, "internal_node_id": "0.0-4.0-1.0-39.0"}}, {"uniqueid": "w28391368:a37645315", "current_trial": 49, "dateTime": 1691143661037, "trialdata": {"rt": 67897, "response": {"Q0": "$-16 to 16", "Q1": "$-32 to $32", "Q2": "$-88 to $88", "Q3": "The cost for clicking on nodes varied between nodes.", "Q4": "Neither motivated nor unmotivated"}, "question_order": [0, 1, 2, 3, 4], "trial_id": "final_quiz_control", "trial_type": "survey-multi-choice", "trial_index": 49, "time_elapsed": 1628869, "internal_node_id": "0.0-4.0-2.0"}}, {"uniqueid": "w28391368:a37645315", "current_trial": 50, "dateTime": 1691143704807, "trialdata": {"rt": 43758, "response": {"Q0": "I checked the nodes and moved where it was positive", "Q1": "No", "Q2": "Somewhat difficult"}, "trial_id": "self_report_control", "trial_type": "survey-text", "trial_index": 50, "time_elapsed": 1672639, "internal_node_id": "0.0-4.0-3.0"}}, {"uniqueid": "w28391368:a37645315", "current_trial": 51, "dateTime": 1691143772220, "trialdata": {"rt": 67404, "response": {"Q0": "Agree", "Q1": "Disagree", "Q2": "Strongly agree", "Q3": "Agree", "Q4": "Neither disagree nor agree", "Q5": "Agree", "Q6": "Disagree"}, "question_order": [0, 1, 2, 3, 4, 5, 6], "trial_id": "self_report_2", "trial_type": "survey-multi-choice", "trial_index": 51, "time_elapsed": 1740052, "internal_node_id": "0.0-4.0-4.0"}}, {"uniqueid": "w28391368:a37645315", "current_trial": 52, "dateTime": 1691143816442, "trialdata": {"rt": 44212, "response": {"gender": "female", "age": "26", "colorblind": "0", "effort": "0"}, "trial_type": "survey-html-form", "trial_index": 52, "time_elapsed": 1784274, "internal_node_id": "0.0-4.0-5.0"}}, {"uniqueid": "w28391368:a37645315", "current_trial": 53, "dateTime": 1691143908543, "trialdata": {"rt": 92091, "response": {"Q0": "No", "Q1": "I have not participated in the web of Cash HIT before", "Q2": "N/A"}, "trial_type": "survey-text", "trial_index": 53, "time_elapsed": 1876375, "internal_node_id": "0.0-4.0-6.0"}}, {"uniqueid": "w28391368:a37645315", "current_trial": 54, "dateTime": 1691143916015, "trialdata": {"rt": 7466, "stimulus": "Press 'Finish HIT' in order to reach the completion code. Once the data has been saved, you will receive the code either in this window or in the original browser window where you started the experiment.\n", "response": 0, "trial_type": "html-button-response", "trial_index": 54, "time_elapsed": 1883847, "internal_node_id": "0.0-5.0"}}, {"uniqueid": "w28391368:a37645315", "current_trial": 55, "dateTime": 1691143917027, "trialdata": {"success": true, "trial_type": "fullscreen", "trial_index": 55, "time_elapsed": 1884859, "internal_node_id": "0.0-6.0"}}], "questiondata": {"params": {"CODE": "C6DMOQA6", "MIN_TIME": 14, "inspectCost": 1, "startTime": "Fri Aug 04 2023 11:40:29 GMT+0200 (South Africa Standard Time)", "bonusRate": 0.002, "variance": "1_2_4_8_44", "branching": "31123"}}, "eventdata": [{"eventtype": "initialized", "value": null, "timestamp": 1691142028918, "interval": 0}, {"eventtype": "window_resize", "value": [1024, 736], "timestamp": 1691142028919, "interval": 1}, {"eventtype": "window_resize", "value": [1024, 736], "timestamp": 1691142029499, "interval": 580}, {"eventtype": "window_resize", "value": [1440, 900], "timestamp": 1691142047999, "interval": 18500}, {"eventtype": "window_resize", "value": [1024, 736], "timestamp": 1691142050434, "interval": 2435}, {"eventtype": "window_resize", "value": [1209, 736], "timestamp": 1691142063803, "interval": 13369}, {"eventtype": "window_resize", "value": [1368, 736], "timestamp": 1691142066347, "interval": 2544}, {"eventtype": "window_resize", "value": [1440, 900], "timestamp": 1691142085116, "interval": 18769}, {"eventtype": "focus", "value": "off", "timestamp": 1691142142407, "interval": 57291}, {"eventtype": "focus", "value": "on", "timestamp": 1691142210056, "interval": 67649}, {"eventtype": "window_resize", "value": [1368, 736], "timestamp": 1691142270097, "interval": 60041}, {"eventtype": "focus", "value": "off", "timestamp": 1691142675086, "interval": 404989}, {"eventtype": "focus", "value": "on", "timestamp": 1691142680121, "interval": 5035}, {"eventtype": "focus", "value": "off", "timestamp": 1691143081597, "interval": 401476}, {"eventtype": "focus", "value": "on", "timestamp": 1691143091789, "interval": 10192}, {"eventtype": "focus", "value": "off", "timestamp": 1691143133765, "interval": 41976}, {"eventtype": "focus", "value": "on", "timestamp": 1691143136905, "interval": 3140}, {"eventtype": "focus", "value": "off", "timestamp": 1691143448720, "interval": 311815}, {"eventtype": "focus", "value": "on", "timestamp": 1691143465321, "interval": 16601}, {"eventtype": "focus", "value": "off", "timestamp": 1691143504393, "interval": 39072}, {"eventtype": "focus", "value": "on", "timestamp": 1691143514125, "interval": 9732}, {"eventtype": "focus", "value": "off", "timestamp": 1691143534011, "interval": 19886}, {"eventtype": "focus", "value": "on", "timestamp": 1691143538461, "interval": 4450}, {"eventtype": "focus", "value": "off", "timestamp": 1691143824472, "interval": 286011}, {"eventtype": "focus", "value": "on", "timestamp": 1691143854370, "interval": 29898}], "useragent": "Mozilla/5.0 (Macintosh; Intel Mac OS X 10_15_7) AppleWebKit/537.36 (KHTML, like Gecko) Chrome/115.0.0.0 Safari/537.36", "mode": "live", "id": "w28391368:a37645315", "status": "user data saved", "Beginhit": "2023-08-04 09:40:25.762772", "Beginexp": "2023-08-04 09:40:49.512652", "Endhit": "2023-08-04 10:11:59.023603", "psiturkStatus": 3, "browser": "<redacted>", "platform": "macos", "language": "en-GB"}