{"condition": 1, "counterbalance": 0, "assignmentId": "a98644360", "workerId": "w61473455", "hitId": "h82169379", "currenttrial": 29, "bonus": 0, "data": [{"uniqueid": "w61473455:a98644360", "current_trial": 0, "dateTime": 1691142181635, "trialdata": {"success": true, "trial_type": "fullscreen", "trial_index": 0, "time_elapsed": 9128, "internal_node_id": "0.0-0.0"}}, {"uniqueid": "w61473455:a98644360", "current_trial": 1, "dateTime": 1691142201474, "trialdata": {"view_history": [{"page_index": 0, "viewing_time": 19794}], "rt": 19797, "trial_id": "exp_instructions_misaligned", "trial_type": "instructions", "trial_index": 1, "time_elapsed": 28968, "internal_node_id": "0.0-1.0"}}, {"uniqueid": "w61473455:a98644360", "current_trial": 2, "dateTime": 1691142207821, "trialdata": {"success": true, "trial_type": "fullscreen", "trial_index": 2, "time_elapsed": 35315, "internal_node_id": "0.0-2.0-0.0"}}, {"uniqueid": "w61473455:a98644360", "current_trial": 3, "dateTime": 1691142585241, "trialdata": {"view_history": [{"page_index": 0, "viewing_time": 79521}, {"page_index": 1, "viewing_time": 195035}, {"page_index": 2, "viewing_time": 51469}, {"page_index": 3, "viewing_time": 51388}], "rt": 377414, "trial_id": "mouselab_instructions_1_misaligned", "trial_type": "instructions", "trial_index": 3, "time_elapsed": 412735, "internal_node_id": "0.0-2.0-1.0"}}, {"uniqueid": "w61473455:a98644360", "current_trial": 4, "dateTime": 1691142617381, "trialdata": {"revealed_states": [], "clicked_states": ["26"], "num_clicks_accrued": [0, 0, 0, 0, 0, 0, 0, 0, 0, 0, 0, 0, 0], "stateRewards": ["", -10, 10, 10, -10, 10, -10, -10, 10, -10, 10, -10, 10, 10, 10, 10, 10, -10, -10, -10, -10, 10, 10, 10, -10, -10, 10, 10, -10, -10, 10, 10, -10, -10], "withholdReward": false, "trial_id": "practice_1", "block": "test", "trialIndex": 0, "score": -7, "costs": -0.5, "simulationMode": [null, null, null, null, null], "rewards": [10, -10, -10, 10, -10], "path": ["0", "0", "23", "24", "25", "26", "29"], "rt": [14464, 463, 280, 296, 2056], "actions": ["left", "left", "left", "up", "left"], "actionTimes": [19476, 20529, 21394, 22274, 24899], "queries": {"click": {"state": {"target": ["26"], "time": [11247]}, "edge": {"target": [], "time": []}}, "mouseover": {"state": {"target": ["26", "29", "26", "27", "26", "28", "18", "15", "12", "23"], "time": [8302, 8418, 8828, 9270, 10167, 16483, 16803, 16991, 17622, 17933]}, "edge": {"target": [], "time": []}}, "mouseout": {"state": {"target": ["0", "26", "29", "26", "27", "26", "28", "18", "15", "12"], "time": [8114, 8406, 8686, 9088, 10070, 12569, 16570, 16889, 17484, 17784]}, "edge": {"target": [], "time": []}}}, "displayed_time": "25.49", "trialTime": 30034, "trial_type": "mouselab-mdp", "trial_index": 4, "time_elapsed": 444873, "internal_node_id": "0.0-2.0-2.0-0.0"}}, {"uniqueid": "w61473455:a98644360", "current_trial": 5, "dateTime": 1691142639329, "trialdata": {"revealed_states": [], "clicked_states": ["27"], "num_clicks_accrued": [0, 0, 0, 0, 0, 0, 0, 0, 0, 0, 0, 0, 0], "stateRewards": ["", -10, 10, -10, -10, -10, 10, 10, 10, 10, -10, 10, -10, -10, 10, -10, -10, -10, -10, -10, 10, 10, -10, 10, -10, -10, -10, 10, 10, -10, -10, 10, 10, 10], "withholdReward": false, "trial_id": "practice_2", "block": "test", "trialIndex": 1, "score": -7, "costs": -0.5, "simulationMode": [null, null, null, null, null], "rewards": [10, -10, -10, -10, 10], "path": ["0", "0", "23", "24", "25", "26", "27"], "rt": [5249, 157, 143, 85, 82], "actions": ["left", "left", "left", "up", "up"], "actionTimes": [8747, 9465, 10231, 10935, 11690], "queries": {"click": {"state": {"target": ["27"], "time": [5408]}, "edge": {"target": [], "time": []}}, "mouseover": {"state": {"target": ["27", "18", "17"], "time": [5193, 6683, 7146]}, "edge": {"target": [], "time": []}}, "mouseout": {"state": {"target": ["23", "0", "27", "18", "17", "15"], "time": [1842, 2056, 6556, 6987, 7968, 19678]}, "edge": {"target": [], "time": []}}}, "displayed_time": "12.36", "trialTime": 20747, "trial_type": "mouselab-mdp", "trial_index": 5, "time_elapsed": 466823, "internal_node_id": "0.0-2.0-2.0-1.0"}}, {"uniqueid": "w61473455:a98644360", "current_trial": 6, "dateTime": 1691142702034, "trialdata": {"view_history": [{"page_index": 0, "viewing_time": 57630}, {"page_index": 1, "viewing_time": 5053}], "rt": 62683, "trial_id": "mouselab_instructions_2_misaligned", "trial_type": "instructions", "trial_index": 6, "time_elapsed": 529528, "internal_node_id": "0.0-2.0-3.0"}}, {"uniqueid": "w61473455:a98644360", "current_trial": 7, "dateTime": 1691142748651, "trialdata": {"rt": 46600, "response": {"Q0": "The cost for clicking on nodes may vary between nodes.", "Q1": "The better I perform the higher my bonus will be.", "Q2": "No, the amount of cash at each node of the web may be different each time.", "Q3": "To get the highest total score.", "Q4": "Only before moving the spider.", "Q5": "3 seconds"}, "question_order": [0, 1, 2, 3, 4, 5], "correct": {"Q0": "The cost for clicking on nodes may vary between nodes.", "Q1": "The better I perform the higher my bonus will be.", "Q2": "No, the amount of cash at each node of the web may be different each time.", "Q3": "To get the highest total score.", "Q4": "Only before moving the spider.", "Q5": "3 seconds"}, "trial_id": "mouselab_quiz_misaligned", "trial_type": "survey-multi-choice", "trial_index": 7, "time_elapsed": 576145, "internal_node_id": "0.0-2.0-4.0"}}, {"uniqueid": "w61473455:a98644360", "current_trial": 8, "dateTime": 1691142762979, "trialdata": {"rt": 14292, "stimulus": "\n<h1> Get ready to start the game! </h1>\n\nThank you for reading the instructions. Get ready start with the 40 rounds of this game.\n<br><br>\nIf you need to take a break, feel free to take one after the end of a round, before continuing to the next one.\n<br><br>\nRemember, the more money the spider gets, the bigger your bonus will be!\n<br><br>\n<div style='text-align: center;'>Press <code>space</code> to begin.</div>\n\n<br><br>\n(If, at any point, the <code>space</code> key does not take you to the next page, click once on the text and try again.)", "response": " ", "trial_id": "mdp_ready", "trial_type": "html-keyboard-response", "trial_index": 8, "time_elapsed": 590473, "internal_node_id": "0.0-4.0-0.0"}}, {"uniqueid": "w61473455:a98644360", "current_trial": 9, "dateTime": 1691142803389, "trialdata": {"revealed_states": [], "clicked_states": ["9", "5", "17"], "num_clicks_accrued": [0, 0, 0, 0, 0, 0, 0, 0, 0, 0, 0, 0, 0], "stateRewards": ["", 1, 4, 7, -16, -84, -6, -46, -12, -7, -49, -26, -1, 2, -4, 2, 22, 37, -64, 1, 88, -13, -10, 1, -4, -2, 5, 2, -10, -34, 9, 66, 55, 38], "withholdReward": false, "trial_id": "mdp_trial_1", "block": "test", "trialIndex": 2, "score": 29.55, "costs": -6.449999999999999, "simulationMode": [null, null, null, null, null], "rewards": [-1, 2, -4, 2, 37], "path": ["0", "0", "12", "13", "14", "15", "17"], "rt": [15486, 440, 306, 64, 52], "actions": ["right", "right", "right", "up", "right"], "actionTimes": [31255, 32277, 33125, 33765, 34355], "queries": {"click": {"state": {"target": ["9", "5", "17"], "time": [17403, 21641, 26386]}, "edge": {"target": [], "time": []}}, "mouseover": {"state": {"target": ["1", "9", "5", "16", "17", "20", "13", "22"], "time": [16745, 17045, 18730, 25735, 26036, 27590, 30292, 31109]}, "edge": {"target": [], "time": []}}, "mouseout": {"state": {"target": ["10", "1", "0", "0", "1", "9", "5", "16", "17", "20", "13"], "time": [925, 1289, 2290, 16426, 16859, 18614, 22579, 25834, 27135, 29923, 30394]}, "edge": {"target": [], "time": []}}}, "displayed_time": "34.95", "trialTime": 39126, "trial_type": "mouselab-mdp", "trial_index": 9, "time_elapsed": 630882, "internal_node_id": "0.0-4.0-1.0-0.0"}}, {"uniqueid": "w61473455:a98644360", "current_trial": 10, "dateTime": 1691142829193, "trialdata": {"revealed_states": [], "clicked_states": ["21", "32", "27"], "num_clicks_accrued": [0, 0, 0, 0, 0, 0, 0, 0, 0, 0, 0, 0, 0], "stateRewards": ["", -1, 3, -4, -14, 78, 67, 2, 13, -32, 28, 39, -2, 1, -4, -4, -4, -42, -86, 11, 64, -29, -32, -1, -4, 2, -7, 5, 68, -61, 2, -21, 85, 50], "withholdReward": false, "trial_id": "mdp_trial_2", "block": "test", "trialIndex": 3, "score": 77.55, "costs": -6.449999999999999, "simulationMode": [null, null, null, null, null], "rewards": [-1, -4, 2, 2, 85], "path": ["0", "0", "23", "24", "25", "30", "32"], "rt": [11910, 1370, 105, 724, 70], "actions": ["left", "left", "left", "down", "down"], "actionTimes": [15113, 17093, 17830, 19149, 19871], "queries": {"click": {"state": {"target": ["21", "32", "27"], "time": [4636, 8281, 11618]}, "edge": {"target": [], "time": []}}, "mouseover": {"state": {"target": ["21", "32", "26", "27", "31"], "time": [3749, 6265, 8827, 9315, 12163]}, "edge": {"target": [], "time": []}}, "mouseout": {"state": {"target": ["22", "0", "21", "32", "26", "27", "27", "31"], "time": [1191, 3584, 5690, 8623, 8983, 11786, 12153, 12265]}, "edge": {"target": [], "time": []}}}, "displayed_time": "20.42", "trialTime": 24646, "trial_type": "mouselab-mdp", "trial_index": 10, "time_elapsed": 656683, "internal_node_id": "0.0-4.0-1.0-1.0"}}, {"uniqueid": "w61473455:a98644360", "current_trial": 11, "dateTime": 1691142855853, "trialdata": {"revealed_states": [], "clicked_states": ["9"], "num_clicks_accrued": [0, 0, 0, 0, 0, 0, 0, 0, 0, 0, 0, 0, 0], "stateRewards": ["", -2, -3, 8, -4, -30, 31, 69, 9, 66, 87, 64, -2, 2, 8, 5, 47, 16, -39, -8, -54, 51, -19, 1, -2, -2, -11, -25, -26, 43, -9, 19, -84, 86], "withholdReward": false, "trial_id": "mdp_trial_3", "block": "test", "trialIndex": 4, "score": 75.85, "costs": -2.15, "simulationMode": [null, null, null, null, null], "rewards": [-2, -3, 8, 9, 66], "path": ["0", "0", "1", "2", "3", "8", "9"], "rt": [4886, 143, 272, 609, 163], "actions": ["up", "up", "up", "left", "up"], "actionTimes": [9174, 9987, 10852, 12004, 12779], "queries": {"click": {"state": {"target": ["9"], "time": [5097]}, "edge": {"target": [], "time": []}}, "mouseover": {"state": {"target": ["9", "5", "3"], "time": [4419, 6300, 8791]}, "edge": {"target": [], "time": []}}, "mouseout": {"state": {"target": ["23", "0", "9", "5", "3"], "time": [625, 4408, 6084, 8780, 8973]}, "edge": {"target": [], "time": []}}}, "displayed_time": "18.29", "trialTime": 25444, "trial_type": "mouselab-mdp", "trial_index": 11, "time_elapsed": 683346, "internal_node_id": "0.0-4.0-1.0-2.0"}}, {"uniqueid": "w61473455:a98644360", "current_trial": 12, "dateTime": 1691142878295, "trialdata": {"revealed_states": [], "clicked_states": ["32", "16"], "num_clicks_accrued": [0, 0, 0, 0, 0, 0, 0, 0, 0, 0, 0, 0, 0], "stateRewards": ["", -2, 2, 8, -6, -25, 3, 87, 2, -62, -2, 74, -2, -1, 2, -1, 79, 49, -37, -14, 5, 67, -9, -1, 2, -2, 5, 15, 38, 32, -14, -38, -38, 30], "withholdReward": false, "trial_id": "mdp_trial_4", "block": "test", "trialIndex": 5, "score": 72.7, "costs": -4.3, "simulationMode": [null, null, null, null, null], "rewards": [-2, -1, 2, -1, 79], "path": ["0", "0", "12", "13", "14", "15", "16"], "rt": [8579, 184, 58, 792, 393], "actions": ["right", "right", "right", "up", "up"], "actionTimes": [11500, 12258, 12934, 14347, 15354], "queries": {"click": {"state": {"target": ["32", "16"], "time": [3658, 6968]}, "edge": {"target": [], "time": []}}, "mouseover": {"state": {"target": ["32", "18", "16", "21", "21"], "time": [3133, 5564, 5814, 7433, 7801]}, "edge": {"target": [], "time": []}}, "mouseout": {"state": {"target": ["23", "0", "32", "18", "16", "16", "21", "21", "30"], "time": [1477, 3030, 3948, 5648, 7052, 7333, 7517, 10444, 17627]}, "edge": {"target": [], "time": []}}}, "displayed_time": "16.92", "trialTime": 21208, "trial_type": "mouselab-mdp", "trial_index": 12, "time_elapsed": 705789, "internal_node_id": "0.0-4.0-1.0-3.0"}}, {"uniqueid": "w61473455:a98644360", "current_trial": 13, "dateTime": 1691142917325, "trialdata": {"revealed_states": [], "clicked_states": ["29", "17", "21", "9", "5", "32"], "num_clicks_accrued": [0, 0, 0, 0, 0, 0, 0, 0, 0, 0, 0, 0, 0], "stateRewards": ["", 1, 2, -8, 9, 18, -83, -11, 6, -64, -48, 17, -2, -2, -5, -3, -24, -3, -86, -2, 48, -41, -22, -2, 4, 7, 8, 81, 13, -48, 10, 61, 19, 57], "withholdReward": false, "trial_id": "mdp_trial_5", "block": "test", "trialIndex": 6, "score": 25.1, "costs": -12.9, "simulationMode": [null, null, null, null, null], "rewards": [-2, 4, 7, 10, 19], "path": ["0", "0", "23", "24", "25", "30", "32"], "rt": [24211, 725, 373, 3434, 183], "actions": ["left", "left", "left", "down", "down"], "actionTimes": [27465, 28736, 29644, 33705, 34457], "queries": {"click": {"state": {"target": ["29", "17", "21", "9", "5", "32"], "time": [4109, 7621, 11024, 14733, 18664, 22398]}, "edge": {"target": [], "time": []}}, "mouseover": {"state": {"target": ["29", "28", "13", "17", "17", "21", "9", "8", "10", "1", "5", "5", "24", "33", "32", "31", "23", "4"], "time": [3384, 4949, 5233, 5423, 5636, 8515, 14596, 15007, 15128, 18095, 18301, 18479, 18885, 19019, 19299, 22821, 22946, 23385]}, "edge": {"target": [], "time": []}}, "mouseout": {"state": {"target": ["29", "0", "29", "29", "28", "13", "17", "17", "21", "9", "8", "10", "1", "5", "5", "24", "33", "32", "31", "23", "4", "4"], "time": [1614, 3376, 4268, 4939, 5051, 5332, 5518, 7936, 11308, 14862, 15120, 15235, 18201, 18385, 18776, 19008, 19115, 22701, 22937, 23080, 23528, 36749]}, "edge": {"target": [], "time": []}}}, "displayed_time": "35.08", "trialTime": 37786, "trial_type": "mouselab-mdp", "trial_index": 13, "time_elapsed": 744818, "internal_node_id": "0.0-4.0-1.0-4.0"}}, {"uniqueid": "w61473455:a98644360", "current_trial": 14, "dateTime": 1691142954475, "trialdata": {"revealed_states": [], "clicked_states": ["9", "32", "5", "17", "21", "29"], "num_clicks_accrued": [0, 0, 0, 0, 0, 0, 0, 0, 0, 0, 0, 0, 0], "stateRewards": ["", 1, 4, -8, -5, -15, -7, 21, 13, -30, 40, -65, 1, 1, 5, -14, 35, 27, -38, -11, 36, -58, -47, -2, 4, -3, 13, -16, -49, 22, 15, -56, -44, -10], "withholdReward": false, "trial_id": "mdp_trial_6", "block": "test", "trialIndex": 7, "score": 7.100000000000001, "costs": -12.9, "simulationMode": [null, null, null, null, null], "rewards": [1, 1, 5, -14, 27], "path": ["0", "0", "12", "13", "14", "15", "17"], "rt": [24459, 164, 295, 197, 123], "actions": ["right", "right", "right", "up", "right"], "actionTimes": [29208, 29990, 30854, 31606, 32327], "queries": {"click": {"state": {"target": ["9", "32", "5", "17", "21", "29"], "time": [5517, 8805, 12200, 15502, 18580, 21779]}, "edge": {"target": [], "time": []}}, "mouseover": {"state": {"target": ["9", "31", "32", "5", "14", "17", "21", "29", "15", "17", "13", "12"], "time": [4887, 6033, 6350, 9318, 12580, 12917, 16283, 19515, 22599, 23016, 25715, 25812]}, "edge": {"target": [], "time": []}}, "mouseout": {"state": {"target": ["27", "1", "0", "9", "31", "32", "5", "14", "17", "21", "29", "15", "17", "13", "12", "0"], "time": [1042, 1242, 4876, 5769, 6150, 9050, 12567, 12702, 15752, 18976, 22318, 22717, 25628, 25803, 29632, 35010]}, "edge": {"target": [], "time": []}}}, "displayed_time": "32.92", "trialTime": 35854, "trial_type": "mouselab-mdp", "trial_index": 14, "time_elapsed": 781969, "internal_node_id": "0.0-4.0-1.0-5.0"}}, {"uniqueid": "w61473455:a98644360", "current_trial": 15, "dateTime": 1691142978747, "trialdata": {"revealed_states": [], "clicked_states": ["9", "5"], "num_clicks_accrued": [0, 0, 0, 0, 0, 0, 0, 0, 0, 0, 0, 0, 0], "stateRewards": ["", -1, -4, 8, 8, -68, 47, 24, -7, -61, 49, -69, -1, -1, 8, -7, 42, 1, -45, -11, 10, -63, -6, 1, 4, 6, -16, 79, -37, -58, -12, 81, 18, -53], "withholdReward": false, "trial_id": "mdp_trial_7", "block": "test", "trialIndex": 8, "score": -4.3, "costs": -4.3, "simulationMode": [null, null, null, null, null], "rewards": [-1, -1, 8, -7, 1], "path": ["0", "0", "12", "13", "14", "15", "17"], "rt": [15665, 119, 232, 130, 173], "actions": ["right", "right", "right", "up", "right"], "actionTimes": [17904, 18563, 19354, 20034, 20778], "queries": {"click": {"state": {"target": ["9", "5"], "time": [3866, 7122]}, "edge": {"target": [], "time": []}}, "mouseover": {"state": {"target": ["1", "2", "3", "9", "5", "32", "21"], "time": [2900, 3082, 3249, 3603, 5064, 8038, 10628]}, "edge": {"target": [], "time": []}}, "mouseout": {"state": {"target": ["0", "1", "0", "1", "2", "3", "9", "5", "32", "21"], "time": [941, 1108, 2811, 2983, 3164, 3495, 4766, 7454, 10278, 13995]}, "edge": {"target": [], "time": []}}}, "displayed_time": "21.39", "trialTime": 23009, "trial_type": "mouselab-mdp", "trial_index": 15, "time_elapsed": 806240, "internal_node_id": "0.0-4.0-1.0-6.0"}}, {"uniqueid": "w61473455:a98644360", "current_trial": 16, "dateTime": 1691143014939, "trialdata": {"revealed_states": [], "clicked_states": ["29", "17", "20", "33", "5", "9"], "num_clicks_accrued": [0, 0, 0, 0, 0, 0, 0, 0, 0, 0, 0, 0, 0], "stateRewards": ["", -1, 2, 5, -6, 13, -64, -47, 8, -79, -80, -33, 1, 2, -2, -16, 56, -71, -10, 3, 29, 44, 85, -1, 4, 5, 4, -36, -56, 19, 8, 52, -13, -2], "withholdReward": false, "trial_id": "mdp_trial_8", "block": "test", "trialIndex": 9, "score": 20.1, "costs": -12.9, "simulationMode": [null, null, null, null, null], "rewards": [1, 2, -2, 3, 29], "path": ["0", "0", "12", "13", "14", "19", "20"], "rt": [27644, 137, 230, 99, 61], "actions": ["right", "right", "right", "down", "right"], "actionTimes": [29778, 30487, 31313, 32034, 32706], "queries": {"click": {"state": {"target": ["29", "17", "20", "33", "5", "9"], "time": [3282, 9143, 12516, 15692, 21617, 24891]}, "edge": {"target": [], "time": []}}, "mouseover": {"state": {"target": ["26", "29", "29", "27", "33", "30", "13", "14", "17", "20", "22", "31", "30", "33", "9", "5", "3", "8", "9", "18", "19", "21"], "time": [2327, 2524, 2886, 4498, 5360, 6827, 7137, 7253, 7474, 10421, 12779, 12900, 13137, 13453, 16737, 19502, 22032, 22559, 22666, 25339, 25557, 25660]}, "edge": {"target": [], "time": []}}, "mouseout": {"state": {"target": ["0", "26", "29", "29", "27", "33", "30", "13", "14", "17", "20", "22", "31", "30", "33", "9", "5", "5", "3", "8", "9", "18", "19"], "time": [2229, 2420, 2629, 3988, 5092, 6734, 6908, 7242, 7359, 9689, 12771, 12890, 13022, 13357, 15945, 19203, 21773, 22024, 22418, 22658, 25052, 25453, 25652]}, "edge": {"target": [], "time": []}}}, "displayed_time": "33.29", "trialTime": 34760, "trial_type": "mouselab-mdp", "trial_index": 16, "time_elapsed": 842432, "internal_node_id": "0.0-4.0-1.0-7.0"}}, {"uniqueid": "w61473455:a98644360", "current_trial": 17, "dateTime": 1691143033707, "trialdata": {"revealed_states": [], "clicked_states": ["20", "17"], "num_clicks_accrued": [0, 0, 0, 0, 0, 0, 0, 0, 0, 0, 0, 0, 0], "stateRewards": ["", -2, -4, -2, 10, -8, -15, -47, 7, -84, 53, 5, -1, 2, -7, 3, 83, 31, 47, -1, 30, -8, 69, 2, -4, -1, 8, -7, 12, -8, -8, -13, 30, -84], "withholdReward": false, "trial_id": "mdp_trial_9", "block": "test", "trialIndex": 10, "score": 23.7, "costs": -4.3, "simulationMode": [null, null, null, null, null], "rewards": [-1, 2, -7, 3, 31], "path": ["0", "0", "12", "13", "14", "15", "17"], "rt": [8477, 130, 104, 1281, 228], "actions": ["right", "right", "right", "up", "right"], "actionTimes": [10620, 11323, 12042, 13916, 14746], "queries": {"click": {"state": {"target": ["20", "17"], "time": [3703, 6963]}, "edge": {"target": [], "time": []}}, "mouseover": {"state": {"target": ["20", "20", "17", "5"], "time": [2860, 3227, 4484, 8413]}, "edge": {"target": [], "time": []}}, "mouseout": {"state": {"target": ["0", "20", "20", "17", "5"], "time": [2442, 3042, 4184, 8131, 15825]}, "edge": {"target": [], "time": []}}}, "displayed_time": "16.16", "trialTime": 17371, "trial_type": "mouselab-mdp", "trial_index": 17, "time_elapsed": 861200, "internal_node_id": "0.0-4.0-1.0-8.0"}}, {"uniqueid": "w61473455:a98644360", "current_trial": 18, "dateTime": 1691143052754, "trialdata": {"revealed_states": [], "clicked_states": ["9", "5"], "num_clicks_accrued": [0, 0, 0, 0, 0, 0, 0, 0, 0, 0, 0, 0, 0], "stateRewards": ["", -1, 2, -2, 5, 80, -61, -27, 12, 44, -26, -75, -2, -4, 1, -16, 42, -49, -50, 4, -44, 2, 80, -2, -2, 5, -2, 59, 10, 24, 7, -48, -86, -44], "withholdReward": false, "trial_id": "mdp_trial_10", "block": "test", "trialIndex": 11, "score": 79.7, "costs": -4.3, "simulationMode": [null, null, null, null, null], "rewards": [-1, 2, -2, 5, 80], "path": ["0", "0", "1", "2", "3", "4", "5"], "rt": [7946, 98, 187, 1252, 444], "actions": ["up", "up", "up", "right", "up"], "actionTimes": [10102, 10814, 11620, 13566, 14605], "queries": {"click": {"state": {"target": ["9", "5"], "time": [3155, 6354]}, "edge": {"target": [], "time": []}}, "mouseover": {"state": {"target": ["9", "5", "10"], "time": [2285, 3853, 9764]}, "edge": {"target": [], "time": []}}, "mouseout": {"state": {"target": ["2", "0", "9", "5", "5", "10", "10", "0"], "time": [813, 2275, 3332, 6438, 7339, 10131, 15698, 15799]}, "edge": {"target": [], "time": []}}}, "displayed_time": "16.16", "trialTime": 17727, "trial_type": "mouselab-mdp", "trial_index": 18, "time_elapsed": 880248, "internal_node_id": "0.0-4.0-1.0-9.0"}}, {"uniqueid": "w61473455:a98644360", "current_trial": 19, "dateTime": 1691143076796, "trialdata": {"revealed_states": [], "clicked_states": ["32", "29"], "num_clicks_accrued": [0, 0, 0, 0, 0, 0, 0, 0, 0, 0, 0, 0, 0], "stateRewards": ["", -2, 1, -7, -8, -37, -76, -87, 11, 30, -63, 80, -1, 4, 2, -1, 42, 17, 52, -3, -75, -80, -68, 2, -3, -5, -15, -48, 82, 24, -7, 5, -22, -71], "withholdReward": false, "trial_id": "mdp_trial_11", "block": "test", "trialIndex": 12, "score": -1.3000000000000007, "costs": -4.3, "simulationMode": [null, null, null, null, null], "rewards": [2, -3, -5, -15, 24], "path": ["0", "0", "23", "24", "25", "26", "29"], "rt": [13164, 76, 119, 120, 145], "actions": ["left", "left", "left", "up", "left"], "actionTimes": [15619, 16342, 17057, 17810, 18497], "queries": {"click": {"state": {"target": ["32", "29"], "time": [3114, 6346]}, "edge": {"target": [], "time": []}}, "mouseover": {"state": {"target": ["32", "29", "27", "9", "28", "24"], "time": [2683, 5433, 7345, 10275, 14362, 14452]}, "edge": {"target": [], "time": []}}, "mouseout": {"state": {"target": ["0", "32", "29", "27", "9", "28", "24"], "time": [1106, 5425, 7227, 10092, 13865, 14444, 14545]}, "edge": {"target": [], "time": []}}}, "displayed_time": "19.05", "trialTime": 22211, "trial_type": "mouselab-mdp", "trial_index": 19, "time_elapsed": 904289, "internal_node_id": "0.0-4.0-1.0-10.0"}}, {"uniqueid": "w61473455:a98644360", "current_trial": 20, "dateTime": 1691143096819, "trialdata": {"revealed_states": [], "clicked_states": ["5", "21"], "num_clicks_accrued": [0, 0, 0, 0, 0, 0, 0, 0, 0, 0, 0, 0, 0], "stateRewards": ["", 1, 2, 2, -15, -84, 28, -26, 13, 31, 86, 30, -2, 1, -1, -8, 66, -40, -1, -10, -32, 57, -17, 1, 2, -2, 9, -23, 77, 85, 12, -32, -62, -35], "withholdReward": false, "trial_id": "mdp_trial_12", "block": "test", "trialIndex": 13, "score": 40.7, "costs": -4.3, "simulationMode": [null, null, null, null, null], "rewards": [-2, 1, -1, -10, 57], "path": ["0", "0", "12", "13", "14", "19", "21"], "rt": [10790, 363, 260, 60, 420], "actions": ["right", "right", "right", "down", "down"], "actionTimes": [13281, 14243, 15091, 15718, 16682], "queries": {"click": {"state": {"target": ["5", "21"], "time": [4052, 8706]}, "edge": {"target": [], "time": []}}, "mouseover": {"state": {"target": ["5", "6", "4", "21", "20", "17", "14"], "time": [3834, 4869, 5053, 5736, 9087, 9255, 13163]}, "edge": {"target": [], "time": []}}, "mouseout": {"state": {"target": ["24", "0", "5", "6", "4", "21", "20", "17"], "time": [981, 2882, 4621, 4968, 5154, 9002, 9172, 13002]}, "edge": {"target": [], "time": []}}}, "displayed_time": "17.30", "trialTime": 18643, "trial_type": "mouselab-mdp", "trial_index": 20, "time_elapsed": 924312, "internal_node_id": "0.0-4.0-1.0-11.0"}}, {"uniqueid": "w61473455:a98644360", "current_trial": 21, "dateTime": 1691143115515, "trialdata": {"revealed_states": [], "clicked_states": ["29", "5"], "num_clicks_accrued": [0, 0, 0, 0, 0, 0, 0, 0, 0, 0, 0, 0, 0], "stateRewards": ["", -1, 2, -6, 6, 43, 78, 78, -2, 55, -29, -17, -2, -4, 1, -15, 13, 7, -79, 8, -28, -68, 36, -1, -3, 3, -16, 84, -18, 87, 10, 32, 13, -81], "withholdReward": false, "trial_id": "mdp_trial_13", "block": "test", "trialIndex": 14, "score": 65.7, "costs": -4.3, "simulationMode": [null, null, null, null, null], "rewards": [-1, -3, 3, -16, 87], "path": ["0", "0", "23", "24", "25", "26", "29"], "rt": [7749, 125, 455, 263, 305], "actions": ["left", "left", "left", "up", "left"], "actionTimes": [9682, 10508, 11571, 12536, 13416], "queries": {"click": {"state": {"target": ["29", "5"], "time": [3049, 6119]}, "edge": {"target": [], "time": []}}, "mouseover": {"state": {"target": ["0", "29", "29", "27", "4", "5"], "time": [2048, 2509, 2826, 3840, 3973, 4560]}, "edge": {"target": [], "time": []}}, "mouseout": {"state": {"target": ["14", "0", "0", "29", "29", "27", "4", "5", "12"], "time": [139, 540, 2241, 2617, 3829, 3962, 4133, 6825, 15322]}, "edge": {"target": [], "time": []}}}, "displayed_time": "15.94", "trialTime": 17295, "trial_type": "mouselab-mdp", "trial_index": 21, "time_elapsed": 943008, "internal_node_id": "0.0-4.0-1.0-12.0"}}, {"uniqueid": "w61473455:a98644360", "current_trial": 22, "dateTime": 1691143136507, "trialdata": {"revealed_states": [], "clicked_states": ["21", "32", "27"], "num_clicks_accrued": [0, 0, 0, 0, 0, 0, 0, 0, 0, 0, 0, 0, 0], "stateRewards": ["", 2, -2, -8, 9, -20, 55, -58, 14, 42, 2, 36, 1, -3, -5, 5, -58, 57, 60, 16, 57, 30, -70, -2, 1, 3, 10, 59, 23, 77, -13, -26, 88, -72], "withholdReward": false, "trial_id": "mdp_trial_14", "block": "test", "trialIndex": 15, "score": 70.55, "costs": -6.449999999999999, "simulationMode": [null, null, null, null, null], "rewards": [-2, 1, 3, -13, 88], "path": ["0", "0", "23", "24", "25", "30", "32"], "rt": [11054, 124, 183, 260, 353], "actions": ["left", "left", "left", "down", "down"], "actionTimes": [14352, 15085, 15909, 16709, 17604], "queries": {"click": {"state": {"target": ["21", "32", "27"], "time": [4202, 7433, 10979]}, "edge": {"target": [], "time": []}}, "mouseover": {"state": {"target": ["20", "21", "32", "33", "29", "27", "26", "30"], "time": [3537, 3901, 5670, 8538, 8721, 9938, 11281, 11402]}, "edge": {"target": [], "time": []}}, "mouseout": {"state": {"target": ["0", "20", "21", "32", "33", "29", "27", "26", "30"], "time": [3410, 3621, 4293, 8440, 8638, 9256, 11271, 11393, 12689]}, "edge": {"target": [], "time": []}}}, "displayed_time": "18.16", "trialTime": 19516, "trial_type": "mouselab-mdp", "trial_index": 22, "time_elapsed": 964000, "internal_node_id": "0.0-4.0-1.0-13.0"}}, {"uniqueid": "w61473455:a98644360", "current_trial": 23, "dateTime": 1691143168547, "trialdata": {"revealed_states": [], "clicked_states": ["16", "27", "5", "9", "21", "33"], "num_clicks_accrued": [0, 0, 0, 0, 0, 0, 0, 0, 0, 0, 0, 0, 0], "stateRewards": ["", 2, 3, -2, -8, -8, -41, 74, 15, -23, -80, 1, 1, 3, 3, -15, -63, -78, 67, 13, 75, -41, 86, 2, -2, 6, -3, -8, -49, 50, -6, 83, 74, 80], "withholdReward": false, "trial_id": "mdp_trial_15", "block": "test", "trialIndex": 16, "score": 67.1, "costs": -12.9, "simulationMode": [null, null, null, null, null], "rewards": [2, -2, 6, -6, 80], "path": ["0", "0", "23", "24", "25", "30", "33"], "rt": [21854, 67, 68, 525, 190], "actions": ["left", "left", "left", "down", "left"], "actionTimes": [25152, 25798, 26599, 27714, 28682], "queries": {"click": {"state": {"target": ["16", "27", "5", "9", "21", "33"], "time": [4777, 8040, 11237, 14288, 17477, 20386]}, "edge": {"target": [], "time": []}}, "mouseover": {"state": {"target": ["16", "16", "27", "30", "32", "10", "5", "9", "21", "30", "33", "29"], "time": [3851, 4152, 6538, 9108, 9219, 10575, 10838, 11871, 15272, 18526, 18865, 21970]}, "edge": {"target": [], "time": []}}, "mouseout": {"state": {"target": ["0", "16", "16", "27", "30", "32", "10", "5", "9", "21", "30", "33", "29", "33"], "time": [2049, 3937, 6166, 8192, 9210, 10526, 10808, 11706, 14822, 17922, 18857, 21620, 24169, 24618]}, "edge": {"target": [], "time": []}}}, "displayed_time": "29.25", "trialTime": 30441, "trial_type": "mouselab-mdp", "trial_index": 23, "time_elapsed": 996040, "internal_node_id": "0.0-4.0-1.0-14.0"}}, {"uniqueid": "w61473455:a98644360", "current_trial": 24, "dateTime": 1691143187851, "trialdata": {"revealed_states": [], "clicked_states": ["6"], "num_clicks_accrued": [0, 0, 0, 0, 0, 0, 0, 0, 0, 0, 0, 0, 0], "stateRewards": ["", 1, -2, -8, -13, 4, 34, -84, -4, -49, 88, -70, -1, 3, -4, 10, -77, 13, -34, 15, -21, -16, 27, 1, -2, 8, -8, -6, 38, -26, 6, -15, 66, -3], "withholdReward": false, "trial_id": "mdp_trial_16", "block": "test", "trialIndex": 17, "score": 9.850000000000001, "costs": -2.15, "simulationMode": [null, null, null, null, null], "rewards": [1, -2, -8, -13, 34], "path": ["0", "0", "1", "2", "3", "4", "6"], "rt": [6874, 166, 253, 622, 413], "actions": ["up", "up", "up", "right", "right"], "actionTimes": [9159, 9833, 10618, 11809, 12762], "queries": {"click": {"state": {"target": ["6"], "time": [3239]}, "edge": {"target": [], "time": []}}, "mouseover": {"state": {"target": ["6", "4", "8", "11", "11"], "time": [2680, 3702, 3882, 4094, 8758]}, "edge": {"target": [], "time": []}}, "mouseout": {"state": {"target": ["30", "31", "12", "0", "6", "4", "8", "11"], "time": [687, 763, 973, 2570, 3694, 3795, 3999, 7489]}, "edge": {"target": [], "time": []}}}, "displayed_time": "16.29", "trialTime": 17634, "trial_type": "mouselab-mdp", "trial_index": 24, "time_elapsed": 1015344, "internal_node_id": "0.0-4.0-1.0-15.0"}}, {"uniqueid": "w61473455:a98644360", "current_trial": 25, "dateTime": 1691143205804, "trialdata": {"revealed_states": [], "clicked_states": ["33"], "num_clicks_accrued": [0, 0, 0, 0, 0, 0, 0, 0, 0, 0, 0, 0, 0], "stateRewards": ["", 2, 3, 6, -5, -74, -53, 17, -12, 46, 44, 18, -2, 4, 1, -8, 22, -23, -49, 9, -45, 55, 81, 1, -1, -7, -16, -83, -71, -45, 2, 51, 82, 61], "withholdReward": false, "trial_id": "mdp_trial_17", "block": "test", "trialIndex": 18, "score": 53.85, "costs": -2.15, "simulationMode": [null, null, null, null, null], "rewards": [1, -1, -7, 2, 61], "path": ["0", "0", "23", "24", "25", "30", "33"], "rt": [6029, 251, 247, 74, 225], "actions": ["left", "left", "left", "down", "left"], "actionTimes": [7839, 8675, 9554, 10194, 10995], "queries": {"click": {"state": {"target": ["33"], "time": [3152]}, "edge": {"target": [], "time": []}}, "mouseover": {"state": {"target": ["25", "30", "33", "32", "1", "4", "7", "1"], "time": [2276, 2559, 2730, 5078, 6363, 6557, 6942, 7058]}, "edge": {"target": [], "time": []}}, "mouseout": {"state": {"target": ["11", "0", "25", "30", "33", "33", "32", "1", "4", "7", "1"], "time": [356, 1977, 2394, 2645, 3252, 3884, 6274, 6449, 6647, 7048, 7166]}, "edge": {"target": [], "time": []}}}, "displayed_time": "15.81", "trialTime": 16506, "trial_type": "mouselab-mdp", "trial_index": 25, "time_elapsed": 1033297, "internal_node_id": "0.0-4.0-1.0-16.0"}}, {"uniqueid": "w61473455:a98644360", "current_trial": 26, "dateTime": 1691143226403, "trialdata": {"revealed_states": [], "clicked_states": ["16", "27", "5"], "num_clicks_accrued": [0, 0, 0, 0, 0, 0, 0, 0, 0, 0, 0, 0, 0], "stateRewards": ["", -2, -3, -7, 7, -54, -69, -4, -14, -77, 22, 40, -2, -1, 5, 6, -35, 50, -60, 10, -28, 75, 57, 1, -4, -2, 2, 68, 34, -18, 12, 3, -21, -43], "withholdReward": false, "trial_id": "mdp_trial_18", "block": "test", "trialIndex": 19, "score": 58.55, "costs": -6.449999999999999, "simulationMode": [null, null, null, null, null], "rewards": [1, -4, -2, 2, 68], "path": ["0", "0", "23", "24", "25", "26", "27"], "rt": [11703, 82, 262, 273, 228], "actions": ["left", "left", "left", "up", "up"], "actionTimes": [14022, 14652, 15452, 16276, 17084], "queries": {"click": {"state": {"target": ["16", "27", "5"], "time": [3582, 6724, 9916]}, "edge": {"target": [], "time": []}}, "mouseover": {"state": {"target": ["12", "18", "16", "27", "8", "5"], "time": [3139, 3226, 3339, 4872, 7626, 8114]}, "edge": {"target": [], "time": []}}, "mouseout": {"state": {"target": ["0", "12", "18", "16", "27", "8", "5", "28", "24"], "time": [2422, 3217, 3331, 3672, 7617, 7736, 10651, 18193, 18280]}, "edge": {"target": [], "time": []}}}, "displayed_time": "17.67", "trialTime": 18908, "trial_type": "mouselab-mdp", "trial_index": 26, "time_elapsed": 1053896, "internal_node_id": "0.0-4.0-1.0-17.0"}}, {"uniqueid": "w61473455:a98644360", "current_trial": 27, "dateTime": 1691143246227, "trialdata": {"revealed_states": [], "clicked_states": [], "num_clicks_accrued": [0, 0, 0, 0, 0, 0, 0, 0, 0, 0, 0, 0, 0], "stateRewards": ["", 1, 4, -4, 14, 35, 51, 19, -13, 54, 78, -74, -2, -1, -3, 13, -11, -42, -73, -15, -24, -3, -69, 2, -1, 5, 16, -27, 73, 58, 9, -60, 5, -60], "withholdReward": false, "trial_id": "mdp_trial_19", "block": "test", "trialIndex": 20, "score": 34, "costs": 0, "simulationMode": [null, null, null, null, null], "rewards": [1, 4, -4, 14, 19], "path": ["0", "0", "1", "2", "3", "4", "7"], "rt": [5609, 562, 186, 93, 80], "actions": ["up", "up", "up", "right", "down"], "actionTimes": [7703, 8854, 9631, 10334, 11032], "queries": {"click": {"state": {"target": [], "time": []}, "edge": {"target": [], "time": []}}, "mouseover": {"state": {"target": ["21", "12", "21"], "time": [2783, 4505, 5151]}, "edge": {"target": [], "time": []}}, "mouseout": {"state": {"target": ["31", "0", "21", "12", "21"], "time": [515, 1081, 4386, 4667, 6267]}, "edge": {"target": [], "time": []}}}, "displayed_time": "16.10", "trialTime": 18423, "trial_type": "mouselab-mdp", "trial_index": 27, "time_elapsed": 1073720, "internal_node_id": "0.0-4.0-1.0-18.0"}}, {"uniqueid": "w61473455:a98644360", "current_trial": 28, "dateTime": 1691143266104, "trialdata": {"revealed_states": [], "clicked_states": ["29", "33", "20"], "num_clicks_accrued": [0, 0, 0, 0, 0, 0, 0, 0, 0, 0, 0, 0, 0], "stateRewards": ["", -2, 4, 3, 5, -61, 4, 30, 1, -47, 83, 10, 1, 4, 7, -14, 19, -74, -83, 6, -2, -2, -65, -1, -2, 4, -11, 12, -1, -68, 11, -38, -28, 66], "withholdReward": false, "trial_id": "mdp_trial_20", "block": "test", "trialIndex": 21, "score": 71.55, "costs": -6.449999999999999, "simulationMode": [null, null, null, null, null], "rewards": [-1, -2, 4, 11, 66], "path": ["0", "0", "23", "24", "25", "30", "33"], "rt": [10324, 56, 183, 65, 258], "actions": ["left", "left", "left", "down", "left"], "actionTimes": [13302, 13945, 14706, 15419, 16249], "queries": {"click": {"state": {"target": ["29", "33", "20"], "time": [3557, 6703, 9761]}, "edge": {"target": [], "time": []}}, "mouseover": {"state": {"target": ["29", "33", "32", "20"], "time": [3087, 4634, 7270, 8550]}, "edge": {"target": [], "time": []}}, "mouseout": {"state": {"target": ["0", "0", "29", "33", "32", "20", "20"], "time": [1392, 3078, 4351, 7165, 8338, 9899, 10424]}, "edge": {"target": [], "time": []}}}, "displayed_time": "16.98", "trialTime": 18282, "trial_type": "mouselab-mdp", "trial_index": 28, "time_elapsed": 1093598, "internal_node_id": "0.0-4.0-1.0-19.0"}}], "questiondata": {"params": {"CODE": "C6DMOQA6", "MIN_TIME": 14, "inspectCost": 1, "startTime": "Fri Aug 04 2023 11:42:48 GMT+0200 (South Africa Standard Time)", "bonusRate": 0.002, "variance": "1_2_4_8_44", "branching": "31123"}}, "eventdata": [{"eventtype": "initialized", "value": null, "timestamp": 1691142167007, "interval": 0}, {"eventtype": "window_resize", "value": [1137, 741], "timestamp": 1691142167007, "interval": 0}, {"eventtype": "window_resize", "value": [1137, 741], "timestamp": 1691142167865, "interval": 858}, {"eventtype": "window_resize", "value": [1517, 746], "timestamp": 1691142172275, "interval": 4410}, {"eventtype": "window_resize", "value": [1517, 853], "timestamp": 1691142180882, "interval": 8607}], "useragent": "Mozilla/5.0 (Windows NT 10.0; Win64; x64) AppleWebKit/537.36 (KHTML, like Gecko) Chrome/109.0.0.0 Safari/537.36", "mode": "live", "id": "w61473455:a98644360", "status": "user data saved", "Beginhit": "2023-08-04 09:42:47.322745", "Beginexp": "2023-08-04 09:43:08.176148", "Endhit": null, "psiturkStatus": 2, "browser": "<redacted>", "platform": "windows", "language": "en-ZA", "excludeReason": "dataincomplete"}