{"condition": 0, "counterbalance": 0, "assignmentId": "a30786631", "workerId": "w82538768", "hitId": "h41565821", "currenttrial": 55, "bonus": 0, "data": [{"uniqueid": "w82538768:a30786631", "current_trial": 0, "dateTime": 1693480762275, "trialdata": {"success": true, "trial_type": "fullscreen", "trial_index": 0, "time_elapsed": 6992, "internal_node_id": "0.0-0.0"}}, {"uniqueid": "w82538768:a30786631", "current_trial": 1, "dateTime": 1693480779857, "trialdata": {"view_history": [{"page_index": 0, "viewing_time": 17566}], "rt": 17567, "trial_id": "exp_instructions_control", "trial_type": "instructions", "trial_index": 1, "time_elapsed": 24574, "internal_node_id": "0.0-1.0"}}, {"uniqueid": "w82538768:a30786631", "current_trial": 2, "dateTime": 1693481102319, "trialdata": {"view_history": [{"page_index": 0, "viewing_time": 91820}, {"page_index": 1, "viewing_time": 142845}, {"page_index": 2, "viewing_time": 45186}, {"page_index": 3, "viewing_time": 42606}], "rt": 322458, "trial_id": "mouselab_instructions_1_control", "trial_type": "instructions", "trial_index": 2, "time_elapsed": 347037, "internal_node_id": "0.0-2.0-1.0"}}, {"uniqueid": "w82538768:a30786631", "current_trial": 3, "dateTime": 1693481118453, "trialdata": {"revealed_states": [], "clicked_states": [], "num_clicks_accrued": [0, 0, 0, 0, 0, 0, 0, 0, 0, 0, 0, 0, 0], "stateRewards": ["", 10, -10, 10, -10, 10, -10, 10, -10, 10, -10, 10, -10, -10, -10, -10, -10, -10, -10, -10, 10, 10, 10, -10, 10, 10, -10, 10, -10, 10, 10, 10, -10, -10], "withholdReward": false, "trial_id": "practice_1", "block": "test", "trialIndex": 0, "score": -26.5, "costs": 0, "simulationMode": [null, null, null, null, null], "rewards": [-10, -10, -10, -10, 10], "path": ["0", "0", "12", "13", "14", "19", "20"], "rt": [4188, 1121, 871, 111, 383], "actions": ["right", "right", "right", "down", "right"], "actionTimes": [6380, 8020, 9403, 10037, 10924], "queries": {"click": {"state": {"target": [], "time": []}, "edge": {"target": [], "time": []}}, "mouseover": {"state": {"target": ["23", "24", "25", "30", "23", "0"], "time": [2726, 2786, 2843, 3661, 3990, 4535]}, "edge": {"target": [], "time": []}}, "mouseout": {"state": {"target": ["0", "23", "24", "25", "30", "23"], "time": [2640, 2763, 2822, 2873, 3708, 4148]}, "edge": {"target": [], "time": []}}}, "displayed_time": "11.47", "trialTime": 15314, "trial_type": "mouselab-mdp", "trial_index": 3, "time_elapsed": 363170, "internal_node_id": "0.0-2.0-2.0-0.0"}}, {"uniqueid": "w82538768:a30786631", "current_trial": 4, "dateTime": 1693481132013, "trialdata": {"revealed_states": [], "clicked_states": [], "num_clicks_accrued": [0, 0, 0, 0, 0, 0, 0, 0, 0, 0, 0, 0, 0], "stateRewards": ["", 10, 10, 10, 10, 10, -10, -10, 10, -10, 10, 10, -10, -10, 10, 10, 10, -10, 10, 10, 10, 10, -10, 10, -10, 10, 10, 10, 10, -10, -10, -10, -10, 10], "withholdReward": false, "trial_id": "practice_2", "block": "test", "trialIndex": 1, "score": 33.5, "costs": 0, "simulationMode": [null, null, null, null, null], "rewards": [10, 10, 10, 10, -10], "path": ["0", "0", "1", "2", "3", "8", "9"], "rt": [3690, 685, 814, 260, 88], "actions": ["up", "up", "up", "left", "up"], "actionTimes": [4978, 6181, 7510, 8271, 8868], "queries": {"click": {"state": {"target": [], "time": []}, "edge": {"target": [], "time": []}}, "mouseover": {"state": {"target": [], "time": []}, "edge": {"target": [], "time": []}}, "mouseout": {"state": {"target": [], "time": []}, "edge": {"target": [], "time": []}}}, "displayed_time": "9.38", "trialTime": 12945, "trial_type": "mouselab-mdp", "trial_index": 4, "time_elapsed": 376729, "internal_node_id": "0.0-2.0-2.0-1.0"}}, {"uniqueid": "w82538768:a30786631", "current_trial": 5, "dateTime": 1693481215384, "trialdata": {"view_history": [{"page_index": 0, "viewing_time": 69198}, {"page_index": 1, "viewing_time": 14161}], "rt": 83360, "trial_id": "mouselab_instructions_2_control", "trial_type": "instructions", "trial_index": 5, "time_elapsed": 460101, "internal_node_id": "0.0-2.0-3.0"}}, {"uniqueid": "w82538768:a30786631", "current_trial": 6, "dateTime": 1693481259827, "trialdata": {"rt": 44426, "response": {"Q0": "The cost for clicking on nodes may vary between nodes.", "Q1": "The better I perform the higher my bonus will be.", "Q2": "No, the amount of cash at each node of the web may be different each time.", "Q3": "To get the highest total score.", "Q4": "Only before moving the spider.", "Q5": "3 seconds"}, "question_order": [0, 1, 2, 3, 4, 5], "correct": {"Q0": "The cost for clicking on nodes may vary between nodes.", "Q1": "The better I perform the higher my bonus will be.", "Q2": "No, the amount of cash at each node of the web may be different each time.", "Q3": "To get the highest total score.", "Q4": "Only before moving the spider.", "Q5": "3 seconds"}, "trial_id": "mouselab_quiz_control", "trial_type": "survey-multi-choice", "trial_index": 6, "time_elapsed": 504544, "internal_node_id": "0.0-2.0-4.0"}}, {"uniqueid": "w82538768:a30786631", "current_trial": 7, "dateTime": 1693481267214, "trialdata": {"rt": 7379, "response": {"Q0": "No"}, "question_order": [0], "trial_id": "repeat_check", "trial_type": "survey-multi-choice", "trial_index": 7, "time_elapsed": 511931, "internal_node_id": "0.0-4.0-0.0"}}, {"uniqueid": "w82538768:a30786631", "current_trial": 8, "dateTime": 1693481297739, "trialdata": {"rt": 30517, "stimulus": "\n<h1> Get ready to start the game! </h1>\n\nThank you for reading the instructions. Get ready start with the 40 rounds of this game.\n<br><br>\nIf you need to take a break, feel free to take one after the end of a round, before continuing to the next one.\n<br><br>\nRemember, the more money the spider gets, the bigger your bonus will be!\n<br><br>\n<div style='text-align: center;'>Press <code>space</code> to begin.</div>\n\n<br><br>\n(If, at any point, the <code>space</code> key does not take you to the next page, click once on the text and try again.)", "response": " ", "trial_id": "mdp_ready", "trial_type": "html-keyboard-response", "trial_index": 8, "time_elapsed": 542457, "internal_node_id": "0.0-6.0-0.0"}}, {"uniqueid": "w82538768:a30786631", "current_trial": 9, "dateTime": 1693481318137, "trialdata": {"revealed_states": [], "clicked_states": [], "num_clicks_accrued": [0, 0, 0, 0, 0, 0, 0, 0, 0, 0, 0, 0, 0], "stateRewards": ["", -2, 2, -5, 1, 42, -63, -58, -6, 2, 16, 81, -2, 4, 7, -10, 33, 3, -33, -2, -52, -84, -27, 2, -3, -3, 15, -74, -14, -5, -5, -84, 79, -31], "withholdReward": false, "trial_id": "mdp_trial_1", "block": "test", "trialIndex": 2, "score": -34, "costs": 0, "simulationMode": [null, null, null, null, null], "rewards": [-2, 4, 7, -10, -33], "path": ["0", "0", "12", "13", "14", "15", "18"], "rt": [2166, 731, 365, 380, 58], "actions": ["right", "right", "right", "up", "left"], "actionTimes": [3434, 4697, 5596, 6541, 7119], "queries": {"click": {"state": {"target": [], "time": []}, "edge": {"target": [], "time": []}}, "mouseover": {"state": {"target": [], "time": []}, "edge": {"target": [], "time": []}}, "mouseout": {"state": {"target": ["1", "0"], "time": [53, 713]}, "edge": {"target": [], "time": []}}}, "displayed_time": "15.27", "trialTime": 19684, "trial_type": "mouselab-mdp", "trial_index": 9, "time_elapsed": 562853, "internal_node_id": "0.0-6.0-1.0-0.0"}}, {"uniqueid": "w82538768:a30786631", "current_trial": 10, "dateTime": 1693481336823, "trialdata": {"revealed_states": [], "clicked_states": [], "num_clicks_accrued": [0, 0, 0, 0, 0, 0, 0, 0, 0, 0, 0, 0, 0], "stateRewards": ["", 2, 4, -5, 7, 81, 35, 6, 11, 14, -72, 42, -1, 2, 3, -7, -77, -44, -40, -15, -85, 51, -32, -2, -1, -5, 7, -74, 47, 52, 16, -49, 48, -46], "withholdReward": false, "trial_id": "mdp_trial_2", "block": "test", "trialIndex": 3, "score": 43, "costs": 0, "simulationMode": [null, null, null, null, null], "rewards": [2, 4, -5, 7, 35], "path": ["0", "0", "1", "2", "3", "4", "6"], "rt": [1516, 329, 347, 191, 197], "actions": ["up", "up", "up", "right", "right"], "actionTimes": [3006, 3868, 4745, 5456, 6179], "queries": {"click": {"state": {"target": [], "time": []}, "edge": {"target": [], "time": []}}, "mouseover": {"state": {"target": ["0"], "time": [1821]}, "edge": {"target": [], "time": []}}, "mouseout": {"state": {"target": ["0"], "time": [1516]}, "edge": {"target": [], "time": []}}}, "displayed_time": "15.49", "trialTime": 18079, "trial_type": "mouselab-mdp", "trial_index": 10, "time_elapsed": 581540, "internal_node_id": "0.0-6.0-1.0-1.0"}}, {"uniqueid": "w82538768:a30786631", "current_trial": 11, "dateTime": 1693481359766, "trialdata": {"revealed_states": [], "clicked_states": ["3"], "num_clicks_accrued": [0, 0, 0, 0, 0, 0, 0, 0, 0, 0, 0, 0, 0], "stateRewards": ["", 2, -1, 5, 6, 10, 86, 55, 10, -45, 63, -71, 1, -2, 5, -8, -50, -72, 36, 15, 61, 12, 33, -1, -4, 6, 5, 79, -56, -21, -16, -87, 60, -81], "withholdReward": false, "trial_id": "mdp_trial_3", "block": "test", "trialIndex": 4, "score": -51.4, "costs": -1.4, "simulationMode": [null, null, null, null, null, null], "rewards": [-1, -4, 6, 5, -56], "path": ["0", "0", "23", "24", "25", "26", "28"], "rt": [3514, 793, 286, 524, 290, 647], "actions": ["left", "left", "left", "left", "up", "right"], "actionTimes": [8719, 9521, 10318, 11357, 12184, 13352], "queries": {"click": {"state": {"target": ["3"], "time": [7564]}, "edge": {"target": [], "time": []}}, "mouseover": {"state": {"target": ["1", "2", "3", "2"], "time": [6750, 6834, 7334, 8014]}, "edge": {"target": [], "time": []}}, "mouseout": {"state": {"target": ["0", "1", "2", "3", "2", "1"], "time": [6682, 6799, 7049, 7967, 8136, 15747]}, "edge": {"target": [], "time": []}}}, "displayed_time": "19.21", "trialTime": 22024, "trial_type": "mouselab-mdp", "trial_index": 11, "time_elapsed": 604483, "internal_node_id": "0.0-6.0-1.0-2.0"}}, {"uniqueid": "w82538768:a30786631", "current_trial": 12, "dateTime": 1693481378322, "trialdata": {"revealed_states": [], "clicked_states": ["15"], "num_clicks_accrued": [0, 0, 0, 0, 0, 0, 0, 0, 0, 0, 0, 0, 0], "stateRewards": ["", -1, -3, 1, -4, -48, -63, -49, -2, -84, -19, 65, 2, -2, -2, -12, -4, 59, 9, 6, 75, 69, -13, -1, -3, -3, -2, -37, -68, -36, 13, 32, 18, -14], "withholdReward": false, "trial_id": "mdp_trial_4", "block": "test", "trialIndex": 5, "score": -46.4, "costs": -1.4, "simulationMode": [null, null, null, null, null], "rewards": [-1, -3, -3, -2, -36], "path": ["0", "0", "23", "24", "25", "26", "29"], "rt": [3833, 193, 287, 302, 985], "actions": ["left", "left", "left", "up", "left"], "actionTimes": [5473, 6164, 6985, 7803, 9319], "queries": {"click": {"state": {"target": ["15"], "time": [2355]}, "edge": {"target": [], "time": []}}, "mouseover": {"state": {"target": ["12", "13", "15", "19", "21", "19"], "time": [1796, 1846, 2114, 4370, 4420, 4675]}, "edge": {"target": [], "time": []}}, "mouseout": {"state": {"target": ["0", "12", "13", "15", "19", "21"], "time": [1733, 1829, 1897, 4304, 4399, 4619]}, "edge": {"target": [], "time": []}}}, "displayed_time": "15.64", "trialTime": 17801, "trial_type": "mouselab-mdp", "trial_index": 12, "time_elapsed": 623038, "internal_node_id": "0.0-6.0-1.0-3.0"}}, {"uniqueid": "w82538768:a30786631", "current_trial": 13, "dateTime": 1693481396807, "trialdata": {"revealed_states": [], "clicked_states": ["30"], "num_clicks_accrued": [0, 0, 0, 0, 0, 0, 0, 0, 0, 0, 0, 0, 0], "stateRewards": ["", -1, -3, -7, -4, -85, -70, 79, 8, 84, -66, 42, 2, -2, -3, -16, -54, -66, 68, -3, 21, -14, 7, -2, -1, -3, -8, 75, 80, 86, -7, -84, 73, -16], "withholdReward": false, "trial_id": "mdp_trial_5", "block": "test", "trialIndex": 6, "score": -21.4, "costs": -1.4, "simulationMode": [null, null, null, null, null, null], "rewards": [2, -2, -3, -3, -14], "path": ["0", "0", "12", "13", "14", "19", "21"], "rt": [2218, 1361, 364, 430, 219, 431], "actions": ["up", "right", "right", "right", "down", "down"], "actionTimes": [4224, 5596, 6475, 7424, 8145, 9076], "queries": {"click": {"state": {"target": ["30"], "time": [2910]}, "edge": {"target": [], "time": []}}, "mouseover": {"state": {"target": ["1", "23", "30"], "time": [2240, 2322, 2637]}, "edge": {"target": [], "time": []}}, "mouseout": {"state": {"target": ["19", "13", "12", "1", "23"], "time": [739, 869, 1074, 2258, 2402]}, "edge": {"target": [], "time": []}}}, "displayed_time": "16.01", "trialTime": 17822, "trial_type": "mouselab-mdp", "trial_index": 13, "time_elapsed": 641523, "internal_node_id": "0.0-6.0-1.0-4.0"}}, {"uniqueid": "w82538768:a30786631", "current_trial": 14, "dateTime": 1693481415730, "trialdata": {"revealed_states": [], "clicked_states": ["4"], "num_clicks_accrued": [0, 0, 0, 0, 0, 0, 0, 0, 0, 0, 0, 0, 0], "stateRewards": ["", 2, -1, 8, -2, -16, 69, -39, -7, -13, -27, -86, 2, -2, 2, 13, -34, -16, -20, -5, 19, 81, 32, -2, -1, 2, -14, 20, 80, 58, 4, 70, 12, 73], "withholdReward": false, "trial_id": "mdp_trial_6", "block": "test", "trialIndex": 7, "score": -26.4, "costs": -1.4, "simulationMode": [null, null, null, null, null], "rewards": [2, -1, 8, -7, -27], "path": ["0", "0", "1", "2", "3", "8", "10"], "rt": [3479, 374, 2072, 519, 384], "actions": ["up", "up", "up", "left", "down"], "actionTimes": [5429, 6330, 8921, 9953, 10852], "queries": {"click": {"state": {"target": ["4"], "time": [2875]}, "edge": {"target": [], "time": []}}, "mouseover": {"state": {"target": ["4", "3", "8", "10"], "time": [2599, 3500, 3665, 4102]}, "edge": {"target": [], "time": []}}, "mouseout": {"state": {"target": ["30", "33", "14", "13", "12", "0", "4", "3", "8", "10"], "time": [415, 616, 826, 996, 1180, 2233, 3340, 3591, 4068, 4126]}, "edge": {"target": [], "time": []}}}, "displayed_time": "15.95", "trialTime": 18310, "trial_type": "mouselab-mdp", "trial_index": 14, "time_elapsed": 660447, "internal_node_id": "0.0-6.0-1.0-5.0"}}, {"uniqueid": "w82538768:a30786631", "current_trial": 15, "dateTime": 1693481434581, "trialdata": {"revealed_states": [], "clicked_states": ["14"], "num_clicks_accrued": [0, 0, 0, 0, 0, 0, 0, 0, 0, 0, 0, 0, 0], "stateRewards": ["", 2, -2, 7, -11, -76, -65, -23, 16, -58, 30, 81, 1, 2, 7, 14, 9, 55, -2, 6, 11, -15, 31, -1, -1, -3, 2, 15, 2, 46, 15, 18, 45, -34], "withholdReward": false, "trial_id": "mdp_trial_7", "block": "test", "trialIndex": 8, "score": 10.6, "costs": -1.4, "simulationMode": [null, null, null, null, null, null], "rewards": [-1, -1, -3, 2, 15], "path": ["0", "0", "23", "24", "25", "26", "27"], "rt": [3484, 875, 632, 393, 238, 262], "actions": ["left", "left", "left", "left", "up", "up"], "actionTimes": [5097, 5981, 7142, 8053, 8817, 9608], "queries": {"click": {"state": {"target": ["14"], "time": [3889]}, "edge": {"target": [], "time": []}}, "mouseover": {"state": {"target": ["12", "13", "14"], "time": [3262, 3309, 3607]}, "edge": {"target": [], "time": []}}, "mouseout": {"state": {"target": ["0", "0", "12", "13", "14", "20"], "time": [191, 3234, 3283, 3324, 16527, 16578]}, "edge": {"target": [], "time": []}}}, "displayed_time": "15.62", "trialTime": 17984, "trial_type": "mouselab-mdp", "trial_index": 15, "time_elapsed": 679296, "internal_node_id": "0.0-6.0-1.0-6.0"}}, {"uniqueid": "w82538768:a30786631", "current_trial": 16, "dateTime": 1693481453585, "trialdata": {"revealed_states": [], "clicked_states": ["3"], "num_clicks_accrued": [0, 0, 0, 0, 0, 0, 0, 0, 0, 0, 0, 0, 0], "stateRewards": ["", -1, -4, -1, -5, -28, -23, -15, -15, -38, 59, -87, 2, 2, -5, 9, -55, -39, -71, -6, 85, -85, -11, -1, -2, 5, -10, 1, 25, 41, -4, 69, -35, 86], "withholdReward": false, "trial_id": "mdp_trial_8", "block": "test", "trialIndex": 9, "score": -40.4, "costs": -1.4, "simulationMode": [null, null, null, null, null, null], "rewards": [-1, -4, -1, -5, -28], "path": ["0", "0", "1", "2", "3", "4", "5"], "rt": [3174, 1131, 348, 316, 261, 1403], "actions": ["up", "up", "up", "up", "right", "up"], "actionTimes": [5547, 6686, 7573, 8424, 9193, 11098], "queries": {"click": {"state": {"target": ["3"], "time": [4129]}, "edge": {"target": [], "time": []}}, "mouseover": {"state": {"target": ["1", "2", "4", "3", "2", "12"], "time": [3223, 3386, 3656, 3891, 4500, 4587]}, "edge": {"target": [], "time": []}}, "mouseout": {"state": {"target": ["0", "0", "1", "2", "4", "3", "2", "12"], "time": [1550, 1783, 3297, 3508, 3857, 4472, 4522, 12957]}, "edge": {"target": [], "time": []}}}, "displayed_time": "16.37", "trialTime": 18283, "trial_type": "mouselab-mdp", "trial_index": 16, "time_elapsed": 698301, "internal_node_id": "0.0-6.0-1.0-7.0"}}, {"uniqueid": "w82538768:a30786631", "current_trial": 17, "dateTime": 1693481471520, "trialdata": {"revealed_states": [], "clicked_states": ["13"], "num_clicks_accrued": [0, 0, 0, 0, 0, 0, 0, 0, 0, 0, 0, 0, 0], "stateRewards": ["", 1, -2, 7, -14, 88, -56, -44, -14, 64, -51, -57, -2, 3, -4, -9, -11, 19, -77, -1, 68, 75, -67, -1, 1, -2, 5, -37, 70, -34, -10, -72, 63, -41], "withholdReward": false, "trial_id": "mdp_trial_9", "block": "test", "trialIndex": 10, "score": -72.4, "costs": -1.4, "simulationMode": [null, null, null, null, null, null], "rewards": [-2, 3, -4, -1, -67], "path": ["0", "0", "12", "13", "14", "19", "22"], "rt": [1982, 789, 625, 467, 264, 304], "actions": ["right", "right", "right", "right", "down", "left"], "actionTimes": [3879, 4674, 5812, 6812, 7589, 8430], "queries": {"click": {"state": {"target": ["13"], "time": [2843]}, "edge": {"target": [], "time": []}}, "mouseover": {"state": {"target": ["12", "13", "13"], "time": [2246, 2335, 2639]}, "edge": {"target": [], "time": []}}, "mouseout": {"state": {"target": ["0", "12", "13", "13", "19"], "time": [1014, 2313, 2416, 5588, 12689]}, "edge": {"target": [], "time": []}}}, "displayed_time": "15.90", "trialTime": 17252, "trial_type": "mouselab-mdp", "trial_index": 17, "time_elapsed": 716237, "internal_node_id": "0.0-6.0-1.0-8.0"}}, {"uniqueid": "w82538768:a30786631", "current_trial": 18, "dateTime": 1693481488475, "trialdata": {"revealed_states": [], "clicked_states": ["15"], "num_clicks_accrued": [0, 0, 0, 0, 0, 0, 0, 0, 0, 0, 0, 0, 0], "stateRewards": ["", -1, 4, -3, 3, 57, -61, 5, -11, 23, -1, 34, -2, -4, -1, -13, 27, 38, -36, 4, -45, 21, 88, 1, -2, -1, 1, -69, -5, -78, -12, -9, 38, -54], "withholdReward": false, "trial_id": "mdp_trial_10", "block": "test", "trialIndex": 11, "score": -69.4, "costs": -1.4, "simulationMode": [null, null, null, null, null, null], "rewards": [1, -2, -1, -12, -54], "path": ["0", "0", "23", "24", "25", "30", "33"], "rt": [1638, 808, 402, 423, 1122, 1534], "actions": ["left", "left", "left", "left", "down", "left"], "actionTimes": [2860, 3678, 4609, 5531, 7176, 9206], "queries": {"click": {"state": {"target": ["15"], "time": [2191]}, "edge": {"target": [], "time": []}}, "mouseover": {"state": {"target": ["1", "28", "24", "0", "12", "15"], "time": [1344, 1435, 1534, 1602, 1624, 1752]}, "edge": {"target": [], "time": []}}, "mouseout": {"state": {"target": ["12", "0", "1", "28", "24", "0", "12", "15", "15"], "time": [334, 1287, 1386, 1458, 1568, 1619, 1649, 12557, 12674]}, "edge": {"target": [], "time": []}}}, "displayed_time": "15.22", "trialTime": 16325, "trial_type": "mouselab-mdp", "trial_index": 18, "time_elapsed": 733191, "internal_node_id": "0.0-6.0-1.0-9.0"}}, {"uniqueid": "w82538768:a30786631", "current_trial": 19, "dateTime": 1693481506121, "trialdata": {"revealed_states": [], "clicked_states": ["12"], "num_clicks_accrued": [0, 0, 0, 0, 0, 0, 0, 0, 0, 0, 0, 0, 0], "stateRewards": ["", 1, 1, 7, -11, 80, -20, -53, -14, 3, 31, 27, 2, -1, -8, -10, 33, 41, 86, 9, 78, -37, -13, -1, -2, -6, -8, -80, 75, 4, -16, -49, -74, 24], "withholdReward": false, "trial_id": "mdp_trial_11", "block": "test", "trialIndex": 12, "score": 56.6, "costs": -1.4, "simulationMode": [null, null, null, null, null, null], "rewards": [-1, -2, -6, -8, 75], "path": ["0", "0", "23", "24", "25", "26", "28"], "rt": [2379, 605, 365, 245, 181, 101], "actions": ["right", "left", "left", "left", "up", "right"], "actionTimes": [3822, 4432, 5328, 6093, 6779, 7381], "queries": {"click": {"state": {"target": ["12"], "time": [3423]}, "edge": {"target": [], "time": []}}, "mouseover": {"state": {"target": ["12"], "time": [3246]}, "edge": {"target": [], "time": []}}, "mouseout": {"state": {"target": ["15", "15", "12", "23", "0", "12"], "time": [176, 426, 500, 776, 3213, 4522]}, "edge": {"target": [], "time": []}}}, "displayed_time": "15.45", "trialTime": 17013, "trial_type": "mouselab-mdp", "trial_index": 19, "time_elapsed": 750839, "internal_node_id": "0.0-6.0-1.0-10.0"}}, {"uniqueid": "w82538768:a30786631", "current_trial": 20, "dateTime": 1693481523801, "trialdata": {"revealed_states": [], "clicked_states": ["8"], "num_clicks_accrued": [0, 0, 0, 0, 0, 0, 0, 0, 0, 0, 0, 0, 0], "stateRewards": ["", 1, -1, 1, -14, -10, 67, -28, -11, 72, 40, -65, -1, 1, 1, -2, 8, -55, 34, -10, 61, 33, -15, 2, -4, 7, 4, -75, 63, -21, -16, 61, 19, 21], "withholdReward": false, "trial_id": "mdp_trial_12", "block": "test", "trialIndex": 13, "score": 50.6, "costs": -1.4, "simulationMode": [null, null, null, null, null, null], "rewards": [-1, 1, 1, -10, 61], "path": ["0", "0", "12", "13", "14", "19", "20"], "rt": [2048, 911, 353, 341, 639, 125], "actions": ["up", "right", "right", "right", "down", "right"], "actionTimes": [3357, 4273, 5129, 5998, 7147, 7791], "queries": {"click": {"state": {"target": ["8"], "time": [2777]}, "edge": {"target": [], "time": []}}, "mouseover": {"state": {"target": ["1", "2", "4", "3", "8"], "time": [1713, 1818, 2152, 2420, 2568]}, "edge": {"target": [], "time": []}}, "mouseout": {"state": {"target": ["0", "1", "2", "4", "3", "8"], "time": [1670, 1769, 1887, 2385, 2519, 11689]}, "edge": {"target": [], "time": []}}}, "displayed_time": "15.31", "trialTime": 16831, "trial_type": "mouselab-mdp", "trial_index": 20, "time_elapsed": 768517, "internal_node_id": "0.0-6.0-1.0-11.0"}}, {"uniqueid": "w82538768:a30786631", "current_trial": 21, "dateTime": 1693481542569, "trialdata": {"revealed_states": [], "clicked_states": ["7"], "num_clicks_accrued": [0, 0, 0, 0, 0, 0, 0, 0, 0, 0, 0, 0, 0], "stateRewards": ["", -1, -4, 8, 8, -68, 47, 24, -7, -61, 49, -69, -1, -1, 8, -7, 42, 1, -45, -11, 10, -63, -6, 1, 4, 6, -16, 79, -37, -58, -12, 81, 18, -53], "withholdReward": false, "trial_id": "mdp_trial_13", "block": "test", "trialIndex": 14, "score": 33.6, "costs": -1.4, "simulationMode": [null, null, null, null, null, null], "rewards": [-1, -4, 8, 8, 24], "path": ["0", "0", "1", "2", "3", "4", "7"], "rt": [2654, 685, 597, 1282, 251, 46], "actions": ["up", "up", "up", "up", "right", "down"], "actionTimes": [4738, 5440, 6536, 8327, 9091, 9646], "queries": {"click": {"state": {"target": ["7"], "time": [3592]}, "edge": {"target": [], "time": []}}, "mouseover": {"state": {"target": ["1", "2", "7", "7"], "time": [2528, 2725, 3237, 3407]}, "edge": {"target": [], "time": []}}, "mouseout": {"state": {"target": ["8", "0", "1", "2", "7", "7"], "time": [402, 2458, 2555, 2791, 3293, 6604]}, "edge": {"target": [], "time": []}}}, "displayed_time": "16.09", "trialTime": 18056, "trial_type": "mouselab-mdp", "trial_index": 21, "time_elapsed": 787287, "internal_node_id": "0.0-6.0-1.0-12.0"}}, {"uniqueid": "w82538768:a30786631", "current_trial": 22, "dateTime": 1693481563032, "trialdata": {"revealed_states": [], "clicked_states": [], "num_clicks_accrued": [0, 0, 0, 0, 0, 0, 0, 0, 0, 0, 0, 0, 0], "stateRewards": ["", -2, 3, -5, -7, 66, 43, -60, -4, -70, -75, 4, -1, 2, 2, -13, 54, 11, -40, -1, 77, 32, 15, -2, 3, -8, -9, -35, 83, -27, 6, -74, -34, 44], "withholdReward": false, "trial_id": "mdp_trial_14", "block": "test", "trialIndex": 15, "score": -83, "costs": 0, "simulationMode": [null, null, null, null, null], "rewards": [-2, 3, -5, -4, -75], "path": ["0", "0", "1", "2", "3", "8", "10"], "rt": [436, 221, 149, 702, 657], "actions": ["up", "up", "up", "left", "down"], "actionTimes": [5473, 6207, 6862, 8082, 9255], "queries": {"click": {"state": {"target": [], "time": []}, "edge": {"target": [], "time": []}}, "mouseover": {"state": {"target": [], "time": []}, "edge": {"target": [], "time": []}}, "mouseout": {"state": {"target": ["7", "12", "0"], "time": [3656, 3724, 4124]}, "edge": {"target": [], "time": []}}}, "displayed_time": "19.05", "trialTime": 19856, "trial_type": "mouselab-mdp", "trial_index": 22, "time_elapsed": 807748, "internal_node_id": "0.0-6.0-1.0-13.0"}}, {"uniqueid": "w82538768:a30786631", "current_trial": 23, "dateTime": 1693481582545, "trialdata": {"revealed_states": [], "clicked_states": [], "num_clicks_accrued": [0, 0, 0, 0, 0, 0, 0, 0, 0, 0, 0, 0, 0], "stateRewards": ["", 2, -4, -8, -15, 71, -43, -41, 7, -17, 20, 67, -1, -1, -4, 6, 37, -24, -47, 9, 34, 57, 45, 1, 2, -4, -5, -23, 88, -5, 13, -40, 43, 44], "withholdReward": false, "trial_id": "mdp_trial_15", "block": "test", "trialIndex": 16, "score": 60, "costs": 0, "simulationMode": [null, null, null, null, null], "rewards": [-1, -1, -4, 9, 57], "path": ["0", "0", "12", "13", "14", "19", "21"], "rt": [1595, 183, 115, 99, 67], "actions": ["right", "right", "right", "down", "down"], "actionTimes": [2731, 3422, 4038, 4654, 5270], "queries": {"click": {"state": {"target": [], "time": []}, "edge": {"target": [], "time": []}}, "mouseover": {"state": {"target": [], "time": []}, "edge": {"target": [], "time": []}}, "mouseout": {"state": {"target": ["0", "0"], "time": [702, 7193]}, "edge": {"target": [], "time": []}}}, "displayed_time": "15.14", "trialTime": 18810, "trial_type": "mouselab-mdp", "trial_index": 23, "time_elapsed": 827262, "internal_node_id": "0.0-6.0-1.0-14.0"}}, {"uniqueid": "w82538768:a30786631", "current_trial": 24, "dateTime": 1693481603133, "trialdata": {"revealed_states": [], "clicked_states": [], "num_clicks_accrued": [0, 0, 0, 0, 0, 0, 0, 0, 0, 0, 0, 0, 0], "stateRewards": ["", 1, -4, -4, 8, 1, -79, 68, -10, -79, 8, -74, -1, -3, -6, 14, 43, 23, 9, 5, -51, 63, 61, -2, 4, 6, -10, 69, -32, 57, 15, -80, -80, -77], "withholdReward": false, "trial_id": "mdp_trial_16", "block": "test", "trialIndex": 17, "score": 2, "costs": 0, "simulationMode": [null, null, null, null, null], "rewards": [1, -4, -4, 8, 1], "path": ["0", "0", "1", "2", "3", "4", "5"], "rt": [1305, 441, 155, 673, 246], "actions": ["up", "up", "up", "right", "up"], "actionTimes": [2209, 3151, 3832, 5011, 5756], "queries": {"click": {"state": {"target": [], "time": []}, "edge": {"target": [], "time": []}}, "mouseover": {"state": {"target": [], "time": []}, "edge": {"target": [], "time": []}}, "mouseout": {"state": {"target": [], "time": []}, "edge": {"target": [], "time": []}}}, "displayed_time": "14.91", "trialTime": 19504, "trial_type": "mouselab-mdp", "trial_index": 24, "time_elapsed": 847850, "internal_node_id": "0.0-6.0-1.0-15.0"}}, {"uniqueid": "w82538768:a30786631", "current_trial": 25, "dateTime": 1693481626139, "trialdata": {"revealed_states": [], "clicked_states": [], "num_clicks_accrued": [0, 0, 0, 0, 0, 0, 0, 0, 0, 0, 0, 0, 0], "stateRewards": ["", -1, 3, -7, 16, -32, -74, -48, 2, 10, 15, -30, 1, 1, -2, 10, 12, -83, 67, 13, -66, 47, 65, -2, 4, 2, -14, -8, -57, 24, 9, 65, 12, 46], "withholdReward": false, "trial_id": "mdp_trial_17", "block": "test", "trialIndex": 18, "score": -73, "costs": 0, "simulationMode": [null, null, null, null, null], "rewards": [1, 1, -2, 10, -83], "path": ["0", "0", "12", "13", "14", "15", "17"], "rt": [532, 113, 150, 4, 622], "actions": ["right", "right", "right", "up", "right"], "actionTimes": [1940, 2550, 3203, 3718, 4873], "queries": {"click": {"state": {"target": [], "time": []}, "edge": {"target": [], "time": []}}, "mouseover": {"state": {"target": [], "time": []}, "edge": {"target": [], "time": []}}, "mouseout": {"state": {"target": ["0", "0"], "time": [750, 21418]}, "edge": {"target": [], "time": []}}}, "displayed_time": "15.41", "trialTime": 22101, "trial_type": "mouselab-mdp", "trial_index": 25, "time_elapsed": 870856, "internal_node_id": "0.0-6.0-1.0-16.0"}}, {"uniqueid": "w82538768:a30786631", "current_trial": 26, "dateTime": 1693481646542, "trialdata": {"revealed_states": [], "clicked_states": [], "num_clicks_accrued": [0, 0, 0, 0, 0, 0, 0, 0, 0, 0, 0, 0, 0], "stateRewards": ["", 2, -3, 5, -14, -63, -9, -24, -11, -54, -43, 68, 2, -2, -4, 7, -64, 30, 47, 12, -74, 11, 86, 1, -3, 3, 10, -71, -42, -52, -1, -29, -16, 69], "withholdReward": false, "trial_id": "mdp_trial_18", "block": "test", "trialIndex": 19, "score": -29, "costs": 0, "simulationMode": [null, null, null, null, null], "rewards": [1, -3, 3, -1, -29], "path": ["0", "0", "23", "24", "25", "30", "31"], "rt": [623, 71, 67, 161, 74], "actions": ["left", "left", "left", "down", "right"], "actionTimes": [1671, 2266, 2867, 3536, 4129], "queries": {"click": {"state": {"target": [], "time": []}, "edge": {"target": [], "time": []}}, "mouseover": {"state": {"target": [], "time": []}, "edge": {"target": [], "time": []}}, "mouseout": {"state": {"target": [], "time": []}, "edge": {"target": [], "time": []}}}, "displayed_time": "15.05", "trialTime": 19528, "trial_type": "mouselab-mdp", "trial_index": 26, "time_elapsed": 891259, "internal_node_id": "0.0-6.0-1.0-17.0"}}, {"uniqueid": "w82538768:a30786631", "current_trial": 27, "dateTime": 1693481667650, "trialdata": {"revealed_states": [], "clicked_states": [], "num_clicks_accrued": [0, 0, 0, 0, 0, 0, 0, 0, 0, 0, 0, 0, 0], "stateRewards": ["", 1, 1, -6, -2, 7, 77, 3, 16, -16, 66, 31, -1, 3, -8, -6, 33, -50, -48, 7, -60, -66, 36, 2, -3, 3, -7, -12, -61, -79, -4, 8, 74, -70], "withholdReward": false, "trial_id": "mdp_trial_19", "block": "test", "trialIndex": 20, "score": 78, "costs": 0, "simulationMode": [null, null, null, null, null], "rewards": [1, 1, -6, 16, 66], "path": ["0", "0", "1", "2", "3", "8", "10"], "rt": [551, 362, 246, 191, 19], "actions": ["up", "up", "up", "left", "down"], "actionTimes": [1624, 2512, 3281, 3985, 4515], "queries": {"click": {"state": {"target": [], "time": []}, "edge": {"target": [], "time": []}}, "mouseover": {"state": {"target": [], "time": []}, "edge": {"target": [], "time": []}}, "mouseout": {"state": {"target": ["0", "0"], "time": [192, 542]}, "edge": {"target": [], "time": []}}}, "displayed_time": "15.07", "trialTime": 20343, "trial_type": "mouselab-mdp", "trial_index": 27, "time_elapsed": 912367, "internal_node_id": "0.0-6.0-1.0-18.0"}}, {"uniqueid": "w82538768:a30786631", "current_trial": 28, "dateTime": 1693481695572, "trialdata": {"revealed_states": [], "clicked_states": [], "num_clicks_accrued": [0, 0, 0, 0, 0, 0, 0, 0, 0, 0, 0, 0, 0], "stateRewards": ["", 2, -3, -2, 14, -4, 85, 46, 15, -28, 41, 31, -1, -1, -1, 5, 62, 79, 57, 12, -73, -64, 86, -1, 1, -3, -5, 68, 11, -32, 8, -80, -21, -56], "withholdReward": false, "trial_id": "mdp_trial_20", "block": "test", "trialIndex": 21, "score": 7, "costs": 0, "simulationMode": [null, null, null, null, null], "rewards": [2, -3, -2, 14, -4], "path": ["0", "0", "1", "2", "3", "4", "5"], "rt": [469, 8, 31, 811, 101], "actions": ["up", "up", "up", "right", "up"], "actionTimes": [1410, 1935, 2485, 3826, 4445], "queries": {"click": {"state": {"target": [], "time": []}, "edge": {"target": [], "time": []}}, "mouseover": {"state": {"target": [], "time": []}, "edge": {"target": [], "time": []}}, "mouseout": {"state": {"target": ["0", "23", "24"], "time": [961, 2138, 26786]}, "edge": {"target": [], "time": []}}}, "displayed_time": "14.95", "trialTime": 27178, "trial_type": "mouselab-mdp", "trial_index": 28, "time_elapsed": 940289, "internal_node_id": "0.0-6.0-1.0-19.0"}}, {"uniqueid": "w82538768:a30786631", "current_trial": 29, "dateTime": 1693481713112, "trialdata": {"revealed_states": [], "clicked_states": ["3"], "num_clicks_accrued": [0, 0, 0, 0, 0, 0, 0, 0, 0, 0, 0, 0, 0], "stateRewards": ["", 2, -1, 4, -9, -43, 7, 54, -13, 38, -40, -83, -1, 2, -8, -10, 34, -33, 11, -14, -79, 65, 26, 1, 2, 4, 10, 21, 1, 86, 4, -53, 28, -29], "withholdReward": false, "trial_id": "mdp_trial_21", "block": "test", "trialIndex": 22, "score": 1.5999999999999996, "costs": -1.4, "simulationMode": [null, null, null, null, null, null], "rewards": [2, -1, 4, -9, 7], "path": ["0", "0", "1", "2", "3", "4", "6"], "rt": [2518, 883, 88, 302, 519, 107], "actions": ["up", "up", "up", "up", "right", "right"], "actionTimes": [3665, 4557, 5168, 5984, 7029, 7672], "queries": {"click": {"state": {"target": ["3"], "time": [2689]}, "edge": {"target": [], "time": []}}, "mouseover": {"state": {"target": ["1", "2", "3", "1"], "time": [1838, 1940, 2313, 3029]}, "edge": {"target": [], "time": []}}, "mouseout": {"state": {"target": ["0", "0", "1", "2", "3"], "time": [53, 1739, 1908, 2015, 2941]}, "edge": {"target": [], "time": []}}}, "displayed_time": "15.15", "trialTime": 16516, "trial_type": "mouselab-mdp", "trial_index": 29, "time_elapsed": 957828, "internal_node_id": "0.0-6.0-1.0-20.0"}}, {"uniqueid": "w82538768:a30786631", "current_trial": 30, "dateTime": 1693481743753, "trialdata": {"revealed_states": [], "clicked_states": [], "num_clicks_accrued": [0, 0, 0, 0, 0, 0, 0, 0, 0, 0, 0, 0, 0], "stateRewards": ["", 1, -2, -2, 10, -31, -77, 35, 9, -47, 8, 48, -2, 1, -4, -3, -26, -50, 43, -11, 76, -38, 17, 1, -1, 6, 10, 15, -9, 12, -8, 85, 11, -55], "withholdReward": false, "trial_id": "mdp_trial_22", "block": "test", "trialIndex": 23, "score": 28, "costs": 0, "simulationMode": [null, null, null, null, null], "rewards": [1, -1, 6, 10, 12], "path": ["0", "0", "23", "24", "25", "26", "29"], "rt": [726, 107, 214, 98, 129], "actions": ["left", "left", "left", "up", "left"], "actionTimes": [1882, 2529, 3280, 3894, 4537], "queries": {"click": {"state": {"target": [], "time": []}, "edge": {"target": [], "time": []}}, "mouseover": {"state": {"target": ["13"], "time": [1426]}, "edge": {"target": [], "time": []}}, "mouseout": {"state": {"target": ["1", "0", "0", "13"], "time": [88, 652, 1390, 1455]}, "edge": {"target": [], "time": []}}}, "displayed_time": "15.16", "trialTime": 29886, "trial_type": "mouselab-mdp", "trial_index": 30, "time_elapsed": 988470, "internal_node_id": "0.0-6.0-1.0-21.0"}}, {"uniqueid": "w82538768:a30786631", "current_trial": 31, "dateTime": 1693481768880, "trialdata": {"revealed_states": [], "clicked_states": [], "num_clicks_accrued": [0, 0, 0, 0, 0, 0, 0, 0, 0, 0, 0, 0, 0], "stateRewards": ["", -1, -3, 1, 13, -64, -29, 12, -4, -33, 50, 56, 2, -3, 4, 11, -64, -58, -55, 12, 47, 38, -25, -2, 2, 5, -15, 85, 7, 84, 10, 8, 57, 26], "withholdReward": false, "trial_id": "mdp_trial_23", "block": "test", "trialIndex": 24, "score": 43, "costs": 0, "simulationMode": [null, null, null, null, null], "rewards": [-1, -3, 1, -4, 50], "path": ["0", "0", "1", "2", "3", "8", "10"], "rt": [485, 8, 1155, 8, 693], "actions": ["up", "up", "up", "left", "down"], "actionTimes": [1376, 1908, 3612, 4140, 5354], "queries": {"click": {"state": {"target": [], "time": []}, "edge": {"target": [], "time": []}}, "mouseover": {"state": {"target": [], "time": []}, "edge": {"target": [], "time": []}}, "mouseout": {"state": {"target": [], "time": []}, "edge": {"target": [], "time": []}}}, "displayed_time": "14.90", "trialTime": 24385, "trial_type": "mouselab-mdp", "trial_index": 31, "time_elapsed": 1013596, "internal_node_id": "0.0-6.0-1.0-22.0"}}, {"uniqueid": "w82538768:a30786631", "current_trial": 32, "dateTime": 1693481789669, "trialdata": {"revealed_states": [], "clicked_states": [], "num_clicks_accrued": [0, 0, 0, 0, 0, 0, 0, 0, 0, 0, 0, 0, 0], "stateRewards": ["", 2, 2, 3, -15, 23, -14, 73, -7, -32, -20, -6, 1, 1, -5, -12, 73, 6, -84, 11, -81, -57, 13, -2, -1, -4, -8, -52, -58, 49, 13, 5, -41, -41], "withholdReward": false, "trial_id": "mdp_trial_24", "block": "test", "trialIndex": 25, "score": 65, "costs": 0, "simulationMode": [null, null, null, null, null], "rewards": [2, 2, 3, -15, 73], "path": ["0", "0", "1", "2", "3", "4", "7"], "rt": [438, 42, 972, 56, 106], "actions": ["up", "up", "up", "right", "down"], "actionTimes": [1666, 2225, 3734, 4303, 4921], "queries": {"click": {"state": {"target": [], "time": []}, "edge": {"target": [], "time": []}}, "mouseover": {"state": {"target": [], "time": []}, "edge": {"target": [], "time": []}}, "mouseout": {"state": {"target": ["0", "23", "0"], "time": [16074, 17309, 19267]}, "edge": {"target": [], "time": []}}}, "displayed_time": "15.23", "trialTime": 20027, "trial_type": "mouselab-mdp", "trial_index": 32, "time_elapsed": 1034386, "internal_node_id": "0.0-6.0-1.0-23.0"}}, {"uniqueid": "w82538768:a30786631", "current_trial": 33, "dateTime": 1693481806573, "trialdata": {"revealed_states": [], "clicked_states": [], "num_clicks_accrued": [0, 0, 0, 0, 0, 0, 0, 0, 0, 0, 0, 0, 0], "stateRewards": ["", 2, 1, -3, 7, 46, 11, -36, 16, 71, 5, 1, 2, -2, -8, -3, -4, 6, 55, 7, 68, -54, 2, 1, 1, 6, -6, 42, -4, -84, -11, -65, 63, 25], "withholdReward": false, "trial_id": "mdp_trial_25", "block": "test", "trialIndex": 26, "score": 22, "costs": 0, "simulationMode": [null, null, null, null, null], "rewards": [1, 1, 6, -11, 25], "path": ["0", "0", "23", "24", "25", "30", "33"], "rt": [522, 9, 7, 684, 123], "actions": ["left", "left", "left", "down", "left"], "actionTimes": [1405, 1959, 2490, 3707, 4348], "queries": {"click": {"state": {"target": [], "time": []}, "edge": {"target": [], "time": []}}, "mouseover": {"state": {"target": [], "time": []}, "edge": {"target": [], "time": []}}, "mouseout": {"state": {"target": [], "time": []}, "edge": {"target": [], "time": []}}}, "displayed_time": "14.89", "trialTime": 16093, "trial_type": "mouselab-mdp", "trial_index": 33, "time_elapsed": 1051290, "internal_node_id": "0.0-6.0-1.0-24.0"}}, {"uniqueid": "w82538768:a30786631", "current_trial": 34, "dateTime": 1693481827117, "trialdata": {"revealed_states": [], "clicked_states": [], "num_clicks_accrued": [0, 0, 0, 0, 0, 0, 0, 0, 0, 0, 0, 0, 0], "stateRewards": ["", -1, 2, 7, 8, 75, 67, -11, 6, 52, -17, 38, -1, 4, -8, 14, 74, -37, -17, -12, 52, 55, 71, -2, -1, -5, 2, 21, 6, -88, -14, 64, -61, -47], "withholdReward": false, "trial_id": "mdp_trial_26", "block": "test", "trialIndex": 27, "score": 66, "costs": 0, "simulationMode": [null, null, null, null, null], "rewards": [-1, 2, 7, 6, 52], "path": ["0", "0", "1", "2", "3", "8", "9"], "rt": [376, 147, 105, 27, 26], "actions": ["up", "up", "up", "left", "up"], "actionTimes": [1685, 2356, 2962, 3516, 4074], "queries": {"click": {"state": {"target": [], "time": []}, "edge": {"target": [], "time": []}}, "mouseover": {"state": {"target": [], "time": []}, "edge": {"target": [], "time": []}}, "mouseout": {"state": {"target": [], "time": []}, "edge": {"target": [], "time": []}}}, "displayed_time": "15.31", "trialTime": 19651, "trial_type": "mouselab-mdp", "trial_index": 34, "time_elapsed": 1071835, "internal_node_id": "0.0-6.0-1.0-25.0"}}, {"uniqueid": "w82538768:a30786631", "current_trial": 35, "dateTime": 1693481850299, "trialdata": {"revealed_states": [], "clicked_states": [], "num_clicks_accrued": [0, 0, 0, 0, 0, 0, 0, 0, 0, 0, 0, 0, 0], "stateRewards": ["", -1, 2, 5, -6, 13, -64, -47, 8, -79, -80, -33, 1, 2, -2, -16, 56, -71, -10, 3, 29, 44, 85, -1, 4, 5, 4, -36, -56, 19, 8, 52, -13, -2], "withholdReward": false, "trial_id": "mdp_trial_27", "block": "test", "trialIndex": 28, "score": 31, "costs": 0, "simulationMode": [null, null, null, null, null], "rewards": [-1, 4, 5, 4, 19], "path": ["0", "0", "23", "24", "25", "26", "29"], "rt": [325, 7, 60, 24, 707], "actions": ["left", "left", "left", "up", "left"], "actionTimes": [1179, 1709, 2287, 2816, 4093], "queries": {"click": {"state": {"target": [], "time": []}, "edge": {"target": [], "time": []}}, "mouseover": {"state": {"target": [], "time": []}, "edge": {"target": [], "time": []}}, "mouseout": {"state": {"target": [], "time": []}, "edge": {"target": [], "time": []}}}, "displayed_time": "14.86", "trialTime": 22333, "trial_type": "mouselab-mdp", "trial_index": 35, "time_elapsed": 1095016, "internal_node_id": "0.0-6.0-1.0-26.0"}}, {"uniqueid": "w82538768:a30786631", "current_trial": 36, "dateTime": 1693481870031, "trialdata": {"revealed_states": [], "clicked_states": [], "num_clicks_accrued": [0, 0, 0, 0, 0, 0, 0, 0, 0, 0, 0, 0, 0], "stateRewards": ["", 2, -1, -2, -5, -47, -57, -33, -11, 31, -18, -72, -2, 1, -4, -8, -46, -53, -50, 15, -85, -9, 39, -2, -2, 1, 14, -1, -8, 53, -12, -41, -74, 62], "withholdReward": false, "trial_id": "mdp_trial_28", "block": "test", "trialIndex": 29, "score": -30, "costs": 0, "simulationMode": [null, null, null, null, null], "rewards": [2, -1, -2, -11, -18], "path": ["0", "0", "1", "2", "3", "8", "10"], "rt": [288, 38, 405, 345, 353], "actions": ["up", "up", "up", "left", "down"], "actionTimes": [1546, 2088, 3011, 3868, 4748], "queries": {"click": {"state": {"target": [], "time": []}, "edge": {"target": [], "time": []}}, "mouseover": {"state": {"target": [], "time": []}, "edge": {"target": [], "time": []}}, "mouseout": {"state": {"target": [], "time": []}, "edge": {"target": [], "time": []}}}, "displayed_time": "15.26", "trialTime": 18801, "trial_type": "mouselab-mdp", "trial_index": 36, "time_elapsed": 1114748, "internal_node_id": "0.0-6.0-1.0-27.0"}}, {"uniqueid": "w82538768:a30786631", "current_trial": 37, "dateTime": 1693481888031, "trialdata": {"revealed_states": [], "clicked_states": [], "num_clicks_accrued": [0, 0, 0, 0, 0, 0, 0, 0, 0, 0, 0, 0, 0], "stateRewards": ["", -1, 3, 1, -7, 56, 76, 57, 3, 11, -9, 14, 1, -2, 2, 8, -77, -3, 79, -5, 88, 24, -66, -2, -1, 7, -7, -30, 14, -76, 11, -36, 28, -6], "withholdReward": false, "trial_id": "mdp_trial_29", "block": "test", "trialIndex": 30, "score": -70, "costs": 0, "simulationMode": [null, null, null, null, null], "rewards": [1, -2, 2, -5, -66], "path": ["0", "0", "12", "13", "14", "19", "22"], "rt": [772, 71, 111, 457, 78], "actions": ["right", "right", "right", "down", "left"], "actionTimes": [1746, 2323, 2947, 3929, 4528], "queries": {"click": {"state": {"target": [], "time": []}, "edge": {"target": [], "time": []}}, "mouseover": {"state": {"target": ["0"], "time": [1042]}, "edge": {"target": [], "time": []}}, "mouseout": {"state": {"target": ["0", "0"], "time": [990, 1375]}, "edge": {"target": [], "time": []}}}, "displayed_time": "14.98", "trialTime": 17107, "trial_type": "mouselab-mdp", "trial_index": 37, "time_elapsed": 1132748, "internal_node_id": "0.0-6.0-1.0-28.0"}}, {"uniqueid": "w82538768:a30786631", "current_trial": 38, "dateTime": 1693481905569, "trialdata": {"revealed_states": [], "clicked_states": [], "num_clicks_accrued": [0, 0, 0, 0, 0, 0, 0, 0, 0, 0, 0, 0, 0], "stateRewards": ["", -2, -3, 7, -13, 60, 9, 37, -6, 37, 20, 1, 2, -2, -8, 6, -80, -31, -10, -7, 70, -65, -44, -1, 1, 7, 6, -11, 73, -85, 16, -21, 47, 34], "withholdReward": false, "trial_id": "mdp_trial_30", "block": "test", "trialIndex": 31, "score": 2, "costs": 0, "simulationMode": [null, null, null, null, null], "rewards": [-1, 1, 7, 16, -21], "path": ["0", "0", "23", "24", "25", "30", "31"], "rt": [318, 65, 76, 625, 137], "actions": ["left", "left", "left", "down", "right"], "actionTimes": [1187, 1778, 2356, 3493, 4136], "queries": {"click": {"state": {"target": [], "time": []}, "edge": {"target": [], "time": []}}, "mouseover": {"state": {"target": [], "time": []}, "edge": {"target": [], "time": []}}, "mouseout": {"state": {"target": ["0"], "time": [4821]}, "edge": {"target": [], "time": []}}}, "displayed_time": "14.87", "trialTime": 16090, "trial_type": "mouselab-mdp", "trial_index": 38, "time_elapsed": 1150286, "internal_node_id": "0.0-6.0-1.0-29.0"}}, {"uniqueid": "w82538768:a30786631", "current_trial": 39, "dateTime": 1693481923633, "trialdata": {"revealed_states": [], "clicked_states": [], "num_clicks_accrued": [0, 0, 0, 0, 0, 0, 0, 0, 0, 0, 0, 0, 0], "stateRewards": ["", -1, 3, -5, -2, -13, -9, -34, -7, -81, 32, 35, -2, -2, 1, -14, -32, 81, 7, 4, 82, 56, -8, -1, 3, -8, 6, -24, -24, -53, 2, 38, 61, 54], "withholdReward": false, "trial_id": "mdp_trial_31", "block": "test", "trialIndex": 32, "score": -39, "costs": 0, "simulationMode": [null, null, null, null, null], "rewards": [-1, 3, -5, -2, -34], "path": ["0", "0", "1", "2", "3", "4", "7"], "rt": [334, 429, 190, 16, 111], "actions": ["up", "up", "up", "right", "down"], "actionTimes": [1810, 2745, 3457, 4010, 4651], "queries": {"click": {"state": {"target": [], "time": []}, "edge": {"target": [], "time": []}}, "mouseover": {"state": {"target": [], "time": []}, "edge": {"target": [], "time": []}}, "mouseout": {"state": {"target": ["1", "0"], "time": [115, 15961]}, "edge": {"target": [], "time": []}}}, "displayed_time": "15.48", "trialTime": 17061, "trial_type": "mouselab-mdp", "trial_index": 39, "time_elapsed": 1168350, "internal_node_id": "0.0-6.0-1.0-30.0"}}, {"uniqueid": "w82538768:a30786631", "current_trial": 40, "dateTime": 1693481942406, "trialdata": {"revealed_states": [], "clicked_states": [], "num_clicks_accrued": [0, 0, 0, 0, 0, 0, 0, 0, 0, 0, 0, 0, 0], "stateRewards": ["", -1, 2, -6, 6, -82, -19, -39, -16, -83, 11, -33, -2, -2, 4, -6, -82, -1, -19, -6, -10, -67, -41, -2, 1, -7, 16, -23, -78, -52, 14, 31, -71, 74], "withholdReward": false, "trial_id": "mdp_trial_32", "block": "test", "trialIndex": 33, "score": -15, "costs": 0, "simulationMode": [null, null, null, null, null], "rewards": [-2, 1, -7, 16, -23], "path": ["0", "0", "23", "24", "25", "26", "27"], "rt": [75, 422, 141, 602, 1008], "actions": ["left", "left", "left", "up", "up"], "actionTimes": [2101, 2556, 3275, 4384, 5969], "queries": {"click": {"state": {"target": [], "time": []}, "edge": {"target": [], "time": []}}, "mouseover": {"state": {"target": [], "time": []}, "edge": {"target": [], "time": []}}, "mouseout": {"state": {"target": ["0", "0", "23", "24"], "time": [14083, 16274, 16322, 16617]}, "edge": {"target": [], "time": []}}}, "displayed_time": "16.03", "trialTime": 17076, "trial_type": "mouselab-mdp", "trial_index": 40, "time_elapsed": 1187124, "internal_node_id": "0.0-6.0-1.0-31.0"}}, {"uniqueid": "w82538768:a30786631", "current_trial": 41, "dateTime": 1693481961982, "trialdata": {"revealed_states": [], "clicked_states": [], "num_clicks_accrued": [0, 0, 0, 0, 0, 0, 0, 0, 0, 0, 0, 0, 0], "stateRewards": ["", -2, 4, -7, -3, -76, 39, -28, 10, 14, 12, 60, 2, -3, 6, -10, 88, -34, -41, -3, 72, -13, -56, 1, 3, 2, 8, -51, 23, -57, 1, 14, -46, -16], "withholdReward": false, "trial_id": "mdp_trial_33", "block": "test", "trialIndex": 34, "score": -39, "costs": 0, "simulationMode": [null, null, null, null, null], "rewards": [1, 3, 2, 1, -46], "path": ["0", "0", "23", "24", "25", "30", "32"], "rt": [379, 227, 412, 123, 673], "actions": ["left", "left", "left", "down", "down"], "actionTimes": [2099, 2831, 3769, 4399, 5593], "queries": {"click": {"state": {"target": [], "time": []}, "edge": {"target": [], "time": []}}, "mouseover": {"state": {"target": [], "time": []}, "edge": {"target": [], "time": []}}, "mouseout": {"state": {"target": ["0"], "time": [12496]}, "edge": {"target": [], "time": []}}}, "displayed_time": "15.72", "trialTime": 18883, "trial_type": "mouselab-mdp", "trial_index": 41, "time_elapsed": 1206699, "internal_node_id": "0.0-6.0-1.0-32.0"}}, {"uniqueid": "w82538768:a30786631", "current_trial": 42, "dateTime": 1693481979980, "trialdata": {"revealed_states": [], "clicked_states": [], "num_clicks_accrued": [0, 0, 0, 0, 0, 0, 0, 0, 0, 0, 0, 0, 0], "stateRewards": ["", -1, -1, 7, -15, -43, -21, -84, -9, -45, -66, 2, 1, -2, 2, 8, -27, 44, -52, -5, -84, 11, 53, 1, 4, -4, 16, 83, -82, -15, -16, 68, -43, 81], "withholdReward": false, "trial_id": "mdp_trial_34", "block": "test", "trialIndex": 35, "score": -70, "costs": 0, "simulationMode": [null, null, null, null, null], "rewards": [-1, -1, 7, -9, -66], "path": ["0", "0", "1", "2", "3", "8", "10"], "rt": [348, 229, 114, 504, 61], "actions": ["up", "up", "up", "left", "down"], "actionTimes": [1753, 2483, 3133, 4159, 4721], "queries": {"click": {"state": {"target": [], "time": []}, "edge": {"target": [], "time": []}}, "mouseover": {"state": {"target": [], "time": []}, "edge": {"target": [], "time": []}}, "mouseout": {"state": {"target": [], "time": []}, "edge": {"target": [], "time": []}}}, "displayed_time": "15.42", "trialTime": 16612, "trial_type": "mouselab-mdp", "trial_index": 42, "time_elapsed": 1224697, "internal_node_id": "0.0-6.0-1.0-33.0"}}, {"uniqueid": "w82538768:a30786631", "current_trial": 43, "dateTime": 1693481997023, "trialdata": {"revealed_states": [], "clicked_states": [], "num_clicks_accrued": [0, 0, 0, 0, 0, 0, 0, 0, 0, 0, 0, 0, 0], "stateRewards": ["", -2, 1, -5, 2, -68, 80, 33, 10, 67, -59, 20, -1, -3, 3, 14, 74, -2, 24, -16, 63, 80, 46, -1, 4, 6, 12, 83, -38, -43, -4, 43, 14, -79], "withholdReward": false, "trial_id": "mdp_trial_35", "block": "test", "trialIndex": 36, "score": -72, "costs": 0, "simulationMode": [null, null, null, null, null], "rewards": [-2, 1, -5, 2, -68], "path": ["0", "0", "1", "2", "3", "4", "5"], "rt": [397, 110, 189, 4, 23], "actions": ["up", "up", "up", "right", "up"], "actionTimes": [1509, 2135, 2830, 3343, 3891], "queries": {"click": {"state": {"target": [], "time": []}, "edge": {"target": [], "time": []}}, "mouseover": {"state": {"target": [], "time": []}, "edge": {"target": [], "time": []}}, "mouseout": {"state": {"target": [], "time": []}, "edge": {"target": [], "time": []}}}, "displayed_time": "15.12", "trialTime": 16208, "trial_type": "mouselab-mdp", "trial_index": 43, "time_elapsed": 1241740, "internal_node_id": "0.0-6.0-1.0-34.0"}}, {"uniqueid": "w82538768:a30786631", "current_trial": 44, "dateTime": 1693482015545, "trialdata": {"revealed_states": [], "clicked_states": [], "num_clicks_accrued": [0, 0, 0, 0, 0, 0, 0, 0, 0, 0, 0, 0, 0], "stateRewards": ["", 1, 1, 6, -14, -40, 37, 16, -13, 33, -68, 49, 2, 4, 3, 6, 55, 27, 32, 10, -65, 20, -87, 2, 1, -6, -5, -42, 12, 29, -8, 16, 76, -33], "withholdReward": false, "trial_id": "mdp_trial_36", "block": "test", "trialIndex": 37, "score": 4, "costs": 0, "simulationMode": [null, null, null, null, null], "rewards": [2, 1, -6, -5, 12], "path": ["0", "0", "23", "24", "25", "26", "28"], "rt": [392, 157, 273, 121, 18], "actions": ["left", "left", "left", "up", "right"], "actionTimes": [1264, 1944, 2733, 3368, 3887], "queries": {"click": {"state": {"target": [], "time": []}, "edge": {"target": [], "time": []}}, "mouseover": {"state": {"target": [], "time": []}, "edge": {"target": [], "time": []}}, "mouseout": {"state": {"target": ["0"], "time": [6691]}, "edge": {"target": [], "time": []}}}, "displayed_time": "14.88", "trialTime": 17204, "trial_type": "mouselab-mdp", "trial_index": 44, "time_elapsed": 1260262, "internal_node_id": "0.0-6.0-1.0-35.0"}}, {"uniqueid": "w82538768:a30786631", "current_trial": 45, "dateTime": 1693482034612, "trialdata": {"revealed_states": [], "clicked_states": [], "num_clicks_accrued": [0, 0, 0, 0, 0, 0, 0, 0, 0, 0, 0, 0, 0], "stateRewards": ["", 2, -1, -1, 7, 11, -40, -22, -2, 69, 37, 8, -2, 4, -8, -12, -2, -72, -3, -12, 17, 63, 12, 1, 3, -7, 6, 25, 61, 61, -9, 28, -17, 27], "withholdReward": false, "trial_id": "mdp_trial_37", "block": "test", "trialIndex": 38, "score": 16, "costs": 0, "simulationMode": [null, null, null, null, null], "rewards": [1, 3, -7, -9, 28], "path": ["0", "0", "23", "24", "25", "30", "31"], "rt": [902, 104, 270, 227, 170], "actions": ["left", "left", "left", "down", "right"], "actionTimes": [4011, 4663, 5452, 6176, 6854], "queries": {"click": {"state": {"target": [], "time": []}, "edge": {"target": [], "time": []}}, "mouseover": {"state": {"target": [], "time": []}, "edge": {"target": [], "time": []}}, "mouseout": {"state": {"target": ["0"], "time": [960]}, "edge": {"target": [], "time": []}}}, "displayed_time": "17.11", "trialTime": 18219, "trial_type": "mouselab-mdp", "trial_index": 45, "time_elapsed": 1279328, "internal_node_id": "0.0-6.0-1.0-36.0"}}, {"uniqueid": "w82538768:a30786631", "current_trial": 46, "dateTime": 1693482051780, "trialdata": {"revealed_states": [], "clicked_states": [], "num_clicks_accrued": [0, 0, 0, 0, 0, 0, 0, 0, 0, 0, 0, 0, 0], "stateRewards": ["", -2, 1, 6, -2, -10, -78, -69, 14, -15, 7, -1, 1, -1, -2, 13, 77, 32, 87, 5, -74, 30, -26, 1, 3, 4, 12, 39, 54, -43, 2, 10, 23, 13], "withholdReward": false, "trial_id": "mdp_trial_38", "block": "test", "trialIndex": 39, "score": 98, "costs": 0, "simulationMode": [null, null, null, null, null], "rewards": [1, -1, -2, 13, 87], "path": ["0", "0", "12", "13", "14", "15", "18"], "rt": [996, 207, 264, 103, 117], "actions": ["right", "right", "right", "up", "left"], "actionTimes": [2150, 2857, 3615, 4238, 4850], "queries": {"click": {"state": {"target": [], "time": []}, "edge": {"target": [], "time": []}}, "mouseover": {"state": {"target": [], "time": []}, "edge": {"target": [], "time": []}}, "mouseout": {"state": {"target": [], "time": []}, "edge": {"target": [], "time": []}}}, "displayed_time": "15.16", "trialTime": 16394, "trial_type": "mouselab-mdp", "trial_index": 46, "time_elapsed": 1296497, "internal_node_id": "0.0-6.0-1.0-37.0"}}, {"uniqueid": "w82538768:a30786631", "current_trial": 47, "dateTime": 1693482075376, "trialdata": {"revealed_states": [], "clicked_states": [], "num_clicks_accrued": [0, 0, 0, 0, 0, 0, 0, 0, 0, 0, 0, 0, 0], "stateRewards": ["", -1, -1, 4, -16, -75, 81, -51, -7, -84, 73, -30, -2, 1, -3, -16, -77, 33, 14, 1, 45, 87, -66, 2, 2, -5, -7, -19, -17, 79, -3, 8, 49, 47], "withholdReward": false, "trial_id": "mdp_trial_39", "block": "test", "trialIndex": 40, "score": 71, "costs": 0, "simulationMode": [null, null, null, null, null], "rewards": [2, 2, -5, -7, 79], "path": ["0", "0", "23", "24", "25", "26", "29"], "rt": [450, 7, 141, 42, 7], "actions": ["left", "left", "left", "up", "left"], "actionTimes": [1652, 2174, 2858, 3428, 3973], "queries": {"click": {"state": {"target": [], "time": []}, "edge": {"target": [], "time": []}}, "mouseover": {"state": {"target": [], "time": []}, "edge": {"target": [], "time": []}}, "mouseout": {"state": {"target": [], "time": []}, "edge": {"target": [], "time": []}}}, "displayed_time": "15.21", "trialTime": 22620, "trial_type": "mouselab-mdp", "trial_index": 47, "time_elapsed": 1320093, "internal_node_id": "0.0-6.0-1.0-38.0"}}, {"uniqueid": "w82538768:a30786631", "current_trial": 48, "dateTime": 1693482092064, "trialdata": {"revealed_states": [], "clicked_states": [], "num_clicks_accrued": [0, 0, 0, 0, 0, 0, 0, 0, 0, 0, 0, 0, 0], "stateRewards": ["", -2, 4, -5, -12, 85, -24, -18, -15, -78, -22, 26, -1, -1, 2, 14, -45, 52, -23, 7, -33, 24, -6, -2, -4, 5, -7, -16, 36, -39, 5, 71, -87, -23], "withholdReward": false, "trial_id": "mdp_trial_40", "block": "test", "trialIndex": 41, "score": -19, "costs": 0, "simulationMode": [null, null, null, null, null], "rewards": [-2, -4, 5, 5, -23], "path": ["0", "0", "23", "24", "25", "30", "33"], "rt": [466, 10, 145, 124, 167], "actions": ["left", "left", "left", "down", "left"], "actionTimes": [1640, 2173, 2855, 3485, 4172], "queries": {"click": {"state": {"target": [], "time": []}, "edge": {"target": [], "time": []}}, "mouseover": {"state": {"target": [], "time": []}, "edge": {"target": [], "time": []}}, "mouseout": {"state": {"target": ["0"], "time": [15523]}, "edge": {"target": [], "time": []}}}, "displayed_time": "15.18", "trialTime": 15828, "trial_type": "mouselab-mdp", "trial_index": 48, "time_elapsed": 1336780, "internal_node_id": "0.0-6.0-1.0-39.0"}}, {"uniqueid": "w82538768:a30786631", "current_trial": 49, "dateTime": 1693482197749, "trialdata": {"rt": 105630, "response": {"Q0": "$-16 to 16", "Q1": "$-4 to $4", "Q2": "$-88 to $88", "Q3": "The cost for clicking on nodes varied between nodes.", "Q4": "Slightly motivated"}, "question_order": [0, 1, 2, 3, 4], "trial_id": "final_quiz_control", "trial_type": "survey-multi-choice", "trial_index": 49, "time_elapsed": 1442466, "internal_node_id": "0.0-6.0-2.0"}}, {"uniqueid": "w82538768:a30786631", "current_trial": 50, "dateTime": 1693482362698, "trialdata": {"rt": 164855, "response": {"Q0": "I didn't have any specific strategy. Just based on instinct. I tried not to press the node inspector so I would not lower the cost.", "Q1": "It was easier to play with practice", "Q2": "On the instructions I thought the node inspector would reveal three spots. While it revealed only the one clicked. So I decided not to press it."}, "trial_id": "self_report_control", "trial_type": "survey-text", "trial_index": 50, "time_elapsed": 1607416, "internal_node_id": "0.0-6.0-3.0"}}, {"uniqueid": "w82538768:a30786631", "current_trial": 51, "dateTime": 1693482389566, "trialdata": {"rt": 26854, "response": {"gender": "female", "age": "32", "colorblind": "0", "effort": "0"}, "trial_type": "survey-html-form", "trial_index": 51, "time_elapsed": 1634284, "internal_node_id": "0.0-6.0-4.0"}}, {"uniqueid": "w82538768:a30786631", "current_trial": 52, "dateTime": 1693482449560, "trialdata": {"rt": 59980, "response": {"Q0": "The instructions at the beginning were a bit confusing.", "Q1": "I haven't partecipated before on a game like this.", "Q2": ""}, "trial_type": "survey-text", "trial_index": 52, "time_elapsed": 1694278, "internal_node_id": "0.0-6.0-5.0"}}, {"uniqueid": "w82538768:a30786631", "current_trial": 53, "dateTime": 1693482505074, "trialdata": {"rt": 55504, "stimulus": "<h1>Completion Code Instructions (1/2)</h1>\n<br><br><br><br>\nYou have reached the end of the experiment! The completion code consists of two parts: (1) a code with 2 characters (2) a code with 6 characters. On this page, you will receive the second part of the code. The first part of the completion code will be on the next page.\n<br><br>\nThe second part of your completion code is: <b>EWEK22</b>\n<br><br>\nPlease note this down. Then, press 'Finish HIT' in order to find the first part of your completion code. Once the data has been saved, you will receive this code either in this window or in the original browser window where you started the experiment.\n", "response": 0, "trial_type": "html-button-response", "trial_index": 53, "time_elapsed": 1749791, "internal_node_id": "0.0-6.0-6.0"}}, {"uniqueid": "w82538768:a30786631", "current_trial": 54, "dateTime": 1693482506100, "trialdata": {"success": true, "trial_type": "fullscreen", "trial_index": 54, "time_elapsed": 1750818, "internal_node_id": "0.0-7.0"}}], "questiondata": {"params": {"CODE": "C6DMOQA6", "MIN_TIME": 14, "inspectCost": 1, "startTime": "Thu Aug 31 2023 12:19:13 GMT+0100 (British Summer Time)", "bonusRate": 0.002, "variance": "1_2_4_8_44", "branching": "31123"}}, "eventdata": [{"eventtype": "initialized", "value": null, "timestamp": 1693480753279, "interval": 0}, {"eventtype": "window_resize", "value": [1028, 744], "timestamp": 1693480753279, "interval": 0}, {"eventtype": "window_resize", "value": [1028, 744], "timestamp": 1693480753695, "interval": 416}, {"eventtype": "window_resize", "value": [1536, 758], "timestamp": 1693480755788, "interval": 2093}, {"eventtype": "window_resize", "value": [1536, 864], "timestamp": 1693480761527, "interval": 5739}, {"eventtype": "window_resize", "value": [1536, 758], "timestamp": 1693482505436, "interval": 1743909}], "useragent": "Mozilla/5.0 (Windows NT 10.0; Win64; x64) AppleWebKit/537.36 (KHTML, like Gecko) Chrome/116.0.0.0 Safari/537.36", "mode": "live", "id": "w82538768:a30786631", "status": "user data saved", "Beginhit": "2023-08-31 11:19:09.480742", "Beginexp": "2023-08-31 11:19:22.320309", "Endhit": "2023-08-31 11:48:27.11934", "psiturkStatus": 3, "browser": "<redacted>", "platform": "windows", "language": "en-US"}