{"condition": 0, "counterbalance": 0, "assignmentId": "a14468851", "workerId": "w39449167", "hitId": "h21084794", "currenttrial": 55, "bonus": 0, "data": [{"uniqueid": "w39449167:a14468851", "current_trial": 0, "dateTime": 1693660873369, "trialdata": {"success": true, "trial_type": "fullscreen", "trial_index": 0, "time_elapsed": 7370, "internal_node_id": "0.0-0.0"}}, {"uniqueid": "w39449167:a14468851", "current_trial": 1, "dateTime": 1693660901882, "trialdata": {"view_history": [{"page_index": 0, "viewing_time": 28507}], "rt": 28508, "trial_id": "exp_instructions_control", "trial_type": "instructions", "trial_index": 1, "time_elapsed": 35883, "internal_node_id": "0.0-1.0"}}, {"uniqueid": "w39449167:a14468851", "current_trial": 2, "dateTime": 1693661481620, "trialdata": {"view_history": [{"page_index": 0, "viewing_time": 187195}, {"page_index": 1, "viewing_time": 159972}, {"page_index": 2, "viewing_time": 69124}, {"page_index": 3, "viewing_time": 116926}, {"page_index": 2, "viewing_time": 562}, {"page_index": 1, "viewing_time": 26558}, {"page_index": 2, "viewing_time": 2858}, {"page_index": 3, "viewing_time": 16541}], "rt": 579735, "trial_id": "mouselab_instructions_1_control", "trial_type": "instructions", "trial_index": 2, "time_elapsed": 615620, "internal_node_id": "0.0-2.0-1.0"}}, {"uniqueid": "w39449167:a14468851", "current_trial": 3, "dateTime": 1693661552568, "trialdata": {"revealed_states": [], "clicked_states": [], "num_clicks_accrued": [0, 0, 0, 0, 0, 0, 0, 0, 0, 0, 0, 0, 0], "stateRewards": ["", -10, 10, -10, -10, 10, -10, 10, -10, 10, 10, -10, -10, -10, -10, -10, 10, 10, 10, -10, -10, -10, -10, -10, 10, 10, 10, 10, 10, -10, 10, 10, 10, -10], "withholdReward": false, "trial_id": "practice_1", "block": "test", "trialIndex": 0, "score": -6.5, "costs": 0, "simulationMode": [null, null, null, null, null], "rewards": [-10, 10, -10, -10, 10], "path": ["0", "0", "1", "2", "3", "8", "9"], "rt": [32072, 3346, 1526, 15389, 1396], "actions": ["up", "up", "up", "left", "up"], "actionTimes": [34266, 38116, 40148, 56045, 57955], "queries": {"click": {"state": {"target": [], "time": []}, "edge": {"target": [], "time": []}}, "mouseover": {"state": {"target": ["12"], "time": [2303]}, "edge": {"target": [], "time": []}}, "mouseout": {"state": {"target": ["0", "12", "16", "3", "8", "13", "22", "21", "20", "14", "15", "16", "15"], "time": [2271, 2418, 50536, 51007, 54200, 64736, 64769, 65037, 66593, 66960, 67178, 67613, 68332]}, "edge": {"target": [], "time": []}}}, "displayed_time": "58.47", "trialTime": 69388, "trial_type": "mouselab-mdp", "trial_index": 3, "time_elapsed": 686569, "internal_node_id": "0.0-2.0-2.0-0.0"}}, {"uniqueid": "w39449167:a14468851", "current_trial": 4, "dateTime": 1693661600322, "trialdata": {"revealed_states": [], "clicked_states": [], "num_clicks_accrued": [0, 0, 0, 0, 0, 0, 0, 0, 0, 0, 0, 0, 0], "stateRewards": ["", -10, -10, 10, -10, -10, 10, -10, 10, 10, -10, -10, 10, 10, 10, 10, -10, 10, 10, -10, 10, -10, -10, 10, -10, -10, -10, -10, 10, -10, -10, -10, -10, -10], "withholdReward": false, "trial_id": "practice_2", "block": "test", "trialIndex": 1, "score": -26.5, "costs": 0, "simulationMode": [null, null, null, null, null], "rewards": [10, -10, -10, -10, -10], "path": ["0", "0", "23", "24", "25", "30", "33"], "rt": [23355, 1810, 8271, 1209, 921], "actions": ["left", "left", "left", "down", "left"], "actionTimes": [26193, 28501, 37272, 38998, 40448], "queries": {"click": {"state": {"target": [], "time": []}, "edge": {"target": [], "time": []}}, "mouseover": {"state": {"target": ["12", "12", "13", "13", "13", "12", "23"], "time": [4642, 6649, 7299, 8439, 10931, 11068, 12135]}, "edge": {"target": [], "time": []}}, "mouseout": {"state": {"target": ["16", "18", "0", "12", "12", "13", "13", "13", "12", "23", "12"], "time": [1680, 1798, 2906, 4960, 7269, 7837, 8874, 11031, 11115, 12815, 45184]}, "edge": {"target": [], "time": []}}}, "displayed_time": "40.97", "trialTime": 47130, "trial_type": "mouselab-mdp", "trial_index": 4, "time_elapsed": 734322, "internal_node_id": "0.0-2.0-2.0-1.0"}}, {"uniqueid": "w39449167:a14468851", "current_trial": 5, "dateTime": 1693661733449, "trialdata": {"view_history": [{"page_index": 0, "viewing_time": 112063}, {"page_index": 1, "viewing_time": 21061}], "rt": 133124, "trial_id": "mouselab_instructions_2_control", "trial_type": "instructions", "trial_index": 5, "time_elapsed": 867450, "internal_node_id": "0.0-2.0-3.0"}}, {"uniqueid": "w39449167:a14468851", "current_trial": 6, "dateTime": 1693662053071, "trialdata": {"rt": 319617, "response": {"Q0": "The cost for clicking on nodes may vary between nodes.", "Q1": "The better I perform the higher my bonus will be.", "Q2": "No, the amount of cash at each node of the web may be different each time.", "Q3": "To get the highest total score.", "Q4": "Only before moving the spider.", "Q5": "3 seconds"}, "question_order": [0, 1, 2, 3, 4, 5], "correct": {"Q0": "The cost for clicking on nodes may vary between nodes.", "Q1": "The better I perform the higher my bonus will be.", "Q2": "No, the amount of cash at each node of the web may be different each time.", "Q3": "To get the highest total score.", "Q4": "Only before moving the spider.", "Q5": "3 seconds"}, "trial_id": "mouselab_quiz_control", "trial_type": "survey-multi-choice", "trial_index": 6, "time_elapsed": 1187072, "internal_node_id": "0.0-2.0-4.0"}}, {"uniqueid": "w39449167:a14468851", "current_trial": 7, "dateTime": 1693662063587, "trialdata": {"rt": 10508, "response": {"Q0": "No"}, "question_order": [0], "trial_id": "repeat_check", "trial_type": "survey-multi-choice", "trial_index": 7, "time_elapsed": 1197587, "internal_node_id": "0.0-4.0-0.0"}}, {"uniqueid": "w39449167:a14468851", "current_trial": 8, "dateTime": 1693662169266, "trialdata": {"rt": 105674, "stimulus": "\n<h1> Get ready to start the game! </h1>\n\nThank you for reading the instructions. Get ready start with the 40 rounds of this game.\n<br><br>\nIf you need to take a break, feel free to take one after the end of a round, before continuing to the next one.\n<br><br>\nRemember, the more money the spider gets, the bigger your bonus will be!\n<br><br>\n<div style='text-align: center;'>Press <code>space</code> to begin.</div>\n\n<br><br>\n(If, at any point, the <code>space</code> key does not take you to the next page, click once on the text and try again.)", "response": " ", "trial_id": "mdp_ready", "trial_type": "html-keyboard-response", "trial_index": 8, "time_elapsed": 1303267, "internal_node_id": "0.0-6.0-0.0"}}, {"uniqueid": "w39449167:a14468851", "current_trial": 9, "dateTime": 1693662214624, "trialdata": {"revealed_states": [], "clicked_states": [], "num_clicks_accrued": [0, 0, 0, 0, 0, 0, 0, 0, 0, 0, 0, 0, 0], "stateRewards": ["", -1, -3, -6, -2, -7, 80, -45, -3, -38, -72, 76, 2, 1, 7, 4, -62, 14, -74, 14, -87, -21, -88, -2, 1, -7, -10, 66, 56, -76, 10, -29, -72, -70], "withholdReward": false, "trial_id": "mdp_trial_1", "block": "test", "trialIndex": 2, "score": -19, "costs": 0, "simulationMode": [null, null, null, null, null], "rewards": [-1, -3, -6, -2, -7], "path": ["0", "0", "1", "2", "3", "4", "5"], "rt": [24170, 5310, 836, 779, 1009], "actions": ["up", "up", "up", "right", "up"], "actionTimes": [28075, 33913, 35256, 36544, 38071], "queries": {"click": {"state": {"target": [], "time": []}, "edge": {"target": [], "time": []}}, "mouseover": {"state": {"target": ["12", "18", "15", "6", "7", "1", "1", "0"], "time": [4662, 4725, 4786, 18625, 18760, 21235, 24214, 24414]}, "edge": {"target": [], "time": []}}, "mouseout": {"state": {"target": ["3", "7", "12", "18", "15", "6", "7", "1", "1", "0", "0", "1", "2", "3", "4", "5", "5", "4", "7", "12"], "time": [830, 1098, 4696, 4756, 4861, 18656, 18792, 24012, 24347, 24798, 29113, 29464, 30284, 31070, 31705, 39305, 39550, 39621, 39705, 40839]}, "edge": {"target": [], "time": []}}}, "displayed_time": "38.58", "trialTime": 44659, "trial_type": "mouselab-mdp", "trial_index": 9, "time_elapsed": 1348625, "internal_node_id": "0.0-6.0-1.0-0.0"}}, {"uniqueid": "w39449167:a14468851", "current_trial": 10, "dateTime": 1693662259132, "trialdata": {"revealed_states": [], "clicked_states": ["1"], "num_clicks_accrued": [0, 0, 0, 0, 0, 0, 0, 0, 0, 0, 0, 0, 0], "stateRewards": ["", -1, -4, -3, 1, -45, -67, -24, 14, 32, 22, 22, -1, 1, -5, -7, 72, 84, -79, -5, 19, -40, -2, -1, -2, 8, -3, 84, -25, -28, 11, 64, -66, 77], "withholdReward": false, "trial_id": "mdp_trial_2", "block": "test", "trialIndex": 3, "score": -32.4, "costs": -1.4, "simulationMode": [null, null, null, null, null], "rewards": [-1, -4, -3, 1, -24], "path": ["0", "0", "1", "2", "3", "4", "7"], "rt": [26081, 5130, 331, 508, 903], "actions": ["up", "up", "up", "right", "down"], "actionTimes": [28150, 33820, 34670, 35681, 37103], "queries": {"click": {"state": {"target": ["1"], "time": [3371]}, "edge": {"target": [], "time": []}}, "mouseover": {"state": {"target": ["0", "0", "1", "0", "23", "24", "25", "26", "28", "23", "23", "0", "12", "12", "12", "13", "14", "19", "21", "22", "12", "1"], "time": [2110, 2799, 2934, 11312, 11730, 12768, 13217, 13838, 14341, 16848, 17634, 18939, 19374, 20589, 21449, 22250, 23287, 24208, 24625, 26749, 26950, 27101]}, "edge": {"target": [], "time": []}}, "mouseout": {"state": {"target": ["0", "0", "1", "0", "23", "24", "25", "26", "28", "23", "23", "0", "12", "12", "12", "13", "14", "19", "21", "22", "12", "1", "2", "3", "4", "7", "12"], "time": [2230, 2830, 4289, 11379, 12667, 13185, 13722, 14273, 15445, 17150, 18889, 18975, 19406, 20762, 22134, 23087, 24091, 24525, 26633, 26781, 26983, 29684, 31048, 31583, 31935, 38359, 38557]}, "edge": {"target": [], "time": []}}}, "displayed_time": "37.63", "trialTime": 43820, "trial_type": "mouselab-mdp", "trial_index": 10, "time_elapsed": 1393133, "internal_node_id": "0.0-6.0-1.0-1.0"}}, {"uniqueid": "w39449167:a14468851", "current_trial": 11, "dateTime": 1693662282737, "trialdata": {"revealed_states": [], "clicked_states": ["23"], "num_clicks_accrued": [0, 0, 0, 0, 0, 0, 0, 0, 0, 0, 0, 0, 0], "stateRewards": ["", 2, 4, -6, -13, -75, -81, 30, 7, 5, 59, -65, -1, -1, 7, 14, -38, 36, -41, 1, -54, -5, 64, 2, -1, 5, 6, -19, 79, 11, 16, -33, -50, 58], "withholdReward": false, "trial_id": "mdp_trial_3", "block": "test", "trialIndex": 4, "score": -8.4, "costs": -1.4, "simulationMode": [null, null, null, null, null, null], "rewards": [2, -1, 5, 6, -19], "path": ["0", "0", "23", "24", "25", "26", "27"], "rt": [2967, 445, 2921, 3164, 4565, 1657], "actions": ["left", "left", "left", "left", "up", "up"], "actionTimes": [4769, 5219, 8675, 12340, 17434, 19617], "queries": {"click": {"state": {"target": ["23"], "time": [3479]}, "edge": {"target": [], "time": []}}, "mouseover": {"state": {"target": ["1", "1", "0", "23"], "time": [1844, 2095, 2502, 2981]}, "edge": {"target": [], "time": []}}, "mouseout": {"state": {"target": ["0", "1", "1", "0", "23", "23", "24", "25", "25", "26", "0"], "time": [1023, 1878, 2165, 2596, 5409, 6325, 11376, 12901, 13073, 20882, 21194]}, "edge": {"target": [], "time": []}}}, "displayed_time": "20.12", "trialTime": 22900, "trial_type": "mouselab-mdp", "trial_index": 11, "time_elapsed": 1416738, "internal_node_id": "0.0-6.0-1.0-2.0"}}, {"uniqueid": "w39449167:a14468851", "current_trial": 12, "dateTime": 1693662312206, "trialdata": {"revealed_states": [], "clicked_states": ["12"], "num_clicks_accrued": [0, 0, 0, 0, 0, 0, 0, 0, 0, 0, 0, 0, 0], "stateRewards": ["", -1, -3, -7, -7, -76, 30, -49, 11, -70, 56, 2, 1, 4, -3, -14, -59, -83, -25, -9, -21, -67, -73, -2, 4, 4, -9, -11, -32, 60, 9, -87, 22, -64], "withholdReward": false, "trial_id": "mdp_trial_4", "block": "test", "trialIndex": 5, "score": 55.6, "costs": -1.4, "simulationMode": [null, null, null, null, null], "rewards": [-2, 4, 4, -9, 60], "path": ["0", "0", "23", "24", "25", "26", "29"], "rt": [3417, 8508, 1805, 438, 1021], "actions": ["left", "left", "left", "up", "left"], "actionTimes": [5468, 14499, 16804, 17771, 19298], "queries": {"click": {"state": {"target": ["12"], "time": [3882]}, "edge": {"target": [], "time": []}}, "mouseover": {"state": {"target": ["12", "0", "23"], "time": [3117, 4795, 4833]}, "edge": {"target": [], "time": []}}, "mouseout": {"state": {"target": ["0", "12", "0", "23", "24", "23", "22", "12"], "time": [2092, 4791, 4830, 6326, 8051, 8101, 20596, 23305]}, "edge": {"target": [], "time": []}}}, "displayed_time": "19.80", "trialTime": 28789, "trial_type": "mouselab-mdp", "trial_index": 12, "time_elapsed": 1446206, "internal_node_id": "0.0-6.0-1.0-3.0"}}, {"uniqueid": "w39449167:a14468851", "current_trial": 13, "dateTime": 1693662341178, "trialdata": {"revealed_states": [], "clicked_states": ["12", "23"], "num_clicks_accrued": [0, 0, 0, 0, 0, 0, 0, 0, 0, 0, 0, 0, 0], "stateRewards": ["", -2, 1, -3, -16, -39, -52, 30, -7, -41, -59, 11, 2, 1, 8, 2, -11, -26, -42, -13, 87, -59, -48, -1, -1, -1, 16, -79, 31, 50, -1, -84, 34, -82], "withholdReward": false, "trial_id": "mdp_trial_5", "block": "test", "trialIndex": 6, "score": -52.8, "costs": -2.8, "simulationMode": [null, null, null, null, null, null], "rewards": [2, 1, 8, -13, -48], "path": ["0", "0", "12", "13", "14", "19", "22"], "rt": [1800, 4681, 5911, 5544, 1074, 808], "actions": ["left", "right", "right", "right", "down", "left"], "actionTimes": [3536, 8221, 14648, 20698, 22270, 23579], "queries": {"click": {"state": {"target": ["12", "23"], "time": [2483, 6356]}, "edge": {"target": [], "time": []}}, "mouseover": {"state": {"target": ["12", "0", "23", "12"], "time": [2155, 5634, 5757, 7457]}, "edge": {"target": [], "time": []}}, "mouseout": {"state": {"target": ["0", "12", "0", "23", "12", "13", "14", "14", "19", "21", "19", "19", "22"], "time": [1118, 5535, 5719, 7033, 10555, 13144, 16807, 19817, 21340, 22895, 22979, 24551, 24701]}, "edge": {"target": [], "time": []}}}, "displayed_time": "24.11", "trialTime": 28233, "trial_type": "mouselab-mdp", "trial_index": 13, "time_elapsed": 1475178, "internal_node_id": "0.0-6.0-1.0-4.0"}}, {"uniqueid": "w39449167:a14468851", "current_trial": 14, "dateTime": 1693662366308, "trialdata": {"revealed_states": [], "clicked_states": ["23"], "num_clicks_accrued": [0, 0, 0, 0, 0, 0, 0, 0, 0, 0, 0, 0, 0], "stateRewards": ["", 1, -2, 7, -14, 88, -56, -44, -14, 64, -51, -57, -2, 3, -4, -9, -11, 19, -77, -1, 68, 75, -67, -1, 1, -2, 5, -37, 70, -34, -10, -72, 63, -41], "withholdReward": false, "trial_id": "mdp_trial_6", "block": "test", "trialIndex": 7, "score": -32.4, "costs": -1.4, "simulationMode": [null, null, null, null, null, null], "rewards": [-1, 1, -2, 5, -34], "path": ["0", "0", "23", "24", "25", "26", "29"], "rt": [1770, 820, 1294, 967, 860, 515], "actions": ["left", "left", "left", "left", "up", "left"], "actionTimes": [2931, 3754, 5577, 7061, 8470, 9509], "queries": {"click": {"state": {"target": ["23"], "time": [2069]}, "edge": {"target": [], "time": []}}, "mouseover": {"state": {"target": ["23"], "time": [1786]}, "edge": {"target": [], "time": []}}, "mouseout": {"state": {"target": ["0", "23", "24", "25", "26", "25", "29", "26", "24", "23"], "time": [1203, 4971, 6204, 7872, 12371, 14077, 14512, 16536, 19680, 20850]}, "edge": {"target": [], "time": []}}}, "displayed_time": "15.16", "trialTime": 24426, "trial_type": "mouselab-mdp", "trial_index": 14, "time_elapsed": 1500309, "internal_node_id": "0.0-6.0-1.0-5.0"}}, {"uniqueid": "w39449167:a14468851", "current_trial": 15, "dateTime": 1693662399250, "trialdata": {"revealed_states": [], "clicked_states": ["1"], "num_clicks_accrued": [0, 0, 0, 0, 0, 0, 0, 0, 0, 0, 0, 0, 0], "stateRewards": ["", -1, 2, -7, -12, -62, 12, -13, 5, 77, -71, 83, 1, -4, 7, 15, -42, -87, -4, 5, -25, 44, 88, -1, 4, -5, -8, 14, 51, 8, -5, 83, -24, -19], "withholdReward": false, "trial_id": "mdp_trial_7", "block": "test", "trialIndex": 8, "score": 39.6, "costs": -1.4, "simulationMode": [null, null, null, null, null], "rewards": [-1, 4, -5, -8, 51], "path": ["0", "0", "23", "24", "25", "26", "28"], "rt": [3478, 1141, 222, 1830, 1016], "actions": ["left", "left", "left", "up", "right"], "actionTimes": [9657, 11312, 12034, 14412, 15944], "queries": {"click": {"state": {"target": ["1"], "time": [7975]}, "edge": {"target": [], "time": []}}, "mouseover": {"state": {"target": ["1"], "time": [7540]}, "edge": {"target": [], "time": []}}, "mouseout": {"state": {"target": ["0", "0", "1", "0", "0", "1", "26", "24", "31"], "time": [1250, 2588, 2890, 3290, 7423, 12624, 17777, 17843, 21081]}, "edge": {"target": [], "time": []}}}, "displayed_time": "20.18", "trialTime": 32214, "trial_type": "mouselab-mdp", "trial_index": 15, "time_elapsed": 1533250, "internal_node_id": "0.0-6.0-1.0-6.0"}}, {"uniqueid": "w39449167:a14468851", "current_trial": 16, "dateTime": 1693662425621, "trialdata": {"revealed_states": [], "clicked_states": ["1"], "num_clicks_accrued": [0, 0, 0, 0, 0, 0, 0, 0, 0, 0, 0, 0, 0], "stateRewards": ["", 2, -1, -1, 7, 11, -40, -22, -2, 69, 37, 8, -2, 4, -8, -12, -2, -72, -3, -12, 17, 63, 12, 1, 3, -7, 6, 25, 61, 61, -9, 28, -17, 27], "withholdReward": false, "trial_id": "mdp_trial_8", "block": "test", "trialIndex": 9, "score": 65.6, "costs": -1.4, "simulationMode": [null, null, null, null, null, null], "rewards": [2, -1, -1, -2, 69], "path": ["0", "0", "1", "2", "3", "8", "9"], "rt": [2096, 436, 958, 462, 1995, 241], "actions": ["up", "up", "up", "up", "left", "up"], "actionTimes": [7412, 7851, 9330, 10330, 12857, 13624], "queries": {"click": {"state": {"target": ["1"], "time": [6337]}, "edge": {"target": [], "time": []}}, "mouseover": {"state": {"target": ["1"], "time": [5986]}, "edge": {"target": [], "time": []}}, "mouseout": {"state": {"target": ["0", "1", "2", "3", "2", "1", "1"], "time": [5777, 8929, 14899, 15067, 15173, 16607, 19941]}, "edge": {"target": [], "time": []}}}, "displayed_time": "19.32", "trialTime": 25638, "trial_type": "mouselab-mdp", "trial_index": 16, "time_elapsed": 1559621, "internal_node_id": "0.0-6.0-1.0-7.0"}}, {"uniqueid": "w39449167:a14468851", "current_trial": 17, "dateTime": 1693662450371, "trialdata": {"revealed_states": [], "clicked_states": ["12"], "num_clicks_accrued": [0, 0, 0, 0, 0, 0, 0, 0, 0, 0, 0, 0, 0], "stateRewards": ["", 2, -1, -4, -13, 74, 77, 3, 2, -43, -2, -11, 2, 3, 7, 11, -26, -29, -33, -3, -3, -13, -3, 1, 3, -7, 14, -59, 33, 9, -5, 34, 79, 68], "withholdReward": false, "trial_id": "mdp_trial_9", "block": "test", "trialIndex": 10, "score": -4.399999999999999, "costs": -1.4, "simulationMode": [null, null, null, null, null, null], "rewards": [2, 3, 7, 11, -26], "path": ["0", "0", "12", "13", "14", "15", "16"], "rt": [1685, 713, 501, 422, 481, 33], "actions": ["right", "right", "right", "right", "up", "up"], "actionTimes": [6175, 6892, 7915, 8843, 9842, 10391], "queries": {"click": {"state": {"target": ["12"], "time": [5153]}, "edge": {"target": [], "time": []}}, "mouseover": {"state": {"target": ["12"], "time": [4932]}, "edge": {"target": [], "time": []}}, "mouseout": {"state": {"target": ["0", "12", "7", "12", "12"], "time": [4533, 11589, 11889, 12575, 14860]}, "edge": {"target": [], "time": []}}}, "displayed_time": "18.49", "trialTime": 24045, "trial_type": "mouselab-mdp", "trial_index": 17, "time_elapsed": 1584372, "internal_node_id": "0.0-6.0-1.0-8.0"}}, {"uniqueid": "w39449167:a14468851", "current_trial": 18, "dateTime": 1693662472964, "trialdata": {"revealed_states": [], "clicked_states": ["1"], "num_clicks_accrued": [0, 0, 0, 0, 0, 0, 0, 0, 0, 0, 0, 0, 0], "stateRewards": ["", 1, 2, 3, 16, 63, -25, 16, -4, -14, 82, -66, -1, -3, -3, -11, -14, 19, 46, 3, -34, -82, 66, -2, -3, 4, -5, -63, 77, -37, -1, -45, -41, 84], "withholdReward": false, "trial_id": "mdp_trial_10", "block": "test", "trialIndex": 11, "score": -44.4, "costs": -1.4, "simulationMode": [null, null, null, null, null, null], "rewards": [-2, -3, 4, -5, -37], "path": ["0", "0", "23", "24", "25", "26", "29"], "rt": [1605, 494, 154, 1745, 525, 27], "actions": ["left", "left", "left", "left", "up", "left"], "actionTimes": [6211, 6709, 7374, 9626, 10659, 11194], "queries": {"click": {"state": {"target": ["1"], "time": [5278]}, "edge": {"target": [], "time": []}}, "mouseover": {"state": {"target": ["1"], "time": [5023]}, "edge": {"target": [], "time": []}}, "mouseout": {"state": {"target": ["0", "0", "0", "1", "24", "31", "0", "26", "29", "29", "23", "0", "0", "0"], "time": [1042, 1828, 4650, 12316, 12509, 12717, 14507, 14624, 15078, 15461, 15778, 15898, 17684, 19086]}, "edge": {"target": [], "time": []}}}, "displayed_time": "18.61", "trialTime": 21844, "trial_type": "mouselab-mdp", "trial_index": 18, "time_elapsed": 1606965, "internal_node_id": "0.0-6.0-1.0-9.0"}}, {"uniqueid": "w39449167:a14468851", "current_trial": 19, "dateTime": 1693662497028, "trialdata": {"revealed_states": [], "clicked_states": ["23"], "num_clicks_accrued": [0, 0, 0, 0, 0, 0, 0, 0, 0, 0, 0, 0, 0], "stateRewards": ["", -2, 2, -5, 1, 42, -63, -58, -6, 2, 16, 81, -2, 4, 7, -10, 33, 3, -33, -2, -52, -84, -27, 2, -3, -3, 15, -74, -14, -5, -5, -84, 79, -31], "withholdReward": false, "trial_id": "mdp_trial_11", "block": "test", "trialIndex": 12, "score": -64.4, "costs": -1.4, "simulationMode": [null, null, null, null, null, null], "rewards": [2, -3, -3, 15, -74], "path": ["0", "0", "23", "24", "25", "26", "27"], "rt": [1741, 1838, 506, 1182, 410, 1250], "actions": ["left", "left", "left", "left", "up", "up"], "actionTimes": [5273, 7120, 8160, 9853, 10791, 12548], "queries": {"click": {"state": {"target": ["23"], "time": [4322]}, "edge": {"target": [], "time": []}}, "mouseover": {"state": {"target": ["23", "24"], "time": [4066, 5452]}, "edge": {"target": [], "time": []}}, "mouseout": {"state": {"target": ["0", "0", "23", "24", "24", "28", "23", "23", "27", "0"], "time": [954, 2961, 5415, 6876, 8736, 13650, 14019, 14970, 16076, 16326]}, "edge": {"target": [], "time": []}}}, "displayed_time": "17.53", "trialTime": 23307, "trial_type": "mouselab-mdp", "trial_index": 19, "time_elapsed": 1631028, "internal_node_id": "0.0-6.0-1.0-10.0"}}, {"uniqueid": "w39449167:a14468851", "current_trial": 20, "dateTime": 1693662517017, "trialdata": {"revealed_states": [], "clicked_states": ["12"], "num_clicks_accrued": [0, 0, 0, 0, 0, 0, 0, 0, 0, 0, 0, 0, 0], "stateRewards": ["", 2, -4, 1, -12, -59, -53, -74, 16, -88, -66, 66, 1, -2, 8, -9, -14, 22, 25, -1, -39, 47, -14, -1, -1, -2, 1, -4, 52, -26, 15, -7, 46, 43], "withholdReward": false, "trial_id": "mdp_trial_12", "block": "test", "trialIndex": 13, "score": -17.4, "costs": -1.4, "simulationMode": [null, null, null, null, null], "rewards": [1, -2, 8, -9, -14], "path": ["0", "0", "12", "13", "14", "15", "16"], "rt": [4778, 3152, 463, 784, 285], "actions": ["right", "right", "right", "up", "up"], "actionTimes": [7226, 10921, 11904, 13203, 14003], "queries": {"click": {"state": {"target": ["12"], "time": [4308]}, "edge": {"target": [], "time": []}}, "mouseover": {"state": {"target": ["12", "12"], "time": [2921, 3706]}, "edge": {"target": [], "time": []}}, "mouseout": {"state": {"target": ["0", "12", "12", "13", "22", "13", "18", "12"], "time": [2887, 3205, 7629, 10259, 15380, 15514, 15664, 17554]}, "edge": {"target": [], "time": []}}}, "displayed_time": "16.45", "trialTime": 19219, "trial_type": "mouselab-mdp", "trial_index": 20, "time_elapsed": 1651018, "internal_node_id": "0.0-6.0-1.0-11.0"}}, {"uniqueid": "w39449167:a14468851", "current_trial": 21, "dateTime": 1693662537086, "trialdata": {"revealed_states": [], "clicked_states": ["1"], "num_clicks_accrued": [0, 0, 0, 0, 0, 0, 0, 0, 0, 0, 0, 0, 0], "stateRewards": ["", 1, 2, 8, -2, 23, -69, -18, -16, 54, -21, 71, -1, -4, 7, 11, 43, -6, 88, 6, -55, 72, 43, 1, -3, -2, -1, 68, -31, -54, 4, -8, 25, -2], "withholdReward": false, "trial_id": "mdp_trial_13", "block": "test", "trialIndex": 14, "score": -60.4, "costs": -1.4, "simulationMode": [null, null, null, null, null, null], "rewards": [1, -3, -2, -1, -54], "path": ["0", "0", "23", "24", "25", "26", "29"], "rt": [2069, 2253, 321, 611, 779, 919], "actions": ["left", "left", "left", "left", "up", "left"], "actionTimes": [5264, 7521, 8372, 9521, 10803, 12237], "queries": {"click": {"state": {"target": ["1"], "time": [4074]}, "edge": {"target": [], "time": []}}, "mouseover": {"state": {"target": ["1"], "time": [3697]}, "edge": {"target": [], "time": []}}, "mouseout": {"state": {"target": ["0", "1", "26", "29", "26", "31"], "time": [1789, 8448, 11441, 11625, 14317, 14618]}, "edge": {"target": [], "time": []}}}, "displayed_time": "17.20", "trialTime": 19310, "trial_type": "mouselab-mdp", "trial_index": 21, "time_elapsed": 1671087, "internal_node_id": "0.0-6.0-1.0-12.0"}}, {"uniqueid": "w39449167:a14468851", "current_trial": 22, "dateTime": 1693662566088, "trialdata": {"revealed_states": [], "clicked_states": ["1", "23", "12", "13", "14", "15", "16"], "num_clicks_accrued": [0, 0, 0, 0, 0, 0, 0, 0, 0, 0, 0, 0, 0], "stateRewards": ["", -2, 2, 3, -7, 76, 63, 21, 15, 35, -8, -44, 1, 1, -2, -12, 23, 24, 76, -9, 46, 66, -49, -2, -1, 7, 12, 40, -71, -45, -6, 38, -49, 46], "withholdReward": false, "trial_id": "mdp_trial_14", "block": "test", "trialIndex": 15, "score": 1.1999999999999993, "costs": -9.8, "simulationMode": [null, null, null, null, null], "rewards": [1, 1, -2, -12, 23], "path": ["0", "0", "12", "13", "14", "15", "16"], "rt": [15678, 91, 167, 1043, 157], "actions": ["right", "right", "right", "up", "up"], "actionTimes": [20175, 20757, 21429, 22989, 23689], "queries": {"click": {"state": {"target": ["1", "23", "12", "13", "14", "15", "16"], "time": [5335, 6936, 8734, 10369, 12013, 13807, 15571]}, "edge": {"target": [], "time": []}}, "mouseover": {"state": {"target": ["1", "23", "12", "12", "13", "14", "15", "16", "1", "1"], "time": [4964, 6069, 7652, 7984, 9526, 11250, 12617, 14388, 16286, 16597]}, "edge": {"target": [], "time": []}}, "mouseout": {"state": {"target": ["0", "0", "1", "23", "12", "12", "13", "14", "15", "16", "1", "1", "2", "1", "0"], "time": [36, 4854, 5952, 7582, 7689, 9344, 11213, 12514, 14351, 16037, 16426, 16766, 25821, 25878, 27141]}, "edge": {"target": [], "time": []}}}, "displayed_time": "24.19", "trialTime": 28222, "trial_type": "mouselab-mdp", "trial_index": 22, "time_elapsed": 1700089, "internal_node_id": "0.0-6.0-1.0-13.0"}}, {"uniqueid": "w39449167:a14468851", "current_trial": 23, "dateTime": 1693662591199, "trialdata": {"revealed_states": [], "clicked_states": ["1", "23", "24", "25"], "num_clicks_accrued": [0, 0, 0, 0, 0, 0, 0, 0, 0, 0, 0, 0, 0], "stateRewards": ["", -1, -3, 1, -4, -48, -63, -49, -2, -84, -19, 65, 2, -2, -2, -12, -4, 59, 9, 6, 75, 69, -13, -1, -3, -3, -2, -37, -68, -36, 13, 32, 18, -14], "withholdReward": false, "trial_id": "mdp_trial_15", "block": "test", "trialIndex": 16, "score": -23.6, "costs": -5.6, "simulationMode": [null, null, null, null, null], "rewards": [2, -2, -2, -12, -4], "path": ["0", "0", "12", "13", "14", "15", "16"], "rt": [7892, 1735, 318, 663, 26], "actions": ["right", "right", "right", "up", "up"], "actionTimes": [9914, 12164, 13046, 14225, 14770], "queries": {"click": {"state": {"target": ["1", "23", "24", "25"], "time": [2711, 4591, 6268, 8094]}, "edge": {"target": [], "time": []}}, "mouseover": {"state": {"target": ["1", "23", "24", "28", "24", "25", "26"], "time": [2481, 3299, 5120, 5491, 5832, 6962, 8695]}, "edge": {"target": [], "time": []}}, "mouseout": {"state": {"target": ["0", "1", "23", "24", "28", "24", "25", "26", "28", "7"], "time": [2090, 3228, 5083, 5420, 5760, 6925, 8575, 10318, 10461, 16095]}, "edge": {"target": [], "time": []}}}, "displayed_time": "16.02", "trialTime": 24339, "trial_type": "mouselab-mdp", "trial_index": 23, "time_elapsed": 1725199, "internal_node_id": "0.0-6.0-1.0-14.0"}}, {"uniqueid": "w39449167:a14468851", "current_trial": 24, "dateTime": 1693662614017, "trialdata": {"revealed_states": [], "clicked_states": ["24", "28"], "num_clicks_accrued": [0, 0, 0, 0, 0, 0, 0, 0, 0, 0, 0, 0, 0], "stateRewards": ["", -1, -4, -6, -15, 21, -67, -63, 9, 51, 69, -14, -1, 3, 8, -8, 39, 72, 63, 15, 19, 47, 15, 1, 4, 5, 16, -18, 34, 35, -14, -80, 40, 1], "withholdReward": false, "trial_id": "mdp_trial_16", "block": "test", "trialIndex": 17, "score": 5.199999999999999, "costs": -2.8, "simulationMode": [null, null, null, null, null], "rewards": [1, 4, 5, 16, -18], "path": ["0", "0", "23", "24", "25", "26", "27"], "rt": [4795, 319, 2876, 1093, 1701], "actions": ["left", "left", "left", "up", "up"], "actionTimes": [6825, 7664, 11074, 12695, 14911], "queries": {"click": {"state": {"target": ["24", "28"], "time": [3523, 5150]}, "edge": {"target": [], "time": []}}, "mouseover": {"state": {"target": ["23", "24", "25", "24", "28"], "time": [2138, 2739, 2974, 3274, 4902]}, "edge": {"target": [], "time": []}}, "mouseout": {"state": {"target": ["12", "0", "23", "24", "25", "24", "28", "27", "10", "2", "12", "12", "12", "12"], "time": [749, 2072, 2338, 2774, 3140, 4245, 5482, 16104, 16270, 16421, 19064, 20260, 20647, 21121]}, "edge": {"target": [], "time": []}}}, "displayed_time": "16.03", "trialTime": 22010, "trial_type": "mouselab-mdp", "trial_index": 24, "time_elapsed": 1748017, "internal_node_id": "0.0-6.0-1.0-15.0"}}, {"uniqueid": "w39449167:a14468851", "current_trial": 25, "dateTime": 1693662637729, "trialdata": {"revealed_states": [], "clicked_states": ["12", "13"], "num_clicks_accrued": [0, 0, 0, 0, 0, 0, 0, 0, 0, 0, 0, 0, 0], "stateRewards": ["", 1, 4, 5, -5, 58, -80, 75, 6, 25, -39, 46, 2, -2, 4, 2, 59, 31, -22, -12, -61, 15, 72, 1, -2, -7, 8, 77, 76, -23, -7, 71, -15, -3], "withholdReward": false, "trial_id": "mdp_trial_17", "block": "test", "trialIndex": 18, "score": 62.2, "costs": -2.8, "simulationMode": [null, null, null, null, null, null], "rewards": [2, -2, 4, 2, 59], "path": ["0", "0", "12", "13", "14", "15", "16"], "rt": [4199, 659, 304, 85, 2464, 29], "actions": ["right", "right", "right", "right", "up", "up"], "actionTimes": [6675, 7338, 8173, 8765, 11765, 12304], "queries": {"click": {"state": {"target": ["12", "13"], "time": [3099, 5509]}, "edge": {"target": [], "time": []}}, "mouseover": {"state": {"target": ["12", "13"], "time": [2901, 4014]}, "edge": {"target": [], "time": []}}, "mouseout": {"state": {"target": ["12", "13", "14", "14", "15", "14", "0"], "time": [3553, 8869, 9352, 13051, 13470, 21299, 21582]}, "edge": {"target": [], "time": []}}}, "displayed_time": "16.48", "trialTime": 22919, "trial_type": "mouselab-mdp", "trial_index": 25, "time_elapsed": 1771729, "internal_node_id": "0.0-6.0-1.0-16.0"}}, {"uniqueid": "w39449167:a14468851", "current_trial": 26, "dateTime": 1693662659741, "trialdata": {"revealed_states": [], "clicked_states": ["1", "2", "3"], "num_clicks_accrued": [0, 0, 0, 0, 0, 0, 0, 0, 0, 0, 0, 0, 0], "stateRewards": ["", -2, -3, -5, 8, 27, 11, 43, -6, -24, -87, 69, -2, 1, 1, 9, 19, 48, -37, 9, -14, 45, 62, 1, 2, 1, 16, -81, -41, 22, 4, -6, -63, 47], "withholdReward": false, "trial_id": "mdp_trial_18", "block": "test", "trialIndex": 19, "score": 37.8, "costs": -4.199999999999999, "simulationMode": [null, null, null, null, null, null], "rewards": [1, 2, 1, 16, 22], "path": ["0", "0", "23", "24", "25", "26", "29"], "rt": [5187, 387, 222, 2215, 753, 1676], "actions": ["left", "left", "left", "left", "up", "left"], "actionTimes": [6719, 7109, 7815, 10539, 11806, 14015], "queries": {"click": {"state": {"target": ["1", "2", "3"], "time": [2144, 3858, 5550]}, "edge": {"target": [], "time": []}}, "mouseover": {"state": {"target": ["1", "2", "3"], "time": [1903, 2518, 4496]}, "edge": {"target": [], "time": []}}, "mouseout": {"state": {"target": ["12", "1", "2", "3", "2", "29", "26"], "time": [531, 2444, 4389, 7251, 8784, 10844, 15668]}, "edge": {"target": [], "time": []}}}, "displayed_time": "15.53", "trialTime": 21204, "trial_type": "mouselab-mdp", "trial_index": 26, "time_elapsed": 1793741, "internal_node_id": "0.0-6.0-1.0-17.0"}}, {"uniqueid": "w39449167:a14468851", "current_trial": 27, "dateTime": 1693662688402, "trialdata": {"revealed_states": [], "clicked_states": ["23", "25", "27"], "num_clicks_accrued": [0, 0, 0, 0, 0, 0, 0, 0, 0, 0, 0, 0, 0], "stateRewards": ["", -1, -1, 7, -15, -43, -21, -84, -9, -45, -66, 2, 1, -2, 2, 8, -27, 44, -52, -5, -84, 11, 53, 1, 4, -4, 16, 83, -82, -15, -16, 68, -43, 81], "withholdReward": false, "trial_id": "mdp_trial_19", "block": "test", "trialIndex": 20, "score": 95.8, "costs": -4.199999999999999, "simulationMode": [null, null, null, null, null, null], "rewards": [1, 4, -4, 16, 83], "path": ["0", "0", "23", "24", "25", "26", "27"], "rt": [5686, 275, 70, 28, 441, 150], "actions": ["left", "left", "left", "left", "up", "up"], "actionTimes": [7871, 8151, 8742, 9284, 10265, 10926], "queries": {"click": {"state": {"target": ["23", "25", "27"], "time": [3328, 5242, 6829]}, "edge": {"target": [], "time": []}}, "mouseover": {"state": {"target": ["23", "24", "25", "26", "27"], "time": [3032, 3707, 4843, 6298, 6675]}, "edge": {"target": [], "time": []}}, "mouseout": {"state": {"target": ["28", "1", "23", "24", "25", "26", "27", "10", "2", "1"], "time": [71, 555, 3703, 4672, 5872, 6337, 8256, 22494, 22584, 23303]}, "edge": {"target": [], "time": []}}}, "displayed_time": "16.19", "trialTime": 27796, "trial_type": "mouselab-mdp", "trial_index": 27, "time_elapsed": 1822403, "internal_node_id": "0.0-6.0-1.0-18.0"}}, {"uniqueid": "w39449167:a14468851", "current_trial": 28, "dateTime": 1693662718672, "trialdata": {"revealed_states": [], "clicked_states": ["1", "9", "5", "17", "29", "27"], "num_clicks_accrued": [0, 0, 0, 0, 0, 0, 0, 0, 0, 0, 0, 0, 0], "stateRewards": ["", -2, 2, 2, -6, 9, 37, 50, -13, -7, -18, -75, -2, -4, 4, 7, 23, -57, -66, -7, -81, -48, -76, 1, 1, -8, 1, 51, -2, 70, 14, 59, 71, -37], "withholdReward": false, "trial_id": "mdp_trial_20", "block": "test", "trialIndex": 21, "score": 56.6, "costs": -8.4, "simulationMode": [null, null, null, null, null], "rewards": [1, 1, -8, 1, 70], "path": ["0", "0", "23", "24", "25", "26", "29"], "rt": [14573, 115, 49, 418, 139], "actions": ["left", "left", "left", "up", "left"], "actionTimes": [18299, 18909, 19470, 20442, 21091], "queries": {"click": {"state": {"target": ["1", "9", "5", "17", "29", "27"], "time": [4458, 7847, 9697, 11602, 13711, 15379]}, "edge": {"target": [], "time": []}}, "mouseover": {"state": {"target": ["1", "2", "3", "9", "3", "9", "3", "3", "5", "6", "16", "17", "14", "19", "24", "25", "29", "25", "26", "27", "26", "25"], "time": [3802, 4771, 4957, 5388, 6446, 7501, 8356, 8657, 8871, 10148, 10190, 10740, 12497, 12912, 13237, 13290, 13427, 14503, 14973, 15154, 16079, 17351]}, "edge": {"target": [], "time": []}}, "mouseout": {"state": {"target": ["0", "0", "0", "1", "2", "3", "9", "3", "9", "3", "3", "5", "6", "16", "17", "14", "19", "24", "25", "29", "29", "25", "26", "27", "26", "25", "24", "10", "10", "1", "0"], "time": [324, 2598, 3184, 4628, 4878, 5280, 6296, 7366, 8281, 8396, 8729, 10076, 10187, 10228, 12272, 12806, 13055, 13287, 13325, 13814, 14431, 14761, 15044, 16040, 16261, 17402, 23623, 23790, 24008, 24074, 24142]}, "edge": {"target": [], "time": []}}}, "displayed_time": "21.59", "trialTime": 29385, "trial_type": "mouselab-mdp", "trial_index": 28, "time_elapsed": 1852672, "internal_node_id": "0.0-6.0-1.0-19.0"}}, {"uniqueid": "w39449167:a14468851", "current_trial": 29, "dateTime": 1693662746827, "trialdata": {"revealed_states": [], "clicked_states": ["29", "9", "5", "17", "20", "33", "32", "21"], "num_clicks_accrued": [0, 0, 0, 0, 0, 0, 0, 0, 0, 0, 0, 0, 0], "stateRewards": ["", 1, -1, 1, 13, 31, -56, 72, 2, 41, 5, 63, -2, -3, -2, 3, -71, -26, 52, 13, -31, 24, -67, 2, -2, 5, 4, 66, 43, 72, 9, 86, -26, 44], "withholdReward": false, "trial_id": "mdp_trial_21", "block": "test", "trialIndex": 22, "score": -41.2, "costs": -11.200000000000001, "simulationMode": [null, null, null, null, null], "rewards": [-2, -3, -2, 3, -26], "path": ["0", "0", "12", "13", "14", "15", "17"], "rt": [16301, 1191, 67, 577, 29], "actions": ["right", "right", "right", "up", "right"], "actionTimes": [19687, 21390, 21999, 23107, 23634], "queries": {"click": {"state": {"target": ["29", "9", "5", "17", "20", "33", "32", "21"], "time": [4644, 6222, 7768, 9426, 11260, 13008, 14826, 16478]}, "edge": {"target": [], "time": []}}, "mouseover": {"state": {"target": ["28", "26", "29", "8", "9", "5", "17", "20", "19", "25", "33", "32", "21"], "time": [4082, 4121, 4383, 5158, 5427, 7173, 8910, 10189, 11731, 11930, 12142, 13551, 15534]}, "edge": {"target": [], "time": []}}, "mouseout": {"state": {"target": ["0", "0", "7", "17", "2", "1", "0", "28", "26", "29", "8", "9", "5", "17", "20", "19", "25", "33", "32", "21"], "time": [1032, 1823, 1873, 2108, 2224, 2475, 3580, 4117, 4157, 4946, 5196, 6958, 8493, 9846, 11693, 11772, 11967, 13514, 15157, 16943]}, "edge": {"target": [], "time": []}}}, "displayed_time": "24.17", "trialTime": 27329, "trial_type": "mouselab-mdp", "trial_index": 29, "time_elapsed": 1880828, "internal_node_id": "0.0-6.0-1.0-20.0"}}, {"uniqueid": "w39449167:a14468851", "current_trial": 30, "dateTime": 1693662775141, "trialdata": {"revealed_states": [], "clicked_states": ["29", "9", "5", "17", "21", "32"], "num_clicks_accrued": [0, 0, 0, 0, 0, 0, 0, 0, 0, 0, 0, 0, 0], "stateRewards": ["", 2, -1, -2, -5, -47, -57, -33, -11, 31, -18, -72, -2, 1, -4, -8, -46, -53, -50, 15, -85, -9, 39, -2, -2, 1, 14, -1, -8, 53, -12, -41, -74, 62], "withholdReward": false, "trial_id": "mdp_trial_22", "block": "test", "trialIndex": 23, "score": 55.6, "costs": -8.4, "simulationMode": [null, null, null, null, null], "rewards": [-2, -2, 1, 14, 53], "path": ["0", "0", "23", "24", "25", "26", "29"], "rt": [13834, 1465, 1754, 559, 232], "actions": ["left", "left", "left", "up", "left"], "actionTimes": [15524, 17505, 19794, 20877, 21606], "queries": {"click": {"state": {"target": ["29", "9", "5", "17", "21", "32"], "time": [2463, 4534, 6652, 8511, 10992, 12597]}, "edge": {"target": [], "time": []}}, "mouseover": {"state": {"target": ["23", "28", "26", "29", "27", "11", "9", "5", "6", "16", "17", "14", "14", "21", "19", "19", "21", "32", "30", "29", "29"], "time": [1764, 1838, 1911, 2218, 3099, 3246, 3600, 5153, 7017, 7130, 7556, 9345, 9671, 9994, 10148, 10547, 10765, 11866, 14002, 14080, 14711]}, "edge": {"target": [], "time": []}}, "mouseout": {"state": {"target": ["23", "28", "26", "29", "27", "11", "9", "5", "6", "16", "17", "14", "14", "21", "19", "19", "21", "32", "30", "29", "29", "26", "23", "23", "0", "1", "0", "12"], "time": [1802, 1873, 2017, 2834, 3137, 3284, 4880, 6979, 7056, 7340, 9016, 9390, 9859, 10110, 10246, 10582, 11316, 13253, 14040, 14187, 16072, 16886, 16937, 17053, 17192, 23319, 23577, 24821]}, "edge": {"target": [], "time": []}}}, "displayed_time": "22.12", "trialTime": 27471, "trial_type": "mouselab-mdp", "trial_index": 30, "time_elapsed": 1909142, "internal_node_id": "0.0-6.0-1.0-21.0"}}, {"uniqueid": "w39449167:a14468851", "current_trial": 31, "dateTime": 1693662797436, "trialdata": {"revealed_states": [], "clicked_states": ["29", "9", "5", "17", "21", "32"], "num_clicks_accrued": [0, 0, 0, 0, 0, 0, 0, 0, 0, 0, 0, 0, 0], "stateRewards": ["", 2, -1, 4, -9, -43, 7, 54, -13, 38, -40, -83, -1, 2, -8, -10, 34, -33, 11, -14, -79, 65, 26, 1, 2, 4, 10, 21, 1, 86, 4, -53, 28, -29], "withholdReward": false, "trial_id": "mdp_trial_23", "block": "test", "trialIndex": 24, "score": 94.6, "costs": -8.4, "simulationMode": [null, null, null, null, null], "rewards": [1, 2, 4, 10, 86], "path": ["0", "0", "23", "24", "25", "26", "29"], "rt": [13158, 201, 1148, 464, 489], "actions": ["left", "left", "left", "up", "left"], "actionTimes": [14463, 15185, 16845, 17844, 18835], "queries": {"click": {"state": {"target": ["29", "9", "5", "17", "21", "32"], "time": [2432, 4353, 6352, 8242, 10181, 11815]}, "edge": {"target": [], "time": []}}, "mouseover": {"state": {"target": ["26", "29", "29", "26", "8", "9", "5", "17", "20", "21", "30", "30", "32"], "time": [1350, 1809, 2110, 2731, 2947, 3168, 4891, 7222, 9114, 9647, 10656, 10746, 10930]}, "edge": {"target": [], "time": []}}, "mouseout": {"state": {"target": ["0", "26", "29", "29", "26", "8", "9", "5", "17", "17", "20", "21", "30", "30", "32", "32"], "time": [1347, 1491, 1845, 2728, 2768, 3024, 4799, 6687, 8345, 9031, 9165, 10508, 10705, 10787, 12689, 13768]}, "edge": {"target": [], "time": []}}}, "displayed_time": "19.37", "trialTime": 21442, "trial_type": "mouselab-mdp", "trial_index": 31, "time_elapsed": 1931436, "internal_node_id": "0.0-6.0-1.0-22.0"}}, {"uniqueid": "w39449167:a14468851", "current_trial": 32, "dateTime": 1693662827103, "trialdata": {"revealed_states": [], "clicked_states": ["29", "33", "9", "5", "6", "16", "17", "20"], "num_clicks_accrued": [0, 0, 0, 0, 0, 0, 0, 0, 0, 0, 0, 0, 0], "stateRewards": ["", -1, 3, -4, -14, 78, 67, 2, 13, -32, 28, 39, -2, 1, -4, -4, -4, -42, -86, 11, 64, -29, -32, -1, -4, 2, -7, 5, 68, -61, 2, -21, 85, 50], "withholdReward": false, "trial_id": "mdp_trial_24", "block": "test", "trialIndex": 25, "score": 50.8, "costs": -11.200000000000001, "simulationMode": [null, null, null, null, null], "rewards": [-1, 3, -4, -14, 78], "path": ["0", "0", "1", "2", "3", "4", "5"], "rt": [18433, 1477, 207, 565, 798], "actions": ["up", "up", "up", "right", "up"], "actionTimes": [19646, 21627, 22373, 23438, 24762], "queries": {"click": {"state": {"target": ["29", "33", "9", "5", "6", "16", "17", "20"], "time": [2083, 3999, 6028, 7918, 9973, 12806, 14692, 16536]}, "edge": {"target": [], "time": []}}, "mouseover": {"state": {"target": ["29", "33", "25", "8", "9", "6", "5", "6", "16", "6", "17", "16", "16", "5", "17", "17", "20", "19", "13"], "time": [1806, 2700, 4404, 4877, 5097, 6478, 6835, 8195, 8844, 9602, 12009, 12345, 12594, 13430, 13993, 14254, 15225, 17112, 17616]}, "edge": {"target": [], "time": []}}, "mouseout": {"state": {"target": ["0", "29", "33", "25", "8", "9", "6", "5", "6", "16", "6", "5", "17", "16", "16", "16", "5", "17", "17", "20", "19", "13"], "time": [535, 2456, 4331, 4448, 4951, 6369, 6727, 8156, 8233, 9567, 10272, 11077, 12310, 12380, 12908, 13139, 13468, 14066, 15135, 16854, 17344, 17654]}, "edge": {"target": [], "time": []}}}, "displayed_time": "25.29", "trialTime": 28861, "trial_type": "mouselab-mdp", "trial_index": 32, "time_elapsed": 1961104, "internal_node_id": "0.0-6.0-1.0-23.0"}}, {"uniqueid": "w39449167:a14468851", "current_trial": 33, "dateTime": 1693662849798, "trialdata": {"revealed_states": [], "clicked_states": ["29", "33"], "num_clicks_accrued": [0, 0, 0, 0, 0, 0, 0, 0, 0, 0, 0, 0, 0], "stateRewards": ["", -2, -1, -2, -15, 87, 57, 29, -10, 77, -80, -7, 1, -3, 6, 14, -11, 87, -59, 4, -71, 16, -11, 2, 2, -7, 2, -47, 61, 50, 14, -20, 17, 81], "withholdReward": false, "trial_id": "mdp_trial_25", "block": "test", "trialIndex": 26, "score": 89.2, "costs": -2.8, "simulationMode": [null, null, null, null, null], "rewards": [2, 2, -7, 14, 81], "path": ["0", "0", "23", "24", "25", "30", "33"], "rt": [6633, 305, 227, 642, 227], "actions": ["left", "left", "left", "down", "left"], "actionTimes": [10408, 11223, 11972, 13122, 13866], "queries": {"click": {"state": {"target": ["29", "33"], "time": [4884, 6940]}, "edge": {"target": [], "time": []}}, "mouseover": {"state": {"target": ["25", "29", "33", "25", "26", "11", "11", "27", "25", "24", "10"], "time": [3825, 4300, 5539, 7324, 7369, 7504, 8766, 8838, 9351, 9483, 9637]}, "edge": {"target": [], "time": []}}, "mouseout": {"state": {"target": ["26", "24", "23", "0", "25", "29", "33", "25", "26", "11", "11", "27", "25", "24", "10", "1"], "time": [2260, 2343, 2627, 3822, 3900, 5170, 7284, 7365, 7413, 7863, 8803, 8884, 9387, 9521, 9686, 21661]}, "edge": {"target": [], "time": []}}}, "displayed_time": "17.78", "trialTime": 21872, "trial_type": "mouselab-mdp", "trial_index": 33, "time_elapsed": 1983799, "internal_node_id": "0.0-6.0-1.0-24.0"}}, {"uniqueid": "w39449167:a14468851", "current_trial": 34, "dateTime": 1693662869110, "trialdata": {"revealed_states": [], "clicked_states": ["33", "29", "27"], "num_clicks_accrued": [0, 0, 0, 0, 0, 0, 0, 0, 0, 0, 0, 0, 0], "stateRewards": ["", 1, -3, -6, -5, 47, 80, -29, 11, -71, 10, -29, -2, 3, -6, 12, 2, -78, -6, 8, 34, -16, -5, -1, 3, 3, -13, 84, -36, -62, -3, -27, 66, 15], "withholdReward": false, "trial_id": "mdp_trial_26", "block": "test", "trialIndex": 27, "score": 71.8, "costs": -4.199999999999999, "simulationMode": [null, null, null, null, null], "rewards": [-1, 3, 3, -13, 84], "path": ["0", "0", "23", "24", "25", "26", "27"], "rt": [7909, 190, 107, 363, 145], "actions": ["left", "left", "left", "up", "up"], "actionTimes": [9710, 10420, 11037, 11909, 12574], "queries": {"click": {"state": {"target": ["33", "29", "27"], "time": [2495, 4489, 6535]}, "edge": {"target": [], "time": []}}, "mouseover": {"state": {"target": ["33", "29", "27", "11", "27", "11", "11"], "time": [2197, 3155, 5013, 5797, 6247, 6929, 7244]}, "edge": {"target": [], "time": []}}, "mouseout": {"state": {"target": ["0", "0", "33", "29", "27", "11", "27", "11", "11", "8", "2", "7", "12", "12"], "time": [508, 1852, 2716, 4804, 5583, 6129, 6779, 7036, 13371, 13455, 13504, 13622, 14124, 15733]}, "edge": {"target": [], "time": []}}}, "displayed_time": "15.80", "trialTime": 18308, "trial_type": "mouselab-mdp", "trial_index": 34, "time_elapsed": 2003110, "internal_node_id": "0.0-6.0-1.0-25.0"}}, {"uniqueid": "w39449167:a14468851", "current_trial": 35, "dateTime": 1693662905079, "trialdata": {"revealed_states": [], "clicked_states": ["33", "29", "11", "9", "5", "6", "16", "17", "20", "21", "32"], "num_clicks_accrued": [0, 0, 0, 0, 0, 0, 0, 0, 0, 0, 0, 0, 0], "stateRewards": ["", 2, 3, 6, -5, -74, -53, 17, -12, 46, 44, 18, -2, 4, 1, -8, 22, -23, -49, 9, -45, 55, 81, 1, -1, -7, -16, -83, -71, -45, 2, 51, 82, 61], "withholdReward": false, "trial_id": "mdp_trial_27", "block": "test", "trialIndex": 28, "score": 61.599999999999994, "costs": -15.400000000000002, "simulationMode": [null, null, null, null, null], "rewards": [1, -1, -7, 2, 82], "path": ["0", "0", "23", "24", "25", "30", "32"], "rt": [24000, 101, 1228, 1584, 1258], "actions": ["left", "left", "left", "down", "down"], "actionTimes": [25695, 26327, 28092, 30198, 31960], "queries": {"click": {"state": {"target": ["33", "29", "11", "9", "5", "6", "16", "17", "20", "21", "32"], "time": [2471, 4524, 6486, 8551, 10511, 12374, 14279, 16287, 18200, 20493, 22540]}, "edge": {"target": [], "time": []}}, "mouseover": {"state": {"target": ["23", "24", "33", "29", "27", "11", "9", "5", "6", "16", "17", "20", "21", "32", "33"], "time": [1775, 1818, 2180, 3534, 5022, 5437, 7011, 9129, 10863, 12756, 14743, 16669, 20293, 21487, 23530]}, "edge": {"target": [], "time": []}}, "mouseout": {"state": {"target": ["12", "12", "0", "23", "24", "33", "29", "27", "11", "9", "5", "6", "16", "17", "20", "21", "32", "32", "33"], "time": [172, 473, 1740, 1814, 1856, 2888, 4666, 5352, 6793, 8876, 10754, 12647, 14635, 16560, 19089, 21022, 22992, 23384, 24609]}, "edge": {"target": [], "time": []}}}, "displayed_time": "32.48", "trialTime": 34991, "trial_type": "mouselab-mdp", "trial_index": 35, "time_elapsed": 2039079, "internal_node_id": "0.0-6.0-1.0-26.0"}}, {"uniqueid": "w39449167:a14468851", "current_trial": 36, "dateTime": 1693662933762, "trialdata": {"revealed_states": [], "clicked_states": ["33", "29", "9", "5", "16", "17", "20"], "num_clicks_accrued": [0, 0, 0, 0, 0, 0, 0, 0, 0, 0, 0, 0, 0], "stateRewards": ["", 1, -4, -6, 11, -20, 8, -30, 1, -38, 88, 42, 2, 3, 5, -12, -8, -74, 30, -8, 67, -19, 42, 2, -1, 4, 13, 50, -68, 2, -8, -15, 87, -46], "withholdReward": false, "trial_id": "mdp_trial_28", "block": "test", "trialIndex": 29, "score": 59.2, "costs": -9.8, "simulationMode": [null, null, null, null, null], "rewards": [2, 3, 5, -8, 67], "path": ["0", "0", "12", "13", "14", "19", "20"], "rt": [16092, 1316, 29, 587, 254], "actions": ["right", "right", "right", "down", "right"], "actionTimes": [17803, 19623, 20161, 21273, 22040], "queries": {"click": {"state": {"target": ["33", "29", "9", "5", "16", "17", "20"], "time": [2867, 4908, 6845, 8870, 10814, 12806, 14498]}, "edge": {"target": [], "time": []}}, "mouseover": {"state": {"target": ["23", "24", "25", "33", "29", "27", "11", "9", "5", "6", "5", "6", "16", "17", "20", "19", "22", "7", "3", "7", "18", "15"], "time": [2056, 2173, 2250, 2672, 3408, 5309, 5432, 5656, 7168, 7401, 8296, 9177, 9399, 11348, 13228, 15191, 15569, 16013, 16203, 16740, 16779, 17022]}, "edge": {"target": [], "time": []}}, "mouseout": {"state": {"target": ["0", "23", "24", "25", "33", "29", "27", "11", "9", "5", "6", "5", "6", "16", "17", "20", "19", "22", "7", "3", "7", "18", "15", "22"], "time": [982, 2136, 2210, 2287, 3076, 5192, 5350, 5473, 7090, 7318, 7963, 9134, 9216, 11053, 13046, 15150, 15325, 15615, 16088, 16704, 16776, 16818, 17074, 26137]}, "edge": {"target": [], "time": []}}}, "displayed_time": "22.57", "trialTime": 27622, "trial_type": "mouselab-mdp", "trial_index": 36, "time_elapsed": 2067762, "internal_node_id": "0.0-6.0-1.0-27.0"}}, {"uniqueid": "w39449167:a14468851", "current_trial": 37, "dateTime": 1693662957007, "trialdata": {"revealed_states": [], "clicked_states": ["9", "5", "17", "20", "33"], "num_clicks_accrued": [0, 0, 0, 0, 0, 0, 0, 0, 0, 0, 0, 0, 0], "stateRewards": ["", -1, -2, -8, 8, -27, -82, 19, -14, -62, 4, 1, -2, 2, 6, 10, 73, -51, -2, 2, 73, -48, 54, -1, 2, -4, 11, -25, 47, 86, 15, 33, 43, -42], "withholdReward": false, "trial_id": "mdp_trial_29", "block": "test", "trialIndex": 30, "score": 74, "costs": -7, "simulationMode": [null, null, null, null, null], "rewards": [-2, 2, 6, 2, 73], "path": ["0", "0", "12", "13", "14", "19", "20"], "rt": [11356, 195, 1058, 2778, 476], "actions": ["right", "right", "right", "down", "right"], "actionTimes": [12805, 13517, 15100, 18397, 19403], "queries": {"click": {"state": {"target": ["9", "5", "17", "20", "33"], "time": [2594, 4516, 6388, 8302, 10270]}, "edge": {"target": [], "time": []}}, "mouseover": {"state": {"target": ["1", "3", "9", "5", "17", "20", "19", "22", "31", "30", "33", "24", "25", "29"], "time": [1889, 2006, 2290, 3312, 5149, 6933, 8574, 8616, 8767, 8881, 9141, 11153, 11237, 11472]}, "edge": {"target": [], "time": []}}, "mouseout": {"state": {"target": ["12", "0", "1", "3", "9", "5", "17", "20", "19", "22", "31", "30", "33", "24", "25", "29", "25", "0", "12", "13", "14", "18"], "time": [283, 1822, 1931, 2156, 2839, 4833, 6638, 8534, 8613, 8656, 8806, 8994, 10575, 11192, 11277, 12124, 17695, 17845, 17893, 17935, 20286, 20471]}, "edge": {"target": [], "time": []}}}, "displayed_time": "19.92", "trialTime": 22286, "trial_type": "mouselab-mdp", "trial_index": 37, "time_elapsed": 2091007, "internal_node_id": "0.0-6.0-1.0-28.0"}}, {"uniqueid": "w39449167:a14468851", "current_trial": 38, "dateTime": 1693662977330, "trialdata": {"revealed_states": [], "clicked_states": ["32", "33", "29"], "num_clicks_accrued": [0, 0, 0, 0, 0, 0, 0, 0, 0, 0, 0, 0, 0], "stateRewards": ["", 1, 2, -6, -13, -51, 22, -4, -12, -44, -12, 6, -2, -2, -2, -14, -46, -4, -77, -2, 36, -79, 41, 2, -4, 2, -6, -55, 59, 70, -5, 39, -19, 24], "withholdReward": false, "trial_id": "mdp_trial_30", "block": "test", "trialIndex": 31, "score": 59.8, "costs": -4.199999999999999, "simulationMode": [null, null, null, null, null], "rewards": [2, -4, 2, -6, 70], "path": ["0", "0", "23", "24", "25", "26", "29"], "rt": [8372, 142, 147, 373, 36], "actions": ["left", "left", "left", "up", "left"], "actionTimes": [10868, 11518, 12183, 13083, 13637], "queries": {"click": {"state": {"target": ["32", "33", "29"], "time": [3714, 5766, 7893]}, "edge": {"target": [], "time": []}}, "mouseover": {"state": {"target": ["31", "32", "33", "29", "27", "29", "27", "8", "9"], "time": [3065, 3372, 4844, 6193, 7029, 7363, 8211, 8483, 8568]}, "edge": {"target": [], "time": []}}, "mouseout": {"state": {"target": ["18", "13", "12", "12", "0", "0", "31", "32", "33", "29", "27", "29", "27", "8", "9", "7", "18"], "time": [755, 860, 1006, 1341, 1892, 2980, 3148, 4511, 6042, 6988, 7068, 8032, 8250, 8529, 17822, 18418, 18552]}, "edge": {"target": [], "time": []}}}, "displayed_time": "16.50", "trialTime": 19400, "trial_type": "mouselab-mdp", "trial_index": 38, "time_elapsed": 2111331, "internal_node_id": "0.0-6.0-1.0-29.0"}}, {"uniqueid": "w39449167:a14468851", "current_trial": 39, "dateTime": 1693663013910, "trialdata": {"revealed_states": [], "clicked_states": ["9", "5", "6", "16", "17", "20", "21", "32", "33", "29", "27", "11"], "num_clicks_accrued": [0, 0, 0, 0, 0, 0, 0, 0, 0, 0, 0, 0, 0], "stateRewards": ["", 2, -4, 4, 9, 69, 9, -75, 12, -86, 66, 25, -1, 3, 2, -13, -88, -3, 1, 4, -69, 49, -84, 2, -1, 4, 2, -18, -81, -52, -15, -69, -54, 25], "withholdReward": false, "trial_id": "mdp_trial_31", "block": "test", "trialIndex": 32, "score": 63.2, "costs": -16.8, "simulationMode": [null, null, null, null, null], "rewards": [2, -4, 4, 9, 69], "path": ["0", "0", "1", "2", "3", "4", "5"], "rt": [25507, 343, 1168, 498, 616], "actions": ["up", "up", "up", "right", "up"], "actionTimes": [27379, 28264, 29961, 30972, 32095], "queries": {"click": {"state": {"target": ["9", "5", "6", "16", "17", "20", "21", "32", "33", "29", "27", "11"], "time": [2865, 4793, 6920, 8920, 11426, 13378, 15275, 17125, 19030, 20882, 22786, 24620]}, "edge": {"target": [], "time": []}}, "mouseover": {"state": {"target": ["1", "2", "3", "9", "6", "5", "6", "16", "6", "4", "16", "16", "4", "17", "20", "21", "32", "33", "29", "27", "11", "10"], "time": [2231, 2305, 2346, 2581, 3333, 3677, 5115, 5210, 6445, 7308, 7712, 8005, 9485, 10098, 12057, 14812, 16091, 17974, 19478, 21410, 23141, 25065]}, "edge": {"target": [], "time": []}}, "mouseout": {"state": {"target": ["12", "0", "1", "2", "3", "9", "6", "5", "6", "16", "6", "4", "16", "16", "4", "6", "16", "17", "20", "21", "32", "33", "29", "27", "11", "10", "10", "8", "10"], "time": [740, 2163, 2267, 2342, 2382, 3182, 3548, 5072, 5165, 6324, 7268, 7348, 7789, 9262, 9520, 9794, 9984, 11811, 13638, 15549, 17601, 19233, 21211, 22995, 25026, 33205, 33855, 33907, 34315]}, "edge": {"target": [], "time": []}}}, "displayed_time": "32.59", "trialTime": 35527, "trial_type": "mouselab-mdp", "trial_index": 39, "time_elapsed": 2147911, "internal_node_id": "0.0-6.0-1.0-30.0"}}, {"uniqueid": "w39449167:a14468851", "current_trial": 40, "dateTime": 1693663040485, "trialdata": {"revealed_states": [], "clicked_states": ["33", "29", "27", "11", "9", "5", "6"], "num_clicks_accrued": [0, 0, 0, 0, 0, 0, 0, 0, 0, 0, 0, 0, 0], "stateRewards": ["", 2, 4, -5, 7, 81, 35, 6, 11, 14, -72, 42, -1, 2, 3, -7, -77, -44, -40, -15, -85, 51, -32, -2, -1, -5, 7, -74, 47, 52, 16, -49, 48, -46], "withholdReward": false, "trial_id": "mdp_trial_32", "block": "test", "trialIndex": 33, "score": 79.2, "costs": -9.8, "simulationMode": [null, null, null, null, null], "rewards": [2, 4, -5, 7, 81], "path": ["0", "0", "1", "2", "3", "4", "5"], "rt": [16062, 425, 40, 752, 70], "actions": ["up", "up", "up", "right", "up"], "actionTimes": [18268, 19215, 19771, 21032, 21637], "queries": {"click": {"state": {"target": ["33", "29", "27", "11", "9", "5", "6"], "time": [2978, 4962, 6894, 8876, 10832, 12814, 14695]}, "edge": {"target": [], "time": []}}, "mouseover": {"state": {"target": ["33", "29", "27", "11", "27", "11", "9", "5", "5", "6", "4"], "time": [2726, 3338, 5287, 5405, 6443, 7251, 9376, 11290, 11725, 13277, 15833]}, "edge": {"target": [], "time": []}}, "mouseout": {"state": {"target": ["1", "0", "0", "33", "29", "27", "11", "27", "11", "9", "5", "5", "6", "4", "5", "5", "4", "7"], "time": [149, 952, 2251, 3224, 5140, 5327, 6076, 7136, 9190, 11178, 11510, 13126, 15552, 15873, 18916, 23013, 23188, 23900]}, "edge": {"target": [], "time": []}}}, "displayed_time": "22.18", "trialTime": 25651, "trial_type": "mouselab-mdp", "trial_index": 40, "time_elapsed": 2174485, "internal_node_id": "0.0-6.0-1.0-31.0"}}, {"uniqueid": "w39449167:a14468851", "current_trial": 41, "dateTime": 1693663073979, "trialdata": {"revealed_states": [], "clicked_states": ["33", "29", "27", "11", "9", "5", "6", "16", "17", "20", "21"], "num_clicks_accrued": [0, 0, 0, 0, 0, 0, 0, 0, 0, 0, 0, 0, 0], "stateRewards": ["", -1, -3, -3, 1, -38, 2, -53, -2, -1, -81, 70, -1, 1, -5, -9, 46, 15, 35, -1, -22, 38, 59, -2, 4, -8, 13, 1, -83, -43, 4, 76, 13, 48], "withholdReward": false, "trial_id": "mdp_trial_33", "block": "test", "trialIndex": 34, "score": 45.599999999999994, "costs": -15.400000000000002, "simulationMode": [null, null, null, null, null], "rewards": [-1, -3, -3, -2, 70], "path": ["0", "0", "1", "2", "3", "8", "11"], "rt": [24627, 275, 206, 535, 195], "actions": ["up", "up", "up", "left", "left"], "actionTimes": [26690, 27480, 28202, 29249, 29968], "queries": {"click": {"state": {"target": ["33", "29", "27", "11", "9", "5", "6", "16", "17", "20", "21"], "time": [2987, 5080, 7030, 8905, 10531, 13047, 15174, 16802, 18692, 20589, 22268]}, "edge": {"target": [], "time": []}}, "mouseover": {"state": {"target": ["33", "25", "26", "27", "26", "29", "27", "11", "27", "11", "9", "8", "8", "5", "16", "6", "16", "16", "17", "20", "21", "27", "11"], "time": [2758, 3437, 3518, 3638, 3932, 4184, 5421, 5547, 6007, 7513, 9318, 11403, 12492, 12811, 14208, 14931, 15532, 15934, 17297, 19232, 21834, 24350, 24667]}, "edge": {"target": [], "time": []}}, "mouseout": {"state": {"target": ["33", "25", "26", "27", "26", "29", "27", "11", "27", "11", "9", "8", "11", "8", "5", "16", "6", "16", "16", "16", "17", "20", "20", "21", "21", "27", "11", "2", "18", "13"], "time": [3320, 3515, 3560, 3818, 4011, 5264, 5465, 5888, 7314, 9084, 11068, 11484, 12442, 12529, 13306, 14633, 15454, 15571, 16941, 17183, 18969, 20979, 21371, 22728, 24267, 24386, 30873, 30923, 31208, 31358]}, "edge": {"target": [], "time": []}}}, "displayed_time": "30.48", "trialTime": 32418, "trial_type": "mouselab-mdp", "trial_index": 41, "time_elapsed": 2207980, "internal_node_id": "0.0-6.0-1.0-32.0"}}, {"uniqueid": "w39449167:a14468851", "current_trial": 42, "dateTime": 1693663107983, "trialdata": {"revealed_states": [], "clicked_states": ["33", "29", "27", "9", "11", "5", "6", "16", "17", "20", "21"], "num_clicks_accrued": [0, 0, 0, 0, 0, 0, 0, 0, 0, 0, 0, 0, 0], "stateRewards": ["", 1, -3, -4, -11, -56, 61, -47, -16, -28, -9, 69, -2, -3, -4, -8, 40, -86, 59, -4, 80, 27, 54, -1, 3, -1, 8, 67, 23, 50, 6, 83, -43, -29], "withholdReward": false, "trial_id": "mdp_trial_34", "block": "test", "trialIndex": 35, "score": 51.599999999999994, "costs": -15.400000000000002, "simulationMode": [null, null, null, null, null], "rewards": [-2, -3, -4, -4, 80], "path": ["0", "0", "12", "13", "14", "19", "20"], "rt": [24502, 394, 272, 473, 498], "actions": ["right", "right", "right", "down", "right"], "actionTimes": [26686, 27633, 28423, 29406, 30424], "queries": {"click": {"state": {"target": ["33", "29", "27", "9", "11", "5", "6", "16", "17", "20", "21"], "time": [3160, 5242, 7319, 9564, 11477, 13383, 15344, 17383, 19320, 21202, 23621]}, "edge": {"target": [], "time": []}}, "mouseover": {"state": {"target": ["0", "23", "33", "26", "29", "27", "11", "9", "11", "3", "5", "6", "6", "16", "17", "20", "21", "19"], "time": [2228, 2435, 2970, 3638, 4080, 5606, 7715, 8057, 10701, 11758, 12262, 14359, 14684, 15718, 17830, 19749, 21594, 25034]}, "edge": {"target": [], "time": []}}, "mouseout": {"state": {"target": ["0", "0", "0", "23", "33", "26", "29", "27", "11", "9", "11", "3", "5", "6", "6", "16", "17", "20", "21", "19", "19"], "time": [929, 1514, 2303, 2635, 3271, 3716, 5384, 7526, 7830, 9950, 11672, 11835, 14246, 14399, 15586, 17748, 19599, 21514, 24922, 25147, 31721]}, "edge": {"target": [], "time": []}}}, "displayed_time": "30.94", "trialTime": 33100, "trial_type": "mouselab-mdp", "trial_index": 42, "time_elapsed": 2241984, "internal_node_id": "0.0-6.0-1.0-33.0"}}, {"uniqueid": "w39449167:a14468851", "current_trial": 43, "dateTime": 1693663132861, "trialdata": {"revealed_states": [], "clicked_states": ["5", "9", "32"], "num_clicks_accrued": [0, 0, 0, 0, 0, 0, 0, 0, 0, 0, 0, 0, 0], "stateRewards": ["", -2, 3, 3, -14, 62, 36, 49, 16, 11, 17, -84, 2, -1, 6, 2, -82, -73, 49, -6, -87, 48, 50, -1, -2, -1, -16, -11, 37, -44, 4, 55, 73, -10], "withholdReward": false, "trial_id": "mdp_trial_35", "block": "test", "trialIndex": 36, "score": 68.8, "costs": -4.199999999999999, "simulationMode": [null, null, null, null, null], "rewards": [-1, -2, -1, 4, 73], "path": ["0", "0", "23", "24", "25", "30", "32"], "rt": [8355, 85, 173, 928, 7018], "actions": ["left", "left", "left", "down", "down"], "actionTimes": [10733, 11358, 12032, 13485, 21031], "queries": {"click": {"state": {"target": ["5", "9", "32"], "time": [3285, 5253, 7253]}, "edge": {"target": [], "time": []}}, "mouseover": {"state": {"target": ["1", "2", "3", "5", "9", "25", "30", "32", "33", "29"], "time": [2540, 2645, 2722, 2908, 3819, 5865, 5947, 6141, 7729, 7848]}, "edge": {"target": [], "time": []}}, "mouseout": {"state": {"target": ["0", "1", "2", "3", "5", "9", "25", "30", "32", "33", "29", "30", "33", "30"], "time": [2424, 2607, 2684, 2759, 3660, 5580, 5906, 6026, 7628, 7770, 15953, 17576, 19483, 22041]}, "edge": {"target": [], "time": []}}}, "displayed_time": "21.55", "trialTime": 23946, "trial_type": "mouselab-mdp", "trial_index": 43, "time_elapsed": 2266861, "internal_node_id": "0.0-6.0-1.0-34.0"}}, {"uniqueid": "w39449167:a14468851", "current_trial": 44, "dateTime": 1693663163410, "trialdata": {"revealed_states": [], "clicked_states": ["11", "9", "5", "6", "16", "17", "20", "33", "29", "27"], "num_clicks_accrued": [0, 0, 0, 0, 0, 0, 0, 0, 0, 0, 0, 0, 0], "stateRewards": ["", -2, -2, -3, -6, -15, -11, 41, -12, -63, -76, 2, -2, -3, 8, 9, -36, -2, -18, -16, -32, -85, -17, -2, 1, 5, -16, 82, 35, -88, -1, 80, -82, -20], "withholdReward": false, "trial_id": "mdp_trial_36", "block": "test", "trialIndex": 37, "score": 56, "costs": -14.000000000000002, "simulationMode": [null, null, null, null, null], "rewards": [-2, 1, 5, -16, 82], "path": ["0", "0", "23", "24", "25", "26", "27"], "rt": [21134, 422, 279, 400, 201], "actions": ["left", "left", "left", "up", "up"], "actionTimes": [23259, 24180, 24980, 25897, 26623], "queries": {"click": {"state": {"target": ["11", "9", "5", "6", "16", "17", "20", "33", "29", "27"], "time": [2860, 4822, 6761, 8703, 10591, 12489, 14433, 16346, 18307, 20228]}, "edge": {"target": [], "time": []}}, "mouseover": {"state": {"target": ["11", "8", "4", "9", "5", "5", "6", "16", "16", "17", "20", "19", "24", "25", "33", "29", "27"], "time": [2579, 3158, 3242, 4222, 5187, 5525, 7054, 9179, 9585, 11029, 12925, 14725, 14848, 14891, 15341, 16787, 18737]}, "edge": {"target": [], "time": []}}, "mouseout": {"state": {"target": ["0", "0", "0", "11", "8", "4", "9", "5", "5", "6", "16", "16", "17", "20", "19", "24", "25", "33", "29", "27", "8", "10", "0"], "time": [69, 420, 2175, 3115, 3200, 3283, 5069, 5269, 7012, 9060, 9404, 10873, 12734, 14686, 14767, 14888, 14969, 16593, 18583, 27493, 27799, 27922, 28368]}, "edge": {"target": [], "time": []}}}, "displayed_time": "27.13", "trialTime": 29664, "trial_type": "mouselab-mdp", "trial_index": 44, "time_elapsed": 2297411, "internal_node_id": "0.0-6.0-1.0-35.0"}}, {"uniqueid": "w39449167:a14468851", "current_trial": 45, "dateTime": 1693663182554, "trialdata": {"revealed_states": [], "clicked_states": ["9", "27", "33"], "num_clicks_accrued": [0, 0, 0, 0, 0, 0, 0, 0, 0, 0, 0, 0, 0], "stateRewards": ["", 2, 3, -2, -8, -8, -41, 74, 15, -23, -80, 1, 1, 3, 3, -15, -63, -78, 67, 13, 75, -41, 86, 2, -2, 6, -3, -8, -49, 50, -6, 83, 74, 80], "withholdReward": false, "trial_id": "mdp_trial_37", "block": "test", "trialIndex": 38, "score": 75.8, "costs": -4.199999999999999, "simulationMode": [null, null, null, null, null], "rewards": [2, -2, 6, -6, 80], "path": ["0", "0", "23", "24", "25", "30", "33"], "rt": [7557, 407, 1347, 1606, 454], "actions": ["left", "left", "left", "down", "left"], "actionTimes": [9725, 10639, 12531, 14672, 15638], "queries": {"click": {"state": {"target": ["9", "27", "33"], "time": [2938, 4875, 6828]}, "edge": {"target": [], "time": []}}, "mouseover": {"state": {"target": ["8", "9", "11", "27", "26", "25", "33", "21", "21"], "time": [2632, 2720, 3336, 3494, 5280, 5438, 5826, 7878, 8093]}, "edge": {"target": [], "time": []}}, "mouseout": {"state": {"target": ["12", "12", "0", "8", "9", "11", "27", "26", "25", "33", "21", "21", "22"], "time": [172, 992, 2213, 2682, 3258, 3416, 5200, 5396, 5479, 7539, 8012, 14964, 16998]}, "edge": {"target": [], "time": []}}}, "displayed_time": "16.17", "trialTime": 18237, "trial_type": "mouselab-mdp", "trial_index": 45, "time_elapsed": 2316554, "internal_node_id": "0.0-6.0-1.0-36.0"}}, {"uniqueid": "w39449167:a14468851", "current_trial": 46, "dateTime": 1693663201262, "trialdata": {"revealed_states": [], "clicked_states": ["29", "33"], "num_clicks_accrued": [0, 0, 0, 0, 0, 0, 0, 0, 0, 0, 0, 0, 0], "stateRewards": ["", 1, 1, -3, 7, 49, 78, 26, -5, 26, 48, -43, -1, -3, 2, -5, 4, -1, -60, 10, -35, 51, 81, -2, 1, -7, -5, -39, -86, -54, 4, -3, 74, 77], "withholdReward": false, "trial_id": "mdp_trial_38", "block": "test", "trialIndex": 39, "score": 70.2, "costs": -2.8, "simulationMode": [null, null, null, null, null], "rewards": [-2, 1, -7, 4, 77], "path": ["0", "0", "23", "24", "25", "30", "33"], "rt": [6338, 36, 115, 614, 198], "actions": ["left", "left", "left", "down", "left"], "actionTimes": [8017, 8560, 9210, 10326, 11050], "queries": {"click": {"state": {"target": ["29", "33"], "time": [3177, 5178]}, "edge": {"target": [], "time": []}}, "mouseover": {"state": {"target": ["2", "3", "9", "26", "29", "33", "30", "31", "14", "17"], "time": [1766, 2073, 2193, 2428, 2862, 4036, 5432, 5477, 5675, 5843]}, "edge": {"target": [], "time": []}}, "mouseout": {"state": {"target": ["13", "1", "1", "0", "2", "3", "9", "26", "29", "33", "30", "31", "14", "17", "15", "18", "12"], "time": [469, 570, 788, 1725, 1829, 2112, 2231, 2760, 3648, 5389, 5473, 5518, 5759, 13124, 13265, 13399, 13651]}, "edge": {"target": [], "time": []}}}, "displayed_time": "15.68", "trialTime": 17791, "trial_type": "mouselab-mdp", "trial_index": 46, "time_elapsed": 2335262, "internal_node_id": "0.0-6.0-1.0-37.0"}}, {"uniqueid": "w39449167:a14468851", "current_trial": 47, "dateTime": 1693663221625, "trialdata": {"revealed_states": [], "clicked_states": ["20", "33", "29", "17"], "num_clicks_accrued": [0, 0, 0, 0, 0, 0, 0, 0, 0, 0, 0, 0, 0], "stateRewards": ["", -1, -3, -6, 14, 41, 18, 63, -14, 80, 21, 17, -2, -4, -2, -5, 13, 70, 8, -4, -64, -10, -20, 2, -1, 4, -1, -17, -55, 42, -7, 47, 54, 15], "withholdReward": false, "trial_id": "mdp_trial_39", "block": "test", "trialIndex": 40, "score": 51.4, "costs": -5.6, "simulationMode": [null, null, null, null, null], "rewards": [-2, -4, -2, -5, 70], "path": ["0", "0", "12", "13", "14", "15", "17"], "rt": [10250, 31, 97, 611, 451], "actions": ["right", "right", "right", "up", "right"], "actionTimes": [12134, 12698, 13349, 14461, 15416], "queries": {"click": {"state": {"target": ["20", "33", "29", "17"], "time": [2818, 4793, 6826, 8888]}, "edge": {"target": [], "time": []}}, "mouseover": {"state": {"target": ["12", "13", "14", "20", "33", "29", "28", "18", "15", "17", "15", "1", "26", "10", "2", "15"], "time": [2168, 2284, 2399, 2620, 3799, 5698, 7138, 7240, 7321, 7482, 9244, 9368, 9519, 10998, 11050, 11214]}, "edge": {"target": [], "time": []}}, "mouseout": {"state": {"target": ["12", "0", "12", "13", "14", "20", "33", "29", "28", "18", "15", "17", "15", "1", "26", "29", "10", "2", "15", "15", "12"], "time": [894, 1932, 2219, 2350, 2451, 3118, 5307, 7084, 7199, 7281, 7479, 9240, 9285, 9446, 9674, 10729, 11046, 11130, 11404, 17285, 17787]}, "edge": {"target": [], "time": []}}}, "displayed_time": "15.95", "trialTime": 19444, "trial_type": "mouselab-mdp", "trial_index": 47, "time_elapsed": 2355626, "internal_node_id": "0.0-6.0-1.0-38.0"}}, {"uniqueid": "w39449167:a14468851", "current_trial": 48, "dateTime": 1693663241037, "trialdata": {"revealed_states": [], "clicked_states": ["33", "29", "27"], "num_clicks_accrued": [0, 0, 0, 0, 0, 0, 0, 0, 0, 0, 0, 0, 0], "stateRewards": ["", -2, -1, -4, -15, -14, -67, 32, -3, -59, 63, 31, 2, -1, -7, -15, 71, -66, -27, -3, -54, -39, 72, 2, 1, 1, -13, 77, -40, 35, -9, 35, 75, 57], "withholdReward": false, "trial_id": "mdp_trial_40", "block": "test", "trialIndex": 41, "score": 63.8, "costs": -4.199999999999999, "simulationMode": [null, null, null, null, null], "rewards": [2, 1, 1, -13, 77], "path": ["0", "0", "23", "24", "25", "26", "27"], "rt": [8187, 148, 155, 399, 31], "actions": ["left", "left", "left", "up", "up"], "actionTimes": [9924, 10586, 11252, 12173, 12719], "queries": {"click": {"state": {"target": ["33", "29", "27"], "time": [2707, 4826, 6835]}, "edge": {"target": [], "time": []}}, "mouseover": {"state": {"target": ["23", "24", "25", "33", "29", "27", "11"], "time": [1783, 1886, 2215, 2515, 3793, 5274, 7527]}, "edge": {"target": [], "time": []}}, "mouseout": {"state": {"target": ["0", "23", "24", "25", "33", "29", "27", "11", "8", "3", "2", "1", "0"], "time": [1047, 1822, 2164, 2264, 3396, 5075, 7376, 13985, 14073, 14223, 14294, 15594, 15661]}, "edge": {"target": [], "time": []}}}, "displayed_time": "15.74", "trialTime": 18483, "trial_type": "mouselab-mdp", "trial_index": 48, "time_elapsed": 2375038, "internal_node_id": "0.0-6.0-1.0-39.0"}}, {"uniqueid": "w39449167:a14468851", "current_trial": 49, "dateTime": 1693663319225, "trialdata": {"rt": 78182, "response": {"Q0": "$-2 to $2", "Q1": "$-4 to $4", "Q2": "$-88 to $88", "Q3": "The cost was always $1.4.", "Q4": "Very motivated"}, "question_order": [0, 1, 2, 3, 4], "trial_id": "final_quiz_control", "trial_type": "survey-multi-choice", "trial_index": 49, "time_elapsed": 2453226, "internal_node_id": "0.0-6.0-2.0"}}, {"uniqueid": "w39449167:a14468851", "current_trial": 50, "dateTime": 1693663592003, "trialdata": {"rt": 272764, "response": {"Q0": "Instead of starting by clicking on nodes nearest the spider, I clicked on the nodes at the edge because their values were higher ", "Q1": "I priotise clicking on the edge nodes, if a node revealed 70 positive number or higher I made my 5 moves to the node", "Q2": "first 5 to 10 rounds were little bit difficult but after 11 rounds I figured what to do"}, "trial_id": "self_report_control", "trial_type": "survey-text", "trial_index": 50, "time_elapsed": 2726003, "internal_node_id": "0.0-6.0-3.0"}}, {"uniqueid": "w39449167:a14468851", "current_trial": 51, "dateTime": 1693663625440, "trialdata": {"rt": 33432, "response": {"gender": "male", "age": "25", "colorblind": "0", "effort": "0"}, "trial_type": "survey-html-form", "trial_index": 51, "time_elapsed": 2759441, "internal_node_id": "0.0-6.0-4.0"}}, {"uniqueid": "w39449167:a14468851", "current_trial": 52, "dateTime": 1693663720857, "trialdata": {"rt": 95407, "response": {"Q0": "No, it was easy to do", "Q1": "no", "Q2": "great study, I had fun in web of cash"}, "trial_type": "survey-text", "trial_index": 52, "time_elapsed": 2854858, "internal_node_id": "0.0-6.0-5.0"}}, {"uniqueid": "w39449167:a14468851", "current_trial": 53, "dateTime": 1693663782959, "trialdata": {"rt": 62095, "stimulus": "<h1>Completion Code Instructions (1/2)</h1>\n<br><br><br><br>\nYou have reached the end of the experiment! The completion code consists of two parts: (1) a code with 2 characters (2) a code with 6 characters. On this page, you will receive the second part of the code. The first part of the completion code will be on the next page.\n<br><br>\nThe second part of your completion code is: <b>EWEK22</b>\n<br><br>\nPlease note this down. Then, press 'Next' in order to find the first part of your completion code. Once the data has been saved, you will receive this code either in this window or in the original browser window where you started the experiment.\n <br><br>\n<h2 style='color: red;'>Note: this is <strong>NOT</strong> the full completion code. Copy this down and click 'Next' to get the full completion code on the next page.</h2>", "response": 0, "trial_type": "html-button-response", "trial_index": 53, "time_elapsed": 2916960, "internal_node_id": "0.0-6.0-6.0"}}, {"uniqueid": "w39449167:a14468851", "current_trial": 54, "dateTime": 1693663783964, "trialdata": {"success": true, "trial_type": "fullscreen", "trial_index": 54, "time_elapsed": 2917965, "internal_node_id": "0.0-7.0"}}], "questiondata": {"params": {"CODE": "C6DMOQA6", "MIN_TIME": 14, "inspectCost": 1, "startTime": "Sat Sep 02 2023 06:21:02 GMT-0700 (Pacific Daylight Time)", "bonusRate": 0.002, "variance": "1_2_4_8_44", "branching": "31123"}, "final_score": 1261}, "eventdata": [{"eventtype": "initialized", "value": null, "timestamp": 1693660861338, "interval": 0}, {"eventtype": "window_resize", "value": [1366, 662], "timestamp": 1693660861338, "interval": 0}, {"eventtype": "window_resize", "value": [1366, 662], "timestamp": 1693660861870, "interval": 532}, {"eventtype": "window_resize", "value": [1366, 768], "timestamp": 1693660872572, "interval": 10702}, {"eventtype": "focus", "value": "off", "timestamp": 1693661334903, "interval": 462331}, {"eventtype": "window_resize", "value": [1366, 767], "timestamp": 1693661335124, "interval": 221}, {"eventtype": "focus", "value": "on", "timestamp": 1693661340541, "interval": 5417}, {"eventtype": "focus", "value": "off", "timestamp": 1693661340542, "interval": 1}, {"eventtype": "focus", "value": "on", "timestamp": 1693661340543, "interval": 1}, {"eventtype": "window_resize", "value": [1366, 662], "timestamp": 1693661340770, "interval": 227}, {"eventtype": "focus", "value": "off", "timestamp": 1693661631839, "interval": 291069}, {"eventtype": "focus", "value": "on", "timestamp": 1693661645195, "interval": 13356}, {"eventtype": "focus", "value": "off", "timestamp": 1693662116830, "interval": 471635}, {"eventtype": "focus", "value": "on", "timestamp": 1693662117572, "interval": 742}, {"eventtype": "focus", "value": "off", "timestamp": 1693662139756, "interval": 22184}, {"eventtype": "focus", "value": "on", "timestamp": 1693662140396, "interval": 640}, {"eventtype": "window_resize", "value": [1024, 646], "timestamp": 1693662151823, "interval": 11427}, {"eventtype": "window_resize", "value": [1366, 662], "timestamp": 1693662152971, "interval": 1148}, {"eventtype": "focus", "value": "off", "timestamp": 1693662601358, "interval": 448387}, {"eventtype": "focus", "value": "on", "timestamp": 1693662602479, "interval": 1121}, {"eventtype": "focus", "value": "off", "timestamp": 1693662647261, "interval": 44782}, {"eventtype": "focus", "value": "on", "timestamp": 1693662648186, "interval": 925}], "useragent": "Mozilla/5.0 (Windows NT 10.0; Win64; x64) AppleWebKit/537.36 (KHTML, like Gecko) Chrome/116.0.0.0 Safari/537.36", "mode": "live", "id": "w39449167:a14468851", "status": "user data saved", "Beginhit": "2023-09-02 13:20:51.494774", "Beginexp": "2023-09-02 13:21:12.457091", "Endhit": "2023-09-02 14:09:49.712834", "psiturkStatus": 3, "browser": "<redacted>", "platform": "windows", "language": "en-US"}