{"condition": 0, "counterbalance": 0, "assignmentId": "a83782250", "workerId": "w94871918", "hitId": "h65380859", "currenttrial": 61, "bonus": 0, "data": [{"uniqueid": "w94871918:a83782250", "current_trial": 0, "dateTime": 1691142187685, "trialdata": {"success": true, "trial_type": "fullscreen", "trial_index": 0, "time_elapsed": 16001, "internal_node_id": "0.0-0.0"}}, {"uniqueid": "w94871918:a83782250", "current_trial": 1, "dateTime": 1691142209452, "trialdata": {"view_history": [{"page_index": 0, "viewing_time": 21713}], "rt": 21715, "trial_id": "exp_instructions_control", "trial_type": "instructions", "trial_index": 1, "time_elapsed": 37772, "internal_node_id": "0.0-1.0"}}, {"uniqueid": "w94871918:a83782250", "current_trial": 2, "dateTime": 1691142214489, "trialdata": {"success": true, "trial_type": "fullscreen", "trial_index": 2, "time_elapsed": 42809, "internal_node_id": "0.0-2.0-0.0"}}, {"uniqueid": "w94871918:a83782250", "current_trial": 3, "dateTime": 1691142475635, "trialdata": {"view_history": [{"page_index": 0, "viewing_time": 74594}, {"page_index": 1, "viewing_time": 45867}, {"page_index": 2, "viewing_time": 18588}, {"page_index": 3, "viewing_time": 122079}], "rt": 261131, "trial_id": "mouselab_instructions_1_control", "trial_type": "instructions", "trial_index": 3, "time_elapsed": 303955, "internal_node_id": "0.0-2.0-1.0"}}, {"uniqueid": "w94871918:a83782250", "current_trial": 4, "dateTime": 1691142502760, "trialdata": {"revealed_states": [], "clicked_states": [], "num_clicks_accrued": [0, 0, 0, 0, 0, 0, 0, 0, 0, 0, 0, 0, 0], "stateRewards": ["", -10, -10, 10, -10, 10, 10, 10, 10, -10, 10, -10, -10, -10, 10, -10, -10, -10, 10, -10, -10, 10, 10, -10, -10, -10, -10, -10, -10, -10, 10, 10, 10, 10], "withholdReward": false, "trial_id": "practice_1", "block": "test", "trialIndex": 0, "score": -46.5, "costs": 0, "simulationMode": [null, null, null, null, null], "rewards": [-10, -10, -10, -10, -10], "path": ["0", "0", "23", "24", "25", "26", "27"], "rt": [4206, 814, 216, 340, 447], "actions": ["left", "left", "left", "up", "up"], "actionTimes": [6655, 8011, 8796, 9673, 10656], "queries": {"click": {"state": {"target": [], "time": []}, "edge": {"target": [], "time": []}}, "mouseover": {"state": {"target": ["23", "24", "23"], "time": [4682, 4857, 5461]}, "edge": {"target": [], "time": []}}, "mouseout": {"state": {"target": ["0", "23", "24", "23", "28", "27", "10", "7", "18", "13"], "time": [4510, 4778, 5407, 17917, 18101, 18284, 19886, 19952, 20133, 20265]}, "edge": {"target": [], "time": []}}}, "displayed_time": "11.20", "trialTime": 25125, "trial_type": "mouselab-mdp", "trial_index": 4, "time_elapsed": 331074, "internal_node_id": "0.0-2.0-2.0-0.0"}}, {"uniqueid": "w94871918:a83782250", "current_trial": 5, "dateTime": 1691142527794, "trialdata": {"revealed_states": [], "clicked_states": [], "num_clicks_accrued": [0, 0, 0, 0, 0, 0, 0, 0, 0, 0, 0, 0, 0], "stateRewards": ["", -10, -10, 10, 10, 10, 10, 10, -10, 10, -10, 10, -10, 10, -10, -10, 10, 10, -10, 10, -10, 10, 10, 10, 10, -10, -10, 10, -10, 10, -10, 10, 10, 10], "withholdReward": false, "trial_id": "practice_2", "block": "test", "trialIndex": 1, "score": 13.5, "costs": 0, "simulationMode": [null, null, null, null, null], "rewards": [-10, -10, 10, 10, 10], "path": ["0", "0", "1", "2", "3", "4", "6"], "rt": [2139, 7810, 109, 726, 55], "actions": ["up", "up", "up", "right", "right"], "actionTimes": [5418, 13762, 14405, 15665, 16241], "queries": {"click": {"state": {"target": [], "time": []}, "edge": {"target": [], "time": []}}, "mouseover": {"state": {"target": [], "time": []}, "edge": {"target": [], "time": []}}, "mouseout": {"state": {"target": ["12", "0", "2", "2"], "time": [1306, 6754, 6960, 7115]}, "edge": {"target": [], "time": []}}}, "displayed_time": "16.81", "trialTime": 23715, "trial_type": "mouselab-mdp", "trial_index": 5, "time_elapsed": 356113, "internal_node_id": "0.0-2.0-2.0-1.0"}}, {"uniqueid": "w94871918:a83782250", "current_trial": 6, "dateTime": 1691142546975, "trialdata": {"view_history": [{"page_index": 0, "viewing_time": 13674}, {"page_index": 1, "viewing_time": 5489}], "rt": 19169, "trial_id": "mouselab_instructions_2_control", "trial_type": "instructions", "trial_index": 6, "time_elapsed": 375295, "internal_node_id": "0.0-2.0-3.0"}}, {"uniqueid": "w94871918:a83782250", "current_trial": 7, "dateTime": 1691142600185, "trialdata": {"rt": 53141, "response": {"Q0": "There is no cost for clicking on nodes.", "Q1": "The better I perform the higher my bonus will be.", "Q2": "No, the amount of cash at each node of the web may be different each time.", "Q3": "To get the highest total score.", "Q4": "Only before moving the spider.", "Q5": "10 seconds"}, "question_order": [0, 1, 2, 3, 4, 5], "correct": {"Q0": "The cost for clicking on nodes may vary between nodes.", "Q1": "The better I perform the higher my bonus will be.", "Q2": "No, the amount of cash at each node of the web may be different each time.", "Q3": "To get the highest total score.", "Q4": "Only before moving the spider.", "Q5": "3 seconds"}, "trial_id": "mouselab_quiz_control", "trial_type": "survey-multi-choice", "trial_index": 7, "time_elapsed": 428504, "internal_node_id": "0.0-2.0-4.0"}}, {"uniqueid": "w94871918:a83782250", "current_trial": 8, "dateTime": 1691142611719, "trialdata": {"success": true, "trial_type": "fullscreen", "trial_index": 8, "time_elapsed": 440036, "internal_node_id": "0.0-2.1-0.1"}}, {"uniqueid": "w94871918:a83782250", "current_trial": 9, "dateTime": 1691142641578, "trialdata": {"view_history": [{"page_index": 0, "viewing_time": 15010}, {"page_index": 1, "viewing_time": 7145}, {"page_index": 2, "viewing_time": 4015}, {"page_index": 3, "viewing_time": 3653}], "rt": 29824, "trial_id": "mouselab_instructions_1_control", "trial_type": "instructions", "trial_index": 9, "time_elapsed": 469898, "internal_node_id": "0.0-2.1-1.1"}}, {"uniqueid": "w94871918:a83782250", "current_trial": 10, "dateTime": 1691142660514, "trialdata": {"revealed_states": [], "clicked_states": [], "num_clicks_accrued": [0, 0, 0, 0, 0, 0, 0, 0, 0, 0, 0, 0, 0], "stateRewards": ["", -10, -10, 10, -10, 10, 10, 10, 10, -10, 10, -10, -10, -10, 10, -10, -10, -10, 10, -10, -10, 10, 10, -10, -10, -10, -10, -10, -10, -10, 10, 10, 10, 10], "withholdReward": false, "trial_id": "practice_1", "block": "test", "trialIndex": 2, "score": -6.5, "costs": 0, "simulationMode": [null, null, null, null, null], "rewards": [-10, -10, 10, 10, -10], "path": ["0", "0", "1", "2", "3", "8", "11"], "rt": [4373, 257, 275, 787, 125], "actions": ["up", "up", "up", "left", "left"], "actionTimes": [9520, 10317, 11108, 12436, 13102], "queries": {"click": {"state": {"target": [], "time": []}, "edge": {"target": [], "time": []}}, "mouseover": {"state": {"target": [], "time": []}, "edge": {"target": [], "time": []}}, "mouseout": {"state": {"target": [], "time": []}, "edge": {"target": [], "time": []}}}, "displayed_time": "13.63", "trialTime": 17542, "trial_type": "mouselab-mdp", "trial_index": 10, "time_elapsed": 488827, "internal_node_id": "0.0-2.1-2.1-0.1"}}, {"uniqueid": "w94871918:a83782250", "current_trial": 11, "dateTime": 1691142672552, "trialdata": {"revealed_states": [], "clicked_states": [], "num_clicks_accrued": [0, 0, 0, 0, 0, 0, 0, 0, 0, 0, 0, 0, 0], "stateRewards": ["", -10, -10, 10, 10, 10, 10, 10, -10, 10, -10, 10, -10, 10, -10, -10, 10, 10, -10, 10, -10, 10, 10, 10, 10, -10, -10, 10, -10, 10, -10, 10, 10, 10], "withholdReward": false, "trial_id": "practice_2", "block": "test", "trialIndex": 3, "score": 13.5, "costs": 0, "simulationMode": [null, null, null, null, null], "rewards": [-10, -10, 10, 10, 10], "path": ["0", "0", "1", "2", "3", "4", "6"], "rt": [1150, 110, 57, 479, 251], "actions": ["up", "up", "up", "right", "right"], "actionTimes": [3496, 4133, 4713, 5744, 6549], "queries": {"click": {"state": {"target": [], "time": []}, "edge": {"target": [], "time": []}}, "mouseover": {"state": {"target": [], "time": []}, "edge": {"target": [], "time": []}}, "mouseout": {"state": {"target": [], "time": []}, "edge": {"target": [], "time": []}}}, "displayed_time": "7.07", "trialTime": 10675, "trial_type": "mouselab-mdp", "trial_index": 11, "time_elapsed": 500871, "internal_node_id": "0.0-2.1-2.1-1.1"}}, {"uniqueid": "w94871918:a83782250", "current_trial": 12, "dateTime": 1691142687866, "trialdata": {"view_history": [{"page_index": 0, "viewing_time": 12107}, {"page_index": 1, "viewing_time": 3194}], "rt": 15304, "trial_id": "mouselab_instructions_2_control", "trial_type": "instructions", "trial_index": 12, "time_elapsed": 516185, "internal_node_id": "0.0-2.1-3.1"}}, {"uniqueid": "w94871918:a83782250", "current_trial": 13, "dateTime": 1691142839905, "trialdata": {"rt": 151993, "response": {"Q0": "The cost for clicking on nodes may vary between nodes.", "Q1": "The better I perform the higher my bonus will be.", "Q2": "No, the amount of cash at each node of the web may be different each time.", "Q3": "To get the highest total score.", "Q4": "Only before moving the spider.", "Q5": "3 seconds"}, "question_order": [0, 1, 2, 3, 4, 5], "correct": {"Q0": "The cost for clicking on nodes may vary between nodes.", "Q1": "The better I perform the higher my bonus will be.", "Q2": "No, the amount of cash at each node of the web may be different each time.", "Q3": "To get the highest total score.", "Q4": "Only before moving the spider.", "Q5": "3 seconds"}, "trial_id": "mouselab_quiz_control", "trial_type": "survey-multi-choice", "trial_index": 13, "time_elapsed": 668225, "internal_node_id": "0.0-2.1-4.1"}}, {"uniqueid": "w94871918:a83782250", "current_trial": 14, "dateTime": 1691142852972, "trialdata": {"rt": 13020, "stimulus": "\n<h1> Get ready to start the game! </h1>\n\nThank you for reading the instructions. Get ready start with the 40 rounds of this game.\n<br><br>\nIf you need to take a break, feel free to take one after the end of a round, before continuing to the next one.\n<br><br>\nRemember, the more money the spider gets, the bigger your bonus will be!\n<br><br>\n<div style='text-align: center;'>Press <code>space</code> to begin.</div>\n\n<br><br>\n(If, at any point, the <code>space</code> key does not take you to the next page, click once on the text and try again.)", "response": " ", "trial_id": "mdp_ready", "trial_type": "html-keyboard-response", "trial_index": 14, "time_elapsed": 681289, "internal_node_id": "0.0-4.0-0.0"}}, {"uniqueid": "w94871918:a83782250", "current_trial": 15, "dateTime": 1691142872487, "trialdata": {"revealed_states": [], "clicked_states": [], "num_clicks_accrued": [0, 0, 0, 0, 0, 0, 0, 0, 0, 0, 0, 0, 0], "stateRewards": ["", -2, 1, -7, 9, 8, 25, 61, -7, -17, 69, -81, 1, 4, -4, -11, 16, 67, 44, 3, 6, -45, -54, -2, 3, 6, -11, -15, 32, -47, 3, -39, -6, -88], "withholdReward": false, "trial_id": "mdp_trial_1", "block": "test", "trialIndex": 4, "score": 26, "costs": 0, "simulationMode": [null, null, null, null, null], "rewards": [-2, 1, -7, 9, 25], "path": ["0", "0", "1", "2", "3", "4", "6"], "rt": [3199, 94, 148, 761, 52], "actions": ["up", "up", "up", "right", "right"], "actionTimes": [6914, 7590, 8262, 9590, 10170], "queries": {"click": {"state": {"target": [], "time": []}, "edge": {"target": [], "time": []}}, "mouseover": {"state": {"target": [], "time": []}, "edge": {"target": [], "time": []}}, "mouseout": {"state": {"target": ["24", "23"], "time": [2119, 2337]}, "edge": {"target": [], "time": []}}}, "displayed_time": "17.71", "trialTime": 17874, "trial_type": "mouselab-mdp", "trial_index": 15, "time_elapsed": 700803, "internal_node_id": "0.0-4.0-1.0-0.0"}}, {"uniqueid": "w94871918:a83782250", "current_trial": 16, "dateTime": 1691142891957, "trialdata": {"revealed_states": [], "clicked_states": [], "num_clicks_accrued": [0, 0, 0, 0, 0, 0, 0, 0, 0, 0, 0, 0, 0], "stateRewards": ["", 1, 4, 7, -16, -84, -6, -46, -12, -7, -49, -26, -1, 2, -4, 2, 22, 37, -64, 1, 88, -13, -10, 1, -4, -2, 5, 2, -10, -34, 9, 66, 55, 38], "withholdReward": false, "trial_id": "mdp_trial_2", "block": "test", "trialIndex": 5, "score": -10, "costs": 0, "simulationMode": [null, null, null, null, null], "rewards": [1, 4, 7, -16, -6], "path": ["0", "0", "1", "2", "3", "4", "6"], "rt": [2129, 7, 36, 493, 28], "actions": ["up", "up", "up", "right", "right"], "actionTimes": [4401, 5019, 5614, 6651, 7231], "queries": {"click": {"state": {"target": [], "time": []}, "edge": {"target": [], "time": []}}, "mouseover": {"state": {"target": [], "time": []}, "edge": {"target": [], "time": []}}, "mouseout": {"state": {"target": ["0"], "time": [1201]}, "edge": {"target": [], "time": []}}}, "displayed_time": "16.27", "trialTime": 17794, "trial_type": "mouselab-mdp", "trial_index": 16, "time_elapsed": 720271, "internal_node_id": "0.0-4.0-1.0-1.0"}}, {"uniqueid": "w94871918:a83782250", "current_trial": 17, "dateTime": 1691142911241, "trialdata": {"revealed_states": [], "clicked_states": [], "num_clicks_accrued": [0, 0, 0, 0, 0, 0, 0, 0, 0, 0, 0, 0, 0], "stateRewards": ["", 2, -1, -3, 16, -3, -16, -62, -1, 13, -26, 43, -1, 4, 3, -9, -54, -37, -3, -12, -71, -68, -57, 1, -3, 2, -9, 2, -2, -9, -11, 84, -52, 55], "withholdReward": false, "trial_id": "mdp_trial_3", "block": "test", "trialIndex": 6, "score": -63, "costs": 0, "simulationMode": [null, null, null, null, null], "rewards": [1, -3, 2, -11, -52], "path": ["0", "0", "23", "24", "25", "30", "32"], "rt": [1305, 7, 143, 1024, 3], "actions": ["left", "left", "left", "down", "down"], "actionTimes": [2928, 3536, 4226, 5772, 6360], "queries": {"click": {"state": {"target": [], "time": []}, "edge": {"target": [], "time": []}}, "mouseover": {"state": {"target": [], "time": []}, "edge": {"target": [], "time": []}}, "mouseout": {"state": {"target": ["0"], "time": [557]}, "edge": {"target": [], "time": []}}}, "displayed_time": "15.63", "trialTime": 17558, "trial_type": "mouselab-mdp", "trial_index": 17, "time_elapsed": 739556, "internal_node_id": "0.0-4.0-1.0-2.0"}}, {"uniqueid": "w94871918:a83782250", "current_trial": 18, "dateTime": 1691142930871, "trialdata": {"revealed_states": [], "clicked_states": [], "num_clicks_accrued": [0, 0, 0, 0, 0, 0, 0, 0, 0, 0, 0, 0, 0], "stateRewards": ["", 2, 4, -6, -13, -75, -81, 30, 7, 5, 59, -65, -1, -1, 7, 14, -38, 36, -41, 1, -54, -5, 64, 2, -1, 5, 6, -19, 79, 11, 16, -33, -50, 58], "withholdReward": false, "trial_id": "mdp_trial_4", "block": "test", "trialIndex": 7, "score": 12, "costs": 0, "simulationMode": [null, null, null, null, null], "rewards": [2, 4, -6, 7, 5], "path": ["0", "0", "1", "2", "3", "8", "9"], "rt": [246, 75, 66, 1127, 259], "actions": ["up", "up", "up", "left", "up"], "actionTimes": [2512, 3188, 3798, 5505, 6306], "queries": {"click": {"state": {"target": [], "time": []}, "edge": {"target": [], "time": []}}, "mouseover": {"state": {"target": [], "time": []}, "edge": {"target": [], "time": []}}, "mouseout": {"state": {"target": ["0"], "time": [1185]}, "edge": {"target": [], "time": []}}}, "displayed_time": "16.27", "trialTime": 17852, "trial_type": "mouselab-mdp", "trial_index": 18, "time_elapsed": 759185, "internal_node_id": "0.0-4.0-1.0-3.0"}}, {"uniqueid": "w94871918:a83782250", "current_trial": 19, "dateTime": 1691142953087, "trialdata": {"revealed_states": [], "clicked_states": [], "num_clicks_accrued": [0, 0, 0, 0, 0, 0, 0, 0, 0, 0, 0, 0, 0], "stateRewards": ["", 1, -4, -6, -1, -21, 17, -72, 10, 77, 67, -46, -1, 4, -2, 14, -66, -49, -45, -15, -52, 23, -67, 2, -2, -2, 15, -3, 45, -64, 5, -44, 83, 61], "withholdReward": false, "trial_id": "mdp_trial_5", "block": "test", "trialIndex": 8, "score": -45, "costs": 0, "simulationMode": [null, null, null, null, null], "rewards": [1, -4, -6, 10, -46], "path": ["0", "0", "1", "2", "3", "8", "11"], "rt": [1565, 203, 758, 576, 543], "actions": ["up", "up", "up", "left", "left"], "actionTimes": [6661, 7401, 8690, 9814, 10889], "queries": {"click": {"state": {"target": [], "time": []}, "edge": {"target": [], "time": []}}, "mouseover": {"state": {"target": [], "time": []}, "edge": {"target": [], "time": []}}, "mouseout": {"state": {"target": ["0"], "time": [3942]}, "edge": {"target": [], "time": []}}}, "displayed_time": "19.10", "trialTime": 20385, "trial_type": "mouselab-mdp", "trial_index": 19, "time_elapsed": 781401, "internal_node_id": "0.0-4.0-1.0-4.0"}}, {"uniqueid": "w94871918:a83782250", "current_trial": 20, "dateTime": 1691142977326, "trialdata": {"revealed_states": [], "clicked_states": [], "num_clicks_accrued": [0, 0, 0, 0, 0, 0, 0, 0, 0, 0, 0, 0, 0], "stateRewards": ["", -1, -2, 8, -6, -79, -6, 87, 9, -5, -66, -38, 2, 2, 5, -6, -82, 74, 85, -8, 67, -30, -15, 1, -2, -2, -2, 87, 64, 49, 7, 2, -38, -9], "withholdReward": false, "trial_id": "mdp_trial_6", "block": "test", "trialIndex": 9, "score": 9, "costs": 0, "simulationMode": [null, null, null, null, null], "rewards": [-1, -2, 8, 9, -5], "path": ["0", "0", "1", "2", "3", "8", "9"], "rt": [2103, 294, 251, 955, 152], "actions": ["up", "up", "up", "left", "up"], "actionTimes": [8986, 9822, 10614, 12108, 12787], "queries": {"click": {"state": {"target": [], "time": []}, "edge": {"target": [], "time": []}}, "mouseover": {"state": {"target": [], "time": []}, "edge": {"target": [], "time": []}}, "mouseout": {"state": {"target": ["0"], "time": [5768]}, "edge": {"target": [], "time": []}}}, "displayed_time": "20.88", "trialTime": 22353, "trial_type": "mouselab-mdp", "trial_index": 20, "time_elapsed": 805640, "internal_node_id": "0.0-4.0-1.0-5.0"}}, {"uniqueid": "w94871918:a83782250", "current_trial": 21, "dateTime": 1691143003043, "trialdata": {"revealed_states": [], "clicked_states": [], "num_clicks_accrued": [0, 0, 0, 0, 0, 0, 0, 0, 0, 0, 0, 0, 0], "stateRewards": ["", -1, 2, -6, 6, -82, -19, -39, -16, -83, 11, -33, -2, -2, 4, -6, -82, -1, -19, -6, -10, -67, -41, -2, 1, -7, 16, -23, -78, -52, 14, 31, -71, 74], "withholdReward": false, "trial_id": "mdp_trial_7", "block": "test", "trialIndex": 10, "score": -73, "costs": 0, "simulationMode": [null, null, null, null, null], "rewards": [-2, -2, 4, -6, -67], "path": ["0", "0", "12", "13", "14", "19", "21"], "rt": [1690, 102, 347, 644, 59], "actions": ["right", "right", "right", "down", "down"], "actionTimes": [10145, 10775, 11674, 12855, 13454], "queries": {"click": {"state": {"target": [], "time": []}, "edge": {"target": [], "time": []}}, "mouseover": {"state": {"target": [], "time": []}, "edge": {"target": [], "time": []}}, "mouseout": {"state": {"target": ["0"], "time": [8532]}, "edge": {"target": [], "time": []}}}, "displayed_time": "22.46", "trialTime": 23899, "trial_type": "mouselab-mdp", "trial_index": 21, "time_elapsed": 831361, "internal_node_id": "0.0-4.0-1.0-6.0"}}, {"uniqueid": "w94871918:a83782250", "current_trial": 22, "dateTime": 1691143025220, "trialdata": {"revealed_states": [], "clicked_states": [], "num_clicks_accrued": [0, 0, 0, 0, 0, 0, 0, 0, 0, 0, 0, 0, 0], "stateRewards": ["", -1, 1, 6, -6, 70, 66, 67, -16, -75, -35, 37, -1, 4, 4, -6, 47, -9, 63, 15, 21, -63, 13, 1, 3, -6, 10, 79, -29, 18, -15, 9, -67, -19], "withholdReward": false, "trial_id": "mdp_trial_8", "block": "test", "trialIndex": 11, "score": 43, "costs": 0, "simulationMode": [null, null, null, null, null], "rewards": [-1, 4, 4, 15, 21], "path": ["0", "0", "12", "13", "14", "19", "20"], "rt": [1377, 914, 372, 247, 305], "actions": ["right", "right", "right", "down", "right"], "actionTimes": [5669, 7126, 8035, 8819, 9659], "queries": {"click": {"state": {"target": [], "time": []}, "edge": {"target": [], "time": []}}, "mouseover": {"state": {"target": [], "time": []}, "edge": {"target": [], "time": []}}, "mouseout": {"state": {"target": [], "time": []}, "edge": {"target": [], "time": []}}}, "displayed_time": "18.30", "trialTime": 20210, "trial_type": "mouselab-mdp", "trial_index": 22, "time_elapsed": 853538, "internal_node_id": "0.0-4.0-1.0-7.0"}}, {"uniqueid": "w94871918:a83782250", "current_trial": 23, "dateTime": 1691143046281, "trialdata": {"revealed_states": [], "clicked_states": [], "num_clicks_accrued": [0, 0, 0, 0, 0, 0, 0, 0, 0, 0, 0, 0, 0], "stateRewards": ["", -1, -1, 4, -16, -75, 81, -51, -7, -84, 73, -30, -2, 1, -3, -16, -77, 33, 14, 1, 45, 87, -66, 2, 2, -5, -7, -19, -17, 79, -3, 8, 49, 47], "withholdReward": false, "trial_id": "mdp_trial_9", "block": "test", "trialIndex": 12, "score": 43, "costs": 0, "simulationMode": [null, null, null, null, null], "rewards": [2, 2, -5, -3, 47], "path": ["0", "0", "23", "24", "25", "30", "33"], "rt": [2438, 296, 314, 264, 618], "actions": ["left", "left", "left", "down", "left"], "actionTimes": [5417, 6237, 7068, 7856, 8997], "queries": {"click": {"state": {"target": [], "time": []}, "edge": {"target": [], "time": []}}, "mouseover": {"state": {"target": [], "time": []}, "edge": {"target": [], "time": []}}, "mouseout": {"state": {"target": [], "time": []}, "edge": {"target": [], "time": []}}}, "displayed_time": "16.98", "trialTime": 19126, "trial_type": "mouselab-mdp", "trial_index": 23, "time_elapsed": 874599, "internal_node_id": "0.0-4.0-1.0-8.0"}}, {"uniqueid": "w94871918:a83782250", "current_trial": 24, "dateTime": 1691143068529, "trialdata": {"revealed_states": [], "clicked_states": [], "num_clicks_accrued": [0, 0, 0, 0, 0, 0, 0, 0, 0, 0, 0, 0, 0], "stateRewards": ["", -2, 2, -5, -6, 10, -66, -58, -10, -11, -63, -70, -1, -4, -5, 7, 66, -64, -43, -3, 45, -37, 4, -2, -2, -6, -4, -30, 33, 43, 15, -32, -65, -59], "withholdReward": false, "trial_id": "mdp_trial_10", "block": "test", "trialIndex": 13, "score": -1, "costs": 0, "simulationMode": [null, null, null, null, null], "rewards": [-2, 2, -5, -6, 10], "path": ["0", "0", "1", "2", "3", "4", "5"], "rt": [1637, 120, 338, 681, 1948], "actions": ["up", "up", "up", "right", "up"], "actionTimes": [5805, 6459, 7346, 8556, 11260], "queries": {"click": {"state": {"target": [], "time": []}, "edge": {"target": [], "time": []}}, "mouseover": {"state": {"target": [], "time": []}, "edge": {"target": [], "time": []}}, "mouseout": {"state": {"target": [], "time": []}, "edge": {"target": [], "time": []}}}, "displayed_time": "18.17", "trialTime": 20308, "trial_type": "mouselab-mdp", "trial_index": 24, "time_elapsed": 896837, "internal_node_id": "0.0-4.0-1.0-9.0"}}, {"uniqueid": "w94871918:a83782250", "current_trial": 25, "dateTime": 1691143107571, "trialdata": {"revealed_states": [], "clicked_states": [], "num_clicks_accrued": [0, 0, 0, 0, 0, 0, 0, 0, 0, 0, 0, 0, 0], "stateRewards": ["", -2, -3, -6, -7, 9, 16, 65, 5, -41, 20, -25, -1, -4, 1, -11, -49, -4, 71, 1, 39, -62, 52, -2, -3, 7, -9, -28, -70, 84, 8, 24, -58, 82], "withholdReward": false, "trial_id": "mdp_trial_11", "block": "test", "trialIndex": 14, "score": 49, "costs": 0, "simulationMode": [null, null, null, null, null], "rewards": [-1, -4, 1, 1, 52], "path": ["0", "0", "12", "13", "14", "19", "22"], "rt": [1920, 600, 232, 418, 988], "actions": ["right", "right", "right", "down", "left"], "actionTimes": [22149, 23345, 24122, 25080, 26590], "queries": {"click": {"state": {"target": [], "time": []}, "edge": {"target": [], "time": []}}, "mouseover": {"state": {"target": [], "time": []}, "edge": {"target": [], "time": []}}, "mouseout": {"state": {"target": [], "time": []}, "edge": {"target": [], "time": []}}}, "displayed_time": "34.23", "trialTime": 36795, "trial_type": "mouselab-mdp", "trial_index": 25, "time_elapsed": 935889, "internal_node_id": "0.0-4.0-1.0-10.0"}}, {"uniqueid": "w94871918:a83782250", "current_trial": 26, "dateTime": 1691143140441, "trialdata": {"revealed_states": [], "clicked_states": [], "num_clicks_accrued": [0, 0, 0, 0, 0, 0, 0, 0, 0, 0, 0, 0, 0], "stateRewards": ["", -2, 4, 3, 5, -61, 4, 30, 1, -47, 83, 10, 1, 4, 7, -14, 19, -74, -83, 6, -2, -2, -65, -1, -2, 4, -11, 12, -1, -68, 11, -38, -28, 66], "withholdReward": false, "trial_id": "mdp_trial_12", "block": "test", "trialIndex": 15, "score": -26, "costs": 0, "simulationMode": [null, null, null, null, null], "rewards": [-1, -2, 4, 11, -38], "path": ["0", "0", "23", "24", "25", "30", "31"], "rt": [1829, 27, 321, 102, 156], "actions": ["left", "left", "left", "down", "right"], "actionTimes": [10372, 10928, 11771, 12416, 13106], "queries": {"click": {"state": {"target": [], "time": []}, "edge": {"target": [], "time": []}}, "mouseover": {"state": {"target": [], "time": []}, "edge": {"target": [], "time": []}}, "mouseout": {"state": {"target": [], "time": []}, "edge": {"target": [], "time": []}}}, "displayed_time": "22.55", "trialTime": 30883, "trial_type": "mouselab-mdp", "trial_index": 26, "time_elapsed": 968758, "internal_node_id": "0.0-4.0-1.0-11.0"}}, {"uniqueid": "w94871918:a83782250", "current_trial": 27, "dateTime": 1691143183551, "trialdata": {"revealed_states": [], "clicked_states": [], "num_clicks_accrued": [0, 0, 0, 0, 0, 0, 0, 0, 0, 0, 0, 0, 0], "stateRewards": ["", 2, 3, -6, -5, -3, 55, 40, 11, 61, 11, 51, 2, -4, -6, 9, -25, 29, -15, -6, 7, -77, -2, -2, -4, 1, 14, -43, -1, 56, -12, -54, 41, -74], "withholdReward": false, "trial_id": "mdp_trial_13", "block": "test", "trialIndex": 16, "score": -16, "costs": 0, "simulationMode": [null, null, null, null, null], "rewards": [2, -4, -6, -6, -2], "path": ["0", "0", "12", "13", "14", "19", "22"], "rt": [1392, 436, 296, 168, 761], "actions": ["right", "right", "right", "down", "left"], "actionTimes": [26094, 27138, 27974, 28682, 30017], "queries": {"click": {"state": {"target": [], "time": []}, "edge": {"target": [], "time": []}}, "mouseover": {"state": {"target": [], "time": []}, "edge": {"target": [], "time": []}}, "mouseout": {"state": {"target": ["0", "0", "12", "0", "0", "12", "1", "12"], "time": [11628, 16335, 16553, 19671, 22128, 22181, 22373, 22573]}, "edge": {"target": [], "time": []}}}, "displayed_time": "38.71", "trialTime": 41004, "trial_type": "mouselab-mdp", "trial_index": 27, "time_elapsed": 1011865, "internal_node_id": "0.0-4.0-1.0-12.0"}}, {"uniqueid": "w94871918:a83782250", "current_trial": 28, "dateTime": 1691143204648, "trialdata": {"revealed_states": [], "clicked_states": [], "num_clicks_accrued": [0, 0, 0, 0, 0, 0, 0, 0, 0, 0, 0, 0, 0], "stateRewards": ["", -1, 2, -2, 13, -56, -28, 10, 14, 53, -80, -29, 1, -3, -3, -14, 14, 9, -40, -9, 18, 18, 48, 1, 1, 1, -9, 64, -39, -9, 7, -52, -78, 7], "withholdReward": false, "trial_id": "mdp_trial_14", "block": "test", "trialIndex": 17, "score": -16, "costs": 0, "simulationMode": [null, null, null, null, null], "rewards": [-1, 2, -2, 14, -29], "path": ["0", "0", "1", "2", "3", "8", "11"], "rt": [3789, 159, 163, 1402, 90], "actions": ["up", "up", "up", "left", "left"], "actionTimes": [7272, 7970, 8682, 10602, 11222], "queries": {"click": {"state": {"target": [], "time": []}, "edge": {"target": [], "time": []}}, "mouseover": {"state": {"target": [], "time": []}, "edge": {"target": [], "time": []}}, "mouseout": {"state": {"target": ["0"], "time": [2037]}, "edge": {"target": [], "time": []}}}, "displayed_time": "17.48", "trialTime": 18811, "trial_type": "mouselab-mdp", "trial_index": 28, "time_elapsed": 1032967, "internal_node_id": "0.0-4.0-1.0-13.0"}}, {"uniqueid": "w94871918:a83782250", "current_trial": 29, "dateTime": 1691143244565, "trialdata": {"revealed_states": [], "clicked_states": [], "num_clicks_accrued": [0, 0, 0, 0, 0, 0, 0, 0, 0, 0, 0, 0, 0], "stateRewards": ["", 1, 1, -5, 10, -31, 73, 14, -8, -23, 63, -70, -1, 2, 8, 7, 25, -59, 27, -10, -40, -71, -15, -2, 3, -8, -5, -19, 77, -34, 7, 67, 63, 19], "withholdReward": false, "trial_id": "mdp_trial_15", "block": "test", "trialIndex": 18, "score": 67, "costs": 0, "simulationMode": [null, null, null, null, null], "rewards": [-2, 3, -8, 7, 67], "path": ["0", "0", "23", "24", "25", "30", "31"], "rt": [3293, 109, 100, 423, 513], "actions": ["left", "left", "left", "down", "right"], "actionTimes": [19997, 20629, 21267, 22215, 23263], "queries": {"click": {"state": {"target": [], "time": []}, "edge": {"target": [], "time": []}}, "mouseover": {"state": {"target": [], "time": []}, "edge": {"target": [], "time": []}}, "mouseout": {"state": {"target": ["0"], "time": [14718]}, "edge": {"target": [], "time": []}}}, "displayed_time": "30.70", "trialTime": 37644, "trial_type": "mouselab-mdp", "trial_index": 29, "time_elapsed": 1072879, "internal_node_id": "0.0-4.0-1.0-14.0"}}, {"uniqueid": "w94871918:a83782250", "current_trial": 30, "dateTime": 1691143272543, "trialdata": {"revealed_states": [], "clicked_states": [], "num_clicks_accrued": [0, 0, 0, 0, 0, 0, 0, 0, 0, 0, 0, 0, 0], "stateRewards": ["", 2, 3, 8, 14, 69, -27, 17, 2, -71, -65, -10, 2, -3, 7, 8, 65, -10, 65, -12, 73, -12, 13, -2, -2, 6, 10, -79, -69, -18, 10, -85, 67, 74], "withholdReward": false, "trial_id": "mdp_trial_16", "block": "test", "trialIndex": 19, "score": 79, "costs": 0, "simulationMode": [null, null, null, null, null], "rewards": [2, -3, 7, 8, 65], "path": ["0", "0", "12", "13", "14", "15", "18"], "rt": [11830, 24, 578, 629, 1380], "actions": ["right", "right", "right", "up", "left"], "actionTimes": [14166, 14757, 15869, 17038, 18939], "queries": {"click": {"state": {"target": [], "time": []}, "edge": {"target": [], "time": []}}, "mouseover": {"state": {"target": [], "time": []}, "edge": {"target": [], "time": []}}, "mouseout": {"state": {"target": [], "time": []}, "edge": {"target": [], "time": []}}}, "displayed_time": "19.48", "trialTime": 25768, "trial_type": "mouselab-mdp", "trial_index": 30, "time_elapsed": 1100856, "internal_node_id": "0.0-4.0-1.0-15.0"}}, {"uniqueid": "w94871918:a83782250", "current_trial": 31, "dateTime": 1691143303194, "trialdata": {"revealed_states": [], "clicked_states": [], "num_clicks_accrued": [0, 0, 0, 0, 0, 0, 0, 0, 0, 0, 0, 0, 0], "stateRewards": ["", 2, 4, 7, 7, -79, -2, -21, -5, -53, 47, -21, 1, -3, -1, 7, 83, 7, 84, -7, 80, -37, 69, 2, -4, 5, 2, 4, -20, -30, 7, 71, 44, -81], "withholdReward": false, "trial_id": "mdp_trial_17", "block": "test", "trialIndex": 20, "score": -15, "costs": 0, "simulationMode": [null, null, null, null, null], "rewards": [2, -4, 5, 2, -20], "path": ["0", "0", "23", "24", "25", "26", "28"], "rt": [3850, 161, 281, 192, 230], "actions": ["left", "left", "left", "up", "right"], "actionTimes": [14428, 15147, 15963, 16695, 17450], "queries": {"click": {"state": {"target": [], "time": []}, "edge": {"target": [], "time": []}}, "mouseover": {"state": {"target": [], "time": []}, "edge": {"target": [], "time": []}}, "mouseout": {"state": {"target": [], "time": []}, "edge": {"target": [], "time": []}}}, "displayed_time": "24.58", "trialTime": 28240, "trial_type": "mouselab-mdp", "trial_index": 31, "time_elapsed": 1131512, "internal_node_id": "0.0-4.0-1.0-16.0"}}, {"uniqueid": "w94871918:a83782250", "current_trial": 32, "dateTime": 1691143325726, "trialdata": {"revealed_states": [], "clicked_states": [], "num_clicks_accrued": [0, 0, 0, 0, 0, 0, 0, 0, 0, 0, 0, 0, 0], "stateRewards": ["", 1, -1, 8, 4, 76, -33, -17, -3, -1, -54, -74, -2, 2, -5, 13, -51, 63, 83, 1, 84, 29, -36, 2, -1, 7, -12, -10, -44, -43, -14, 8, -69, 19], "withholdReward": false, "trial_id": "mdp_trial_18", "block": "test", "trialIndex": 21, "score": 4, "costs": 0, "simulationMode": [null, null, null, null, null], "rewards": [1, -1, 8, -3, -1], "path": ["0", "0", "1", "2", "3", "8", "9"], "rt": [2013, 17, 209, 26, 880], "actions": ["up", "up", "up", "left", "up"], "actionTimes": [5041, 5629, 6389, 6936, 8360], "queries": {"click": {"state": {"target": [], "time": []}, "edge": {"target": [], "time": []}}, "mouseover": {"state": {"target": [], "time": []}, "edge": {"target": [], "time": []}}, "mouseout": {"state": {"target": [], "time": []}, "edge": {"target": [], "time": []}}}, "displayed_time": "17.03", "trialTime": 20184, "trial_type": "mouselab-mdp", "trial_index": 32, "time_elapsed": 1154042, "internal_node_id": "0.0-4.0-1.0-17.0"}}, {"uniqueid": "w94871918:a83782250", "current_trial": 33, "dateTime": 1691143354435, "trialdata": {"revealed_states": [], "clicked_states": [], "num_clicks_accrued": [0, 0, 0, 0, 0, 0, 0, 0, 0, 0, 0, 0, 0], "stateRewards": ["", -2, 3, 8, -9, 59, 41, -50, -1, 82, 66, 33, 2, -2, 7, 8, 1, -38, 12, -16, 24, -37, 67, 1, 4, -2, 5, 35, -83, 28, 8, -27, 69, -64], "withholdReward": false, "trial_id": "mdp_trial_19", "block": "test", "trialIndex": 22, "score": 27, "costs": 0, "simulationMode": [null, null, null, null, null], "rewards": [2, -2, 7, 8, 12], "path": ["0", "0", "12", "13", "14", "15", "18"], "rt": [1985, 77, 841, 283, 422], "actions": ["right", "right", "right", "up", "left"], "actionTimes": [4570, 5190, 6790, 7627, 8572], "queries": {"click": {"state": {"target": [], "time": []}, "edge": {"target": [], "time": []}}, "mouseover": {"state": {"target": [], "time": []}, "edge": {"target": [], "time": []}}, "mouseout": {"state": {"target": [], "time": []}, "edge": {"target": [], "time": []}}}, "displayed_time": "16.59", "trialTime": 26058, "trial_type": "mouselab-mdp", "trial_index": 33, "time_elapsed": 1182749, "internal_node_id": "0.0-4.0-1.0-18.0"}}, {"uniqueid": "w94871918:a83782250", "current_trial": 34, "dateTime": 1691143392079, "trialdata": {"revealed_states": [], "clicked_states": [], "num_clicks_accrued": [0, 0, 0, 0, 0, 0, 0, 0, 0, 0, 0, 0, 0], "stateRewards": ["", -2, -3, 8, 14, -73, 73, 84, -12, -2, -50, -17, 2, 1, -2, -9, -44, -27, -33, 16, -63, -47, -66, -2, 1, 4, -5, -33, -11, 50, 9, 38, -79, 31], "withholdReward": false, "trial_id": "mdp_trial_20", "block": "test", "trialIndex": 23, "score": -13, "costs": 0, "simulationMode": [null, null, null, null, null], "rewards": [-2, 1, 4, -5, -11], "path": ["0", "0", "23", "24", "25", "26", "28"], "rt": [2716, 388, 9, 621, 9], "actions": ["left", "left", "left", "up", "right"], "actionTimes": [13067, 13989, 14545, 15715, 16250], "queries": {"click": {"state": {"target": [], "time": []}, "edge": {"target": [], "time": []}}, "mouseover": {"state": {"target": [], "time": []}, "edge": {"target": [], "time": []}}, "mouseout": {"state": {"target": [], "time": []}, "edge": {"target": [], "time": []}}}, "displayed_time": "24.35", "trialTime": 35309, "trial_type": "mouselab-mdp", "trial_index": 34, "time_elapsed": 1220395, "internal_node_id": "0.0-4.0-1.0-19.0"}}, {"uniqueid": "w94871918:a83782250", "current_trial": 35, "dateTime": 1691143417842, "trialdata": {"revealed_states": [], "clicked_states": [], "num_clicks_accrued": [0, 0, 0, 0, 0, 0, 0, 0, 0, 0, 0, 0, 0], "stateRewards": ["", -2, -3, -5, 8, 27, 11, 43, -6, -24, -87, 69, -2, 1, 1, 9, 19, 48, -37, 9, -14, 45, 62, 1, 2, 1, 16, -81, -41, 22, 4, -6, -63, 47], "withholdReward": false, "trial_id": "mdp_trial_21", "block": "test", "trialIndex": 24, "score": 71, "costs": 0, "simulationMode": [null, null, null, null, null], "rewards": [-2, 1, 1, 9, 62], "path": ["0", "0", "12", "13", "14", "19", "22"], "rt": [1434, 210, 11, 698, 1130], "actions": ["right", "right", "right", "down", "left"], "actionTimes": [9474, 10219, 10750, 12009, 13667], "queries": {"click": {"state": {"target": [], "time": []}, "edge": {"target": [], "time": []}}, "mouseover": {"state": {"target": [], "time": []}, "edge": {"target": [], "time": []}}, "mouseout": {"state": {"target": [], "time": []}, "edge": {"target": [], "time": []}}}, "displayed_time": "22.04", "trialTime": 23464, "trial_type": "mouselab-mdp", "trial_index": 35, "time_elapsed": 1246157, "internal_node_id": "0.0-4.0-1.0-20.0"}}, {"uniqueid": "w94871918:a83782250", "current_trial": 36, "dateTime": 1691143442618, "trialdata": {"revealed_states": [], "clicked_states": [], "num_clicks_accrued": [0, 0, 0, 0, 0, 0, 0, 0, 0, 0, 0, 0, 0], "stateRewards": ["", -1, -4, -3, 1, -45, -67, -24, 14, 32, 22, 22, -1, 1, -5, -7, 72, 84, -79, -5, 19, -40, -2, -1, -2, 8, -3, 84, -25, -28, 11, 64, -66, 77], "withholdReward": false, "trial_id": "mdp_trial_22", "block": "test", "trialIndex": 25, "score": -52, "costs": 0, "simulationMode": [null, null, null, null, null], "rewards": [-1, -4, -3, 1, -45], "path": ["0", "0", "1", "2", "3", "4", "5"], "rt": [2100, 135, 1957, 12, 10], "actions": ["up", "up", "up", "right", "up"], "actionTimes": [9050, 9728, 12230, 12801, 13359], "queries": {"click": {"state": {"target": [], "time": []}, "edge": {"target": [], "time": []}}, "mouseover": {"state": {"target": [], "time": []}, "edge": {"target": [], "time": []}}, "mouseout": {"state": {"target": [], "time": []}, "edge": {"target": [], "time": []}}}, "displayed_time": "20.95", "trialTime": 22444, "trial_type": "mouselab-mdp", "trial_index": 36, "time_elapsed": 1270933, "internal_node_id": "0.0-4.0-1.0-21.0"}}, {"uniqueid": "w94871918:a83782250", "current_trial": 37, "dateTime": 1691143468611, "trialdata": {"revealed_states": [], "clicked_states": [], "num_clicks_accrued": [0, 0, 0, 0, 0, 0, 0, 0, 0, 0, 0, 0, 0], "stateRewards": ["", 2, -2, -8, 9, -20, 55, -58, 14, 42, 2, 36, 1, -3, -5, 5, -58, 57, 60, 16, 57, 30, -70, -2, 1, 3, 10, 59, 23, 77, -13, -26, 88, -72], "withholdReward": false, "trial_id": "mdp_trial_23", "block": "test", "trialIndex": 26, "score": 8, "costs": 0, "simulationMode": [null, null, null, null, null], "rewards": [2, -2, -8, 14, 2], "path": ["0", "0", "1", "2", "3", "8", "10"], "rt": [2285, 728, 192, 161, 361], "actions": ["up", "up", "up", "left", "down"], "actionTimes": [6338, 7609, 8327, 9019, 9905], "queries": {"click": {"state": {"target": [], "time": []}, "edge": {"target": [], "time": []}}, "mouseover": {"state": {"target": [], "time": []}, "edge": {"target": [], "time": []}}, "mouseout": {"state": {"target": [], "time": []}, "edge": {"target": [], "time": []}}}, "displayed_time": "18.06", "trialTime": 23673, "trial_type": "mouselab-mdp", "trial_index": 37, "time_elapsed": 1296930, "internal_node_id": "0.0-4.0-1.0-22.0"}}, {"uniqueid": "w94871918:a83782250", "current_trial": 38, "dateTime": 1691143491656, "trialdata": {"revealed_states": [], "clicked_states": [], "num_clicks_accrued": [0, 0, 0, 0, 0, 0, 0, 0, 0, 0, 0, 0, 0], "stateRewards": ["", -2, -3, -3, 9, 79, 67, 22, -15, -56, 27, -85, -2, 4, -4, -15, -20, -32, 60, 15, 71, 57, 17, 1, 2, -8, 15, -37, -81, 82, 15, 21, -3, 2], "withholdReward": false, "trial_id": "mdp_trial_24", "block": "test", "trialIndex": 27, "score": 84, "costs": 0, "simulationMode": [null, null, null, null, null], "rewards": [-2, 4, -4, 15, 71], "path": ["0", "0", "12", "13", "14", "19", "20"], "rt": [1538, 452, 280, 1164, 923], "actions": ["right", "right", "right", "down", "right"], "actionTimes": [4791, 5799, 6606, 8305, 9772], "queries": {"click": {"state": {"target": [], "time": []}, "edge": {"target": [], "time": []}}, "mouseover": {"state": {"target": [], "time": []}, "edge": {"target": [], "time": []}}, "mouseout": {"state": {"target": [], "time": []}, "edge": {"target": [], "time": []}}}, "displayed_time": "17.26", "trialTime": 20629, "trial_type": "mouselab-mdp", "trial_index": 38, "time_elapsed": 1319972, "internal_node_id": "0.0-4.0-1.0-23.0"}}, {"uniqueid": "w94871918:a83782250", "current_trial": 39, "dateTime": 1691143512732, "trialdata": {"revealed_states": [], "clicked_states": [], "num_clicks_accrued": [0, 0, 0, 0, 0, 0, 0, 0, 0, 0, 0, 0, 0], "stateRewards": ["", 2, 4, 7, -6, -76, -81, 2, 5, -66, -3, 36, -2, -4, 6, -2, -69, 4, -49, -6, 67, 38, -67, 2, 1, 1, 6, -68, -21, 52, -16, -16, 6, -70], "withholdReward": false, "trial_id": "mdp_trial_25", "block": "test", "trialIndex": 28, "score": -58, "costs": 0, "simulationMode": [null, null, null, null, null], "rewards": [2, 1, 1, 6, -68], "path": ["0", "0", "23", "24", "25", "26", "27"], "rt": [6540, 14, 13, 291, 47], "actions": ["left", "left", "left", "up", "up"], "actionTimes": [9417, 9942, 10529, 11370, 11970], "queries": {"click": {"state": {"target": [], "time": []}, "edge": {"target": [], "time": []}}, "mouseover": {"state": {"target": [], "time": []}, "edge": {"target": [], "time": []}}, "mouseout": {"state": {"target": [], "time": []}, "edge": {"target": [], "time": []}}}, "displayed_time": "16.88", "trialTime": 18509, "trial_type": "mouselab-mdp", "trial_index": 39, "time_elapsed": 1341047, "internal_node_id": "0.0-4.0-1.0-24.0"}}, {"uniqueid": "w94871918:a83782250", "current_trial": 40, "dateTime": 1691143533455, "trialdata": {"revealed_states": [], "clicked_states": [], "num_clicks_accrued": [0, 0, 0, 0, 0, 0, 0, 0, 0, 0, 0, 0, 0], "stateRewards": ["", -2, 2, 3, -7, -31, -33, 29, -8, -57, 50, -83, -1, -1, 5, 13, -23, -62, 25, 5, -66, -85, 14, 1, -2, -1, 16, 71, 33, -19, -14, 5, -43, 79], "withholdReward": false, "trial_id": "mdp_trial_26", "block": "test", "trialIndex": 29, "score": -37, "costs": 0, "simulationMode": [null, null, null, null, null], "rewards": [-2, 2, 3, -7, -33], "path": ["0", "0", "1", "2", "3", "4", "6"], "rt": [1059, 46, 12, 1244, 21], "actions": ["up", "up", "up", "right", "right"], "actionTimes": [3661, 4244, 4810, 6620, 7226], "queries": {"click": {"state": {"target": [], "time": []}, "edge": {"target": [], "time": []}}, "mouseover": {"state": {"target": [], "time": []}, "edge": {"target": [], "time": []}}, "mouseout": {"state": {"target": [], "time": []}, "edge": {"target": [], "time": []}}}, "displayed_time": "16.61", "trialTime": 17993, "trial_type": "mouselab-mdp", "trial_index": 40, "time_elapsed": 1361770, "internal_node_id": "0.0-4.0-1.0-25.0"}}, {"uniqueid": "w94871918:a83782250", "current_trial": 41, "dateTime": 1691143574346, "trialdata": {"revealed_states": [], "clicked_states": [], "num_clicks_accrued": [0, 0, 0, 0, 0, 0, 0, 0, 0, 0, 0, 0, 0], "stateRewards": ["", -2, -2, -3, -6, -15, -11, 41, -12, -63, -76, 2, -2, -3, 8, 9, -36, -2, -18, -16, -32, -85, -17, -2, 1, 5, -16, 82, 35, -88, -1, 80, -82, -20], "withholdReward": false, "trial_id": "mdp_trial_27", "block": "test", "trialIndex": 30, "score": 28, "costs": 0, "simulationMode": [null, null, null, null, null], "rewards": [-2, -2, -3, -6, 41], "path": ["0", "0", "1", "2", "3", "4", "7"], "rt": [1424, 192, 671, 584, 1157], "actions": ["up", "up", "up", "right", "down"], "actionTimes": [23743, 24471, 25677, 26790, 28499], "queries": {"click": {"state": {"target": [], "time": []}, "edge": {"target": [], "time": []}}, "mouseover": {"state": {"target": [], "time": []}, "edge": {"target": [], "time": []}}, "mouseout": {"state": {"target": [], "time": []}, "edge": {"target": [], "time": []}}}, "displayed_time": "36.33", "trialTime": 38360, "trial_type": "mouselab-mdp", "trial_index": 41, "time_elapsed": 1402664, "internal_node_id": "0.0-4.0-1.0-26.0"}}, {"uniqueid": "w94871918:a83782250", "current_trial": 42, "dateTime": 1691143598231, "trialdata": {"revealed_states": [], "clicked_states": [], "num_clicks_accrued": [0, 0, 0, 0, 0, 0, 0, 0, 0, 0, 0, 0, 0], "stateRewards": ["", -1, 1, -2, 5, 73, 15, 61, 8, 7, 38, 76, 2, 2, -4, -6, -6, -26, 43, -5, -45, -85, -35, -2, 1, -4, 15, -10, 69, 72, -11, 84, -49, -38], "withholdReward": false, "trial_id": "mdp_trial_28", "block": "test", "trialIndex": 31, "score": 68, "costs": 0, "simulationMode": [null, null, null, null, null], "rewards": [-2, 1, -4, -11, 84], "path": ["0", "0", "23", "24", "25", "30", "31"], "rt": [1668, 634, 214, 223, 50], "actions": ["left", "left", "left", "down", "right"], "actionTimes": [4472, 5642, 6388, 7136, 7721], "queries": {"click": {"state": {"target": [], "time": []}, "edge": {"target": [], "time": []}}, "mouseover": {"state": {"target": [], "time": []}, "edge": {"target": [], "time": []}}, "mouseout": {"state": {"target": [], "time": []}, "edge": {"target": [], "time": []}}}, "displayed_time": "16.81", "trialTime": 21153, "trial_type": "mouselab-mdp", "trial_index": 42, "time_elapsed": 1426546, "internal_node_id": "0.0-4.0-1.0-27.0"}}, {"uniqueid": "w94871918:a83782250", "current_trial": 43, "dateTime": 1691143622457, "trialdata": {"revealed_states": [], "clicked_states": [], "num_clicks_accrued": [0, 0, 0, 0, 0, 0, 0, 0, 0, 0, 0, 0, 0], "stateRewards": ["", -2, -4, 2, 10, -17, 18, 73, 11, -32, 23, -13, -2, -4, 7, 12, -25, 66, -23, 15, 40, -76, -9, 1, 2, -7, -5, -20, 24, 3, -5, 16, -73, 70], "withholdReward": false, "trial_id": "mdp_trial_29", "block": "test", "trialIndex": 32, "score": -6, "costs": 0, "simulationMode": [null, null, null, null, null], "rewards": [1, 2, -7, -5, 3], "path": ["0", "0", "23", "24", "25", "26", "29"], "rt": [1712, 422, 234, 916, 12], "actions": ["left", "left", "left", "up", "left"], "actionTimes": [4465, 5419, 6173, 7617, 8169], "queries": {"click": {"state": {"target": [], "time": []}, "edge": {"target": [], "time": []}}, "mouseover": {"state": {"target": [], "time": []}, "edge": {"target": [], "time": []}}, "mouseout": {"state": {"target": [], "time": []}, "edge": {"target": [], "time": []}}}, "displayed_time": "16.76", "trialTime": 21667, "trial_type": "mouselab-mdp", "trial_index": 43, "time_elapsed": 1450775, "internal_node_id": "0.0-4.0-1.0-28.0"}}, {"uniqueid": "w94871918:a83782250", "current_trial": 44, "dateTime": 1691143645286, "trialdata": {"revealed_states": [], "clicked_states": [], "num_clicks_accrued": [0, 0, 0, 0, 0, 0, 0, 0, 0, 0, 0, 0, 0], "stateRewards": ["", 1, -4, -6, 11, -20, 8, -30, 1, -38, 88, 42, 2, 3, 5, -12, -8, -74, 30, -8, 67, -19, 42, 2, -1, 4, 13, 50, -68, 2, -8, -15, 87, -46], "withholdReward": false, "trial_id": "mdp_trial_30", "block": "test", "trialIndex": 33, "score": 44, "costs": 0, "simulationMode": [null, null, null, null, null], "rewards": [2, 3, 5, -8, 42], "path": ["0", "0", "12", "13", "14", "19", "22"], "rt": [1346, 362, 213, 117, 160], "actions": ["right", "right", "right", "down", "left"], "actionTimes": [4642, 5569, 6320, 6962, 7647], "queries": {"click": {"state": {"target": [], "time": []}, "edge": {"target": [], "time": []}}, "mouseover": {"state": {"target": [], "time": []}, "edge": {"target": [], "time": []}}, "mouseout": {"state": {"target": [], "time": []}, "edge": {"target": [], "time": []}}}, "displayed_time": "17.30", "trialTime": 20402, "trial_type": "mouselab-mdp", "trial_index": 44, "time_elapsed": 1473601, "internal_node_id": "0.0-4.0-1.0-29.0"}}, {"uniqueid": "w94871918:a83782250", "current_trial": 45, "dateTime": 1691143666709, "trialdata": {"revealed_states": [], "clicked_states": [], "num_clicks_accrued": [0, 0, 0, 0, 0, 0, 0, 0, 0, 0, 0, 0, 0], "stateRewards": ["", 2, 2, 3, -15, 23, -14, 73, -7, -32, -20, -6, 1, 1, -5, -12, 73, 6, -84, 11, -81, -57, 13, -2, -1, -4, -8, -52, -58, 49, 13, 5, -41, -41], "withholdReward": false, "trial_id": "mdp_trial_31", "block": "test", "trialIndex": 34, "score": -20, "costs": 0, "simulationMode": [null, null, null, null, null], "rewards": [2, 2, 3, -7, -20], "path": ["0", "0", "1", "2", "3", "8", "10"], "rt": [1779, 189, 470, 992, 750], "actions": ["up", "up", "up", "left", "down"], "actionTimes": [4650, 5390, 6387, 7898, 9180], "queries": {"click": {"state": {"target": [], "time": []}, "edge": {"target": [], "time": []}}, "mouseover": {"state": {"target": [], "time": []}, "edge": {"target": [], "time": []}}, "mouseout": {"state": {"target": [], "time": []}, "edge": {"target": [], "time": []}}}, "displayed_time": "16.88", "trialTime": 18958, "trial_type": "mouselab-mdp", "trial_index": 45, "time_elapsed": 1495027, "internal_node_id": "0.0-4.0-1.0-30.0"}}, {"uniqueid": "w94871918:a83782250", "current_trial": 46, "dateTime": 1691143687453, "trialdata": {"revealed_states": [], "clicked_states": [], "num_clicks_accrued": [0, 0, 0, 0, 0, 0, 0, 0, 0, 0, 0, 0, 0], "stateRewards": ["", -1, 3, -5, -2, -13, -9, -34, -7, -81, 32, 35, -2, -2, 1, -14, -32, 81, 7, 4, 82, 56, -8, -1, 3, -8, 6, -24, -24, -53, 2, 38, 61, 54], "withholdReward": false, "trial_id": "mdp_trial_32", "block": "test", "trialIndex": 35, "score": -24, "costs": 0, "simulationMode": [null, null, null, null, null], "rewards": [-1, 3, -8, 6, -24], "path": ["0", "0", "23", "24", "25", "26", "28"], "rt": [1772, 13, 686, 702, 216], "actions": ["left", "left", "left", "up", "right"], "actionTimes": [4332, 4888, 6128, 7364, 8119], "queries": {"click": {"state": {"target": [], "time": []}, "edge": {"target": [], "time": []}}, "mouseover": {"state": {"target": [], "time": []}, "edge": {"target": [], "time": []}}, "mouseout": {"state": {"target": [], "time": []}, "edge": {"target": [], "time": []}}}, "displayed_time": "16.57", "trialTime": 18359, "trial_type": "mouselab-mdp", "trial_index": 46, "time_elapsed": 1515768, "internal_node_id": "0.0-4.0-1.0-31.0"}}, {"uniqueid": "w94871918:a83782250", "current_trial": 47, "dateTime": 1691143712208, "trialdata": {"revealed_states": [], "clicked_states": [], "num_clicks_accrued": [0, 0, 0, 0, 0, 0, 0, 0, 0, 0, 0, 0, 0], "stateRewards": ["", -2, -1, -5, 10, -36, -70, 68, -9, 86, 71, -10, 2, -4, 7, -7, 66, 44, -66, -13, -69, 43, 15, -2, 2, 6, -13, 62, 57, 50, -10, -69, 42, -72], "withholdReward": false, "trial_id": "mdp_trial_33", "block": "test", "trialIndex": 36, "score": 55, "costs": 0, "simulationMode": [null, null, null, null, null], "rewards": [-2, 2, 6, -13, 62], "path": ["0", "0", "23", "24", "25", "26", "27"], "rt": [1885, 55, 113, 722, 75], "actions": ["left", "left", "left", "up", "up"], "actionTimes": [8716, 9329, 10028, 11303, 11980], "queries": {"click": {"state": {"target": [], "time": []}, "edge": {"target": [], "time": []}}, "mouseover": {"state": {"target": [], "time": []}, "edge": {"target": [], "time": []}}, "mouseout": {"state": {"target": [], "time": []}, "edge": {"target": [], "time": []}}}, "displayed_time": "20.84", "trialTime": 22071, "trial_type": "mouselab-mdp", "trial_index": 47, "time_elapsed": 1540525, "internal_node_id": "0.0-4.0-1.0-32.0"}}, {"uniqueid": "w94871918:a83782250", "current_trial": 48, "dateTime": 1691143734596, "trialdata": {"revealed_states": [], "clicked_states": [], "num_clicks_accrued": [0, 0, 0, 0, 0, 0, 0, 0, 0, 0, 0, 0, 0], "stateRewards": ["", -2, -1, -6, -14, -55, 78, -13, 11, 14, -71, 59, 2, 2, 6, -6, 9, 38, 14, 7, 85, 11, 68, 1, -4, -1, -3, -63, -85, 9, -2, 63, -86, -10], "withholdReward": false, "trial_id": "mdp_trial_34", "block": "test", "trialIndex": 37, "score": 16, "costs": 0, "simulationMode": [null, null, null, null, null], "rewards": [-2, -1, -6, 11, 14], "path": ["0", "0", "1", "2", "3", "8", "9"], "rt": [1457, 120, 26, 1233, 416], "actions": ["up", "up", "up", "left", "up"], "actionTimes": [4670, 5339, 5892, 7675, 8618], "queries": {"click": {"state": {"target": [], "time": []}, "edge": {"target": [], "time": []}}, "mouseover": {"state": {"target": [], "time": []}, "edge": {"target": [], "time": []}}, "mouseout": {"state": {"target": [], "time": []}, "edge": {"target": [], "time": []}}}, "displayed_time": "17.22", "trialTime": 19756, "trial_type": "mouselab-mdp", "trial_index": 48, "time_elapsed": 1562911, "internal_node_id": "0.0-4.0-1.0-33.0"}}, {"uniqueid": "w94871918:a83782250", "current_trial": 49, "dateTime": 1691143756032, "trialdata": {"revealed_states": [], "clicked_states": [], "num_clicks_accrued": [0, 0, 0, 0, 0, 0, 0, 0, 0, 0, 0, 0, 0], "stateRewards": ["", -1, -3, -6, -2, -7, 80, -45, -3, -38, -72, 76, 2, 1, 7, 4, -62, 14, -74, 14, -87, -21, -88, -2, 1, -7, -10, 66, 56, -76, 10, -29, -72, -70], "withholdReward": false, "trial_id": "mdp_trial_35", "block": "test", "trialIndex": 38, "score": -57, "costs": 0, "simulationMode": [null, null, null, null, null], "rewards": [-1, -3, -6, -2, -45], "path": ["0", "0", "1", "2", "3", "4", "7"], "rt": [1633, 62, 27, 374, 15], "actions": ["up", "up", "up", "right", "down"], "actionTimes": [4784, 5406, 6047, 6991, 7524], "queries": {"click": {"state": {"target": [], "time": []}, "edge": {"target": [], "time": []}}, "mouseover": {"state": {"target": [], "time": []}, "edge": {"target": [], "time": []}}, "mouseout": {"state": {"target": [], "time": []}, "edge": {"target": [], "time": []}}}, "displayed_time": "17.16", "trialTime": 18839, "trial_type": "mouselab-mdp", "trial_index": 49, "time_elapsed": 1584347, "internal_node_id": "0.0-4.0-1.0-34.0"}}, {"uniqueid": "w94871918:a83782250", "current_trial": 50, "dateTime": 1691143777859, "trialdata": {"revealed_states": [], "clicked_states": [], "num_clicks_accrued": [0, 0, 0, 0, 0, 0, 0, 0, 0, 0, 0, 0, 0], "stateRewards": ["", -2, 2, 5, -14, -56, 64, 84, -5, 52, 39, 85, -2, 1, 7, 8, 21, 29, -78, -9, -10, -69, 10, -2, -1, -7, 15, 72, 20, 41, -2, 52, 80, 22], "withholdReward": false, "trial_id": "mdp_trial_36", "block": "test", "trialIndex": 39, "score": 40, "costs": 0, "simulationMode": [null, null, null, null, null], "rewards": [-2, -1, -7, -2, 52], "path": ["0", "0", "23", "24", "25", "30", "31"], "rt": [2220, 94, 478, 181, 121], "actions": ["left", "left", "left", "down", "right"], "actionTimes": [5605, 6232, 7247, 7951, 8616], "queries": {"click": {"state": {"target": [], "time": []}, "edge": {"target": [], "time": []}}, "mouseover": {"state": {"target": [], "time": []}, "edge": {"target": [], "time": []}}, "mouseout": {"state": {"target": [], "time": []}, "edge": {"target": [], "time": []}}}, "displayed_time": "17.39", "trialTime": 19093, "trial_type": "mouselab-mdp", "trial_index": 50, "time_elapsed": 1606174, "internal_node_id": "0.0-4.0-1.0-35.0"}}, {"uniqueid": "w94871918:a83782250", "current_trial": 51, "dateTime": 1691143802080, "trialdata": {"revealed_states": [], "clicked_states": [], "num_clicks_accrued": [0, 0, 0, 0, 0, 0, 0, 0, 0, 0, 0, 0, 0], "stateRewards": ["", 1, -3, -4, -11, -56, 61, -47, -16, -28, -9, 69, -2, -3, -4, -8, 40, -86, 59, -4, 80, 27, 54, -1, 3, -1, 8, 67, 23, 50, 6, 83, -43, -29], "withholdReward": false, "trial_id": "mdp_trial_37", "block": "test", "trialIndex": 40, "score": 44, "costs": 0, "simulationMode": [null, null, null, null, null], "rewards": [1, -3, -4, -11, 61], "path": ["0", "0", "1", "2", "3", "4", "6"], "rt": [1725, 67, 16, 1289, 115], "actions": ["up", "up", "up", "right", "right"], "actionTimes": [5134, 5748, 6305, 8151, 8805], "queries": {"click": {"state": {"target": [], "time": []}, "edge": {"target": [], "time": []}}, "mouseover": {"state": {"target": [], "time": []}, "edge": {"target": [], "time": []}}, "mouseout": {"state": {"target": [], "time": []}, "edge": {"target": [], "time": []}}}, "displayed_time": "17.41", "trialTime": 21602, "trial_type": "mouselab-mdp", "trial_index": 51, "time_elapsed": 1630395, "internal_node_id": "0.0-4.0-1.0-36.0"}}, {"uniqueid": "w94871918:a83782250", "current_trial": 52, "dateTime": 1691143823335, "trialdata": {"revealed_states": [], "clicked_states": [], "num_clicks_accrued": [0, 0, 0, 0, 0, 0, 0, 0, 0, 0, 0, 0, 0], "stateRewards": ["", -2, -4, -8, 8, 63, -50, -19, -7, -17, -31, 31, 1, 3, -5, 12, -35, -63, -29, -4, -17, -75, -79, -2, -3, -2, 8, -3, -85, 10, -2, -82, -82, 56], "withholdReward": false, "trial_id": "mdp_trial_38", "block": "test", "trialIndex": 41, "score": -22, "costs": 0, "simulationMode": [null, null, null, null, null], "rewards": [1, 3, -5, -4, -17], "path": ["0", "0", "12", "13", "14", "19", "20"], "rt": [2478, 68, 574, 174, 127], "actions": ["right", "right", "right", "down", "right"], "actionTimes": [5610, 6230, 7339, 8033, 8716], "queries": {"click": {"state": {"target": [], "time": []}, "edge": {"target": [], "time": []}}, "mouseover": {"state": {"target": [], "time": []}, "edge": {"target": [], "time": []}}, "mouseout": {"state": {"target": [], "time": []}, "edge": {"target": [], "time": []}}}, "displayed_time": "17.13", "trialTime": 18614, "trial_type": "mouselab-mdp", "trial_index": 52, "time_elapsed": 1651651, "internal_node_id": "0.0-4.0-1.0-37.0"}}, {"uniqueid": "w94871918:a83782250", "current_trial": 53, "dateTime": 1691143844675, "trialdata": {"revealed_states": [], "clicked_states": [], "num_clicks_accrued": [0, 0, 0, 0, 0, 0, 0, 0, 0, 0, 0, 0, 0], "stateRewards": ["", -1, 3, -7, 16, -32, -74, -48, 2, 10, 15, -30, 1, 1, -2, 10, 12, -83, 67, 13, -66, 47, 65, -2, 4, 2, -14, -8, -57, 24, 9, 65, 12, 46], "withholdReward": false, "trial_id": "mdp_trial_39", "block": "test", "trialIndex": 42, "score": 78, "costs": 0, "simulationMode": [null, null, null, null, null], "rewards": [1, 1, -2, 13, 65], "path": ["0", "0", "12", "13", "14", "19", "22"], "rt": [2467, 201, 351, 29, 284], "actions": ["right", "right", "right", "down", "left"], "actionTimes": [5773, 6532, 7423, 7990, 8805], "queries": {"click": {"state": {"target": [], "time": []}, "edge": {"target": [], "time": []}}, "mouseover": {"state": {"target": [], "time": []}, "edge": {"target": [], "time": []}}, "mouseout": {"state": {"target": [], "time": []}, "edge": {"target": [], "time": []}}}, "displayed_time": "17.31", "trialTime": 18757, "trial_type": "mouselab-mdp", "trial_index": 53, "time_elapsed": 1672990, "internal_node_id": "0.0-4.0-1.0-38.0"}}, {"uniqueid": "w94871918:a83782250", "current_trial": 54, "dateTime": 1691143866648, "trialdata": {"revealed_states": [], "clicked_states": [], "num_clicks_accrued": [0, 0, 0, 0, 0, 0, 0, 0, 0, 0, 0, 0, 0], "stateRewards": ["", 2, -1, 3, -12, -83, 6, -33, 9, 28, 24, -50, -2, -1, -2, -5, -87, 37, 82, 12, 80, -5, 10, -2, -3, -6, 9, 22, -1, 16, 9, 77, -62, 58], "withholdReward": false, "trial_id": "mdp_trial_40", "block": "test", "trialIndex": 43, "score": 56, "costs": 0, "simulationMode": [null, null, null, null, null], "rewards": [-2, -3, -6, 9, 58], "path": ["0", "0", "23", "24", "25", "30", "33"], "rt": [1483, 128, 15, 170, 136], "actions": ["left", "left", "left", "down", "left"], "actionTimes": [4668, 5316, 5868, 6588, 7256], "queries": {"click": {"state": {"target": [], "time": []}, "edge": {"target": [], "time": []}}, "mouseover": {"state": {"target": [], "time": []}, "edge": {"target": [], "time": []}}, "mouseout": {"state": {"target": [], "time": []}, "edge": {"target": [], "time": []}}}, "displayed_time": "17.19", "trialTime": 19216, "trial_type": "mouselab-mdp", "trial_index": 54, "time_elapsed": 1694962, "internal_node_id": "0.0-4.0-1.0-39.0"}}, {"uniqueid": "w94871918:a83782250", "current_trial": 55, "dateTime": 1691143966504, "trialdata": {"rt": 99059, "response": {"Q0": "$-2 to $2", "Q1": "$-32 to $32", "Q2": "$-88 to $88", "Q3": "There was no cost for clicking on nodes.", "Q4": "Very motivated"}, "question_order": [0, 1, 2, 3, 4], "trial_id": "final_quiz_control", "trial_type": "survey-multi-choice", "trial_index": 55, "time_elapsed": 1794820, "internal_node_id": "0.0-4.0-2.0"}}, {"uniqueid": "w94871918:a83782250", "current_trial": 56, "dateTime": 1691144029555, "trialdata": {"rt": 62350, "response": {"Q0": "I usually gained more points when I  chose the arrows that points towards the center", "Q1": "No", "Q2": "moderate"}, "trial_id": "self_report_control", "trial_type": "survey-text", "trial_index": 56, "time_elapsed": 1857874, "internal_node_id": "0.0-4.0-3.0"}}, {"uniqueid": "w94871918:a83782250", "current_trial": 57, "dateTime": 1691144058277, "trialdata": {"rt": 28610, "response": {"gender": "female", "age": "22", "colorblind": "0", "effort": "0"}, "trial_type": "survey-html-form", "trial_index": 57, "time_elapsed": 1886596, "internal_node_id": "0.0-4.0-4.0"}}, {"uniqueid": "w94871918:a83782250", "current_trial": 58, "dateTime": 1691144088400, "trialdata": {"rt": 30063, "response": {"Q0": "no", "Q1": "No I have never participated", "Q2": ""}, "trial_type": "survey-text", "trial_index": 58, "time_elapsed": 1916720, "internal_node_id": "0.0-4.0-5.0"}}, {"uniqueid": "w94871918:a83782250", "current_trial": 59, "dateTime": 1691144091834, "trialdata": {"rt": 3342, "stimulus": "Press 'Finish HIT' in order to reach the completion code. Once the data has been saved, you will receive the code either in this window or in the original browser window where you started the experiment.\n", "response": 0, "trial_type": "html-button-response", "trial_index": 59, "time_elapsed": 1920154, "internal_node_id": "0.0-5.0"}}, {"uniqueid": "w94871918:a83782250", "current_trial": 60, "dateTime": 1691144092880, "trialdata": {"success": true, "trial_type": "fullscreen", "trial_index": 60, "time_elapsed": 1921199, "internal_node_id": "0.0-6.0"}}], "questiondata": {"params": {"CODE": "C6DMOQA6", "MIN_TIME": 14, "inspectCost": 1, "startTime": "Fri Aug 04 2023 11:42:49 GMT+0200 (South Africa Standard Time)", "bonusRate": 0.002, "variance": "1_2_4_8_44", "branching": "31123"}}, "eventdata": [{"eventtype": "initialized", "value": null, "timestamp": 1691142168661, "interval": 0}, {"eventtype": "window_resize", "value": [1024, 654], "timestamp": 1691142168661, "interval": 0}, {"eventtype": "window_resize", "value": [1024, 654], "timestamp": 1691142169245, "interval": 584}, {"eventtype": "window_resize", "value": [1366, 670], "timestamp": 1691142180347, "interval": 11102}, {"eventtype": "window_resize", "value": [1366, 768], "timestamp": 1691142187008, "interval": 6661}, {"eventtype": "focus", "value": "off", "timestamp": 1691142607594, "interval": 420586}, {"eventtype": "focus", "value": "on", "timestamp": 1691142607596, "interval": 2}, {"eventtype": "window_resize", "value": [1366, 670], "timestamp": 1691142607861, "interval": 265}, {"eventtype": "window_resize", "value": [1366, 768], "timestamp": 1691142611011, "interval": 3150}], "useragent": "Mozilla/5.0 (Windows NT 10.0; Win64; x64) AppleWebKit/537.36 (KHTML, like Gecko) Chrome/115.0.0.0 Safari/537.36", "mode": "live", "id": "w94871918:a83782250", "status": "user data saved", "Beginhit": "2023-08-04 09:42:45.527357", "Beginexp": "2023-08-04 09:43:09.759006", "Endhit": "2023-08-04 10:14:57.449263", "psiturkStatus": 3, "browser": "<redacted>", "platform": "windows", "language": "en-US"}