{"condition": 1, "counterbalance": 0, "assignmentId": "a36222086", "workerId": "w66708417", "hitId": "h34991094", "currenttrial": 68, "bonus": 0, "data": [{"uniqueid": "w66708417:a36222086", "current_trial": 0, "dateTime": 1693565077956, "trialdata": {"success": true, "trial_type": "fullscreen", "trial_index": 0, "time_elapsed": 89315, "internal_node_id": "0.0-0.0"}}, {"uniqueid": "w66708417:a36222086", "current_trial": 1, "dateTime": 1693565121718, "trialdata": {"view_history": [{"page_index": 0, "viewing_time": 43748}], "rt": 43750, "trial_id": "exp_instructions_misaligned", "trial_type": "instructions", "trial_index": 1, "time_elapsed": 133077, "internal_node_id": "0.0-1.0"}}, {"uniqueid": "w66708417:a36222086", "current_trial": 2, "dateTime": 1693566167397, "trialdata": {"view_history": [{"page_index": 0, "viewing_time": 346378}, {"page_index": 1, "viewing_time": 660651}, {"page_index": 2, "viewing_time": 19346}, {"page_index": 3, "viewing_time": 19302}], "rt": 1045676, "trial_id": "mouselab_instructions_1_misaligned", "trial_type": "instructions", "trial_index": 2, "time_elapsed": 1178757, "internal_node_id": "0.0-2.0-1.0"}}, {"uniqueid": "w66708417:a36222086", "current_trial": 3, "dateTime": 1693566186365, "trialdata": {"revealed_states": [], "clicked_states": [], "num_clicks_accrued": [0, 0, 0, 0, 0, 0, 0, 0, 0, 0, 0, 0, 0], "stateRewards": ["", -10, 10, 10, 10, 10, 10, -10, 10, -10, -10, 10, 10, -10, -10, 10, 10, 10, 10, -10, -10, 10, -10, 10, 10, 10, 10, -10, -10, 10, 10, 10, -10, 10], "withholdReward": false, "trial_id": "practice_1", "block": "test", "trialIndex": 0, "score": 33.5, "costs": 0, "simulationMode": [null, null, null, null, null], "rewards": [-10, 10, 10, 10, 10], "path": ["0", "0", "1", "2", "3", "4", "5"], "rt": [2965, 790, 1639, 367, 1203], "actions": ["up", "up", "up", "right", "up"], "actionTimes": [5266, 6587, 8750, 9644, 11368], "queries": {"click": {"state": {"target": [], "time": []}, "edge": {"target": [], "time": []}}, "mouseover": {"state": {"target": ["1"], "time": [3380]}, "edge": {"target": [], "time": []}}, "mouseout": {"state": {"target": ["0"], "time": [1118]}, "edge": {"target": [], "time": []}}}, "displayed_time": "11.89", "trialTime": 17639, "trial_type": "mouselab-mdp", "trial_index": 3, "time_elapsed": 1197723, "internal_node_id": "0.0-2.0-2.0-0.0"}}, {"uniqueid": "w66708417:a36222086", "current_trial": 4, "dateTime": 1693566207715, "trialdata": {"revealed_states": [], "clicked_states": [], "num_clicks_accrued": [0, 0, 0, 0, 0, 0, 0, 0, 0, 0, 0, 0, 0], "stateRewards": ["", 10, 10, 10, -10, -10, 10, -10, 10, 10, -10, 10, 10, 10, 10, -10, 10, -10, 10, 10, 10, 10, -10, -10, -10, 10, -10, -10, 10, -10, -10, 10, 10, 10], "withholdReward": false, "trial_id": "practice_2", "block": "test", "trialIndex": 1, "score": 53.5, "costs": 0, "simulationMode": [null, null, null, null, null], "rewards": [10, 10, 10, 10, 10], "path": ["0", "0", "12", "13", "14", "19", "21"], "rt": [3958, 2010, 2884, 1049, 426], "actions": ["right", "right", "right", "down", "down"], "actionTimes": [8107, 10644, 14052, 15629, 16570], "queries": {"click": {"state": {"target": [], "time": []}, "edge": {"target": [], "time": []}}, "mouseover": {"state": {"target": [], "time": []}, "edge": {"target": [], "time": []}}, "mouseout": {"state": {"target": ["1", "0"], "time": [3300, 11810]}, "edge": {"target": [], "time": []}}}, "displayed_time": "17.09", "trialTime": 20941, "trial_type": "mouselab-mdp", "trial_index": 4, "time_elapsed": 1219072, "internal_node_id": "0.0-2.0-2.0-1.0"}}, {"uniqueid": "w66708417:a36222086", "current_trial": 5, "dateTime": 1693566257148, "trialdata": {"view_history": [{"page_index": 0, "viewing_time": 39979}, {"page_index": 1, "viewing_time": 9443}], "rt": 49423, "trial_id": "mouselab_instructions_2_misaligned", "trial_type": "instructions", "trial_index": 5, "time_elapsed": 1268508, "internal_node_id": "0.0-2.0-3.0"}}, {"uniqueid": "w66708417:a36222086", "current_trial": 6, "dateTime": 1693566320028, "trialdata": {"rt": 62871, "response": {"Q0": "There is no cost for clicking on nodes.", "Q1": "The better I perform the higher my bonus will be.", "Q2": "No, the structure of the web will be different each time.", "Q3": "To get the highest total score.", "Q4": "Only before moving the spider.", "Q5": "3 seconds"}, "question_order": [0, 1, 2, 3, 4, 5], "correct": {"Q0": "The cost for clicking on nodes may vary between nodes.", "Q1": "The better I perform the higher my bonus will be.", "Q2": "No, the amount of cash at each node of the web may be different each time.", "Q3": "To get the highest total score.", "Q4": "Only before moving the spider.", "Q5": "3 seconds"}, "trial_id": "mouselab_quiz_misaligned", "trial_type": "survey-multi-choice", "trial_index": 6, "time_elapsed": 1331388, "internal_node_id": "0.0-2.0-4.0"}}, {"uniqueid": "w66708417:a36222086", "current_trial": 7, "dateTime": 1693566336334, "trialdata": {"success": true, "trial_type": "fullscreen", "trial_index": 7, "time_elapsed": 1347693, "internal_node_id": "0.0-2.1-0.1-0.1"}}, {"uniqueid": "w66708417:a36222086", "current_trial": 8, "dateTime": 1693566364323, "trialdata": {"view_history": [{"page_index": 0, "viewing_time": 7831}, {"page_index": 1, "viewing_time": 5306}, {"page_index": 2, "viewing_time": 7653}, {"page_index": 3, "viewing_time": 7190}], "rt": 27980, "trial_id": "mouselab_instructions_1_misaligned", "trial_type": "instructions", "trial_index": 8, "time_elapsed": 1375683, "internal_node_id": "0.0-2.1-1.1"}}, {"uniqueid": "w66708417:a36222086", "current_trial": 9, "dateTime": 1693566382226, "trialdata": {"revealed_states": [], "clicked_states": ["23"], "num_clicks_accrued": [0, 0, 0, 0, 0, 0, 0, 0, 0, 0, 0, 0, 0], "stateRewards": ["", -10, 10, 10, 10, 10, 10, -10, 10, -10, -10, 10, 10, -10, -10, 10, 10, 10, 10, -10, -10, 10, -10, 10, 10, 10, 10, -10, -10, 10, 10, 10, -10, 10], "withholdReward": false, "trial_id": "practice_1", "block": "test", "trialIndex": 2, "score": 13, "costs": -0.5, "simulationMode": [null, null, null, null, null], "rewards": [10, -10, -10, 10, 10], "path": ["0", "0", "12", "13", "14", "15", "17"], "rt": [5995, 557, 358, 678, 912], "actions": ["right", "right", "right", "up", "right"], "actionTimes": [10266, 11339, 12223, 13421, 14855], "queries": {"click": {"state": {"target": ["23"], "time": [5276]}, "edge": {"target": [], "time": []}}, "mouseover": {"state": {"target": ["23", "12"], "time": [4392, 6674]}, "edge": {"target": [], "time": []}}, "mouseout": {"state": {"target": ["0", "23", "12"], "time": [4345, 5364, 16345]}, "edge": {"target": [], "time": []}}}, "displayed_time": "15.38", "trialTime": 17472, "trial_type": "mouselab-mdp", "trial_index": 9, "time_elapsed": 1393583, "internal_node_id": "0.0-2.1-2.1-0.1"}}, {"uniqueid": "w66708417:a36222086", "current_trial": 10, "dateTime": 1693566402750, "trialdata": {"revealed_states": [], "clicked_states": ["1"], "num_clicks_accrued": [0, 0, 0, 0, 0, 0, 0, 0, 0, 0, 0, 0, 0], "stateRewards": ["", 10, 10, 10, -10, -10, 10, -10, 10, 10, -10, 10, 10, 10, 10, -10, 10, -10, 10, 10, 10, 10, -10, -10, -10, 10, -10, -10, 10, -10, -10, 10, 10, 10], "withholdReward": false, "trial_id": "practice_2", "block": "test", "trialIndex": 3, "score": 53, "costs": -0.5, "simulationMode": [null, null, null, null, null], "rewards": [10, 10, 10, 10, 10], "path": ["0", "0", "1", "2", "3", "8", "9"], "rt": [4777, 183, 214, 500, 916], "actions": ["up", "up", "up", "left", "up"], "actionTimes": [7832, 8544, 9274, 10292, 11726], "queries": {"click": {"state": {"target": ["1"], "time": [5113]}, "edge": {"target": [], "time": []}}, "mouseover": {"state": {"target": ["12", "1"], "time": [3976, 4576]}, "edge": {"target": [], "time": []}}, "mouseout": {"state": {"target": ["0", "0", "12", "1", "1", "10", "8", "3"], "time": [2687, 3472, 4458, 6010, 19014, 19114, 19133, 19493]}, "edge": {"target": [], "time": []}}}, "displayed_time": "12.24", "trialTime": 20126, "trial_type": "mouselab-mdp", "trial_index": 10, "time_elapsed": 1414108, "internal_node_id": "0.0-2.1-2.1-1.1"}}, {"uniqueid": "w66708417:a36222086", "current_trial": 11, "dateTime": 1693566408811, "trialdata": {"view_history": [{"page_index": 0, "viewing_time": 4637}, {"page_index": 1, "viewing_time": 1416}], "rt": 6053, "trial_id": "mouselab_instructions_2_misaligned", "trial_type": "instructions", "trial_index": 11, "time_elapsed": 1420171, "internal_node_id": "0.0-2.1-3.1"}}, {"uniqueid": "w66708417:a36222086", "current_trial": 12, "dateTime": 1693566430063, "trialdata": {"rt": 21246, "response": {"Q0": "The cost for clicking on nodes may vary between nodes.", "Q1": "The better I perform the higher my bonus will be.", "Q2": "No, the structure of the web will be different each time.", "Q3": "To get the highest total score.", "Q4": "Only before moving the spider.", "Q5": "3 seconds"}, "question_order": [0, 1, 2, 3, 4, 5], "correct": {"Q0": "The cost for clicking on nodes may vary between nodes.", "Q1": "The better I perform the higher my bonus will be.", "Q2": "No, the amount of cash at each node of the web may be different each time.", "Q3": "To get the highest total score.", "Q4": "Only before moving the spider.", "Q5": "3 seconds"}, "trial_id": "mouselab_quiz_misaligned", "trial_type": "survey-multi-choice", "trial_index": 12, "time_elapsed": 1441423, "internal_node_id": "0.0-2.1-4.1"}}, {"uniqueid": "w66708417:a36222086", "current_trial": 13, "dateTime": 1693566458153, "trialdata": {"success": true, "trial_type": "fullscreen", "trial_index": 13, "time_elapsed": 1469513, "internal_node_id": "0.0-2.2-0.2-0.2"}}, {"uniqueid": "w66708417:a36222086", "current_trial": 14, "dateTime": 1693566614066, "trialdata": {"view_history": [{"page_index": 0, "viewing_time": 72919}, {"page_index": 1, "viewing_time": 19741}, {"page_index": 2, "viewing_time": 30805}, {"page_index": 3, "viewing_time": 32438}], "rt": 155903, "trial_id": "mouselab_instructions_1_misaligned", "trial_type": "instructions", "trial_index": 14, "time_elapsed": 1625425, "internal_node_id": "0.0-2.2-1.2"}}, {"uniqueid": "w66708417:a36222086", "current_trial": 15, "dateTime": 1693566628710, "trialdata": {"revealed_states": [], "clicked_states": ["23"], "num_clicks_accrued": [0, 0, 0, 0, 0, 0, 0, 0, 0, 0, 0, 0, 0], "stateRewards": ["", -10, 10, 10, 10, 10, 10, -10, 10, -10, -10, 10, 10, -10, -10, 10, 10, 10, 10, -10, -10, 10, -10, 10, 10, 10, 10, -10, -10, 10, 10, 10, -10, 10], "withholdReward": false, "trial_id": "practice_1", "block": "test", "trialIndex": 4, "score": 33, "costs": -0.5, "simulationMode": [null, null, null, null, null], "rewards": [10, 10, 10, 10, -10], "path": ["0", "0", "23", "24", "25", "26", "27"], "rt": [4317, 215, 41, 1533, 122], "actions": ["left", "left", "left", "up", "up"], "actionTimes": [6833, 7572, 8125, 10205, 10857], "queries": {"click": {"state": {"target": ["23"], "time": [4350]}, "edge": {"target": [], "time": []}}, "mouseover": {"state": {"target": ["1", "23", "0"], "time": [3184, 3969, 5869]}, "edge": {"target": [], "time": []}}, "mouseout": {"state": {"target": ["0", "1", "23", "0", "22", "21"], "time": [3060, 3694, 4468, 12822, 12878, 12927]}, "edge": {"target": [], "time": []}}}, "displayed_time": "11.39", "trialTime": 14190, "trial_type": "mouselab-mdp", "trial_index": 15, "time_elapsed": 1640068, "internal_node_id": "0.0-2.2-2.2-0.2"}}, {"uniqueid": "w66708417:a36222086", "current_trial": 16, "dateTime": 1693566640069, "trialdata": {"revealed_states": [], "clicked_states": ["12"], "num_clicks_accrued": [0, 0, 0, 0, 0, 0, 0, 0, 0, 0, 0, 0, 0], "stateRewards": ["", 10, 10, 10, -10, -10, 10, -10, 10, 10, -10, 10, 10, 10, 10, -10, 10, -10, 10, 10, 10, 10, -10, -10, -10, 10, -10, -10, 10, -10, -10, 10, 10, 10], "withholdReward": false, "trial_id": "practice_2", "block": "test", "trialIndex": 5, "score": 53, "costs": -0.5, "simulationMode": [null, null, null, null, null], "rewards": [10, 10, 10, 10, 10], "path": ["0", "0", "12", "13", "14", "19", "21"], "rt": [2916, 76, 668, 380, 98], "actions": ["right", "right", "right", "down", "down"], "actionTimes": [5313, 5932, 7133, 8029, 8644], "queries": {"click": {"state": {"target": ["12"], "time": [3257]}, "edge": {"target": [], "time": []}}, "mouseover": {"state": {"target": ["12", "12"], "time": [2479, 2628]}, "edge": {"target": [], "time": []}}, "mouseout": {"state": {"target": ["0", "12", "12"], "time": [2449, 2594, 10571]}, "edge": {"target": [], "time": []}}}, "displayed_time": "9.16", "trialTime": 10891, "trial_type": "mouselab-mdp", "trial_index": 16, "time_elapsed": 1651428, "internal_node_id": "0.0-2.2-2.2-1.2"}}, {"uniqueid": "w66708417:a36222086", "current_trial": 17, "dateTime": 1693566662433, "trialdata": {"view_history": [{"page_index": 0, "viewing_time": 20681}, {"page_index": 1, "viewing_time": 1679}], "rt": 22360, "trial_id": "mouselab_instructions_2_misaligned", "trial_type": "instructions", "trial_index": 17, "time_elapsed": 1673793, "internal_node_id": "0.0-2.2-3.2"}}, {"uniqueid": "w66708417:a36222086", "current_trial": 18, "dateTime": 1693566983453, "trialdata": {"rt": 321015, "response": {"Q0": "The cost for clicking on nodes may vary between nodes.", "Q1": "The better I perform the higher my bonus will be.", "Q2": "No, the amount of cash at each node of the web may be different each time.", "Q3": "To get the highest total score.", "Q4": "Only before moving the spider.", "Q5": "3 seconds"}, "question_order": [0, 1, 2, 3, 4, 5], "correct": {"Q0": "The cost for clicking on nodes may vary between nodes.", "Q1": "The better I perform the higher my bonus will be.", "Q2": "No, the amount of cash at each node of the web may be different each time.", "Q3": "To get the highest total score.", "Q4": "Only before moving the spider.", "Q5": "3 seconds"}, "trial_id": "mouselab_quiz_misaligned", "trial_type": "survey-multi-choice", "trial_index": 18, "time_elapsed": 1994813, "internal_node_id": "0.0-2.2-4.2"}}, {"uniqueid": "w66708417:a36222086", "current_trial": 19, "dateTime": 1693566991596, "trialdata": {"rt": 8131, "response": {"Q0": "No"}, "question_order": [0], "trial_id": "repeat_check", "trial_type": "survey-multi-choice", "trial_index": 19, "time_elapsed": 2002956, "internal_node_id": "0.0-4.0-0.0"}}, {"uniqueid": "w66708417:a36222086", "current_trial": 20, "dateTime": 1693567003403, "trialdata": {"rt": 11794, "stimulus": "\n<h1> Get ready to start the game! </h1>\n\nThank you for reading the instructions. Get ready start with the 40 rounds of this game.\n<br><br>\nIf you need to take a break, feel free to take one after the end of a round, before continuing to the next one.\n<br><br>\nRemember, the more money the spider gets, the bigger your bonus will be!\n<br><br>\n<div style='text-align: center;'>Press <code>space</code> to begin.</div>\n\n<br><br>\n(If, at any point, the <code>space</code> key does not take you to the next page, click once on the text and try again.)", "response": " ", "trial_id": "mdp_ready", "trial_type": "html-keyboard-response", "trial_index": 20, "time_elapsed": 2014762, "internal_node_id": "0.0-6.0-0.0"}}, {"uniqueid": "w66708417:a36222086", "current_trial": 21, "dateTime": 1693567025873, "trialdata": {"revealed_states": [], "clicked_states": [], "num_clicks_accrued": [0, 0, 0, 0, 0, 0, 0, 0, 0, 0, 0, 0, 0], "stateRewards": ["", -1, 1, 6, -6, 70, 66, 67, -16, -75, -35, 37, -1, 4, 4, -6, 47, -9, 63, 15, 21, -63, 13, 1, 3, -6, 10, 79, -29, 18, -15, 9, -67, -19], "withholdReward": false, "trial_id": "mdp_trial_1", "block": "test", "trialIndex": 6, "score": 87, "costs": 0, "simulationMode": [null, null, null, null, null], "rewards": [1, 3, -6, 10, 79], "path": ["0", "0", "23", "24", "25", "26", "27"], "rt": [1258, 3158, 368, 274, 189], "actions": ["left", "left", "left", "up", "up"], "actionTimes": [7052, 10726, 11617, 12405, 13121], "queries": {"click": {"state": {"target": [], "time": []}, "edge": {"target": [], "time": []}}, "mouseover": {"state": {"target": [], "time": []}, "edge": {"target": [], "time": []}}, "mouseout": {"state": {"target": ["0", "16", "14", "13", "12", "0", "24", "29"], "time": [2123, 2197, 4582, 4615, 4948, 8415, 18509, 18912]}, "edge": {"target": [], "time": []}}}, "displayed_time": "19.80", "trialTime": 21931, "trial_type": "mouselab-mdp", "trial_index": 21, "time_elapsed": 2037232, "internal_node_id": "0.0-6.0-1.0-0.0"}}, {"uniqueid": "w66708417:a36222086", "current_trial": 22, "dateTime": 1693567047758, "trialdata": {"revealed_states": [], "clicked_states": [], "num_clicks_accrued": [0, 0, 0, 0, 0, 0, 0, 0, 0, 0, 0, 0, 0], "stateRewards": ["", -1, 3, 1, -11, -22, -36, 19, -5, -70, -52, 50, -2, -4, 4, -2, -41, -83, 29, -2, 22, 10, -6, -2, 3, -2, 14, 54, 44, 77, -9, -65, -37, -40], "withholdReward": false, "trial_id": "mdp_trial_2", "block": "test", "trialIndex": 7, "score": -30, "costs": 0, "simulationMode": [null, null, null, null, null], "rewards": [-1, 3, 1, -11, -22], "path": ["0", "0", "1", "2", "3", "4", "5"], "rt": [1686, 300, 474, 200, 550], "actions": ["up", "up", "up", "right", "up"], "actionTimes": [6040, 6870, 7859, 8582, 9650], "queries": {"click": {"state": {"target": [], "time": []}, "edge": {"target": [], "time": []}}, "mouseover": {"state": {"target": [], "time": []}, "edge": {"target": [], "time": []}}, "mouseout": {"state": {"target": ["10", "0", "18", "15", "17"], "time": [2448, 11672, 11726, 11760, 11781]}, "edge": {"target": [], "time": []}}}, "displayed_time": "18.36", "trialTime": 21348, "trial_type": "mouselab-mdp", "trial_index": 22, "time_elapsed": 2059117, "internal_node_id": "0.0-6.0-1.0-1.0"}}, {"uniqueid": "w66708417:a36222086", "current_trial": 23, "dateTime": 1693567068660, "trialdata": {"revealed_states": [], "clicked_states": ["12"], "num_clicks_accrued": [0, 0, 0, 0, 0, 0, 0, 0, 0, 0, 0, 0, 0], "stateRewards": ["", 2, 1, -3, 7, 46, 11, -36, 16, 71, 5, 1, 2, -2, -8, -3, -4, 6, 55, 7, 68, -54, 2, 1, 1, 6, -6, 42, -4, -84, -11, -65, 63, 25], "withholdReward": false, "trial_id": "mdp_trial_3", "block": "test", "trialIndex": 8, "score": -4.75, "costs": 0.25, "simulationMode": [null, null, null, null, null], "rewards": [2, -2, -8, -3, 6], "path": ["0", "0", "12", "13", "14", "15", "17"], "rt": [5656, 17, 70, 512, 305], "actions": ["right", "right", "right", "up", "right"], "actionTimes": [7874, 8407, 9008, 10036, 10860], "queries": {"click": {"state": {"target": ["12"], "time": [3119]}, "edge": {"target": [], "time": []}}, "mouseover": {"state": {"target": ["12", "23", "23"], "time": [2606, 6143, 6466]}, "edge": {"target": [], "time": []}}, "mouseout": {"state": {"target": ["20", "19", "0", "12", "12", "23", "23", "16"], "time": [647, 667, 2440, 4670, 6012, 6217, 11854, 12379]}, "edge": {"target": [], "time": []}}}, "displayed_time": "16.22", "trialTime": 20387, "trial_type": "mouselab-mdp", "trial_index": 23, "time_elapsed": 2080018, "internal_node_id": "0.0-6.0-1.0-2.0"}}, {"uniqueid": "w66708417:a36222086", "current_trial": 24, "dateTime": 1693567088141, "trialdata": {"revealed_states": [], "clicked_states": ["23", "1", "12"], "num_clicks_accrued": [0, 0, 0, 0, 0, 0, 0, 0, 0, 0, 0, 0, 0], "stateRewards": ["", 2, -4, -8, -15, 71, -43, -41, 7, -17, 20, 67, -1, -1, -4, 6, 37, -24, -47, 9, 34, 57, 45, 1, 2, -4, -5, -23, 88, -5, 13, -40, 43, 44], "withholdReward": false, "trial_id": "mdp_trial_4", "block": "test", "trialIndex": 9, "score": 37.75, "costs": 0.75, "simulationMode": [null, null, null, null, null], "rewards": [-1, -1, -4, 6, 37], "path": ["0", "0", "12", "13", "14", "15", "16"], "rt": [3914, 241, 267, 525, 237], "actions": ["right", "right", "right", "up", "up"], "actionTimes": [5558, 6333, 7124, 8165, 8927], "queries": {"click": {"state": {"target": ["23", "1", "12"], "time": [2510, 3691, 5057]}, "edge": {"target": [], "time": []}}, "mouseover": {"state": {"target": ["0", "23", "1", "12"], "time": [1811, 2138, 3128, 4542]}, "edge": {"target": [], "time": []}}, "mouseout": {"state": {"target": ["12", "0", "0", "23", "1", "12", "13", "14", "17"], "time": [439, 857, 1944, 2959, 4399, 13703, 13812, 14780, 15278]}, "edge": {"target": [], "time": []}}}, "displayed_time": "15.65", "trialTime": 18948, "trial_type": "mouselab-mdp", "trial_index": 24, "time_elapsed": 2099499, "internal_node_id": "0.0-6.0-1.0-3.0"}}, {"uniqueid": "w66708417:a36222086", "current_trial": 25, "dateTime": 1693567105875, "trialdata": {"revealed_states": [], "clicked_states": ["1", "23"], "num_clicks_accrued": [0, 0, 0, 0, 0, 0, 0, 0, 0, 0, 0, 0, 0], "stateRewards": ["", -2, 1, -7, 9, 8, 25, 61, -7, -17, 69, -81, 1, 4, -4, -11, 16, 67, 44, 3, 6, -45, -54, -2, 3, 6, -11, -15, 32, -47, 3, -39, -6, -88], "withholdReward": false, "trial_id": "mdp_trial_5", "block": "test", "trialIndex": 10, "score": 28.5, "costs": 0.5, "simulationMode": [null, null, null, null, null], "rewards": [-2, 3, 6, -11, 32], "path": ["0", "0", "23", "24", "25", "26", "28"], "rt": [3433, 251, 62, 258, 184], "actions": ["left", "left", "left", "up", "right"], "actionTimes": [5206, 5991, 6567, 7356, 8056], "queries": {"click": {"state": {"target": ["1", "23"], "time": [2818, 4729]}, "edge": {"target": [], "time": []}}, "mouseover": {"state": {"target": ["1", "23", "23"], "time": [2250, 3966, 4283]}, "edge": {"target": [], "time": []}}, "mouseout": {"state": {"target": ["0", "1", "23", "23", "2"], "time": [808, 3883, 4099, 14975, 15060]}, "edge": {"target": [], "time": []}}}, "displayed_time": "15.78", "trialTime": 17143, "trial_type": "mouselab-mdp", "trial_index": 25, "time_elapsed": 2117234, "internal_node_id": "0.0-6.0-1.0-4.0"}}, {"uniqueid": "w66708417:a36222086", "current_trial": 26, "dateTime": 1693567129239, "trialdata": {"revealed_states": [], "clicked_states": [], "num_clicks_accrued": [0, 0, 0, 0, 0, 0, 0, 0, 0, 0, 0, 0, 0], "stateRewards": ["", -1, 4, 3, 12, -27, 34, -33, 3, -63, 1, 6, 2, 2, -6, -11, -77, -85, 68, -6, 51, 81, -60, -2, -2, 1, 15, 20, 15, 68, -10, -14, 6, -4], "withholdReward": false, "trial_id": "mdp_trial_6", "block": "test", "trialIndex": 11, "score": 52, "costs": 0, "simulationMode": [null, null, null, null, null], "rewards": [-1, 4, 3, 12, 34], "path": ["0", "0", "1", "2", "3", "4", "6"], "rt": [8419, 209, 126, 416, 152], "actions": ["up", "up", "up", "right", "right"], "actionTimes": [11177, 11906, 12553, 13493, 14164], "queries": {"click": {"state": {"target": [], "time": []}, "edge": {"target": [], "time": []}}, "mouseover": {"state": {"target": ["1", "1", "1", "1"], "time": [4490, 4753, 5321, 9945]}, "edge": {"target": [], "time": []}}, "mouseout": {"state": {"target": ["7", "1", "1", "1", "1"], "time": [1601, 4514, 4782, 8942, 20185]}, "edge": {"target": [], "time": []}}}, "displayed_time": "16.77", "trialTime": 22779, "trial_type": "mouselab-mdp", "trial_index": 26, "time_elapsed": 2140597, "internal_node_id": "0.0-6.0-1.0-5.0"}}, {"uniqueid": "w66708417:a36222086", "current_trial": 27, "dateTime": 1693567146780, "trialdata": {"revealed_states": [], "clicked_states": ["12"], "num_clicks_accrued": [0, 0, 0, 0, 0, 0, 0, 0, 0, 0, 0, 0, 0], "stateRewards": ["", 1, -4, -4, 8, 1, -79, 68, -10, -79, 8, -74, -1, -3, -6, 14, 43, 23, 9, 5, -51, 63, 61, -2, 4, 6, -10, 69, -32, 57, 15, -80, -80, -77], "withholdReward": false, "trial_id": "mdp_trial_7", "block": "test", "trialIndex": 12, "score": 58.25, "costs": 0.25, "simulationMode": [null, null, null, null, null], "rewards": [-1, -3, -6, 5, 63], "path": ["0", "0", "12", "13", "14", "19", "21"], "rt": [2200, 198, 108, 350, 416], "actions": ["right", "right", "right", "down", "down"], "actionTimes": [4387, 5108, 5737, 6609, 7548], "queries": {"click": {"state": {"target": ["12"], "time": [3371]}, "edge": {"target": [], "time": []}}, "mouseover": {"state": {"target": ["12"], "time": [2907]}, "edge": {"target": [], "time": []}}, "mouseout": {"state": {"target": ["0"], "time": [1419]}, "edge": {"target": [], "time": []}}}, "displayed_time": "16.19", "trialTime": 16932, "trial_type": "mouselab-mdp", "trial_index": 27, "time_elapsed": 2158138, "internal_node_id": "0.0-6.0-1.0-6.0"}}, {"uniqueid": "w66708417:a36222086", "current_trial": 28, "dateTime": 1693567171517, "trialdata": {"revealed_states": [], "clicked_states": ["1", "2", "10"], "num_clicks_accrued": [0, 0, 0, 0, 0, 0, 0, 0, 0, 0, 0, 0, 0], "stateRewards": ["", 1, -3, -2, 14, 49, -40, -39, 2, 26, -61, 73, 1, -4, -8, 12, 79, 29, -65, -13, 55, -26, 27, -1, 3, 3, 9, -17, -60, -18, -8, 35, -88, 69], "withholdReward": false, "trial_id": "mdp_trial_8", "block": "test", "trialIndex": 13, "score": -52.25, "costs": -2.25, "simulationMode": [null, null, null, null, null], "rewards": [1, -4, -8, -13, -26], "path": ["0", "0", "12", "13", "14", "19", "21"], "rt": [8500, 57, 57, 235, 23], "actions": ["right", "right", "right", "down", "down"], "actionTimes": [10794, 11369, 11951, 12710, 13263], "queries": {"click": {"state": {"target": ["1", "2", "10"], "time": [3597, 4495, 6265]}, "edge": {"target": [], "time": []}}, "mouseover": {"state": {"target": ["1", "1", "2", "10", "1"], "time": [2805, 3208, 3942, 5874, 9724]}, "edge": {"target": [], "time": []}}, "mouseout": {"state": {"target": ["12", "0", "1", "1", "2", "10", "1", "0", "1", "4", "20"], "time": [1302, 2459, 2893, 3797, 5260, 9684, 9755, 20908, 20933, 20997, 23083]}, "edge": {"target": [], "time": []}}}, "displayed_time": "16.30", "trialTime": 24018, "trial_type": "mouselab-mdp", "trial_index": 28, "time_elapsed": 2182874, "internal_node_id": "0.0-6.0-1.0-7.0"}}, {"uniqueid": "w66708417:a36222086", "current_trial": 29, "dateTime": 1693567193566, "trialdata": {"revealed_states": [], "clicked_states": ["23", "24", "25", "26", "27", "12"], "num_clicks_accrued": [0, 0, 0, 0, 0, 0, 0, 0, 0, 0, 0, 0, 0], "stateRewards": ["", -2, -3, -7, 7, -54, -69, -4, -14, -77, 22, 40, -2, -1, 5, 6, -35, 50, -60, 10, -28, 75, 57, 1, -4, -2, 2, 68, 34, -18, 12, 3, -21, -43], "withholdReward": false, "trial_id": "mdp_trial_9", "block": "test", "trialIndex": 14, "score": -31.5, "costs": -4.5, "simulationMode": [null, null, null, null, null, null], "rewards": [-2, -1, 5, 6, -35], "path": ["0", "0", "12", "13", "14", "15", "16"], "rt": [6316, 1308, 166, 85, 140, 19], "actions": ["right", "right", "right", "right", "up", "up"], "actionTimes": [8195, 9511, 10225, 10845, 11500, 12044], "queries": {"click": {"state": {"target": ["23", "24", "25", "26", "27", "12"], "time": [3030, 3786, 4648, 5411, 6310, 9261]}, "edge": {"target": [], "time": []}}, "mouseover": {"state": {"target": ["23", "24", "25", "26", "27", "1", "12"], "time": [2466, 3396, 4170, 4940, 5639, 7118, 8692]}, "edge": {"target": [], "time": []}}, "mouseout": {"state": {"target": ["13", "12", "23", "24", "25", "26", "27", "1", "12", "12", "13"], "time": [865, 963, 3255, 4085, 4871, 5582, 7046, 7139, 9400, 17739, 18155]}, "edge": {"target": [], "time": []}}}, "displayed_time": "15.88", "trialTime": 21466, "trial_type": "mouselab-mdp", "trial_index": 29, "time_elapsed": 2204923, "internal_node_id": "0.0-6.0-1.0-8.0"}}, {"uniqueid": "w66708417:a36222086", "current_trial": 30, "dateTime": 1693567215395, "trialdata": {"revealed_states": [], "clicked_states": ["1", "2", "3", "4", "6"], "num_clicks_accrued": [0, 0, 0, 0, 0, 0, 0, 0, 0, 0, 0, 0, 0], "stateRewards": ["", -2, -4, -2, -13, -15, 87, -19, -6, -80, 30, 12, 1, 1, -8, 2, 55, 56, 15, 11, -68, -7, 55, -2, 3, -3, -3, 48, 62, 4, 1, -3, 69, -33], "withholdReward": false, "trial_id": "mdp_trial_10", "block": "test", "trialIndex": 15, "score": -6.75, "costs": -4.75, "simulationMode": [null, null, null, null, null, null], "rewards": [1, 1, -8, 11, -7], "path": ["0", "0", "12", "13", "14", "19", "21"], "rt": [6765, 1901, 297, 231, 506, 200], "actions": ["right", "right", "right", "right", "down", "down"], "actionTimes": [8892, 10802, 11622, 12378, 13427, 14155], "queries": {"click": {"state": {"target": ["1", "2", "3", "4", "6"], "time": [4026, 5049, 5957, 6908, 7725]}, "edge": {"target": [], "time": []}}, "mouseover": {"state": {"target": ["0", "1", "2", "3", "4", "6", "7", "1"], "time": [3265, 3539, 4592, 5545, 6541, 7166, 8256, 8307]}, "edge": {"target": [], "time": []}}, "mouseout": {"state": {"target": ["20", "19", "22", "12", "0", "0", "1", "2", "3", "4", "6", "6", "7", "1", "0", "23", "0"], "time": [932, 962, 991, 1297, 1490, 3356, 4263, 5175, 6194, 7039, 7843, 8225, 8273, 10022, 18399, 20324, 20650]}, "edge": {"target": [], "time": []}}}, "displayed_time": "16.13", "trialTime": 21226, "trial_type": "mouselab-mdp", "trial_index": 30, "time_elapsed": 2226752, "internal_node_id": "0.0-6.0-1.0-9.0"}}, {"uniqueid": "w66708417:a36222086", "current_trial": 31, "dateTime": 1693567794768, "trialdata": {"revealed_states": [], "clicked_states": ["23", "24", "25", "26", "28"], "num_clicks_accrued": [0, 0, 0, 0, 0, 0, 0, 0, 0, 0, 0, 0, 0], "stateRewards": ["", 1, 4, -8, -5, -15, -7, 21, 13, -30, 40, -65, 1, 1, 5, -14, 35, 27, -38, -11, 36, -58, -47, -2, 4, -3, 13, -16, -49, 22, 15, -56, -44, -10], "withholdReward": false, "trial_id": "mdp_trial_11", "block": "test", "trialIndex": 16, "score": -34.75, "costs": -4.75, "simulationMode": [null, null, null, null, null], "rewards": [-2, 4, -3, 15, -44], "path": ["0", "0", "23", "24", "25", "30", "32"], "rt": [12225, 141, 84, 67, 61], "actions": ["left", "left", "left", "down", "down"], "actionTimes": [13902, 14568, 15177, 15758, 16335], "queries": {"click": {"state": {"target": ["23", "24", "25", "26", "28"], "time": [2652, 3386, 4314, 5181, 6196]}, "edge": {"target": [], "time": []}}, "mouseover": {"state": {"target": ["23", "24", "25", "26", "28", "23", "23"], "time": [2235, 2947, 3725, 4733, 5649, 9410, 10743]}, "edge": {"target": [], "time": []}}, "mouseout": {"state": {"target": ["12", "0", "23", "24", "25", "26", "28", "28", "23", "23", "2", "3", "4", "6"], "time": [800, 1695, 2897, 3649, 4589, 5513, 6326, 7445, 9893, 18440, 18501, 18536, 18567, 18590]}, "edge": {"target": [], "time": []}}}, "displayed_time": "16.86", "trialTime": 578757, "trial_type": "mouselab-mdp", "trial_index": 31, "time_elapsed": 2806127, "internal_node_id": "0.0-6.0-1.0-10.0"}}, {"uniqueid": "w66708417:a36222086", "current_trial": 32, "dateTime": 1693567822529, "trialdata": {"revealed_states": [], "clicked_states": ["1", "2", "3", "4", "6"], "num_clicks_accrued": [0, 0, 0, 0, 0, 0, 0, 0, 0, 0, 0, 0, 0], "stateRewards": ["", 1, 2, 8, -2, 23, -69, -18, -16, 54, -21, 71, -1, -4, 7, 11, 43, -6, 88, 6, -55, 72, 43, 1, -3, -2, -1, 68, -31, -54, 4, -8, 25, -2], "withholdReward": false, "trial_id": "mdp_trial_12", "block": "test", "trialIndex": 17, "score": 44.25, "costs": -4.75, "simulationMode": [null, null, null, null, null], "rewards": [1, 2, 8, -16, 54], "path": ["0", "0", "1", "2", "3", "8", "9"], "rt": [14491, 161, 1392, 54, 515], "actions": ["up", "up", "up", "left", "up"], "actionTimes": [17632, 18362, 20313, 20929, 21995], "queries": {"click": {"state": {"target": ["1", "2", "3", "4", "6"], "time": [4878, 5594, 6961, 7781, 8647]}, "edge": {"target": [], "time": []}}, "mouseover": {"state": {"target": ["1", "2", "3", "4", "6"], "time": [4397, 5108, 6213, 7243, 8119]}, "edge": {"target": [], "time": []}}, "mouseout": {"state": {"target": ["21", "0", "1", "2", "2", "3", "4", "6", "12"], "time": [1597, 4345, 5030, 5969, 6079, 7235, 8020, 9233, 24195]}, "edge": {"target": [], "time": []}}}, "displayed_time": "22.58", "trialTime": 26376, "trial_type": "mouselab-mdp", "trial_index": 32, "time_elapsed": 2833888, "internal_node_id": "0.0-6.0-1.0-11.0"}}, {"uniqueid": "w66708417:a36222086", "current_trial": 33, "dateTime": 1693567849845, "trialdata": {"revealed_states": [], "clicked_states": ["1", "2", "3", "8", "9"], "num_clicks_accrued": [0, 0, 0, 0, 0, 0, 0, 0, 0, 0, 0, 0, 0], "stateRewards": ["", 2, -1, -3, 16, -3, -16, -62, -1, 13, -26, 43, -1, 4, 3, -9, -54, -37, -3, -12, -71, -68, -57, 1, -3, 2, -9, 2, -2, -9, -11, 84, -52, 55], "withholdReward": false, "trial_id": "mdp_trial_13", "block": "test", "trialIndex": 18, "score": 5.25, "costs": -4.75, "simulationMode": [null, null, null, null, null], "rewards": [2, -1, -3, -1, 13], "path": ["0", "0", "1", "2", "3", "8", "9"], "rt": [11177, 205, 88, 244, 460], "actions": ["up", "up", "up", "left", "up"], "actionTimes": [13658, 14439, 15095, 15890, 16912], "queries": {"click": {"state": {"target": ["1", "2", "3", "8", "9"], "time": [3614, 4410, 6183, 7098, 8148]}, "edge": {"target": [], "time": []}}, "mouseover": {"state": {"target": ["1", "2", "3", "3", "8", "9", "3"], "time": [3155, 3946, 4798, 5784, 6644, 7602, 12462]}, "edge": {"target": [], "time": []}}, "mouseout": {"state": {"target": ["12", "0", "1", "2", "3", "3", "8", "9", "3", "7", "18", "14", "17"], "time": [1187, 1253, 3794, 4567, 5086, 6601, 7415, 12170, 12553, 18976, 19008, 19512, 19563]}, "edge": {"target": [], "time": []}}}, "displayed_time": "17.46", "trialTime": 25937, "trial_type": "mouselab-mdp", "trial_index": 33, "time_elapsed": 2861205, "internal_node_id": "0.0-6.0-1.0-12.0"}}, {"uniqueid": "w66708417:a36222086", "current_trial": 34, "dateTime": 1693567876120, "trialdata": {"revealed_states": [], "clicked_states": ["1", "2", "3", "4", "6"], "num_clicks_accrued": [0, 0, 0, 0, 0, 0, 0, 0, 0, 0, 0, 0, 0], "stateRewards": ["", -2, 2, -1, -6, 22, 6, 6, -5, 70, -42, 65, 1, 3, 5, -6, -67, -9, 3, 14, 7, -62, -13, -2, 4, 1, 16, 42, -21, -52, -8, 32, 53, 81], "withholdReward": false, "trial_id": "mdp_trial_14", "block": "test", "trialIndex": 19, "score": -68.75, "costs": -4.75, "simulationMode": [null, null, null, null, null], "rewards": [1, 3, 5, -6, -67], "path": ["0", "0", "12", "13", "14", "15", "16"], "rt": [13968, 169, 331, 113, 43], "actions": ["right", "right", "right", "up", "up"], "actionTimes": [16517, 17271, 18151, 18805, 19379], "queries": {"click": {"state": {"target": ["1", "2", "3", "4", "6"], "time": [5204, 6097, 7521, 8482, 9720]}, "edge": {"target": [], "time": []}}, "mouseover": {"state": {"target": ["1", "2", "7", "3", "4", "6", "12"], "time": [3684, 5585, 6811, 7115, 7907, 9317, 15673]}, "edge": {"target": [], "time": []}}, "mouseout": {"state": {"target": ["0", "1", "2", "7", "3", "4", "6", "6", "12", "12"], "time": [1349, 5554, 6375, 6988, 7796, 9124, 10674, 15055, 22202, 24333]}, "edge": {"target": [], "time": []}}}, "displayed_time": "19.94", "trialTime": 24913, "trial_type": "mouselab-mdp", "trial_index": 34, "time_elapsed": 2887480, "internal_node_id": "0.0-6.0-1.0-13.0"}}, {"uniqueid": "w66708417:a36222086", "current_trial": 35, "dateTime": 1693567899239, "trialdata": {"revealed_states": [], "clicked_states": [], "num_clicks_accrued": [0, 0, 0, 0, 0, 0, 0, 0, 0, 0, 0, 0, 0], "stateRewards": ["", 1, -1, 4, -2, -75, -75, 84, -9, -60, -79, 59, 2, -4, 8, 9, -17, -82, 80, 14, -4, 49, 49, -1, 3, 6, -11, -33, 34, 55, 9, -57, 5, 59], "withholdReward": false, "trial_id": "mdp_trial_15", "block": "test", "trialIndex": 20, "score": -36, "costs": 0, "simulationMode": [null, null, null, null, null], "rewards": [-1, 3, 6, -11, -33], "path": ["0", "0", "23", "24", "25", "26", "27"], "rt": [6593, 377, 1029, 139, 184], "actions": ["left", "left", "left", "up", "up"], "actionTimes": [9277, 10207, 11775, 12487, 13233], "queries": {"click": {"state": {"target": [], "time": []}, "edge": {"target": [], "time": []}}, "mouseover": {"state": {"target": ["19", "12", "23"], "time": [5310, 7210, 7280]}, "edge": {"target": [], "time": []}}, "mouseout": {"state": {"target": ["0", "19", "12", "23", "14"], "time": [2724, 5346, 7238, 18542, 18979]}, "edge": {"target": [], "time": []}}}, "displayed_time": "16.69", "trialTime": 22173, "trial_type": "mouselab-mdp", "trial_index": 35, "time_elapsed": 2910597, "internal_node_id": "0.0-6.0-1.0-14.0"}}, {"uniqueid": "w66708417:a36222086", "current_trial": 36, "dateTime": 1693567947515, "trialdata": {"revealed_states": [], "clicked_states": ["23", "24", "25", "26", "28"], "num_clicks_accrued": [0, 0, 0, 0, 0, 0, 0, 0, 0, 0, 0, 0, 0], "stateRewards": ["", 1, -4, -6, -1, -21, 17, -72, 10, 77, 67, -46, -1, 4, -2, 14, -66, -49, -45, -15, -52, 23, -67, 2, -2, -2, 15, -3, 45, -64, 5, -44, 83, 61], "withholdReward": false, "trial_id": "mdp_trial_16", "block": "test", "trialIndex": 21, "score": 5.25, "costs": -4.75, "simulationMode": [null, null, null, null, null], "rewards": [2, -2, -2, 15, -3], "path": ["0", "0", "23", "24", "25", "26", "27"], "rt": [10502, 92, 18, 692, 4], "actions": ["left", "left", "left", "up", "up"], "actionTimes": [25153, 25798, 26375, 27604, 28181], "queries": {"click": {"state": {"target": ["23", "24", "25", "26", "28"], "time": [15953, 17538, 18435, 19447, 20424]}, "edge": {"target": [], "time": []}}, "mouseover": {"state": {"target": ["23", "24", "25", "26", "28"], "time": [15499, 17101, 17971, 18968, 19868]}, "edge": {"target": [], "time": []}}, "mouseout": {"state": {"target": ["0", "16", "0", "23", "24", "25", "26", "28", "1", "0", "13", "19", "20", "19", "22", "6", "18"], "time": [2175, 2889, 14683, 16956, 17857, 18499, 19711, 29573, 29689, 29943, 30379, 30544, 34157, 34230, 34258, 35490, 45960]}, "edge": {"target": [], "time": []}}}, "displayed_time": "28.74", "trialTime": 46851, "trial_type": "mouselab-mdp", "trial_index": 36, "time_elapsed": 2958874, "internal_node_id": "0.0-6.0-1.0-15.0"}}, {"uniqueid": "w66708417:a36222086", "current_trial": 37, "dateTime": 1693567974683, "trialdata": {"revealed_states": [], "clicked_states": [], "num_clicks_accrued": [0, 0, 0, 0, 0, 0, 0, 0, 0, 0, 0, 0, 0], "stateRewards": ["", -1, -2, 8, -6, -79, -6, 87, 9, -5, -66, -38, 2, 2, 5, -6, -82, 74, 85, -8, 67, -30, -15, 1, -2, -2, -2, 87, 64, 49, 7, 2, -38, -9], "withholdReward": false, "trial_id": "mdp_trial_17", "block": "test", "trialIndex": 22, "score": -7, "costs": 0, "simulationMode": [null, null, null, null, null], "rewards": [-1, -2, 8, -6, -6], "path": ["0", "0", "1", "2", "3", "4", "6"], "rt": [1358, 364, 74, 151, 54], "actions": ["up", "up", "up", "right", "right"], "actionTimes": [3988, 4920, 5556, 6265, 6865], "queries": {"click": {"state": {"target": [], "time": []}, "edge": {"target": [], "time": []}}, "mouseover": {"state": {"target": ["0", "1"], "time": [2670, 3346]}, "edge": {"target": [], "time": []}}, "mouseout": {"state": {"target": ["18", "0", "1", "18", "16"], "time": [952, 3243, 8303, 8621, 8680]}, "edge": {"target": [], "time": []}}}, "displayed_time": "16.64", "trialTime": 25590, "trial_type": "mouselab-mdp", "trial_index": 37, "time_elapsed": 2986042, "internal_node_id": "0.0-6.0-1.0-16.0"}}, {"uniqueid": "w66708417:a36222086", "current_trial": 38, "dateTime": 1693567995209, "trialdata": {"revealed_states": [], "clicked_states": ["23", "24", "25", "26", "27"], "num_clicks_accrued": [0, 0, 0, 0, 0, 0, 0, 0, 0, 0, 0, 0, 0], "stateRewards": ["", -1, 3, 2, 9, 41, 4, -46, -12, -54, -87, -25, 2, 3, -1, 11, -77, 12, -33, -9, -32, 35, 72, 1, 3, -7, 4, 37, 65, -73, 6, 77, -43, 8], "withholdReward": false, "trial_id": "mdp_trial_18", "block": "test", "trialIndex": 23, "score": 33.25, "costs": -4.75, "simulationMode": [null, null, null, null, null], "rewards": [1, 3, -7, 4, 37], "path": ["0", "0", "23", "24", "25", "26", "27"], "rt": [9536, 3, 96, 199, 106], "actions": ["left", "left", "left", "up", "up"], "actionTimes": [11861, 12427, 13078, 13832, 14500], "queries": {"click": {"state": {"target": ["23", "24", "25", "26", "27"], "time": [3873, 4632, 5574, 6460, 7368]}, "edge": {"target": [], "time": []}}, "mouseover": {"state": {"target": ["23", "24", "25", "26", "27", "28"], "time": [3497, 4219, 5141, 5873, 6957, 8256]}, "edge": {"target": [], "time": []}}, "mouseout": {"state": {"target": ["23", "10", "0", "23", "24", "25", "26", "27", "28"], "time": [39, 581, 2566, 4146, 4999, 5769, 6515, 8113, 15691]}, "edge": {"target": [], "time": []}}}, "displayed_time": "16.33", "trialTime": 18854, "trial_type": "mouselab-mdp", "trial_index": 38, "time_elapsed": 3006568, "internal_node_id": "0.0-6.0-1.0-17.0"}}, {"uniqueid": "w66708417:a36222086", "current_trial": 39, "dateTime": 1693568019871, "trialdata": {"revealed_states": [], "clicked_states": ["12", "13", "14", "19", "21"], "num_clicks_accrued": [0, 0, 0, 0, 0, 0, 0, 0, 0, 0, 0, 0, 0], "stateRewards": ["", 1, -2, 7, -14, 88, -56, -44, -14, 64, -51, -57, -2, 3, -4, -9, -11, 19, -77, -1, 68, 75, -67, -1, 1, -2, 5, -37, 70, -34, -10, -72, 63, -41], "withholdReward": false, "trial_id": "mdp_trial_19", "block": "test", "trialIndex": 24, "score": 66.25, "costs": -4.75, "simulationMode": [null, null, null, null, null], "rewards": [-2, 3, -4, -1, 75], "path": ["0", "0", "12", "13", "14", "19", "21"], "rt": [12642, 73, 87, 74, 131], "actions": ["right", "right", "right", "down", "down"], "actionTimes": [17053, 17707, 18344, 18972, 19667], "queries": {"click": {"state": {"target": ["12", "13", "14", "19", "21"], "time": [6439, 7305, 8323, 9417, 12225]}, "edge": {"target": [], "time": []}}, "mouseover": {"state": {"target": ["12", "13", "14", "19", "17", "21"], "time": [6004, 6868, 7938, 8838, 9707, 11695]}, "edge": {"target": [], "time": []}}, "mouseout": {"state": {"target": ["14", "13", "0", "12", "13", "14", "19", "17"], "time": [2653, 2672, 5772, 6705, 7604, 8715, 9642, 9746]}, "edge": {"target": [], "time": []}}}, "displayed_time": "20.21", "trialTime": 23186, "trial_type": "mouselab-mdp", "trial_index": 39, "time_elapsed": 3031231, "internal_node_id": "0.0-6.0-1.0-18.0"}}, {"uniqueid": "w66708417:a36222086", "current_trial": 40, "dateTime": 1693568046528, "trialdata": {"revealed_states": [], "clicked_states": ["1", "2", "3", "4", "5"], "num_clicks_accrued": [0, 0, 0, 0, 0, 0, 0, 0, 0, 0, 0, 0, 0], "stateRewards": ["", -1, 3, -5, -2, -13, -9, -34, -7, -81, 32, 35, -2, -2, 1, -14, -32, 81, 7, 4, 82, 56, -8, -1, 3, -8, 6, -24, -24, -53, 2, 38, 61, 54], "withholdReward": false, "trial_id": "mdp_trial_20", "block": "test", "trialIndex": 25, "score": -28.75, "costs": -4.75, "simulationMode": [null, null, null, null, null], "rewards": [-1, 3, -8, 6, -24], "path": ["0", "0", "23", "24", "25", "26", "27"], "rt": [12755, 49, 488, 92, 15], "actions": ["left", "left", "left", "up", "up"], "actionTimes": [17838, 18449, 19512, 20155, 20717], "queries": {"click": {"state": {"target": ["1", "2", "3", "4", "5"], "time": [7809, 8621, 9646, 10710, 11668]}, "edge": {"target": [], "time": []}}, "mouseover": {"state": {"target": ["1", "2", "3", "4", "5"], "time": [7364, 8118, 9130, 10142, 11242]}, "edge": {"target": [], "time": []}}, "mouseout": {"state": {"target": ["14", "13", "12", "1", "2", "3", "4", "5"], "time": [2610, 2700, 2733, 7950, 9044, 9921, 11063, 17459]}, "edge": {"target": [], "time": []}}}, "displayed_time": "21.33", "trialTime": 25258, "trial_type": "mouselab-mdp", "trial_index": 40, "time_elapsed": 3057887, "internal_node_id": "0.0-6.0-1.0-19.0"}}, {"uniqueid": "w66708417:a36222086", "current_trial": 41, "dateTime": 1693568104809, "trialdata": {"revealed_states": [], "clicked_states": ["12", "13", "14", "15", "16"], "num_clicks_accrued": [0, 0, 0, 0, 0, 0, 0, 0, 0, 0, 0, 0, 0], "stateRewards": ["", -2, 3, -5, -7, 66, 43, -60, -4, -70, -75, 4, -1, 2, 2, -13, 54, 11, -40, -1, 77, 32, 15, -2, 3, -8, -9, -35, 83, -27, 6, -74, -34, 44], "withholdReward": false, "trial_id": "mdp_trial_21", "block": "test", "trialIndex": 26, "score": 39.25, "costs": -4.75, "simulationMode": [null, null, null, null, null], "rewards": [-1, 2, 2, -13, 54], "path": ["0", "0", "12", "13", "14", "15", "16"], "rt": [11074, 265, 124, 112, 24], "actions": ["right", "right", "right", "up", "up"], "actionTimes": [17872, 18677, 19346, 19998, 20562], "queries": {"click": {"state": {"target": ["12", "13", "14", "15", "16"], "time": [9341, 10194, 11069, 12010, 13167]}, "edge": {"target": [], "time": []}}, "mouseover": {"state": {"target": ["12", "13", "14", "14", "15", "16"], "time": [7658, 9639, 10418, 10661, 11419, 12420]}, "edge": {"target": [], "time": []}}, "mouseout": {"state": {"target": ["17", "14", "0", "12", "13", "14", "14", "15", "16", "16"], "time": [4573, 4875, 7457, 9494, 10393, 10468, 11351, 12259, 13313, 15200]}, "edge": {"target": [], "time": []}}}, "displayed_time": "21.13", "trialTime": 57380, "trial_type": "mouselab-mdp", "trial_index": 41, "time_elapsed": 3116168, "internal_node_id": "0.0-6.0-1.0-20.0"}}, {"uniqueid": "w66708417:a36222086", "current_trial": 42, "dateTime": 1693568134171, "trialdata": {"revealed_states": [], "clicked_states": ["23", "24", "25", "26", "27"], "num_clicks_accrued": [0, 0, 0, 0, 0, 0, 0, 0, 0, 0, 0, 0, 0], "stateRewards": ["", 1, 1, -5, 8, -6, 45, 16, -6, -7, -22, -38, -1, -4, 8, -11, -16, 21, -45, -15, -59, -32, 42, -1, 3, 6, 11, -7, 34, -27, -8, 85, 43, -9], "withholdReward": false, "trial_id": "mdp_trial_22", "block": "test", "trialIndex": 27, "score": 48.25, "costs": -4.75, "simulationMode": [null, null, null, null, null], "rewards": [-1, 3, 6, 11, 34], "path": ["0", "0", "23", "24", "25", "26", "28"], "rt": [10578, 190, 68, 609, 203], "actions": ["left", "left", "left", "up", "right"], "actionTimes": [14006, 14747, 15394, 16564, 17326], "queries": {"click": {"state": {"target": ["23", "24", "25", "26", "27"], "time": [4505, 5422, 6359, 7117, 8146]}, "edge": {"target": [], "time": []}}, "mouseover": {"state": {"target": ["23", "24", "25", "26", "27", "5"], "time": [4081, 5049, 5926, 6672, 7596, 13239]}, "edge": {"target": [], "time": []}}, "mouseout": {"state": {"target": ["12", "0", "23", "24", "25", "26", "27", "5", "16"], "time": [1112, 1566, 4882, 5773, 6583, 7442, 8669, 13273, 24249]}, "edge": {"target": [], "time": []}}}, "displayed_time": "17.90", "trialTime": 27840, "trial_type": "mouselab-mdp", "trial_index": 42, "time_elapsed": 3145531, "internal_node_id": "0.0-6.0-1.0-21.0"}}, {"uniqueid": "w66708417:a36222086", "current_trial": 43, "dateTime": 1693568153100, "trialdata": {"revealed_states": [], "clicked_states": ["1", "2", "3", "4", "7"], "num_clicks_accrued": [0, 0, 0, 0, 0, 0, 0, 0, 0, 0, 0, 0, 0], "stateRewards": ["", -2, 1, -5, 2, -68, 80, 33, 10, 67, -59, 20, -1, -3, 3, 14, 74, -2, 24, -16, 63, 80, 46, -1, 4, 6, 12, 83, -38, -43, -4, 43, 14, -79], "withholdReward": false, "trial_id": "mdp_trial_23", "block": "test", "trialIndex": 28, "score": 24.25, "costs": -4.75, "simulationMode": [null, null, null, null, null], "rewards": [-2, 1, -5, 2, 33], "path": ["0", "0", "1", "2", "3", "4", "7"], "rt": [9813, 603, 283, 418, 150], "actions": ["up", "up", "up", "right", "down"], "actionTimes": [12007, 13138, 13935, 14872, 15552], "queries": {"click": {"state": {"target": ["1", "2", "3", "4", "7"], "time": [3427, 4563, 5666, 6625, 7605]}, "edge": {"target": [], "time": []}}, "mouseover": {"state": {"target": ["1", "2", "3", "4", "7"], "time": [3015, 4161, 5186, 6097, 7050]}, "edge": {"target": [], "time": []}}, "mouseout": {"state": {"target": ["15", "13", "0", "1", "2", "3", "4", "7"], "time": [981, 1016, 2630, 4086, 4703, 6071, 6960, 17521]}, "edge": {"target": [], "time": []}}}, "displayed_time": "16.20", "trialTime": 18109, "trial_type": "mouselab-mdp", "trial_index": 43, "time_elapsed": 3164459, "internal_node_id": "0.0-6.0-1.0-22.0"}}, {"uniqueid": "w66708417:a36222086", "current_trial": 44, "dateTime": 1693568170450, "trialdata": {"revealed_states": [], "clicked_states": [], "num_clicks_accrued": [0, 0, 0, 0, 0, 0, 0, 0, 0, 0, 0, 0, 0], "stateRewards": ["", -1, -4, -1, -5, -28, -23, -15, -15, -38, 59, -87, 2, 2, -5, 9, -55, -39, -71, -6, 85, -85, -11, -1, -2, 5, -10, 1, 25, 41, -4, 69, -35, 86], "withholdReward": false, "trial_id": "mdp_trial_24", "block": "test", "trialIndex": 29, "score": -92, "costs": 0, "simulationMode": [null, null, null, null, null], "rewards": [2, 2, -5, -6, -85], "path": ["0", "0", "12", "13", "14", "19", "21"], "rt": [7549, 456, 36, 22, 652], "actions": ["right", "right", "right", "down", "down"], "actionTimes": [9450, 10436, 11001, 11572, 12755], "queries": {"click": {"state": {"target": [], "time": []}, "edge": {"target": [], "time": []}}, "mouseover": {"state": {"target": ["1", "2", "1", "12"], "time": [2376, 5453, 7003, 7903]}, "edge": {"target": [], "time": []}}, "mouseout": {"state": {"target": ["7", "1", "2", "1"], "time": [890, 5354, 6921, 7838]}, "edge": {"target": [], "time": []}}}, "displayed_time": "15.90", "trialTime": 16530, "trial_type": "mouselab-mdp", "trial_index": 44, "time_elapsed": 3181809, "internal_node_id": "0.0-6.0-1.0-23.0"}}, {"uniqueid": "w66708417:a36222086", "current_trial": 45, "dateTime": 1693568195359, "trialdata": {"revealed_states": [], "clicked_states": ["23", "24", "25", "26", "27"], "num_clicks_accrued": [0, 0, 0, 0, 0, 0, 0, 0, 0, 0, 0, 0, 0], "stateRewards": ["", 2, 4, -5, 7, 81, 35, 6, 11, 14, -72, 42, -1, 2, 3, -7, -77, -44, -40, -15, -85, 51, -32, -2, -1, -5, 7, -74, 47, 52, 16, -49, 48, -46], "withholdReward": false, "trial_id": "mdp_trial_25", "block": "test", "trialIndex": 30, "score": -84.75, "costs": -4.75, "simulationMode": [null, null, null, null, null], "rewards": [-1, 2, 3, -7, -77], "path": ["0", "0", "12", "13", "14", "15", "16"], "rt": [8293, 50, 246, 210, 155], "actions": ["right", "right", "right", "up", "up"], "actionTimes": [9870, 10476, 11254, 11989, 12662], "queries": {"click": {"state": {"target": ["23", "24", "25", "26", "27"], "time": [2940, 3651, 4480, 5206, 5906]}, "edge": {"target": [], "time": []}}, "mouseover": {"state": {"target": ["23", "24", "25", "26", "27", "28"], "time": [2256, 3266, 4052, 4739, 5503, 6810]}, "edge": {"target": [], "time": []}}, "mouseout": {"state": {"target": ["12", "1", "23", "23", "24", "25", "26", "27", "28", "10"], "time": [429, 639, 3065, 3186, 3893, 4600, 5339, 6696, 6834, 14246]}, "edge": {"target": [], "time": []}}}, "displayed_time": "15.58", "trialTime": 24185, "trial_type": "mouselab-mdp", "trial_index": 45, "time_elapsed": 3206718, "internal_node_id": "0.0-6.0-1.0-24.0"}}, {"uniqueid": "w66708417:a36222086", "current_trial": 46, "dateTime": 1693568217023, "trialdata": {"revealed_states": [], "clicked_states": ["1", "2", "3", "8", "11"], "num_clicks_accrued": [0, 0, 0, 0, 0, 0, 0, 0, 0, 0, 0, 0, 0], "stateRewards": ["", 1, 1, 1, -3, -7, -1, -41, -10, 20, -72, -63, 1, -4, -2, 2, -66, 30, -84, -2, 49, 23, 71, -1, -4, 4, -12, 67, 5, 18, -16, 88, 56, -5], "withholdReward": false, "trial_id": "mdp_trial_26", "block": "test", "trialIndex": 31, "score": -11.75, "costs": -4.75, "simulationMode": [null, null, null, null, null], "rewards": [1, 1, 1, -3, -7], "path": ["0", "0", "1", "2", "3", "4", "5"], "rt": [9434, 14, 437, 164, 580], "actions": ["up", "up", "up", "right", "up"], "actionTimes": [12878, 13421, 14394, 15056, 16167], "queries": {"click": {"state": {"target": ["1", "2", "3", "8", "11"], "time": [4847, 5628, 6479, 7523, 8612]}, "edge": {"target": [], "time": []}}, "mouseover": {"state": {"target": ["1", "2", "3", "8", "11"], "time": [4372, 5271, 5989, 6960, 8261]}, "edge": {"target": [], "time": []}}, "mouseout": {"state": {"target": ["29", "26", "28", "0", "1", "2", "3", "8", "11", "6"], "time": [1890, 1942, 2229, 4059, 4977, 5914, 6847, 8060, 18276, 18323]}, "edge": {"target": [], "time": []}}}, "displayed_time": "17.44", "trialTime": 20897, "trial_type": "mouselab-mdp", "trial_index": 46, "time_elapsed": 3228381, "internal_node_id": "0.0-6.0-1.0-25.0"}}, {"uniqueid": "w66708417:a36222086", "current_trial": 47, "dateTime": 1693568235593, "trialdata": {"revealed_states": [], "clicked_states": ["12", "13", "14", "19", "20"], "num_clicks_accrued": [0, 0, 0, 0, 0, 0, 0, 0, 0, 0, 0, 0, 0], "stateRewards": ["", -1, -1, 7, -15, -43, -21, -84, -9, -45, -66, 2, 1, -2, 2, 8, -27, 44, -52, -5, -84, 11, 53, 1, 4, -4, 16, 83, -82, -15, -16, 68, -43, 81], "withholdReward": false, "trial_id": "mdp_trial_27", "block": "test", "trialIndex": 32, "score": -62.75, "costs": -4.75, "simulationMode": [null, null, null, null, null], "rewards": [1, 4, -4, -16, -43], "path": ["0", "0", "23", "24", "25", "30", "32"], "rt": [9049, 590, 139, 169, 595], "actions": ["left", "left", "left", "down", "down"], "actionTimes": [11654, 12757, 13422, 14118, 15231], "queries": {"click": {"state": {"target": ["12", "13", "14", "19", "20"], "time": [3653, 4377, 5164, 6052, 6903]}, "edge": {"target": [], "time": []}}, "mouseover": {"state": {"target": ["12", "13", "14", "19", "20"], "time": [3217, 4043, 4667, 5492, 6334]}, "edge": {"target": [], "time": []}}, "mouseout": {"state": {"target": ["23", "0", "12", "13", "14", "14", "19", "20"], "time": [1470, 3106, 3915, 4600, 5235, 5371, 6241, 17231]}, "edge": {"target": [], "time": []}}}, "displayed_time": "16.61", "trialTime": 17830, "trial_type": "mouselab-mdp", "trial_index": 47, "time_elapsed": 3246952, "internal_node_id": "0.0-6.0-1.0-26.0"}}, {"uniqueid": "w66708417:a36222086", "current_trial": 48, "dateTime": 1693568254735, "trialdata": {"revealed_states": [], "clicked_states": ["1", "2", "3", "8", "9"], "num_clicks_accrued": [0, 0, 0, 0, 0, 0, 0, 0, 0, 0, 0, 0, 0], "stateRewards": ["", 1, -2, -2, 10, -31, -77, 35, 9, -47, 8, 48, -2, 1, -4, -3, -26, -50, 43, -11, 76, -38, 17, 1, -1, 6, 10, 15, -9, 12, -8, 85, 11, -55], "withholdReward": false, "trial_id": "mdp_trial_28", "block": "test", "trialIndex": 33, "score": 49.25, "costs": -4.75, "simulationMode": [null, null, null, null, null], "rewards": [1, -2, -2, 9, 48], "path": ["0", "0", "1", "2", "3", "8", "11"], "rt": [10567, 5, 331, 444, 667], "actions": ["up", "up", "up", "left", "left"], "actionTimes": [13186, 13717, 14590, 15540, 16730], "queries": {"click": {"state": {"target": ["1", "2", "3", "8", "9"], "time": [5142, 5844, 6547, 7429, 8131]}, "edge": {"target": [], "time": []}}, "mouseover": {"state": {"target": ["1", "2", "3", "8", "9"], "time": [3584, 5372, 6079, 6874, 7681]}, "edge": {"target": [], "time": []}}, "mouseout": {"state": {"target": ["17", "15", "0", "1", "2", "3", "8", "9"], "time": [1462, 1481, 3380, 5333, 6019, 6829, 7615, 8272]}, "edge": {"target": [], "time": []}}}, "displayed_time": "17.26", "trialTime": 18457, "trial_type": "mouselab-mdp", "trial_index": 48, "time_elapsed": 3266092, "internal_node_id": "0.0-6.0-1.0-27.0"}}, {"uniqueid": "w66708417:a36222086", "current_trial": 49, "dateTime": 1693568274123, "trialdata": {"revealed_states": [], "clicked_states": ["12", "13", "14", "15", "16"], "num_clicks_accrued": [0, 0, 0, 0, 0, 0, 0, 0, 0, 0, 0, 0, 0], "stateRewards": ["", 1, -2, -8, -13, 4, 34, -84, -4, -49, 88, -70, -1, 3, -4, 10, -77, 13, -34, 15, -21, -16, 27, 1, -2, 8, -8, -6, 38, -26, 6, -15, 66, -3], "withholdReward": false, "trial_id": "mdp_trial_29", "block": "test", "trialIndex": 34, "score": -30.75, "costs": -4.75, "simulationMode": [null, null, null, null, null], "rewards": [-1, 3, -4, 10, -34], "path": ["0", "0", "12", "13", "14", "15", "18"], "rt": [8226, 7, 7, 732, 417], "actions": ["right", "right", "right", "up", "left"], "actionTimes": [11418, 11969, 12522, 13787, 14766], "queries": {"click": {"state": {"target": ["12", "13", "14", "15", "16"], "time": [4101, 5540, 6331, 7176, 8090]}, "edge": {"target": [], "time": []}}, "mouseover": {"state": {"target": ["12", "13", "14", "15", "16"], "time": [3490, 5170, 5779, 6688, 7694]}, "edge": {"target": [], "time": []}}, "mouseout": {"state": {"target": ["7", "0", "0", "12", "13", "14", "15", "16"], "time": [2161, 2762, 3212, 4927, 5656, 6598, 7305, 17292]}, "edge": {"target": [], "time": []}}}, "displayed_time": "17.19", "trialTime": 18673, "trial_type": "mouselab-mdp", "trial_index": 49, "time_elapsed": 3285482, "internal_node_id": "0.0-6.0-1.0-28.0"}}, {"uniqueid": "w66708417:a36222086", "current_trial": 50, "dateTime": 1693568296423, "trialdata": {"revealed_states": [], "clicked_states": ["23", "24", "25", "30", "33"], "num_clicks_accrued": [0, 0, 0, 0, 0, 0, 0, 0, 0, 0, 0, 0, 0], "stateRewards": ["", 1, -4, 6, -3, 40, 76, -51, 5, -24, -63, 44, -2, -2, 8, 1, 76, -85, -58, 10, 59, 20, 11, -2, 3, -3, 3, -82, -10, 54, -7, -57, -6, -32], "withholdReward": false, "trial_id": "mdp_trial_30", "block": "test", "trialIndex": 35, "score": -55.75, "costs": -4.75, "simulationMode": [null, null, null, null, null], "rewards": [1, -4, 6, -3, -51], "path": ["0", "0", "1", "2", "3", "4", "7"], "rt": [10593, 492, 71, 250, 24], "actions": ["up", "up", "up", "right", "down"], "actionTimes": [12725, 13738, 14340, 15127, 15670], "queries": {"click": {"state": {"target": ["23", "24", "25", "30", "33"], "time": [4091, 4865, 5783, 6479, 7229]}, "edge": {"target": [], "time": []}}, "mouseover": {"state": {"target": ["12", "23", "24", "25", "30", "33", "25", "1", "12"], "time": [2926, 3549, 4483, 5341, 6119, 6802, 10422, 11541, 11776]}, "edge": {"target": [], "time": []}}, "mouseout": {"state": {"target": ["0", "12", "23", "24", "25", "30", "33", "25", "1", "12"], "time": [2794, 3132, 4315, 5115, 6000, 6735, 10341, 10441, 11587, 11905]}, "edge": {"target": [], "time": []}}}, "displayed_time": "16.19", "trialTime": 21675, "trial_type": "mouselab-mdp", "trial_index": 50, "time_elapsed": 3307781, "internal_node_id": "0.0-6.0-1.0-29.0"}}, {"uniqueid": "w66708417:a36222086", "current_trial": 51, "dateTime": 1693568313420, "trialdata": {"revealed_states": [], "clicked_states": ["12"], "num_clicks_accrued": [0, 0, 0, 0, 0, 0, 0, 0, 0, 0, 0, 0, 0], "stateRewards": ["", 2, 3, 6, -12, -29, 12, 87, 4, 35, -30, 67, 2, 3, -5, -9, 44, 69, -8, 1, 45, -8, 28, -2, -1, -8, 11, -12, -5, 81, 9, 87, 82, 88], "withholdReward": false, "trial_id": "mdp_trial_31", "block": "test", "trialIndex": 36, "score": 35.25, "costs": 0.25, "simulationMode": [null, null, null, null, null], "rewards": [2, 3, -5, -9, 44], "path": ["0", "0", "12", "13", "14", "15", "16"], "rt": [1877, 271, 188, 476, 89], "actions": ["right", "right", "right", "up", "up"], "actionTimes": [3911, 4723, 5432, 6434, 7052], "queries": {"click": {"state": {"target": ["12"], "time": [3466]}, "edge": {"target": [], "time": []}}, "mouseover": {"state": {"target": ["12"], "time": [2710]}, "edge": {"target": [], "time": []}}, "mouseout": {"state": {"target": ["22"], "time": [892]}, "edge": {"target": [], "time": []}}}, "displayed_time": "16.04", "trialTime": 16396, "trial_type": "mouselab-mdp", "trial_index": 51, "time_elapsed": 3324778, "internal_node_id": "0.0-6.0-1.0-30.0"}}, {"uniqueid": "w66708417:a36222086", "current_trial": 52, "dateTime": 1693568331352, "trialdata": {"revealed_states": [], "clicked_states": ["12", "13", "14", "19", "20"], "num_clicks_accrued": [0, 0, 0, 0, 0, 0, 0, 0, 0, 0, 0, 0, 0], "stateRewards": ["", -2, 2, 5, -14, -56, 64, 84, -5, 52, 39, 85, -2, 1, 7, 8, 21, 29, -78, -9, -10, -69, 10, -2, -1, -7, 15, 72, 20, 41, -2, 52, 80, 22], "withholdReward": false, "trial_id": "mdp_trial_32", "block": "test", "trialIndex": 37, "score": 30.25, "costs": -4.75, "simulationMode": [null, null, null, null, null], "rewards": [-2, 1, 7, 8, 21], "path": ["0", "0", "12", "13", "14", "15", "16"], "rt": [8867, 26, 52, 286, 67], "actions": ["right", "right", "right", "up", "up"], "actionTimes": [10909, 11459, 12049, 12870, 13465], "queries": {"click": {"state": {"target": ["12", "13", "14", "19", "20"], "time": [2983, 4100, 4915, 5766, 7136]}, "edge": {"target": [], "time": []}}, "mouseover": {"state": {"target": ["1", "12", "13", "14", "19", "20", "20"], "time": [2164, 2547, 3689, 4417, 5429, 6201, 6717]}, "edge": {"target": [], "time": []}}, "mouseout": {"state": {"target": ["12", "0", "1", "12", "13", "14", "19", "20", "20"], "time": [1051, 2064, 2250, 3437, 4337, 5219, 5885, 6254, 7249]}, "edge": {"target": [], "time": []}}}, "displayed_time": "16.04", "trialTime": 17201, "trial_type": "mouselab-mdp", "trial_index": 52, "time_elapsed": 3342710, "internal_node_id": "0.0-6.0-1.0-31.0"}}, {"uniqueid": "w66708417:a36222086", "current_trial": 53, "dateTime": 1693568348757, "trialdata": {"revealed_states": [], "clicked_states": ["1", "2", "3", "8", "9"], "num_clicks_accrued": [0, 0, 0, 0, 0, 0, 0, 0, 0, 0, 0, 0, 0], "stateRewards": ["", 2, -1, -4, -13, 74, 77, 3, 2, -43, -2, -11, 2, 3, 7, 11, -26, -29, -33, -3, -3, -13, -3, 1, 3, -7, 14, -59, 33, 9, -5, 34, 79, 68], "withholdReward": false, "trial_id": "mdp_trial_33", "block": "test", "trialIndex": 38, "score": -17.75, "costs": -4.75, "simulationMode": [null, null, null, null, null], "rewards": [2, -1, -4, -13, 3], "path": ["0", "0", "1", "2", "3", "4", "7"], "rt": [9648, 104, 16, 378, 350], "actions": ["up", "up", "up", "right", "down"], "actionTimes": [11451, 12079, 12621, 13532, 14405], "queries": {"click": {"state": {"target": ["1", "2", "3", "8", "9"], "time": [2924, 3716, 4776, 5529, 6506]}, "edge": {"target": [], "time": []}}, "mouseover": {"state": {"target": ["1", "2", "3", "8", "9", "3", "2"], "time": [2442, 3344, 4244, 5132, 5826, 10239, 10301]}, "edge": {"target": [], "time": []}}, "mouseout": {"state": {"target": ["14", "13", "12", "1", "2", "3", "3", "8", "9", "3", "2"], "time": [641, 688, 946, 3039, 4131, 4907, 5042, 5656, 6620, 10271, 10334]}, "edge": {"target": [], "time": []}}}, "displayed_time": "15.81", "trialTime": 16707, "trial_type": "mouselab-mdp", "trial_index": 53, "time_elapsed": 3360115, "internal_node_id": "0.0-6.0-1.0-32.0"}}, {"uniqueid": "w66708417:a36222086", "current_trial": 54, "dateTime": 1693568366340, "trialdata": {"revealed_states": [], "clicked_states": ["23", "24", "25", "30", "33"], "num_clicks_accrued": [0, 0, 0, 0, 0, 0, 0, 0, 0, 0, 0, 0, 0], "stateRewards": ["", 2, -1, -1, 7, 11, -40, -22, -2, 69, 37, 8, -2, 4, -8, -12, -2, -72, -3, -12, 17, 63, 12, 1, 3, -7, 6, 25, 61, 61, -9, 28, -17, 27], "withholdReward": false, "trial_id": "mdp_trial_34", "block": "test", "trialIndex": 39, "score": 10.25, "costs": -4.75, "simulationMode": [null, null, null, null, null], "rewards": [1, 3, -7, -9, 27], "path": ["0", "0", "23", "24", "25", "30", "33"], "rt": [9256, 434, 137, 255, 83], "actions": ["left", "left", "left", "down", "left"], "actionTimes": [11371, 12325, 12983, 13764, 14374], "queries": {"click": {"state": {"target": ["23", "24", "25", "30", "33"], "time": [3872, 4514, 5396, 7327, 8090]}, "edge": {"target": [], "time": []}}, "mouseover": {"state": {"target": ["0", "23", "24", "25", "30", "33"], "time": [2564, 2839, 4118, 4967, 6923, 7664]}, "edge": {"target": [], "time": []}}, "mouseout": {"state": {"target": ["1", "0", "23", "23", "24", "25", "30", "33", "31", "1"], "time": [662, 2776, 3989, 4080, 4835, 6084, 7584, 15380, 15919, 16310]}, "edge": {"target": [], "time": []}}}, "displayed_time": "16.11", "trialTime": 16874, "trial_type": "mouselab-mdp", "trial_index": 54, "time_elapsed": 3377699, "internal_node_id": "0.0-6.0-1.0-33.0"}}, {"uniqueid": "w66708417:a36222086", "current_trial": 55, "dateTime": 1693568386447, "trialdata": {"revealed_states": [], "clicked_states": ["1", "2", "3", "4", "6"], "num_clicks_accrued": [0, 0, 0, 0, 0, 0, 0, 0, 0, 0, 0, 0, 0], "stateRewards": ["", -1, 2, -6, 6, -82, -19, -39, -16, -83, 11, -33, -2, -2, 4, -6, -82, -1, -19, -6, -10, -67, -41, -2, 1, -7, 16, -23, -78, -52, 14, 31, -71, 74], "withholdReward": false, "trial_id": "mdp_trial_35", "block": "test", "trialIndex": 40, "score": -58.75, "costs": -4.75, "simulationMode": [null, null, null, null, null], "rewards": [-1, 2, -6, -16, -33], "path": ["0", "0", "1", "2", "3", "8", "11"], "rt": [10488, 286, 54, 483, 127], "actions": ["up", "up", "up", "left", "left"], "actionTimes": [12632, 13445, 14014, 15042, 15686], "queries": {"click": {"state": {"target": ["1", "2", "3", "4", "6"], "time": [3208, 4069, 4834, 6026, 6813]}, "edge": {"target": [], "time": []}}, "mouseover": {"state": {"target": ["1", "2", "3", "6", "4", "6"], "time": [2698, 3757, 4484, 5233, 5668, 6355]}, "edge": {"target": [], "time": []}}, "mouseout": {"state": {"target": ["16", "12", "0", "0", "1", "2", "3", "6", "4", "6"], "time": [1035, 1094, 1703, 2586, 3312, 4431, 5111, 5483, 6315, 10276]}, "edge": {"target": [], "time": []}}}, "displayed_time": "16.21", "trialTime": 19445, "trial_type": "mouselab-mdp", "trial_index": 55, "time_elapsed": 3397805, "internal_node_id": "0.0-6.0-1.0-34.0"}}, {"uniqueid": "w66708417:a36222086", "current_trial": 56, "dateTime": 1693568482023, "trialdata": {"revealed_states": [], "clicked_states": ["1", "2", "3", "4", "5"], "num_clicks_accrued": [0, 0, 0, 0, 0, 0, 0, 0, 0, 0, 0, 0, 0], "stateRewards": ["", 1, 2, -6, -13, -51, 22, -4, -12, -44, -12, 6, -2, -2, -2, -14, -46, -4, -77, -2, 36, -79, 41, 2, -4, 2, -6, -55, 59, 70, -5, 39, -19, 24], "withholdReward": false, "trial_id": "mdp_trial_36", "block": "test", "trialIndex": 41, "score": 23.25, "costs": -4.75, "simulationMode": [null, null, null, null, null], "rewards": [-2, -2, -2, -2, 36], "path": ["0", "0", "12", "13", "14", "19", "20"], "rt": [9382, 98, 125, 146, 231], "actions": ["right", "right", "right", "down", "right"], "actionTimes": [11416, 12033, 12674, 13348, 14103], "queries": {"click": {"state": {"target": ["1", "2", "3", "4", "5"], "time": [4109, 4987, 5720, 6702, 7338]}, "edge": {"target": [], "time": []}}, "mouseover": {"state": {"target": ["1", "2", "3", "4", "5", "4", "7"], "time": [3811, 4489, 5306, 6324, 7007, 10276, 10328]}, "edge": {"target": [], "time": []}}, "mouseout": {"state": {"target": ["0", "1", "2", "3", "4", "5", "5", "4", "7", "1", "23"], "time": [2835, 4443, 5135, 6143, 6820, 7459, 10226, 10312, 10359, 16656, 17054]}, "edge": {"target": [], "time": []}}}, "displayed_time": "16.04", "trialTime": 94912, "trial_type": "mouselab-mdp", "trial_index": 56, "time_elapsed": 3493382, "internal_node_id": "0.0-6.0-1.0-35.0"}}, {"uniqueid": "w66708417:a36222086", "current_trial": 57, "dateTime": 1693568504595, "trialdata": {"revealed_states": [], "clicked_states": [], "num_clicks_accrued": [0, 0, 0, 0, 0, 0, 0, 0, 0, 0, 0, 0, 0], "stateRewards": ["", 2, 2, 3, -15, 23, -14, 73, -7, -32, -20, -6, 1, 1, -5, -12, 73, 6, -84, 11, -81, -57, 13, -2, -1, -4, -8, -52, -58, 49, 13, 5, -41, -41], "withholdReward": false, "trial_id": "mdp_trial_37", "block": "test", "trialIndex": 42, "score": -22, "costs": 0, "simulationMode": [null, null, null, null, null], "rewards": [2, 2, 3, -15, -14], "path": ["0", "0", "1", "2", "3", "4", "6"], "rt": [12630, 10, 360, 429, 140], "actions": ["up", "up", "up", "right", "right"], "actionTimes": [15463, 16012, 16931, 17911, 18573], "queries": {"click": {"state": {"target": [], "time": []}, "edge": {"target": [], "time": []}}, "mouseover": {"state": {"target": ["16", "16", "18", "1", "2", "1", "2"], "time": [5712, 10490, 10560, 10894, 11592, 12624, 13276]}, "edge": {"target": [], "time": []}}, "mouseout": {"state": {"target": ["20", "19", "22", "0", "16", "16", "18", "1", "2", "1", "2", "4"], "time": [966, 984, 1034, 1763, 5930, 10506, 10580, 11560, 12523, 13191, 20034, 20119]}, "edge": {"target": [], "time": []}}}, "displayed_time": "19.13", "trialTime": 21230, "trial_type": "mouselab-mdp", "trial_index": 57, "time_elapsed": 3515954, "internal_node_id": "0.0-6.0-1.0-36.0"}}, {"uniqueid": "w66708417:a36222086", "current_trial": 58, "dateTime": 1693568525366, "trialdata": {"revealed_states": [], "clicked_states": ["1", "2", "3", "8", "9"], "num_clicks_accrued": [0, 0, 0, 0, 0, 0, 0, 0, 0, 0, 0, 0, 0], "stateRewards": ["", 2, 3, -1, 6, 44, -4, -59, -14, -3, 64, 16, 1, -3, 3, 6, 3, 49, 19, 3, -49, -14, -86, 1, 2, -3, -8, -33, 14, 32, -13, -77, -47, -67], "withholdReward": false, "trial_id": "mdp_trial_38", "block": "test", "trialIndex": 43, "score": 1.25, "costs": -4.75, "simulationMode": [null, null, null, null, null], "rewards": [2, 3, -1, 6, -4], "path": ["0", "0", "1", "2", "3", "4", "6"], "rt": [9694, 147, 613, 501, 400], "actions": ["up", "up", "up", "right", "right"], "actionTimes": [12021, 12723, 13884, 14942, 15894], "queries": {"click": {"state": {"target": ["1", "2", "3", "8", "9"], "time": [3401, 4144, 5542, 6352, 7077]}, "edge": {"target": [], "time": []}}, "mouseover": {"state": {"target": ["1", "2", "3", "3", "8", "9", "3"], "time": [2998, 3744, 4431, 5219, 5904, 6590, 10729]}, "edge": {"target": [], "time": []}}, "mouseout": {"state": {"target": ["14", "0", "0", "1", "2", "3", "3", "8", "9", "9", "3", "7", "16"], "time": [668, 1315, 2914, 3669, 4392, 4465, 5803, 6581, 7200, 10592, 10777, 17954, 19339]}, "edge": {"target": [], "time": []}}}, "displayed_time": "16.43", "trialTime": 19621, "trial_type": "mouselab-mdp", "trial_index": 58, "time_elapsed": 3536726, "internal_node_id": "0.0-6.0-1.0-37.0"}}, {"uniqueid": "w66708417:a36222086", "current_trial": 59, "dateTime": 1693568543373, "trialdata": {"revealed_states": [], "clicked_states": ["1", "2", "3", "4", "7"], "num_clicks_accrued": [0, 0, 0, 0, 0, 0, 0, 0, 0, 0, 0, 0, 0], "stateRewards": ["", 1, -1, 1, -14, -10, 67, -28, -11, 72, 40, -65, -1, 1, 1, -2, 8, -55, 34, -10, 61, 33, -15, 2, -4, 7, 4, -75, 63, -21, -16, 61, 19, 21], "withholdReward": false, "trial_id": "mdp_trial_39", "block": "test", "trialIndex": 44, "score": -60.75, "costs": -4.75, "simulationMode": [null, null, null, null, null], "rewards": [-1, 1, 1, -2, -55], "path": ["0", "0", "12", "13", "14", "15", "17"], "rt": [8549, 353, 39, 11, 429], "actions": ["right", "right", "right", "up", "right"], "actionTimes": [10858, 11747, 12319, 12887, 13885], "queries": {"click": {"state": {"target": ["1", "2", "3", "4", "7"], "time": [3511, 4169, 4882, 5468, 6949]}, "edge": {"target": [], "time": []}}, "mouseover": {"state": {"target": ["1", "2", "3", "4", "7"], "time": [3014, 3769, 4482, 5182, 5733]}, "edge": {"target": [], "time": []}}, "mouseout": {"state": {"target": ["16", "18", "0", "1", "2", "3", "4", "7"], "time": [812, 864, 1278, 3701, 4308, 5039, 5694, 14553]}, "edge": {"target": [], "time": []}}}, "displayed_time": "16.31", "trialTime": 16872, "trial_type": "mouselab-mdp", "trial_index": 59, "time_elapsed": 3554732, "internal_node_id": "0.0-6.0-1.0-38.0"}}, {"uniqueid": "w66708417:a36222086", "current_trial": 60, "dateTime": 1693568561768, "trialdata": {"revealed_states": [], "clicked_states": ["23", "24", "25", "26", "28"], "num_clicks_accrued": [0, 0, 0, 0, 0, 0, 0, 0, 0, 0, 0, 0, 0], "stateRewards": ["", 2, -1, 8, -2, -16, 69, -39, -7, -13, -27, -86, 2, -2, 2, 13, -34, -16, -20, -5, 19, 81, 32, -2, -1, 2, -14, 20, 80, 58, 4, 70, 12, 73], "withholdReward": false, "trial_id": "mdp_trial_40", "block": "test", "trialIndex": 45, "score": 60.25, "costs": -4.75, "simulationMode": [null, null, null, null, null], "rewards": [-2, -1, 2, -14, 80], "path": ["0", "0", "23", "24", "25", "26", "28"], "rt": [10206, 52, 799, 123, 221], "actions": ["left", "left", "left", "up", "right"], "actionTimes": [12316, 12911, 14276, 14986, 15769], "queries": {"click": {"state": {"target": ["23", "24", "25", "26", "28"], "time": [4163, 4807, 5532, 6667, 7914]}, "edge": {"target": [], "time": []}}, "mouseover": {"state": {"target": ["23", "24", "25", "26", "28", "10"], "time": [3753, 4420, 5081, 6024, 7472, 10167]}, "edge": {"target": [], "time": []}}, "mouseout": {"state": {"target": ["13", "12", "0", "23", "24", "25", "26", "28", "10"], "time": [752, 770, 3537, 4371, 5007, 5951, 7303, 10000, 10199]}, "edge": {"target": [], "time": []}}}, "displayed_time": "16.32", "trialTime": 17219, "trial_type": "mouselab-mdp", "trial_index": 60, "time_elapsed": 3573127, "internal_node_id": "0.0-6.0-1.0-39.0"}}, {"uniqueid": "w66708417:a36222086", "current_trial": 61, "dateTime": 1693568630361, "trialdata": {"rt": 68474, "response": {"Q0": "$-2 to $2", "Q1": "$-4 to $4", "Q2": "$-88 to $88", "Q3": "The cost for clicking on nodes varied between nodes.", "Q4": "Very motivated"}, "question_order": [0, 1, 2, 3, 4], "trial_id": "final_quiz_control", "trial_type": "survey-multi-choice", "trial_index": 61, "time_elapsed": 3641720, "internal_node_id": "0.0-6.0-2.0"}}, {"uniqueid": "w66708417:a36222086", "current_trial": 62, "dateTime": 1693568705593, "trialdata": {"rt": 74887, "response": {"Q0": "I first checked the value of the nodes and if it was negative I took a chance on nodes I hadn't opened", "Q1": "Yes, rather lose less than risk losing more", "Q2": "Very because I had to choose nodes blindly sometimes"}, "trial_id": "self_report_control", "trial_type": "survey-text", "trial_index": 62, "time_elapsed": 3716953, "internal_node_id": "0.0-6.0-3.0"}}, {"uniqueid": "w66708417:a36222086", "current_trial": 63, "dateTime": 1693568761385, "trialdata": {"rt": 55783, "response": {"Q0": "Agree", "Q1": "Disagree", "Q2": "Agree", "Q3": "Agree", "Q4": "Disagree", "Q5": "Agree", "Q6": "Disagree"}, "question_order": [0, 1, 2, 3, 4, 5, 6], "trial_id": "self_report_2", "trial_type": "survey-multi-choice", "trial_index": 63, "time_elapsed": 3772745, "internal_node_id": "0.0-6.0-4.0"}}, {"uniqueid": "w66708417:a36222086", "current_trial": 64, "dateTime": 1693568779700, "trialdata": {"rt": 18151, "response": {"gender": "female", "age": "29", "colorblind": "0", "effort": "0"}, "trial_type": "survey-html-form", "trial_index": 64, "time_elapsed": 3791060, "internal_node_id": "0.0-6.0-5.0"}}, {"uniqueid": "w66708417:a36222086", "current_trial": 65, "dateTime": 1693568804164, "trialdata": {"rt": 24449, "response": {"Q0": "No", "Q1": "No", "Q2": "No"}, "trial_type": "survey-text", "trial_index": 65, "time_elapsed": 3815524, "internal_node_id": "0.0-6.0-6.0"}}, {"uniqueid": "w66708417:a36222086", "current_trial": 66, "dateTime": 1693568815771, "trialdata": {"rt": 11563, "stimulus": "<h1>Completion Code Instructions (1/2)</h1>\n<br><br><br><br>\nYou have reached the end of the experiment! The completion code consists of two parts: (1) a code with 2 characters (2) a code with 6 characters. On this page, you will receive the second part of the code. The first part of the completion code will be on the next page.\n<br><br>\nThe second part of your completion code is: <b>EWEK22</b>\n<br><br>\nPlease note this down. Then, press 'Finish HIT' in order to find the first part of your completion code. Once the data has been saved, you will receive this code either in this window or in the original browser window where you started the experiment.\n", "response": 0, "trial_type": "html-button-response", "trial_index": 66, "time_elapsed": 3827131, "internal_node_id": "0.0-6.0-7.0"}}, {"uniqueid": "w66708417:a36222086", "current_trial": 67, "dateTime": 1693568816777, "trialdata": {"success": true, "trial_type": "fullscreen", "trial_index": 67, "time_elapsed": 3828137, "internal_node_id": "0.0-7.0"}}], "questiondata": {"params": {"CODE": "C6DMOQA6", "MIN_TIME": 14, "inspectCost": 1, "startTime": "Fri Sep 01 2023 12:43:06 GMT+0200 (South Africa Standard Time)", "bonusRate": 0.002, "variance": "1_2_4_8_44", "branching": "31123"}, "final_score": -58.25}, "eventdata": [{"eventtype": "initialized", "value": null, "timestamp": 1693564985997, "interval": 0}, {"eventtype": "window_resize", "value": [1024, 646], "timestamp": 1693564985997, "interval": 0}, {"eventtype": "window_resize", "value": [1024, 646], "timestamp": 1693564986539, "interval": 542}, {"eventtype": "window_resize", "value": [1366, 768], "timestamp": 1693565077201, "interval": 90662}, {"eventtype": "focus", "value": "off", "timestamp": 1693566333259, "interval": 1256058}, {"eventtype": "focus", "value": "on", "timestamp": 1693566333261, "interval": 2}, {"eventtype": "window_resize", "value": [1024, 646], "timestamp": 1693566333477, "interval": 216}, {"eventtype": "window_resize", "value": [1366, 768], "timestamp": 1693566335574, "interval": 2097}, {"eventtype": "focus", "value": "off", "timestamp": 1693566433243, "interval": 97669}, {"eventtype": "focus", "value": "on", "timestamp": 1693566433244, "interval": 1}, {"eventtype": "window_resize", "value": [1024, 646], "timestamp": 1693566433461, "interval": 217}, {"eventtype": "focus", "value": "off", "timestamp": 1693566437846, "interval": 4385}, {"eventtype": "focus", "value": "on", "timestamp": 1693566456249, "interval": 18403}, {"eventtype": "window_resize", "value": [1366, 768], "timestamp": 1693566457393, "interval": 1144}, {"eventtype": "window_resize", "value": [1024, 646], "timestamp": 1693566813577, "interval": 356184}, {"eventtype": "focus", "value": "off", "timestamp": 1693567235832, "interval": 422255}, {"eventtype": "focus", "value": "on", "timestamp": 1693567791749, "interval": 555917}, {"eventtype": "focus", "value": "off", "timestamp": 1693567934678, "interval": 142929}, {"eventtype": "focus", "value": "on", "timestamp": 1693567945901, "interval": 11223}, {"eventtype": "focus", "value": "off", "timestamp": 1693567962935, "interval": 17034}, {"eventtype": "focus", "value": "on", "timestamp": 1693567972477, "interval": 9542}, {"eventtype": "focus", "value": "off", "timestamp": 1693568091392, "interval": 118915}, {"eventtype": "focus", "value": "on", "timestamp": 1693568101689, "interval": 10297}, {"eventtype": "focus", "value": "off", "timestamp": 1693568128150, "interval": 26461}, {"eventtype": "focus", "value": "on", "timestamp": 1693568133276, "interval": 5126}, {"eventtype": "focus", "value": "off", "timestamp": 1693568186536, "interval": 53260}, {"eventtype": "focus", "value": "on", "timestamp": 1693568191501, "interval": 4965}, {"eventtype": "focus", "value": "off", "timestamp": 1693568192567, "interval": 1066}, {"eventtype": "focus", "value": "on", "timestamp": 1693568194415, "interval": 1848}, {"eventtype": "focus", "value": "off", "timestamp": 1693568408750, "interval": 214335}, {"eventtype": "focus", "value": "on", "timestamp": 1693568478522, "interval": 69772}, {"eventtype": "focus", "value": "off", "timestamp": 1693568566826, "interval": 88304}, {"eventtype": "focus", "value": "on", "timestamp": 1693568570986, "interval": 4160}, {"eventtype": "focus", "value": "off", "timestamp": 1693568571132, "interval": 146}, {"eventtype": "focus", "value": "on", "timestamp": 1693568572968, "interval": 1836}], "useragent": "Mozilla/5.0 (Windows NT 10.0; Win64; x64) AppleWebKit/537.36 (KHTML, like Gecko) Chrome/116.0.0.0 Safari/537.36", "mode": "live", "id": "w66708417:a36222086", "status": "user data saved", "Beginhit": "2023-09-01 10:42:59.574654", "Beginexp": "2023-09-01 10:44:35.618604", "Endhit": "2023-09-01 11:46:56.370244", "psiturkStatus": 3, "browser": "<redacted>", "platform": "windows", "language": "en-US"}