{"condition": 0, "counterbalance": 0, "assignmentId": "a40994652", "workerId": "w49284718", "hitId": "h99208159", "currenttrial": 23, "bonus": 0, "data": [{"uniqueid": "w49284718:a40994652", "current_trial": 0, "dateTime": 1693835409685, "trialdata": {"success": true, "trial_type": "fullscreen", "trial_index": 0, "time_elapsed": 13567, "internal_node_id": "0.0-0.0"}}, {"uniqueid": "w49284718:a40994652", "current_trial": 1, "dateTime": 1693835459043, "trialdata": {"view_history": [{"page_index": 0, "viewing_time": 49351}], "rt": 49353, "trial_id": "exp_instructions_misaligned", "trial_type": "instructions", "trial_index": 1, "time_elapsed": 62926, "internal_node_id": "0.0-1.0"}}, {"uniqueid": "w49284718:a40994652", "current_trial": 2, "dateTime": 1693835754148, "trialdata": {"view_history": [{"page_index": 0, "viewing_time": 128401}, {"page_index": 1, "viewing_time": 52408}, {"page_index": 2, "viewing_time": 36944}, {"page_index": 1, "viewing_time": 17697}, {"page_index": 2, "viewing_time": 15803}, {"page_index": 3, "viewing_time": 43847}], "rt": 295101, "trial_id": "mouselab_instructions_1_misaligned", "trial_type": "instructions", "trial_index": 2, "time_elapsed": 358031, "internal_node_id": "0.0-2.0-1.0"}}, {"uniqueid": "w49284718:a40994652", "current_trial": 3, "dateTime": 1693835871242, "trialdata": {"revealed_states": [], "clicked_states": ["26", "27", "25"], "num_clicks_accrued": [0, 0, 0, 0, 0, 0, 0, 0, 0, 0, 0, 0, 0], "stateRewards": ["", 10, 10, -10, 10, -10, 10, 10, -10, 10, 10, -10, -10, -10, 10, -10, -10, 10, 10, 10, 10, -10, -10, 10, 10, -10, 10, -10, 10, 10, -10, -10, -10, -10], "withholdReward": false, "trial_id": "practice_1", "block": "test", "trialIndex": 0, "score": -8, "costs": -1.5, "simulationMode": [null, null, null, null, null], "rewards": [-10, -10, 10, -10, 10], "path": ["0", "0", "12", "13", "14", "15", "17"], "rt": [49219, 3939, 1946, 8177, 17729], "actions": ["right", "right", "right", "up", "right"], "actionTimes": [66757, 71208, 73676, 82373, 100617], "queries": {"click": {"state": {"target": ["26", "27", "25"], "time": [24845, 29295, 39150]}, "edge": {"target": [], "time": []}}, "mouseover": {"state": {"target": ["23", "26", "27", "27", "26", "27", "26", "25", "23", "23", "24", "25", "26", "28", "1", "26", "28", "13", "14", "20"], "time": [20135, 20493, 27735, 28220, 32098, 34546, 36880, 38542, 43639, 46985, 47032, 47115, 49016, 53430, 56178, 57159, 58960, 59009, 59033, 59064]}, "edge": {"target": [], "time": []}}, "mouseout": {"state": {"target": ["0", "23", "26", "27", "27", "26", "27", "26", "25", "23", "23", "24", "25", "26", "28", "1", "26", "28", "13", "14", "20", "20", "15", "14", "15", "16", "15", "14", "13", "22", "14", "14", "15", "17", "15", "13", "12"], "time": [20129, 20143, 27704, 27751, 31733, 34230, 36511, 38076, 43256, 43722, 47003, 47065, 48767, 53297, 53496, 56860, 58943, 58977, 59027, 59056, 59075, 76511, 78658, 87783, 87918, 89698, 89982, 90748, 90798, 93196, 93463, 95444, 95527, 97108, 97425, 97591, 97641]}, "edge": {"target": [], "time": []}}}, "displayed_time": "101.14", "trialTime": 115882, "trial_type": "mouselab-mdp", "trial_index": 3, "time_elapsed": 475124, "internal_node_id": "0.0-2.0-2.0-0.0"}}, {"uniqueid": "w49284718:a40994652", "current_trial": 4, "dateTime": 1693835893944, "trialdata": {"revealed_states": [], "clicked_states": [], "num_clicks_accrued": [0, 0, 0, 0, 0, 0, 0, 0, 0, 0, 0, 0, 0], "stateRewards": ["", 10, -10, 10, 10, 10, 10, 10, -10, -10, 10, 10, 10, 10, 10, 10, -10, 10, 10, 10, 10, -10, 10, -10, -10, 10, -10, 10, -10, 10, -10, 10, -10, -10], "withholdReward": false, "trial_id": "practice_2", "block": "test", "trialIndex": 1, "score": -6.5, "costs": 0, "simulationMode": [null, null, null, null, null], "rewards": [-10, -10, 10, -10, 10], "path": ["0", "0", "23", "24", "25", "26", "27"], "rt": [2607, 235, 51, 785, 296], "actions": ["left", "left", "left", "up", "up"], "actionTimes": [10676, 11426, 11991, 13307, 14118], "queries": {"click": {"state": {"target": [], "time": []}, "edge": {"target": [], "time": []}}, "mouseover": {"state": {"target": ["23", "24", "26"], "time": [9059, 9121, 9391]}, "edge": {"target": [], "time": []}}, "mouseout": {"state": {"target": ["0", "23", "24"], "time": [9041, 9089, 9156]}, "edge": {"target": [], "time": []}}}, "displayed_time": "14.64", "trialTime": 22509, "trial_type": "mouselab-mdp", "trial_index": 4, "time_elapsed": 497827, "internal_node_id": "0.0-2.0-2.0-1.0"}}, {"uniqueid": "w49284718:a40994652", "current_trial": 5, "dateTime": 1693835946908, "trialdata": {"view_history": [{"page_index": 0, "viewing_time": 25705}, {"page_index": 1, "viewing_time": 27256}], "rt": 52962, "trial_id": "mouselab_instructions_2_misaligned", "trial_type": "instructions", "trial_index": 5, "time_elapsed": 550791, "internal_node_id": "0.0-2.0-3.0"}}, {"uniqueid": "w49284718:a40994652", "current_trial": 6, "dateTime": 1693836067013, "trialdata": {"rt": 120095, "response": {"Q0": "The cost for clicking on nodes may vary between nodes.", "Q1": "I will receive a $1 bonus regardless of my performance.", "Q2": "No, the structure of the web will be different each time.", "Q3": "To click on the least number of nodes.", "Q4": "Only after moving the spider.", "Q5": "10 seconds"}, "question_order": [0, 1, 2, 3, 4, 5], "correct": {"Q0": "The cost for clicking on nodes may vary between nodes.", "Q1": "The better I perform the higher my bonus will be.", "Q2": "No, the amount of cash at each node of the web may be different each time.", "Q3": "To get the highest total score.", "Q4": "Only before moving the spider.", "Q5": "3 seconds"}, "trial_id": "mouselab_quiz_misaligned", "trial_type": "survey-multi-choice", "trial_index": 6, "time_elapsed": 670896, "internal_node_id": "0.0-2.0-4.0"}}, {"uniqueid": "w49284718:a40994652", "current_trial": 7, "dateTime": 1693836079692, "trialdata": {"success": true, "trial_type": "fullscreen", "trial_index": 7, "time_elapsed": 683575, "internal_node_id": "0.0-2.1-0.1-0.1"}}, {"uniqueid": "w49284718:a40994652", "current_trial": 8, "dateTime": 1693836118194, "trialdata": {"view_history": [{"page_index": 0, "viewing_time": 8353}, {"page_index": 1, "viewing_time": 18263}, {"page_index": 2, "viewing_time": 3445}, {"page_index": 3, "viewing_time": 8439}], "rt": 38501, "trial_id": "mouselab_instructions_1_misaligned", "trial_type": "instructions", "trial_index": 8, "time_elapsed": 722077, "internal_node_id": "0.0-2.1-1.1"}}, {"uniqueid": "w49284718:a40994652", "current_trial": 9, "dateTime": 1693836150138, "trialdata": {"revealed_states": [], "clicked_states": [], "num_clicks_accrued": [0, 0, 0, 0, 0, 0, 0, 0, 0, 0, 0, 0, 0], "stateRewards": ["", 10, 10, -10, 10, -10, 10, 10, -10, 10, 10, -10, -10, -10, 10, -10, -10, 10, 10, 10, 10, -10, -10, 10, 10, -10, 10, -10, 10, 10, -10, -10, -10, -10], "withholdReward": false, "trial_id": "practice_1", "block": "test", "trialIndex": 2, "score": 13.5, "costs": 0, "simulationMode": [null, null, null, null, null], "rewards": [10, 10, -10, 10, -10], "path": ["0", "0", "23", "24", "25", "26", "27"], "rt": [4507, 1009, 4960, 1920, 8566], "actions": ["left", "left", "left", "up", "up"], "actionTimes": [9484, 10999, 16481, 18920, 27998], "queries": {"click": {"state": {"target": [], "time": []}, "edge": {"target": [], "time": []}}, "mouseover": {"state": {"target": ["28", "26", "28", "0"], "time": [6493, 6776, 7742, 7891]}, "edge": {"target": [], "time": []}}, "mouseout": {"state": {"target": ["0", "28", "26", "28", "0", "0"], "time": [3510, 6576, 7724, 7775, 8187, 13604]}, "edge": {"target": [], "time": []}}}, "displayed_time": "28.51", "trialTime": 31683, "trial_type": "mouselab-mdp", "trial_index": 9, "time_elapsed": 754020, "internal_node_id": "0.0-2.1-2.1-0.1"}}, {"uniqueid": "w49284718:a40994652", "current_trial": 10, "dateTime": 1693836176066, "trialdata": {"revealed_states": [], "clicked_states": [], "num_clicks_accrued": [0, 0, 0, 0, 0, 0, 0, 0, 0, 0, 0, 0, 0], "stateRewards": ["", 10, -10, 10, 10, 10, 10, 10, -10, -10, 10, 10, 10, 10, 10, 10, -10, 10, 10, 10, 10, -10, 10, -10, -10, 10, -10, 10, -10, 10, -10, 10, -10, -10], "withholdReward": false, "trial_id": "practice_2", "block": "test", "trialIndex": 3, "score": -6.5, "costs": 0, "simulationMode": [null, null, null, null, null], "rewards": [-10, -10, 10, -10, 10], "path": ["0", "0", "23", "24", "25", "26", "27"], "rt": [4091, 1041, 1244, 1370, 3248], "actions": ["left", "left", "left", "up", "up"], "actionTimes": [9283, 10836, 12602, 14494, 18255], "queries": {"click": {"state": {"target": [], "time": []}, "edge": {"target": [], "time": []}}, "mouseover": {"state": {"target": [], "time": []}, "edge": {"target": [], "time": []}}, "mouseout": {"state": {"target": ["24", "0", "31", "24", "28"], "time": [3948, 21633, 22349, 22382, 22916]}, "edge": {"target": [], "time": []}}}, "displayed_time": "18.77", "trialTime": 25726, "trial_type": "mouselab-mdp", "trial_index": 10, "time_elapsed": 779947, "internal_node_id": "0.0-2.1-2.1-1.1"}}, {"uniqueid": "w49284718:a40994652", "current_trial": 11, "dateTime": 1693836189722, "trialdata": {"view_history": [{"page_index": 0, "viewing_time": 11250}, {"page_index": 1, "viewing_time": 2402}], "rt": 13653, "trial_id": "mouselab_instructions_2_misaligned", "trial_type": "instructions", "trial_index": 11, "time_elapsed": 793605, "internal_node_id": "0.0-2.1-3.1"}}, {"uniqueid": "w49284718:a40994652", "current_trial": 12, "dateTime": 1693836258463, "trialdata": {"rt": 68734, "response": {"Q0": "There is no cost for clicking on nodes.", "Q1": "I will receive a $1 bonus regardless of my performance.", "Q2": "No, the amount of cash at each node of the web may be different each time.", "Q3": "To finish the game in the shortest amount of time.", "Q4": "Only before moving the spider.", "Q5": "10 seconds"}, "question_order": [0, 1, 2, 3, 4, 5], "correct": {"Q0": "The cost for clicking on nodes may vary between nodes.", "Q1": "The better I perform the higher my bonus will be.", "Q2": "No, the amount of cash at each node of the web may be different each time.", "Q3": "To get the highest total score.", "Q4": "Only before moving the spider.", "Q5": "3 seconds"}, "trial_id": "mouselab_quiz_misaligned", "trial_type": "survey-multi-choice", "trial_index": 12, "time_elapsed": 862345, "internal_node_id": "0.0-2.1-4.1"}}, {"uniqueid": "w49284718:a40994652", "current_trial": 13, "dateTime": 1693836306953, "trialdata": {"success": true, "trial_type": "fullscreen", "trial_index": 13, "time_elapsed": 910836, "internal_node_id": "0.0-2.2-0.2-0.2"}}, {"uniqueid": "w49284718:a40994652", "current_trial": 14, "dateTime": 1693836330337, "trialdata": {"view_history": [{"page_index": 0, "viewing_time": 9240}, {"page_index": 1, "viewing_time": 8477}, {"page_index": 2, "viewing_time": 2183}, {"page_index": 3, "viewing_time": 3479}], "rt": 23380, "trial_id": "mouselab_instructions_1_misaligned", "trial_type": "instructions", "trial_index": 14, "time_elapsed": 934219, "internal_node_id": "0.0-2.2-1.2"}}, {"uniqueid": "w49284718:a40994652", "current_trial": 15, "dateTime": 1693836345499, "trialdata": {"revealed_states": [], "clicked_states": [], "num_clicks_accrued": [0, 0, 0, 0, 0, 0, 0, 0, 0, 0, 0, 0, 0], "stateRewards": ["", 10, 10, -10, 10, -10, 10, 10, -10, 10, 10, -10, -10, -10, 10, -10, -10, 10, 10, 10, 10, -10, -10, 10, 10, -10, 10, -10, 10, 10, -10, -10, -10, -10], "withholdReward": false, "trial_id": "practice_1", "block": "test", "trialIndex": 4, "score": 13.5, "costs": 0, "simulationMode": [null, null, null, null, null], "rewards": [10, 10, -10, 10, -10], "path": ["0", "0", "23", "24", "25", "26", "27"], "rt": [5150, 1, 507, 971, 2], "actions": ["left", "left", "left", "up", "up"], "actionTimes": [8734, 9244, 10282, 11762, 12275], "queries": {"click": {"state": {"target": [], "time": []}, "edge": {"target": [], "time": []}}, "mouseover": {"state": {"target": ["23", "24", "24"], "time": [5778, 6710, 7476]}, "edge": {"target": [], "time": []}}, "mouseout": {"state": {"target": ["0", "23", "24", "24", "23"], "time": [5545, 6627, 6909, 7743, 14188]}, "edge": {"target": [], "time": []}}}, "displayed_time": "12.81", "trialTime": 14947, "trial_type": "mouselab-mdp", "trial_index": 15, "time_elapsed": 949380, "internal_node_id": "0.0-2.2-2.2-0.2"}}, {"uniqueid": "w49284718:a40994652", "current_trial": 16, "dateTime": 1693836366204, "trialdata": {"revealed_states": [], "clicked_states": [], "num_clicks_accrued": [0, 0, 0, 0, 0, 0, 0, 0, 0, 0, 0, 0, 0], "stateRewards": ["", 10, -10, 10, 10, 10, 10, 10, -10, -10, 10, 10, 10, 10, 10, 10, -10, 10, 10, 10, 10, -10, 10, -10, -10, 10, -10, 10, -10, 10, -10, 10, -10, -10], "withholdReward": false, "trial_id": "practice_2", "block": "test", "trialIndex": 5, "score": 33.5, "costs": 0, "simulationMode": [null, null, null, null, null], "rewards": [10, 10, 10, 10, -10], "path": ["0", "0", "12", "13", "14", "15", "16"], "rt": [1931, 172, 627, 586, 1360], "actions": ["right", "right", "right", "up", "up"], "actionTimes": [5110, 5797, 6934, 8041, 9916], "queries": {"click": {"state": {"target": [], "time": []}, "edge": {"target": [], "time": []}}, "mouseover": {"state": {"target": [], "time": []}, "edge": {"target": [], "time": []}}, "mouseout": {"state": {"target": [], "time": []}, "edge": {"target": [], "time": []}}}, "displayed_time": "10.44", "trialTime": 20462, "trial_type": "mouselab-mdp", "trial_index": 16, "time_elapsed": 970086, "internal_node_id": "0.0-2.2-2.2-1.2"}}, {"uniqueid": "w49284718:a40994652", "current_trial": 17, "dateTime": 1693836380036, "trialdata": {"view_history": [{"page_index": 0, "viewing_time": 11117}, {"page_index": 1, "viewing_time": 2711}], "rt": 13829, "trial_id": "mouselab_instructions_2_misaligned", "trial_type": "instructions", "trial_index": 17, "time_elapsed": 983919, "internal_node_id": "0.0-2.2-3.2"}}, {"uniqueid": "w49284718:a40994652", "current_trial": 18, "dateTime": 1693836430407, "trialdata": {"rt": 50364, "response": {"Q0": "The cost for clicking on nodes may vary between nodes.", "Q1": "I will receive a $1 bonus regardless of my performance.", "Q2": "No, the amount of cash at each node of the web may be different each time.", "Q3": "To get the highest total score.", "Q4": "Only before moving the spider.", "Q5": "10 seconds"}, "question_order": [0, 1, 2, 3, 4, 5], "correct": {"Q0": "The cost for clicking on nodes may vary between nodes.", "Q1": "The better I perform the higher my bonus will be.", "Q2": "No, the amount of cash at each node of the web may be different each time.", "Q3": "To get the highest total score.", "Q4": "Only before moving the spider.", "Q5": "3 seconds"}, "trial_id": "mouselab_quiz_misaligned", "trial_type": "survey-multi-choice", "trial_index": 18, "time_elapsed": 1034290, "internal_node_id": "0.0-2.2-4.2"}}, {"uniqueid": "w49284718:a40994652", "current_trial": 19, "dateTime": 1693836441880, "trialdata": {"success": true, "trial_type": "fullscreen", "trial_index": 19, "time_elapsed": 1045762, "internal_node_id": "0.0-2.3-0.3-0.3"}}, {"uniqueid": "w49284718:a40994652", "current_trial": 20, "dateTime": 1693836462130, "trialdata": {"view_history": [{"page_index": 0, "viewing_time": 11078}, {"page_index": 1, "viewing_time": 5106}, {"page_index": 2, "viewing_time": 2078}, {"page_index": 3, "viewing_time": 1982}], "rt": 20245, "trial_id": "mouselab_instructions_1_misaligned", "trial_type": "instructions", "trial_index": 20, "time_elapsed": 1066012, "internal_node_id": "0.0-2.3-1.3"}}, {"uniqueid": "w49284718:a40994652", "current_trial": 21, "dateTime": 1693836480129, "trialdata": {"revealed_states": [], "clicked_states": ["23"], "num_clicks_accrued": [0, 0, 0, 0, 0, 0, 0, 0, 0, 0, 0, 0, 0], "stateRewards": ["", 10, 10, -10, 10, -10, 10, 10, -10, 10, 10, -10, -10, -10, 10, -10, -10, 10, 10, 10, 10, -10, -10, 10, 10, -10, 10, -10, 10, 10, -10, -10, -10, -10], "withholdReward": false, "trial_id": "practice_1", "block": "test", "trialIndex": 6, "score": 13, "costs": -0.5, "simulationMode": [null, null, null, null, null], "rewards": [10, 10, -10, 10, -10], "path": ["0", "0", "23", "24", "25", "26", "27"], "rt": [4671, 593, 74, 748, 229], "actions": ["left", "left", "left", "up", "up"], "actionTimes": [12154, 13269, 13868, 15139, 15887], "queries": {"click": {"state": {"target": ["23"], "time": [11111]}, "edge": {"target": [], "time": []}}, "mouseover": {"state": {"target": ["23", "24", "25", "26", "28", "23", "23"], "time": [8563, 8610, 8693, 9113, 9315, 9429, 10528]}, "edge": {"target": [], "time": []}}, "mouseout": {"state": {"target": ["5", "6", "7", "1", "0", "23", "24", "25", "26", "28", "23"], "time": [5131, 5231, 5481, 6482, 8115, 8594, 8643, 8847, 9297, 9347, 9646]}, "edge": {"target": [], "time": []}}}, "displayed_time": "16.41", "trialTime": 17732, "trial_type": "mouselab-mdp", "trial_index": 21, "time_elapsed": 1084011, "internal_node_id": "0.0-2.3-2.3-0.3"}}, {"uniqueid": "w49284718:a40994652", "current_trial": 22, "dateTime": 1693836494362, "trialdata": {"revealed_states": [], "clicked_states": [], "num_clicks_accrued": [0, 0, 0, 0, 0, 0, 0, 0, 0, 0, 0, 0, 0], "stateRewards": ["", 10, -10, 10, 10, 10, 10, 10, -10, -10, 10, 10, 10, 10, 10, 10, -10, 10, 10, 10, 10, -10, 10, -10, -10, 10, -10, 10, -10, 10, -10, 10, -10, -10], "withholdReward": false, "trial_id": "practice_2", "block": "test", "trialIndex": 7, "score": 33.5, "costs": 0, "simulationMode": [null, null, null, null, null], "rewards": [10, 10, 10, 10, -10], "path": ["0", "0", "12", "13", "14", "15", "16"], "rt": [3176, 625, 41, 570, 136], "actions": ["right", "right", "right", "up", "up"], "actionTimes": [7792, 8933, 9497, 10576, 11224], "queries": {"click": {"state": {"target": [], "time": []}, "edge": {"target": [], "time": []}}, "mouseover": {"state": {"target": ["12", "13", "13", "12"], "time": [6126, 6226, 6660, 6744]}, "edge": {"target": [], "time": []}}, "mouseout": {"state": {"target": ["23", "12", "13", "13", "12"], "time": [1879, 6176, 6359, 6710, 13020]}, "edge": {"target": [], "time": []}}}, "displayed_time": "11.74", "trialTime": 13990, "trial_type": "mouselab-mdp", "trial_index": 22, "time_elapsed": 1098243, "internal_node_id": "0.0-2.3-2.3-1.3"}}], "questiondata": {"params": {"CODE": "C6DMOQA6", "MIN_TIME": 14, "inspectCost": 1, "startTime": "Mon Sep 04 2023 15:49:46 GMT+0200 (South Africa Standard Time)", "bonusRate": 0.002, "variance": "1_2_4_8_44", "branching": "31123"}}, "eventdata": [{"eventtype": "initialized", "value": null, "timestamp": 1693835385468, "interval": 0}, {"eventtype": "window_resize", "value": [1028, 752], "timestamp": 1693835385468, "interval": 0}, {"eventtype": "window_resize", "value": [1028, 752], "timestamp": 1693835386063, "interval": 595}, {"eventtype": "window_resize", "value": [1536, 864], "timestamp": 1693835408941, "interval": 22878}, {"eventtype": "focus", "value": "off", "timestamp": 1693836073392, "interval": 664451}, {"eventtype": "focus", "value": "on", "timestamp": 1693836073393, "interval": 1}, {"eventtype": "window_resize", "value": [1028, 752], "timestamp": 1693836073626, "interval": 233}, {"eventtype": "window_resize", "value": [1536, 864], "timestamp": 1693836078955, "interval": 5329}, {"eventtype": "focus", "value": "off", "timestamp": 1693836303955, "interval": 225000}, {"eventtype": "focus", "value": "on", "timestamp": 1693836303956, "interval": 1}, {"eventtype": "window_resize", "value": [1028, 752], "timestamp": 1693836304190, "interval": 234}, {"eventtype": "window_resize", "value": [1536, 864], "timestamp": 1693836306207, "interval": 2017}, {"eventtype": "focus", "value": "off", "timestamp": 1693836434408, "interval": 128201}, {"eventtype": "focus", "value": "on", "timestamp": 1693836434408, "interval": 0}, {"eventtype": "window_resize", "value": [1028, 752], "timestamp": 1693836434642, "interval": 234}, {"eventtype": "window_resize", "value": [1536, 864], "timestamp": 1693836441140, "interval": 6498}, {"eventtype": "window_resize", "value": [1028, 752], "timestamp": 1693836499598, "interval": 58458}], "useragent": "Mozilla/5.0 (Windows NT 10.0; Win64; x64) AppleWebKit/537.36 (KHTML, like Gecko) Chrome/116.0.0.0 Safari/537.36", "mode": "live", "id": "w49284718:a40994652", "status": "user data saved", "Beginhit": "2023-09-04 13:49:35.55738", "Beginexp": "2023-09-04 13:50:10.21947", "Endhit": null, "psiturkStatus": 6, "browser": "<redacted>", "platform": "windows", "language": "en-ZA", "excludeReason": "quizfail"}