{"condition": 0, "counterbalance": 0, "assignmentId": "a47163896", "workerId": "w45511493", "hitId": "h56296424", "currenttrial": 55, "bonus": 0, "data": [{"uniqueid": "w45511493:a47163896", "current_trial": 0, "dateTime": 1693564631293, "trialdata": {"success": true, "trial_type": "fullscreen", "trial_index": 0, "time_elapsed": 6021, "internal_node_id": "0.0-0.0"}}, {"uniqueid": "w45511493:a47163896", "current_trial": 1, "dateTime": 1693564656951, "trialdata": {"view_history": [{"page_index": 0, "viewing_time": 25654}], "rt": 25655, "trial_id": "exp_instructions_control", "trial_type": "instructions", "trial_index": 1, "time_elapsed": 31679, "internal_node_id": "0.0-1.0"}}, {"uniqueid": "w45511493:a47163896", "current_trial": 2, "dateTime": 1693564882031, "trialdata": {"view_history": [{"page_index": 0, "viewing_time": 107194}, {"page_index": 1, "viewing_time": 58357}, {"page_index": 2, "viewing_time": 19176}, {"page_index": 3, "viewing_time": 40352}], "rt": 225080, "trial_id": "mouselab_instructions_1_control", "trial_type": "instructions", "trial_index": 2, "time_elapsed": 256759, "internal_node_id": "0.0-2.0-1.0"}}, {"uniqueid": "w45511493:a47163896", "current_trial": 3, "dateTime": 1693564963410, "trialdata": {"revealed_states": [], "clicked_states": ["17", "15", "4", "9", "8", "7", "5", "3", "2", "1", "10", "6", "11", "28", "26", "18", "16", "27", "29", "25", "30", "32", "31", "33"], "num_clicks_accrued": [0, 0, 0, 0, 0, 0, 0, 0, 0, 0, 0, 0, 0], "stateRewards": ["", 10, -10, 10, 10, -10, 10, -10, -10, 10, -10, -10, -10, -10, -10, 10, -10, -10, -10, -10, 10, -10, 10, -10, -10, -10, 10, -10, -10, -10, -10, 10, 10, -10], "withholdReward": false, "trial_id": "practice_1", "block": "test", "trialIndex": 0, "score": -58.5, "costs": -12, "simulationMode": [null, null, null, null, null], "rewards": [-10, -10, -10, -10, -10], "path": ["0", "0", "12", "13", "14", "19", "21"], "rt": [63136, 2231, 5109, 779, 615], "actions": ["right", "right", "right", "down", "down"], "actionTimes": [66636, 69361, 74968, 76234, 77364], "queries": {"click": {"state": {"target": ["17", "15", "4", "9", "8", "7", "5", "3", "2", "1", "10", "6", "11", "28", "26", "18", "16", "27", "29", "25", "30", "32", "31", "33"], "time": [7959, 9750, 10907, 12427, 13779, 14999, 17184, 18846, 24204, 26840, 29120, 31884, 37016, 39215, 40715, 42541, 44148, 46140, 47727, 49468, 52276, 54182, 56131, 57835]}, "edge": {"target": [], "time": []}}, "mouseover": {"state": {"target": ["1", "7", "16", "15", "17", "16", "16", "15", "4", "3", "8", "9", "8", "7", "6", "6", "5", "4", "3", "2", "1", "2", "1", "10", "2", "5", "5", "6", "4", "11", "9", "9", "28", "26", "1", "18", "18", "16", "15", "27", "29", "25", "24", "30", "32", "31", "30", "33", "30"], "time": [5320, 5549, 7297, 7528, 7679, 8362, 9222, 9344, 10608, 11846, 12032, 12253, 13077, 14595, 15918, 16353, 16973, 18207, 18564, 19876, 20454, 23947, 25138, 28313, 30658, 31062, 31528, 31710, 35650, 36195, 38134, 38539, 39006, 39557, 41059, 41208, 41508, 43085, 44483, 45908, 47079, 48228, 51353, 51996, 53204, 54686, 56473, 56535, 60020]}, "edge": {"target": [], "time": []}}, "mouseout": {"state": {"target": ["12", "22", "22", "0", "1", "7", "16", "15", "17", "16", "16", "15", "4", "3", "8", "9", "8", "7", "6", "6", "5", "4", "3", "2", "1", "2", "1", "10", "2", "5", "5", "6", "6", "6", "4", "11", "9", "9", "28", "26", "28", "1", "18", "18", "16", "15", "18", "27", "29", "25", "24", "30", "32", "31", "30", "33", "30"], "time": [null, null, 2769, 3139, 5433, 5802, 7412, 7589, 8179, 9099, 9254, 10054, 11352, 11909, 12188, 12927, 14162, 15487, 16020, 16911, 17570, 18377, 19273, 20203, 23647, 24553, 27417, 29975, 30785, 31278, 31589, 31979, 32205, 35618, 35670, 37423, 38165, 38571, 39496, 40952, 41014, 41079, 41446, 42929, 44421, 44606, 44741, 46490, 48042, 50889, 51875, 53080, 54563, 56442, 56506, 59901, 60052]}, "edge": {"target": [], "time": []}}}, "displayed_time": "77.85", "trialTime": 80811, "trial_type": "mouselab-mdp", "trial_index": 3, "time_elapsed": 338137, "internal_node_id": "0.0-2.0-2.0-0.0"}}, {"uniqueid": "w45511493:a47163896", "current_trial": 4, "dateTime": 1693564990626, "trialdata": {"revealed_states": [], "clicked_states": ["5", "4", "7", "6", "3", "2", "1"], "num_clicks_accrued": [0, 0, 0, 0, 0, 0, 0, 0, 0, 0, 0, 0, 0], "stateRewards": ["", 10, -10, 10, 10, -10, -10, 10, -10, -10, 10, -10, 10, 10, 10, -10, -10, -10, 10, 10, -10, -10, -10, -10, 10, 10, 10, -10, -10, -10, 10, -10, -10, -10], "withholdReward": false, "trial_id": "practice_2", "block": "test", "trialIndex": 1, "score": 30, "costs": -3.5, "simulationMode": [null, null, null, null, null], "rewards": [10, -10, 10, 10, 10], "path": ["0", "0", "1", "2", "3", "4", "7"], "rt": [16829, 582, 352, 442, 436], "actions": ["up", "up", "up", "right", "down"], "actionTimes": [19917, 20992, 21841, 22795, 23745], "queries": {"click": {"state": {"target": ["5", "4", "7", "6", "3", "2", "1"], "time": [5403, 6906, 8449, 11472, 13018, 14699, 17163]}, "edge": {"target": [], "time": []}}, "mouseover": {"state": {"target": ["7", "4", "5", "4", "7", "6", "4", "3", "2", "1", "0"], "time": [4840, 4924, 5171, 6096, 7826, 8870, 11801, 11923, 13741, 15379, 17945]}, "edge": {"target": [], "time": []}}, "mouseout": {"state": {"target": ["23", "0", "7", "4", "5", "4", "7", "6", "4", "3", "2", "1", "0"], "time": [2574, 4724, 4867, 5048, 5787, 7301, 8551, 11769, 11862, 13529, 15168, 17822, 18536]}, "edge": {"target": [], "time": []}}}, "displayed_time": "24.27", "trialTime": 26952, "trial_type": "mouselab-mdp", "trial_index": 4, "time_elapsed": 365353, "internal_node_id": "0.0-2.0-2.0-1.0"}}, {"uniqueid": "w45511493:a47163896", "current_trial": 5, "dateTime": 1693565031922, "trialdata": {"view_history": [{"page_index": 0, "viewing_time": 31386}, {"page_index": 1, "viewing_time": 9907}], "rt": 41294, "trial_id": "mouselab_instructions_2_control", "trial_type": "instructions", "trial_index": 5, "time_elapsed": 406650, "internal_node_id": "0.0-2.0-3.0"}}, {"uniqueid": "w45511493:a47163896", "current_trial": 6, "dateTime": 1693565073173, "trialdata": {"rt": 41247, "response": {"Q0": "The cost for clicking on nodes may vary between nodes.", "Q1": "The better I perform the higher my bonus will be.", "Q2": "No, the amount of cash at each node of the web may be different each time.", "Q3": "To get the highest total score.", "Q4": "Only before moving the spider.", "Q5": "3 seconds"}, "question_order": [0, 1, 2, 3, 4, 5], "correct": {"Q0": "The cost for clicking on nodes may vary between nodes.", "Q1": "The better I perform the higher my bonus will be.", "Q2": "No, the amount of cash at each node of the web may be different each time.", "Q3": "To get the highest total score.", "Q4": "Only before moving the spider.", "Q5": "3 seconds"}, "trial_id": "mouselab_quiz_control", "trial_type": "survey-multi-choice", "trial_index": 6, "time_elapsed": 447901, "internal_node_id": "0.0-2.0-4.0"}}, {"uniqueid": "w45511493:a47163896", "current_trial": 7, "dateTime": 1693565078517, "trialdata": {"rt": 5336, "response": {"Q0": "No"}, "question_order": [0], "trial_id": "repeat_check", "trial_type": "survey-multi-choice", "trial_index": 7, "time_elapsed": 453245, "internal_node_id": "0.0-4.0-0.0"}}, {"uniqueid": "w45511493:a47163896", "current_trial": 8, "dateTime": 1693565093027, "trialdata": {"rt": 14504, "stimulus": "\n<h1> Get ready to start the game! </h1>\n\nThank you for reading the instructions. Get ready start with the 40 rounds of this game.\n<br><br>\nIf you need to take a break, feel free to take one after the end of a round, before continuing to the next one.\n<br><br>\nRemember, the more money the spider gets, the bigger your bonus will be!\n<br><br>\n<div style='text-align: center;'>Press <code>space</code> to begin.</div>\n\n<br><br>\n(If, at any point, the <code>space</code> key does not take you to the next page, click once on the text and try again.)", "response": " ", "trial_id": "mdp_ready", "trial_type": "html-keyboard-response", "trial_index": 8, "time_elapsed": 467755, "internal_node_id": "0.0-6.0-0.0"}}, {"uniqueid": "w45511493:a47163896", "current_trial": 9, "dateTime": 1693565138363, "trialdata": {"revealed_states": [], "clicked_states": ["1", "12", "23", "2", "13", "24", "3", "4", "8", "9", "11", "10"], "num_clicks_accrued": [0, 0, 0, 0, 0, 0, 0, 0, 0, 0, 0, 0, 0], "stateRewards": ["", -1, 3, -4, -14, 78, 67, 2, 13, -32, 28, 39, -2, 1, -4, -4, -4, -42, -86, 11, 64, -29, -32, -1, -4, 2, -7, 5, 68, -61, 2, -21, 85, 50], "withholdReward": false, "trial_id": "mdp_trial_1", "block": "test", "trialIndex": 2, "score": 33.2, "costs": -16.8, "simulationMode": [null, null, null, null, null], "rewards": [-1, 3, -4, 13, 39], "path": ["0", "0", "1", "2", "3", "8", "11"], "rt": [34487, 391, 898, 320, 390], "actions": ["up", "up", "up", "left", "left"], "actionTimes": [37255, 38138, 39534, 40346, 41255], "queries": {"click": {"state": {"target": ["1", "12", "23", "2", "13", "24", "3", "4", "8", "9", "11", "10"], "time": [5426, 7840, 9677, 12319, 15391, 17999, 21105, 23137, 25586, 28056, 29995, 32134]}, "edge": {"target": [], "time": []}}, "mouseover": {"state": {"target": ["1", "12", "0", "12", "0", "23", "24", "2", "3", "7", "18", "13", "12", "0", "23", "24", "10", "2", "3", "4", "8", "9", "11", "10", "0", "1", "0"], "time": [4455, 6101, 7311, 7441, 8275, 8899, 11576, 11914, 13125, 14435, 14525, 14830, 17295, 17509, 17606, 17755, 20168, 20508, 20849, 21803, 25352, 27758, 29207, 30534, 34918, 35543, 36065]}, "edge": {"target": [], "time": []}}, "mouseout": {"state": {"target": ["13", "12", "1", "12", "0", "12", "0", "23", "23", "24", "2", "3", "7", "18", "13", "12", "0", "23", "24", "10", "2", "3", "4", "4", "3", "8", "9", "11", "10", "0", "1", "0"], "time": [1185, 1668, 5730, 6778, 7342, 8245, 8524, 10271, 11359, 11700, 12876, 13780, 14497, 14552, 17232, 17478, 17570, 17662, 19890, 20232, 20599, 21742, 23242, 25045, 25199, 27635, 28583, 30285, 32567, 35011, 35729, 43659]}, "edge": {"target": [], "time": []}}}, "displayed_time": "41.76", "trialTime": 45070, "trial_type": "mouselab-mdp", "trial_index": 9, "time_elapsed": 513090, "internal_node_id": "0.0-6.0-1.0-0.0"}}, {"uniqueid": "w45511493:a47163896", "current_trial": 10, "dateTime": 1693565178242, "trialdata": {"revealed_states": [], "clicked_states": ["12", "23", "1", "2", "7", "10", "3", "4", "6", "8", "11", "9"], "num_clicks_accrued": [0, 0, 0, 0, 0, 0, 0, 0, 0, 0, 0, 0, 0], "stateRewards": ["", 1, -1, -7, -7, -22, 15, -13, 13, 26, -32, 38, -1, 1, -7, -4, 16, -62, 86, 12, -54, 56, 64, -2, -1, 6, 14, -57, 37, 62, -6, -25, 50, -70], "withholdReward": false, "trial_id": "mdp_trial_2", "block": "test", "trialIndex": 3, "score": 27.2, "costs": -16.8, "simulationMode": [null, null, null, null, null], "rewards": [1, -1, -7, 13, 38], "path": ["0", "0", "1", "2", "3", "8", "11"], "rt": [31938, 149, 218, 146, 241], "actions": ["up", "up", "up", "left", "left"], "actionTimes": [33833, 34501, 35245, 35915, 36684], "queries": {"click": {"state": {"target": ["12", "23", "1", "2", "7", "10", "3", "4", "6", "8", "11", "9"], "time": [3524, 5563, 7876, 10628, 12884, 15103, 17044, 19682, 21868, 25441, 27421, 29520]}, "edge": {"target": [], "time": []}}, "mouseover": {"state": {"target": ["12", "0", "23", "1", "2", "7", "10", "3", "4", "6", "5", "8", "11", "9", "3", "12"], "time": [2921, 3789, 3824, 6132, 10339, 11960, 13373, 15746, 19342, 20785, 22388, 25010, 25867, 28826, 32245, 32371]}, "edge": {"target": [], "time": []}}, "mouseout": {"state": {"target": ["12", "0", "12", "0", "23", "1", "2", "7", "2", "10", "3", "4", "6", "5", "8", "11", "9", "3", "12"], "time": [1029, 1346, 3759, 3821, 5852, 9992, 11926, 13188, 13250, 15409, 19307, 20508, 22296, 24605, 25745, 28673, 30369, 32277, 32438]}, "edge": {"target": [], "time": []}}}, "displayed_time": "37.20", "trialTime": 39617, "trial_type": "mouselab-mdp", "trial_index": 10, "time_elapsed": 552969, "internal_node_id": "0.0-6.0-1.0-1.0"}}, {"uniqueid": "w45511493:a47163896", "current_trial": 11, "dateTime": 1693565216443, "trialdata": {"revealed_states": [], "clicked_states": ["12", "1", "23", "24", "28", "25", "30", "31", "32", "26", "27", "29"], "num_clicks_accrued": [0, 0, 0, 0, 0, 0, 0, 0, 0, 0, 0, 0, 0], "stateRewards": ["", -2, 2, 3, -7, -31, -33, 29, -8, -57, 50, -83, -1, -1, 5, 13, -23, -62, 25, 5, -66, -85, 14, 1, -2, -1, 16, 71, 33, -19, -14, 5, -43, 79], "withholdReward": false, "trial_id": "mdp_trial_3", "block": "test", "trialIndex": 4, "score": 68.2, "costs": -16.8, "simulationMode": [null, null, null, null, null], "rewards": [1, -2, -1, 16, 71], "path": ["0", "0", "23", "24", "25", "26", "27"], "rt": [29855, 197, 333, 158, 223], "actions": ["left", "left", "left", "up", "up"], "actionTimes": [31903, 32622, 33468, 34123, 34867], "queries": {"click": {"state": {"target": ["12", "1", "23", "24", "28", "25", "30", "31", "32", "26", "27", "29"], "time": [3300, 5268, 7518, 10008, 12118, 14297, 16376, 18833, 20866, 23273, 25462, 27628]}, "edge": {"target": [], "time": []}}, "mouseover": {"state": {"target": ["12", "1", "23", "24", "28", "25", "25", "30", "31", "32", "33", "26", "27", "29", "25"], "time": [2972, 4013, 5743, 9369, 11488, 12783, 13091, 15840, 18475, 19433, 21622, 23015, 24424, 25931, 30121]}, "edge": {"target": [], "time": []}}, "mouseout": {"state": {"target": ["0", "12", "1", "1", "23", "24", "28", "28", "25", "25", "30", "30", "31", "32", "33", "26", "27", "29", "25"], "time": [2848, 3922, 5362, 5624, 8522, 11179, 12201, 12444, 12876, 15072, 16473, 18286, 19219, 21249, 22891, 24273, 25839, 30015, 30153]}, "edge": {"target": [], "time": []}}}, "displayed_time": "35.39", "trialTime": 37916, "trial_type": "mouselab-mdp", "trial_index": 11, "time_elapsed": 591171, "internal_node_id": "0.0-6.0-1.0-2.0"}}, {"uniqueid": "w45511493:a47163896", "current_trial": 12, "dateTime": 1693565261924, "trialdata": {"revealed_states": [], "clicked_states": ["12", "1", "23", "2", "13", "3", "4", "8", "7", "6", "5", "9", "11", "10"], "num_clicks_accrued": [0, 0, 0, 0, 0, 0, 0, 0, 0, 0, 0, 0, 0], "stateRewards": ["", 2, 3, 3, 10, 19, -21, 6, 9, 54, 68, 16, 2, 2, -6, -8, 40, -2, -75, -2, -42, 55, 59, -1, 2, 4, -14, 11, -34, -30, -6, 61, -53, 13], "withholdReward": false, "trial_id": "mdp_trial_4", "block": "test", "trialIndex": 5, "score": 65.4, "costs": -19.599999999999998, "simulationMode": [null, null, null, null, null], "rewards": [2, 3, 3, 9, 68], "path": ["0", "0", "1", "2", "3", "8", "10"], "rt": [36079, 269, 300, 293, 270], "actions": ["up", "up", "up", "left", "down"], "actionTimes": [39525, 40292, 41092, 41884, 42662], "queries": {"click": {"state": {"target": ["12", "1", "23", "2", "13", "3", "4", "8", "7", "6", "5", "9", "11", "10"], "time": [4418, 6467, 8527, 11291, 13304, 16084, 18263, 20335, 23306, 25631, 27614, 30709, 33262, 35394]}, "edge": {"target": [], "time": []}}, "mouseover": {"state": {"target": ["12", "1", "23", "24", "2", "13", "3", "4", "8", "10", "7", "6", "5", "9", "11", "10", "8", "8"], "time": [4148, 4990, 6873, 9695, 11056, 11888, 15827, 16986, 18900, 21034, 22978, 23592, 25929, 30370, 31478, 33846, 37501, 37866]}, "edge": {"target": [], "time": []}}, "mouseout": {"state": {"target": ["0", "12", "1", "1", "23", "24", "2", "13", "3", "4", "3", "8", "10", "7", "6", "5", "9", "11", "11", "10", "8", "8"], "time": [4054, 4958, 6558, 6720, 8799, 10812, 11486, 15468, 16924, 18651, 18745, 20813, 22947, 23470, 25839, 30075, 31110, 33368, 33598, 37034, 37562, 37897]}, "edge": {"target": [], "time": []}}}, "displayed_time": "43.16", "trialTime": 45228, "trial_type": "mouselab-mdp", "trial_index": 12, "time_elapsed": 636651, "internal_node_id": "0.0-6.0-1.0-3.0"}}, {"uniqueid": "w45511493:a47163896", "current_trial": 13, "dateTime": 1693565317061, "trialdata": {"revealed_states": [], "clicked_states": ["12", "1", "23", "18", "13", "14", "19", "21", "20", "22", "15", "17", "16"], "num_clicks_accrued": [0, 0, 0, 0, 0, 0, 0, 0, 0, 0, 0, 0, 0], "stateRewards": ["", -2, -3, 8, 14, -73, 73, 84, -12, -2, -50, -17, 2, 1, -2, -9, -44, -27, -33, 16, -63, -47, -66, -2, 1, 4, -5, -33, -11, 50, 9, 38, -79, 31], "withholdReward": false, "trial_id": "mdp_trial_5", "block": "test", "trialIndex": 6, "score": -85.2, "costs": -18.2, "simulationMode": [null, null, null, null, null], "rewards": [-2, 1, 4, 9, -79], "path": ["0", "0", "23", "24", "25", "30", "32"], "rt": [43146, 238, 408, 117, 197], "actions": ["left", "left", "left", "down", "down"], "actionTimes": [49488, 50223, 51132, 51764, 52461], "queries": {"click": {"state": {"target": ["12", "1", "23", "18", "13", "14", "19", "21", "20", "22", "15", "17", "16"], "time": [8428, 10934, 12999, 15893, 18645, 21028, 23559, 25582, 27590, 29565, 32155, 34208, 36190]}, "edge": {"target": [], "time": []}}, "mouseover": {"state": {"target": ["12", "1", "23", "0", "18", "15", "15", "15", "16", "15", "14", "13", "14", "19", "21", "20", "22", "14", "15", "17", "16", "18", "0", "23", "1", "2"], "time": [8190, 9272, 11561, 15130, 15340, 16568, 16785, 17009, 17293, 17490, 17663, 17941, 19045, 23197, 24329, 26026, 28140, 30308, 30832, 32467, 34625, 37612, 40911, 41054, 41738, 41822]}, "edge": {"target": [], "time": []}}, "mouseout": {"state": {"target": ["10", "2", "22", "0", "12", "1", "23", "0", "18", "15", "15", "15", "16", "15", "14", "13", "14", "19", "21", "20", "22", "14", "15", "17", "16", "16", "18", "0", "23", "1", "2"], "time": [1053, 1084, 5708, 5940, 9119, 11005, 15099, 15191, 16387, 16599, 16817, 17071, 17488, 17601, 17725, 18982, 23093, 24014, 25777, 27894, 30184, 30461, 32375, 34534, 36274, 36691, 40125, 40993, 41519, 41769, 42751]}, "edge": {"target": [], "time": []}}}, "displayed_time": "52.97", "trialTime": 54885, "trial_type": "mouselab-mdp", "trial_index": 13, "time_elapsed": 691789, "internal_node_id": "0.0-6.0-1.0-4.0"}}, {"uniqueid": "w45511493:a47163896", "current_trial": 14, "dateTime": 1693565335173, "trialdata": {"revealed_states": [], "clicked_states": [], "num_clicks_accrued": [0, 0, 0, 0, 0, 0, 0, 0, 0, 0, 0, 0, 0], "stateRewards": ["", -1, 2, -2, 13, -56, -28, 10, 14, 53, -80, -29, 1, -3, -3, -14, 14, 9, -40, -9, 18, 18, 48, 1, 1, 1, -9, 64, -39, -9, 7, -52, -78, 7], "withholdReward": false, "trial_id": "mdp_trial_6", "block": "test", "trialIndex": 7, "score": -10, "costs": 0, "simulationMode": [null, null, null, null, null], "rewards": [1, -3, -3, -14, 9], "path": ["0", "0", "12", "13", "14", "15", "17"], "rt": [8217, 144, 173, 760, 960], "actions": ["right", "right", "right", "up", "right"], "actionTimes": [10324, 10992, 11676, 12942, 14403], "queries": {"click": {"state": {"target": [], "time": []}, "edge": {"target": [], "time": []}}, "mouseover": {"state": {"target": ["0", "23", "1", "23", "23", "0"], "time": [2170, 4317, 4459, 7356, 8803, 8983]}, "edge": {"target": [], "time": []}}, "mouseout": {"state": {"target": ["0", "0", "23", "1", "23", "23", "0"], "time": [1821, 2205, 4350, 4772, 8051, 8929, 9004]}, "edge": {"target": [], "time": []}}}, "displayed_time": "16.11", "trialTime": 17848, "trial_type": "mouselab-mdp", "trial_index": 14, "time_elapsed": 709900, "internal_node_id": "0.0-6.0-1.0-5.0"}}, {"uniqueid": "w45511493:a47163896", "current_trial": 15, "dateTime": 1693565369028, "trialdata": {"revealed_states": [], "clicked_states": ["1", "2", "7", "6", "5", "4", "3", "8", "9", "11", "10"], "num_clicks_accrued": [0, 0, 0, 0, 0, 0, 0, 0, 0, 0, 0, 0, 0], "stateRewards": ["", 2, 3, -1, 6, 44, -4, -59, -14, -3, 64, 16, 1, -3, 3, 6, 3, 49, 19, 3, -49, -14, -86, 1, 2, -3, -8, -33, 14, 32, -13, -77, -47, -67], "withholdReward": false, "trial_id": "mdp_trial_7", "block": "test", "trialIndex": 8, "score": 38.599999999999994, "costs": -15.400000000000002, "simulationMode": [null, null, null, null, null], "rewards": [2, 3, -1, 6, 44], "path": ["0", "0", "1", "2", "3", "4", "5"], "rt": [26171, 385, 498, 66, 212], "actions": ["up", "up", "up", "right", "up"], "actionTimes": [28094, 28982, 29989, 30581, 31344], "queries": {"click": {"state": {"target": ["1", "2", "7", "6", "5", "4", "3", "8", "9", "11", "10"], "time": [2581, 5392, 8295, 10326, 12207, 14198, 16237, 18426, 20279, 22267, 23890]}, "edge": {"target": [], "time": []}}, "mouseover": {"state": {"target": ["1", "2", "7", "4", "6", "4", "5", "4", "3", "3", "4", "3", "8", "9", "11", "10", "2", "3"], "time": [2419, 3092, 5996, 8602, 9895, 10795, 11414, 12683, 13023, 13402, 13494, 14640, 17701, 18781, 20977, 22764, 25863, 26543]}, "edge": {"target": [], "time": []}}, "mouseout": {"state": {"target": ["0", "1", "2", "7", "4", "6", "4", "5", "4", "3", "3", "4", "3", "8", "9", "11", "10", "2", "3"], "time": [1010, 2814, 5689, 8504, 9864, 10415, 11383, 12588, 12965, 13333, 13466, 14487, 16659, 18628, 20746, 22516, 24902, 26513, 26750]}, "edge": {"target": [], "time": []}}}, "displayed_time": "31.87", "trialTime": 33598, "trial_type": "mouselab-mdp", "trial_index": 15, "time_elapsed": 743756, "internal_node_id": "0.0-6.0-1.0-6.0"}}, {"uniqueid": "w45511493:a47163896", "current_trial": 16, "dateTime": 1693565410087, "trialdata": {"revealed_states": [], "clicked_states": ["23", "1", "12", "13", "2", "24", "3", "5", "6", "7", "4", "8", "9", "11", "10"], "num_clicks_accrued": [0, 0, 0, 0, 0, 0, 0, 0, 0, 0, 0, 0, 0], "stateRewards": ["", 1, -1, 1, -14, -10, 67, -28, -11, 72, 40, -65, -1, 1, 1, -2, 8, -55, 34, -10, 61, 33, -15, 2, -4, 7, 4, -75, 63, -21, -16, 61, 19, 21], "withholdReward": false, "trial_id": "mdp_trial_8", "block": "test", "trialIndex": 9, "score": 41, "costs": -20.999999999999996, "simulationMode": [null, null, null, null, null], "rewards": [1, -1, 1, -11, 72], "path": ["0", "0", "1", "2", "3", "8", "9"], "rt": [33307, 238, 219, 210, 227], "actions": ["up", "up", "up", "left", "up"], "actionTimes": [35884, 36620, 37342, 38078, 38807], "queries": {"click": {"state": {"target": ["23", "1", "12", "13", "2", "24", "3", "5", "6", "7", "4", "8", "9", "11", "10"], "time": [3386, 5253, 7281, 9268, 11246, 13269, 16371, 18310, 20265, 22167, 24042, 26047, 27961, 30294, 32385]}, "edge": {"target": [], "time": []}}, "mouseover": {"state": {"target": ["23", "1", "12", "13", "2", "24", "3", "4", "5", "6", "4", "7", "4", "3", "8", "9", "11", "10"], "time": [3135, 3711, 5821, 7766, 9880, 12348, 16249, 17155, 17523, 18892, 20723, 20919, 22490, 24422, 24733, 26473, 28613, 30977]}, "edge": {"target": [], "time": []}}, "mouseout": {"state": {"target": ["2", "12", "0", "23", "1", "1", "12", "13", "2", "24", "24", "24", "3", "4", "5", "6", "6", "4", "7", "4", "3", "8", "9", "11", "10"], "time": [1399, 1582, 2297, 3619, 5355, 5603, 7579, 9507, 11670, 13738, 15501, 15672, 16752, 17460, 18607, 20367, 20597, 20757, 22396, 24393, 24483, 26321, 28372, 30888, 34070]}, "edge": {"target": [], "time": []}}}, "displayed_time": "39.32", "trialTime": 40787, "trial_type": "mouselab-mdp", "trial_index": 16, "time_elapsed": 784815, "internal_node_id": "0.0-6.0-1.0-7.0"}}, {"uniqueid": "w45511493:a47163896", "current_trial": 17, "dateTime": 1693565451975, "trialdata": {"revealed_states": [], "clicked_states": ["23", "1", "12", "13", "2", "24", "14", "15", "19", "20", "21", "22", "17", "16", "18"], "num_clicks_accrued": [0, 0, 0, 0, 0, 0, 0, 0, 0, 0, 0, 0, 0], "stateRewards": ["", -1, -4, -3, 1, -45, -67, -24, 14, 32, 22, 22, -1, 1, -5, -7, 72, 84, -79, -5, 19, -40, -2, -1, -2, 8, -3, 84, -25, -28, 11, 64, -66, 77], "withholdReward": false, "trial_id": "mdp_trial_9", "block": "test", "trialIndex": 10, "score": 51, "costs": -20.999999999999996, "simulationMode": [null, null, null, null, null], "rewards": [-1, 1, -5, -7, 84], "path": ["0", "0", "12", "13", "14", "15", "17"], "rt": [32354, 246, 323, 248, 233], "actions": ["right", "right", "right", "up", "right"], "actionTimes": [36623, 37381, 38225, 38990, 39725], "queries": {"click": {"state": {"target": ["23", "1", "12", "13", "2", "24", "14", "15", "19", "20", "21", "22", "17", "16", "18"], "time": [5231, 6835, 8470, 10454, 12374, 14431, 17102, 19050, 21045, 22980, 24920, 26884, 28887, 31053, 33188]}, "edge": {"target": [], "time": []}}, "mouseover": {"state": {"target": ["23", "1", "12", "13", "18", "18", "2", "10", "28", "24", "23", "0", "12", "13", "14", "15", "19", "20", "21", "22", "14", "17", "16", "18", "15", "17", "17"], "time": [4971, 5659, 7421, 9051, 10761, 11442, 11841, 12815, 13193, 13509, 16466, 16527, 16558, 16740, 16992, 17681, 19614, 22490, 23446, 25216, 27259, 27601, 29371, 31682, 33921, 34016, 34511]}, "edge": {"target": [], "time": []}}, "mouseout": {"state": {"target": ["1", "0", "0", "23", "1", "12", "12", "13", "18", "18", "2", "10", "28", "24", "24", "23", "0", "12", "13", "14", "15", "14", "19", "20", "21", "22", "14", "17", "16", "18", "15", "17", "17"], "time": [1555, 1710, 3946, 5473, 7292, 8598, 8955, 10668, 11290, 11534, 12756, 13018, 13288, 14672, 16434, 16497, 16553, 16646, 16801, 17459, 19425, 19552, 22431, 23292, 25157, 26972, 27290, 29095, 31495, 33865, 33981, 34170, 35202]}, "edge": {"target": [], "time": []}}}, "displayed_time": "40.23", "trialTime": 41589, "trial_type": "mouselab-mdp", "trial_index": 17, "time_elapsed": 826702, "internal_node_id": "0.0-6.0-1.0-8.0"}}, {"uniqueid": "w45511493:a47163896", "current_trial": 18, "dateTime": 1693565489184, "trialdata": {"revealed_states": [], "clicked_states": ["12", "1", "23", "24", "28", "27", "29", "26", "25", "30", "31", "32", "33"], "num_clicks_accrued": [0, 0, 0, 0, 0, 0, 0, 0, 0, 0, 0, 0, 0], "stateRewards": ["", 1, -4, -6, -1, -21, 17, -72, 10, 77, 67, -46, -1, 4, -2, 14, -66, -49, -45, -15, -52, 23, -67, 2, -2, -2, 15, -3, 45, -64, 5, -44, 83, 61], "withholdReward": false, "trial_id": "mdp_trial_10", "block": "test", "trialIndex": 11, "score": 67.8, "costs": -18.2, "simulationMode": [null, null, null, null, null], "rewards": [2, -2, -2, 5, 83], "path": ["0", "0", "23", "24", "25", "30", "32"], "rt": [28873, 240, 488, 104, 211], "actions": ["left", "left", "left", "down", "down"], "actionTimes": [32013, 32751, 33738, 34345, 35098], "queries": {"click": {"state": {"target": ["12", "1", "23", "24", "28", "27", "29", "26", "25", "30", "31", "32", "33"], "time": [4188, 6197, 8125, 10421, 12367, 14251, 16293, 18390, 20277, 22468, 24453, 26409, 28559]}, "edge": {"target": [], "time": []}}, "mouseover": {"state": {"target": ["12", "13", "1", "23", "24", "28", "27", "29", "26", "25", "30", "31", "32", "33"], "time": [3923, 4857, 5658, 6589, 10229, 10841, 12814, 14982, 16646, 18839, 20769, 23075, 24959, 26861]}, "edge": {"target": [], "time": []}}, "mouseout": {"state": {"target": ["17", "22", "12", "13", "1", "23", "23", "24", "28", "27", "29", "26", "25", "30", "31", "32", "33"], "time": [1242, 1407, 4250, 5448, 6502, 8482, 10137, 10732, 12522, 14767, 16552, 18686, 20673, 23011, 24813, 26604, 28656]}, "edge": {"target": [], "time": []}}}, "displayed_time": "35.63", "trialTime": 36948, "trial_type": "mouselab-mdp", "trial_index": 18, "time_elapsed": 863912, "internal_node_id": "0.0-6.0-1.0-9.0"}}, {"uniqueid": "w45511493:a47163896", "current_trial": 19, "dateTime": 1693565543172, "trialdata": {"revealed_states": [], "clicked_states": ["12", "1", "23", "2", "5", "6", "7", "11", "9", "10", "16", "17", "20", "21", "22", "31", "32", "33", "29", "27"], "num_clicks_accrued": [0, 0, 0, 0, 0, 0, 0, 0, 0, 0, 0, 0, 0], "stateRewards": ["", 1, 2, -8, 9, 18, -83, -11, 6, -64, -48, 17, -2, -2, -5, -3, -24, -3, -86, -2, 48, -41, -22, -2, 4, 7, 8, 81, 13, -48, 10, 61, 19, 57], "withholdReward": false, "trial_id": "mdp_trial_11", "block": "test", "trialIndex": 12, "score": 70.00000000000001, "costs": -27.99999999999999, "simulationMode": [null, null, null, null, null], "rewards": [-2, 4, 7, 8, 81], "path": ["0", "0", "23", "24", "25", "26", "27"], "rt": [46193, 276, 298, 190, 234], "actions": ["left", "left", "left", "up", "up"], "actionTimes": [48761, 49535, 50309, 50999, 51759], "queries": {"click": {"state": {"target": ["12", "1", "23", "2", "5", "6", "7", "11", "9", "10", "16", "17", "20", "21", "22", "31", "32", "33", "29", "27"], "time": [3742, 5500, 7638, 10127, 12071, 13800, 15934, 20014, 21645, 23613, 26285, 28262, 30171, 32246, 34382, 36759, 38854, 40977, 43102, 45218]}, "edge": {"target": [], "time": []}}, "mouseover": {"state": {"target": ["12", "1", "23", "24", "2", "7", "4", "5", "6", "7", "9", "11", "9", "8", "10", "2", "16", "17", "20", "21", "22", "13", "12", "0", "31", "32", "33", "25", "29", "27", "11", "28", "24", "23", "23"], "time": [3484, 4088, 6075, 8148, 9890, 10536, 10695, 10972, 12724, 14581, 16252, 18073, 20599, 22339, 22683, 25689, 25786, 26706, 28926, 30595, 32879, 34760, 36190, 36252, 36601, 37684, 39200, 41741, 42148, 43540, 45580, 45980, 46043, 46507, 47066]}, "edge": {"target": [], "time": []}}, "mouseout": {"state": {"target": ["30", "12", "13", "13", "12", "12", "1", "1", "23", "24", "2", "7", "4", "5", "6", "7", "9", "11", "9", "8", "10", "2", "16", "17", "20", "21", "22", "13", "12", "0", "31", "32", "33", "25", "29", "27", "11", "28", "24", "23", "23"], "time": [1052, 1150, 1218, 1805, 1930, 3933, 5599, 5859, 8058, 9599, 10474, 10568, 10819, 12373, 14264, 16158, 17761, 20094, 22246, 22553, 24817, 25717, 26351, 28585, 30468, 32804, 34453, 36160, 36222, 36288, 37098, 39108, 41179, 42055, 43185, 45426, 45857, 46012, 46073, 46816, 47221]}, "edge": {"target": [], "time": []}}}, "displayed_time": "52.27", "trialTime": 53731, "trial_type": "mouselab-mdp", "trial_index": 19, "time_elapsed": 917899, "internal_node_id": "0.0-6.0-1.0-10.0"}}, {"uniqueid": "w45511493:a47163896", "current_trial": 20, "dateTime": 1693565581831, "trialdata": {"revealed_states": [], "clicked_states": ["9", "5", "6", "11", "16", "17", "20", "21", "22", "32", "31", "33", "29", "27"], "num_clicks_accrued": [0, 0, 0, 0, 0, 0, 0, 0, 0, 0, 0, 0, 0], "stateRewards": ["", 2, -2, 7, -11, -76, -65, -23, 16, -58, 30, 81, 1, 2, 7, 14, 9, 55, -2, 6, 11, -15, 31, -1, -1, -3, 2, 15, 2, 46, 15, 18, 45, -34], "withholdReward": false, "trial_id": "mdp_trial_12", "block": "test", "trialIndex": 13, "score": 84.4, "costs": -19.599999999999998, "simulationMode": [null, null, null, null, null], "rewards": [2, -2, 7, 16, 81], "path": ["0", "0", "1", "2", "3", "8", "11"], "rt": [30344, 24, 195, 119, 236], "actions": ["up", "up", "up", "left", "left"], "actionTimes": [33333, 33853, 34580, 35196, 35964], "queries": {"click": {"state": {"target": ["9", "5", "6", "11", "16", "17", "20", "21", "22", "32", "31", "33", "29", "27"], "time": [4228, 6165, 8126, 10110, 12388, 14407, 16324, 18334, 20421, 22113, 24120, 26091, 28014, 30184]}, "edge": {"target": [], "time": []}}, "mouseover": {"state": {"target": ["2", "9", "9", "5", "6", "3", "8", "11", "8", "3", "16", "17", "20", "21", "22", "32", "32", "31", "30", "33", "29", "27"], "time": [3692, 3783, 3992, 4555, 6780, 8682, 8718, 8958, 10533, 10594, 10995, 13582, 15634, 17060, 18835, 21065, 21412, 22718, 24332, 24454, 26886, 28436]}, "edge": {"target": [], "time": []}}, "mouseout": {"state": {"target": ["0", "0", "2", "9", "9", "5", "6", "3", "8", "11", "8", "3", "16", "16", "17", "17", "20", "21", "22", "32", "32", "31", "30", "33", "29", "27"], "time": [2408, 2627, 3724, 3899, 4287, 6505, 8648, 8710, 8740, 10195, 10563, 10624, 12486, 13181, 14481, 14821, 16815, 18407, 20529, 21157, 22534, 24307, 24390, 26518, 28214, 31991]}, "edge": {"target": [], "time": []}}}, "displayed_time": "36.46", "trialTime": 38380, "trial_type": "mouselab-mdp", "trial_index": 20, "time_elapsed": 956558, "internal_node_id": "0.0-6.0-1.0-11.0"}}, {"uniqueid": "w45511493:a47163896", "current_trial": 21, "dateTime": 1693565620456, "trialdata": {"revealed_states": [], "clicked_states": ["9", "5", "6", "16", "17", "20", "21", "22", "31", "32", "33", "29", "27"], "num_clicks_accrued": [0, 0, 0, 0, 0, 0, 0, 0, 0, 0, 0, 0, 0], "stateRewards": ["", 1, 1, -2, 7, -31, -6, 76, 1, -36, -16, -53, 2, 1, 7, 13, -47, -10, 47, -7, 72, 46, -56, -2, -2, -2, 11, -80, 44, 38, 16, 67, 85, -78], "withholdReward": false, "trial_id": "mdp_trial_13", "block": "test", "trialIndex": 14, "score": 76.8, "costs": -18.2, "simulationMode": [null, null, null, null, null], "rewards": [-2, -2, -2, 16, 85], "path": ["0", "0", "23", "24", "25", "30", "32"], "rt": [31901, 48, 191, 139, 365], "actions": ["left", "left", "left", "down", "down"], "actionTimes": [33744, 34297, 35025, 35681, 36557], "queries": {"click": {"state": {"target": ["9", "5", "6", "16", "17", "20", "21", "22", "31", "32", "33", "29", "27"], "time": [4037, 5890, 7827, 9764, 11706, 13644, 15868, 17979, 19994, 22431, 24769, 27467, 29573]}, "edge": {"target": [], "time": []}}, "mouseover": {"state": {"target": ["23", "28", "26", "27", "11", "9", "5", "6", "16", "16", "17", "20", "21", "22", "31", "32", "33", "30", "25", "29", "27", "11", "9", "8", "24"], "time": [2784, 2988, 3019, 3232, 3510, 3851, 4379, 6307, 8285, 8442, 10167, 12126, 14172, 16493, 18940, 20596, 23067, 25376, 26038, 27269, 27885, 30319, 30973, 32422, 32580]}, "edge": {"target": [], "time": []}}, "mouseout": {"state": {"target": ["0", "23", "28", "26", "27", "11", "9", "5", "6", "16", "16", "17", "20", "21", "22", "31", "32", "33", "30", "25", "29", "27", "11", "9", "8", "24"], "time": [2694, 2894, 3016, 3079, 3421, 3541, 4256, 6242, 8133, 8345, 10071, 12004, 13956, 16119, 18406, 20288, 22725, 25284, 25471, 27152, 27702, 30227, 30349, 32269, 32456, 32612]}, "edge": {"target": [], "time": []}}}, "displayed_time": "37.07", "trialTime": 38354, "trial_type": "mouselab-mdp", "trial_index": 21, "time_elapsed": 995184, "internal_node_id": "0.0-6.0-1.0-12.0"}}, {"uniqueid": "w45511493:a47163896", "current_trial": 22, "dateTime": 1693565653224, "trialdata": {"revealed_states": [], "clicked_states": ["32", "33", "29", "27", "9", "5", "16", "17", "20", "21", "22"], "num_clicks_accrued": [0, 0, 0, 0, 0, 0, 0, 0, 0, 0, 0, 0, 0], "stateRewards": ["", 2, 3, -3, 12, -43, 81, -82, -15, 58, -7, -75, -1, -1, 3, -5, 50, -25, -8, 4, 66, 65, -66, 2, -4, 2, -1, -10, 10, 37, 11, 88, -37, 8], "withholdReward": false, "trial_id": "mdp_trial_14", "block": "test", "trialIndex": 15, "score": 55.599999999999994, "costs": -15.400000000000002, "simulationMode": [null, null, null, null, null], "rewards": [-1, -1, 3, 4, 66], "path": ["0", "0", "12", "13", "14", "19", "20"], "rt": [25576, 78, 68, 218, 260], "actions": ["right", "right", "right", "down", "right"], "actionTimes": [28187, 28777, 29386, 30121, 30881], "queries": {"click": {"state": {"target": ["32", "33", "29", "27", "9", "5", "16", "17", "20", "21", "22"], "time": [4130, 6070, 7928, 10044, 12219, 14623, 17030, 19116, 21188, 23106, 24937]}, "edge": {"target": [], "time": []}}, "mouseover": {"state": {"target": ["31", "32", "33", "29", "27", "11", "9", "5", "16", "16", "17", "20", "21", "22"], "time": [3301, 3394, 4441, 6505, 8488, 11209, 11456, 12662, 16260, 16818, 17581, 19816, 21759, 23457]}, "edge": {"target": [], "time": []}}, "mouseout": {"state": {"target": ["23", "31", "32", "33", "29", "27", "11", "9", "5", "16", "16", "17", "17", "20", "21"], "time": [1243, 3364, 4285, 6162, 8303, 10996, 11364, 12464, 15001, 16633, 17271, 19180, 19413, 21452, 23301]}, "edge": {"target": [], "time": []}}}, "displayed_time": "31.39", "trialTime": 32473, "trial_type": "mouselab-mdp", "trial_index": 22, "time_elapsed": 1027951, "internal_node_id": "0.0-6.0-1.0-13.0"}}, {"uniqueid": "w45511493:a47163896", "current_trial": 23, "dateTime": 1693565671743, "trialdata": {"revealed_states": [], "clicked_states": ["5", "6", "16", "17"], "num_clicks_accrued": [0, 0, 0, 0, 0, 0, 0, 0, 0, 0, 0, 0, 0], "stateRewards": ["", 1, 1, -3, 7, 49, 78, 26, -5, 26, 48, -43, -1, -3, 2, -5, 4, -1, -60, 10, -35, 51, 81, -2, 1, -7, -5, -39, -86, -54, 4, -3, 74, 77], "withholdReward": false, "trial_id": "mdp_trial_15", "block": "test", "trialIndex": 16, "score": 78.4, "costs": -5.6, "simulationMode": [null, null, null, null, null], "rewards": [1, 1, -3, 7, 78], "path": ["0", "0", "1", "2", "3", "4", "6"], "rt": [10891, 892, 291, 243, 220], "actions": ["up", "up", "up", "right", "right"], "actionTimes": [13186, 14591, 15383, 16135, 16887], "queries": {"click": {"state": {"target": ["5", "6", "16", "17"], "time": [3609, 5707, 8900, 10800]}, "edge": {"target": [], "time": []}}, "mouseover": {"state": {"target": ["1", "4", "5", "6", "16", "16", "17", "20"], "time": [3089, 3181, 3425, 4415, 6199, 8067, 9401, 11619]}, "edge": {"target": [], "time": []}}, "mouseout": {"state": {"target": ["22", "12", "0", "1", "4", "5", "6", "16", "16", "16", "17"], "time": [1458, 1582, 1757, 3121, 3270, 4318, 5929, 7874, 8988, 9094, 11190]}, "edge": {"target": [], "time": []}}}, "displayed_time": "17.41", "trialTime": 18264, "trial_type": "mouselab-mdp", "trial_index": 23, "time_elapsed": 1046471, "internal_node_id": "0.0-6.0-1.0-14.0"}}, {"uniqueid": "w45511493:a47163896", "current_trial": 24, "dateTime": 1693565690607, "trialdata": {"revealed_states": [], "clicked_states": ["9"], "num_clicks_accrued": [0, 0, 0, 0, 0, 0, 0, 0, 0, 0, 0, 0, 0], "stateRewards": ["", -2, -2, -7, -13, -10, 49, -68, -1, 84, 70, 88, 1, 4, 4, 12, -57, 25, 30, 8, -1, -77, 57, 2, 3, 2, 3, -18, -80, 23, -15, -41, 70, 11], "withholdReward": false, "trial_id": "mdp_trial_16", "block": "test", "trialIndex": 17, "score": 70.6, "costs": -1.4, "simulationMode": [null, null, null, null, null], "rewards": [-2, -2, -7, -1, 84], "path": ["0", "0", "1", "2", "3", "8", "9"], "rt": [5110, 264, 317, 223, 248], "actions": ["up", "up", "up", "left", "up"], "actionTimes": [8578, 9355, 10217, 10954, 11721], "queries": {"click": {"state": {"target": ["9"], "time": [4748]}, "edge": {"target": [], "time": []}}, "mouseover": {"state": {"target": ["1", "9", "5", "4"], "time": [4157, 4644, 5171, 7734]}, "edge": {"target": [], "time": []}}, "mouseout": {"state": {"target": ["20", "0", "1", "9", "5"], "time": [1251, 3629, 4189, 4819, 7401]}, "edge": {"target": [], "time": []}}}, "displayed_time": "17.47", "trialTime": 18602, "trial_type": "mouselab-mdp", "trial_index": 24, "time_elapsed": 1065334, "internal_node_id": "0.0-6.0-1.0-15.0"}}, {"uniqueid": "w45511493:a47163896", "current_trial": 25, "dateTime": 1693565731502, "trialdata": {"revealed_states": [], "clicked_states": ["9", "5", "6", "16", "17", "20", "21", "22", "31", "32", "33", "29", "27", "11"], "num_clicks_accrued": [0, 0, 0, 0, 0, 0, 0, 0, 0, 0, 0, 0, 0], "stateRewards": ["", 1, -4, -6, 11, -20, 8, -30, 1, -38, 88, 42, 2, 3, 5, -12, -8, -74, 30, -8, 67, -19, 42, 2, -1, 4, 13, 50, -68, 2, -8, -15, 87, -46], "withholdReward": false, "trial_id": "mdp_trial_17", "block": "test", "trialIndex": 18, "score": 64.4, "costs": -19.599999999999998, "simulationMode": [null, null, null, null, null], "rewards": [2, -1, 4, -8, 87], "path": ["0", "0", "23", "24", "25", "30", "32"], "rt": [33928, 162, 241, 119, 218], "actions": ["left", "left", "left", "down", "down"], "actionTimes": [35867, 36530, 37291, 37907, 38658], "queries": {"click": {"state": {"target": ["9", "5", "6", "16", "17", "20", "21", "22", "31", "32", "33", "29", "27", "11"], "time": [3269, 5308, 7318, 9458, 11539, 14460, 17046, 19278, 21358, 23684, 26542, 28699, 30704, 32851]}, "edge": {"target": [], "time": []}}, "mouseover": {"state": {"target": ["0", "9", "5", "6", "16", "17", "20", "21", "22", "31", "32", "33", "29", "27", "11", "27", "27", "11"], "time": [1978, 2896, 3726, 5776, 7694, 9861, 14302, 15181, 17926, 20529, 21766, 24117, 27452, 29060, 29491, 29766, 30111, 31188]}, "edge": {"target": [], "time": []}}, "mouseout": {"state": {"target": ["4", "12", "0", "0", "9", "5", "6", "16", "16", "17", "20", "21", "22", "31", "32", "33", "29", "27", "11", "27", "27", "11"], "time": [1079, 1205, 1608, 2566, 3634, 5560, 7572, 9556, 9727, 13621, 15059, 17708, 19510, 21610, 23992, 27052, 28876, 29307, 29582, 29925, 30940, 33473]}, "edge": {"target": [], "time": []}}}, "displayed_time": "39.18", "trialTime": 40642, "trial_type": "mouselab-mdp", "trial_index": 25, "time_elapsed": 1106230, "internal_node_id": "0.0-6.0-1.0-16.0"}}, {"uniqueid": "w45511493:a47163896", "current_trial": 26, "dateTime": 1693565765527, "trialdata": {"revealed_states": [], "clicked_states": ["9", "5", "6", "16", "17", "20", "21", "32", "22", "31", "33"], "num_clicks_accrued": [0, 0, 0, 0, 0, 0, 0, 0, 0, 0, 0, 0, 0], "stateRewards": ["", 1, -1, 4, 5, -32, 18, 20, 6, -88, -74, 9, -2, 1, -2, -14, 34, -77, -38, -1, 80, -36, 73, 2, 3, -8, 10, -48, -73, -71, -11, -22, 20, 54], "withholdReward": false, "trial_id": "mdp_trial_18", "block": "test", "trialIndex": 19, "score": 60.599999999999994, "costs": -15.400000000000002, "simulationMode": [null, null, null, null, null], "rewards": [-2, 1, -2, -1, 80], "path": ["0", "0", "12", "13", "14", "19", "20"], "rt": [27693, 41, 306, 48, 222], "actions": ["right", "right", "right", "down", "right"], "actionTimes": [29823, 30355, 31209, 31773, 32502], "queries": {"click": {"state": {"target": ["9", "5", "6", "16", "17", "20", "21", "32", "22", "31", "33"], "time": [3840, 5848, 7814, 9954, 12135, 14646, 17248, 20001, 22087, 24289, 26353]}, "edge": {"target": [], "time": []}}, "mouseover": {"state": {"target": ["3", "9", "9", "5", "6", "16", "17", "20", "21", "32", "22", "31", "30", "33", "33", "29", "30"], "time": [3191, 3269, 3642, 4624, 6286, 8231, 10577, 14521, 15155, 19803, 20996, 22515, 24608, 24699, 25194, 26767, 28693]}, "edge": {"target": [], "time": []}}, "mouseout": {"state": {"target": ["11", "8", "0", "3", "9", "9", "5", "6", "16", "17", "17", "20", "21", "21", "32", "22", "31", "30", "33", "33", "29", "30", "31"], "time": [1247, 1314, 3100, 3237, 3361, 3860, 6101, 8075, 10269, 12265, 13865, 15093, 18006, 19279, 20600, 22360, 24553, 24669, 24825, 26582, 28630, 28715, 28775]}, "edge": {"target": [], "time": []}}}, "displayed_time": "33.02", "trialTime": 33766, "trial_type": "mouselab-mdp", "trial_index": 26, "time_elapsed": 1140255, "internal_node_id": "0.0-6.0-1.0-17.0"}}, {"uniqueid": "w45511493:a47163896", "current_trial": 27, "dateTime": 1693565807887, "trialdata": {"revealed_states": [], "clicked_states": ["9", "5", "6", "16", "17", "20", "21", "22", "31", "32", "33", "29", "27", "11"], "num_clicks_accrued": [0, 0, 0, 0, 0, 0, 0, 0, 0, 0, 0, 0, 0], "stateRewards": ["", 1, -2, -8, -3, 31, -84, -55, -14, 15, -58, 17, -2, -3, 7, 7, -12, 48, 67, 4, -44, -68, 46, 2, 3, -5, -7, 76, 27, 5, 11, 57, 52, 59], "withholdReward": false, "trial_id": "mdp_trial_19", "block": "test", "trialIndex": 20, "score": 49.400000000000006, "costs": -19.599999999999998, "simulationMode": [null, null, null, null, null], "rewards": [2, 3, -5, -7, 76], "path": ["0", "0", "23", "24", "25", "26", "27"], "rt": [36127, 58, 92, 31, 37], "actions": ["left", "left", "left", "up", "up"], "actionTimes": [38226, 38793, 39442, 39998, 40562], "queries": {"click": {"state": {"target": ["9", "5", "6", "16", "17", "20", "21", "22", "31", "32", "33", "29", "27", "11"], "time": [3132, 5597, 7727, 9884, 11888, 14157, 16468, 18852, 21428, 24324, 26587, 29458, 31909, 35050]}, "edge": {"target": [], "time": []}}, "mouseover": {"state": {"target": ["1", "8", "9", "5", "6", "6", "16", "17", "20", "21", "22", "31", "32", "33", "29", "27", "11"], "time": [2505, 2716, 2900, 5377, 6327, 6758, 8393, 10410, 12531, 16255, 17329, 19516, 22450, 25472, 27357, 30931, 32628]}, "edge": {"target": [], "time": []}}, "mouseout": {"state": {"target": ["0", "1", "8", "9", "5", "6", "6", "16", "17", "20", "21", "22", "22", "31", "32", "33", "29", "27", "11"], "time": [1823, 2595, 2779, 5193, 5826, 6512, 8024, 10189, 12161, 16068, 16742, 18928, 19054, 21679, 25255, 26925, 29606, 32349, 35645]}, "edge": {"target": [], "time": []}}}, "displayed_time": "41.08", "trialTime": 42122, "trial_type": "mouselab-mdp", "trial_index": 27, "time_elapsed": 1182615, "internal_node_id": "0.0-6.0-1.0-18.0"}}, {"uniqueid": "w45511493:a47163896", "current_trial": 28, "dateTime": 1693565828600, "trialdata": {"revealed_states": [], "clicked_states": ["9", "5", "6", "16"], "num_clicks_accrued": [0, 0, 0, 0, 0, 0, 0, 0, 0, 0, 0, 0, 0], "stateRewards": ["", 2, 4, 7, 7, -79, -2, -21, -5, -53, 47, -21, 1, -3, -1, 7, 83, 7, 84, -7, 80, -37, 69, 2, -4, 5, 2, 4, -20, -30, 7, 71, 44, -81], "withholdReward": false, "trial_id": "mdp_trial_20", "block": "test", "trialIndex": 21, "score": 81.4, "costs": -5.6, "simulationMode": [null, null, null, null, null], "rewards": [1, -3, -1, 7, 83], "path": ["0", "0", "12", "13", "14", "15", "16"], "rt": [11741, 285, 399, 198, 188], "actions": ["right", "right", "right", "up", "up"], "actionTimes": [14724, 15498, 16420, 17147, 17844], "queries": {"click": {"state": {"target": ["9", "5", "6", "16"], "time": [4733, 6650, 8749, 10765]}, "edge": {"target": [], "time": []}}, "mouseover": {"state": {"target": ["9", "9", "5", "6", "16", "17"], "time": [4328, 4455, 5390, 7335, 9157, 11377]}, "edge": {"target": [], "time": []}}, "mouseout": {"state": {"target": ["10", "2", "18", "13", "0", "9", "9", "5", "6", "16"], "time": [1112, 1142, 1369, 1419, 2669, 4358, 4804, 7019, 9002, 11041]}, "edge": {"target": [], "time": []}}}, "displayed_time": "18.36", "trialTime": 20435, "trial_type": "mouselab-mdp", "trial_index": 28, "time_elapsed": 1203327, "internal_node_id": "0.0-6.0-1.0-19.0"}}, {"uniqueid": "w45511493:a47163896", "current_trial": 29, "dateTime": 1693565858797, "trialdata": {"revealed_states": [], "clicked_states": ["29", "33", "20", "17", "6", "5", "9", "11", "27"], "num_clicks_accrued": [0, 0, 0, 0, 0, 0, 0, 0, 0, 0, 0, 0, 0], "stateRewards": ["", 2, -4, -8, -15, 71, -43, -41, 7, -17, 20, 67, -1, -1, -4, 6, 37, -24, -47, 9, 34, 57, 45, 1, 2, -4, -5, -23, 88, -5, 13, -40, 43, 44], "withholdReward": false, "trial_id": "mdp_trial_21", "block": "test", "trialIndex": 22, "score": 33.4, "costs": -12.600000000000001, "simulationMode": [null, null, null, null, null], "rewards": [2, -4, -8, -15, 71], "path": ["0", "0", "1", "2", "3", "4", "5"], "rt": [22569, 44, 153, 1010, 236], "actions": ["up", "up", "up", "right", "up"], "actionTimes": [25069, 25645, 26308, 27840, 28593], "queries": {"click": {"state": {"target": ["29", "33", "20", "17", "6", "5", "9", "11", "27"], "time": [3944, 5916, 8017, 10168, 12678, 14695, 17008, 19485, 21972]}, "edge": {"target": [], "time": []}}, "mouseover": {"state": {"target": ["23", "26", "29", "33", "20", "17", "6", "5", "9", "11", "27"], "time": [3374, 3467, 3708, 4761, 6641, 8503, 12497, 13148, 15051, 19275, 20719]}, "edge": {"target": [], "time": []}}, "mouseout": {"state": {"target": ["17", "14", "22", "23", "26", "29", "33", "20", "17", "6", "5", "9", "11", "27"], "time": [1353, 1477, 1578, 3405, 3616, 4234, 6210, 8308, 11944, 12870, 14767, 18965, 20223, 22316]}, "edge": {"target": [], "time": []}}}, "displayed_time": "29.10", "trialTime": 29940, "trial_type": "mouselab-mdp", "trial_index": 29, "time_elapsed": 1233524, "internal_node_id": "0.0-6.0-1.0-20.0"}}, {"uniqueid": "w45511493:a47163896", "current_trial": 30, "dateTime": 1693565898341, "trialdata": {"revealed_states": [], "clicked_states": ["29", "33", "32", "27", "11", "9", "5", "6", "16", "17", "20", "21", "22"], "num_clicks_accrued": [0, 0, 0, 0, 0, 0, 0, 0, 0, 0, 0, 0, 0], "stateRewards": ["", -1, 4, -6, -5, -22, -38, -38, -2, -56, 88, 14, -1, -1, -7, -6, 61, -60, 21, 11, 57, 31, -30, -2, -2, 6, -9, -44, -70, -44, -15, 34, 16, -78], "withholdReward": false, "trial_id": "mdp_trial_22", "block": "test", "trialIndex": 23, "score": 27.799999999999997, "costs": -18.2, "simulationMode": [null, null, null, null, null], "rewards": [-1, -1, -7, -6, 61], "path": ["0", "0", "12", "13", "14", "15", "16"], "rt": [31721, 107, 210, 45, 50], "actions": ["right", "right", "right", "up", "up"], "actionTimes": [34097, 34718, 35439, 35982, 36574], "queries": {"click": {"state": {"target": ["29", "33", "32", "27", "11", "9", "5", "6", "16", "17", "20", "21", "22"], "time": [4182, 6173, 8737, 10869, 12874, 15345, 17376, 19434, 21536, 24039, 26568, 28782, 30943]}, "edge": {"target": [], "time": []}}, "mouseover": {"state": {"target": ["0", "23", "24", "25", "29", "33", "27", "30", "32", "30", "27", "11", "11", "9", "5", "6", "16", "17", "20", "21", "22"], "time": [3206, 3283, 3437, 3501, 3623, 5600, 6682, 8266, 8442, 9062, 9525, 11190, 11710, 13400, 15852, 17983, 19883, 21983, 26398, 27760, 29550]}, "edge": {"target": [], "time": []}}, "mouseout": {"state": {"target": ["0", "0", "23", "24", "25", "29", "33", "27", "30", "32", "30", "27", "11", "11", "9", "5", "6", "16", "16", "17", "17", "20", "20", "21", "22"], "time": [2522, 3237, 3407, 3470, 3538, 4313, 6467, 8153, 8328, 9000, 9093, 10939, 11223, 13033, 15631, 17737, 19714, 21624, 21815, 24127, 24911, 26667, 27329, 29270, 31049]}, "edge": {"target": [], "time": []}}}, "displayed_time": "37.08", "trialTime": 39286, "trial_type": "mouselab-mdp", "trial_index": 30, "time_elapsed": 1273068, "internal_node_id": "0.0-6.0-1.0-21.0"}}, {"uniqueid": "w45511493:a47163896", "current_trial": 31, "dateTime": 1693565939719, "trialdata": {"revealed_states": [], "clicked_states": ["33", "32", "31", "29", "27", "11", "9", "5", "6", "16", "17", "20", "21", "22"], "num_clicks_accrued": [0, 0, 0, 0, 0, 0, 0, 0, 0, 0, 0, 0, 0], "stateRewards": ["", 2, -1, -2, -5, -47, -57, -33, -11, 31, -18, -72, -2, 1, -4, -8, -46, -53, -50, 15, -85, -9, 39, -2, -2, 1, 14, -1, -8, 53, -12, -41, -74, 62], "withholdReward": false, "trial_id": "mdp_trial_23", "block": "test", "trialIndex": 24, "score": 27.400000000000006, "costs": -19.599999999999998, "simulationMode": [null, null, null, null, null], "rewards": [-2, -2, 1, -12, 62], "path": ["0", "0", "23", "24", "25", "30", "33"], "rt": [33056, 481, 239, 105, 254], "actions": ["left", "left", "left", "down", "left"], "actionTimes": [35994, 36982, 37728, 38360, 39104], "queries": {"click": {"state": {"target": ["33", "32", "31", "29", "27", "11", "9", "5", "6", "16", "17", "20", "21", "22"], "time": [4624, 6505, 8713, 11529, 13625, 15657, 17873, 20037, 22106, 24321, 26405, 28420, 30483, 32491]}, "edge": {"target": [], "time": []}}, "mouseover": {"state": {"target": ["23", "24", "25", "33", "32", "31", "30", "33", "30", "25", "29", "27", "11", "11", "9", "8", "8", "5", "6", "16", "17", "20", "21", "22"], "time": [4033, 4109, 4141, 4386, 5063, 7017, 9180, 9573, 10129, 10998, 11269, 12189, 14283, 14589, 16032, 18510, 19099, 19654, 21199, 22779, 24870, 27057, 29006, 30928]}, "edge": {"target": [], "time": []}}, "mouseout": {"state": {"target": ["6", "7", "2", "28", "23", "24", "25", "33", "32", "31", "30", "33", "30", "31", "25", "29", "27", "11", "11", "9", "8", "8", "5", "6", "16", "17", "20", "21", "22"], "time": [1111, 1174, 1530, 1780, 4107, 4138, 4201, 4852, 6709, 8819, 9542, 10037, 10189, 10784, 11117, 12067, 14037, 14344, 15906, 18387, 18909, 19253, 20333, 22346, 24427, 26718, 28695, 30727, 32787]}, "edge": {"target": [], "time": []}}}, "displayed_time": "39.62", "trialTime": 41113, "trial_type": "mouselab-mdp", "trial_index": 31, "time_elapsed": 1314447, "internal_node_id": "0.0-6.0-1.0-22.0"}}, {"uniqueid": "w45511493:a47163896", "current_trial": 32, "dateTime": 1693565963447, "trialdata": {"revealed_states": [], "clicked_states": ["9", "5", "6", "16", "17", "20"], "num_clicks_accrued": [0, 0, 0, 0, 0, 0, 0, 0, 0, 0, 0, 0, 0], "stateRewards": ["", -1, -3, 1, 13, -64, -29, 12, -4, -33, 50, 56, 2, -3, 4, 11, -64, -58, -55, 12, 47, 38, -25, -2, 2, 5, -15, 85, 7, 84, 10, 8, 57, 26], "withholdReward": false, "trial_id": "mdp_trial_24", "block": "test", "trialIndex": 25, "score": 53.6, "costs": -8.4, "simulationMode": [null, null, null, null, null], "rewards": [2, -3, 4, 12, 47], "path": ["0", "0", "12", "13", "14", "19", "20"], "rt": [16027, 251, 260, 163, 252], "actions": ["right", "right", "right", "down", "right"], "actionTimes": [18908, 19685, 20466, 21138, 21907], "queries": {"click": {"state": {"target": ["9", "5", "6", "16", "17", "20"], "time": [4608, 6636, 8683, 10874, 12921, 14964]}, "edge": {"target": [], "time": []}}, "mouseover": {"state": {"target": ["10", "8", "9", "5", "5", "16", "6", "16", "17", "20", "21"], "time": [3827, 3888, 4146, 5282, 6085, 7378, 7902, 9235, 11394, 13616, 15589]}, "edge": {"target": [], "time": []}}, "mouseout": {"state": {"target": ["0", "10", "8", "9", "9", "5", "5", "16", "6", "16", "17", "20"], "time": [2615, 3858, 4023, 4715, 5220, 5407, 6713, 7717, 8930, 11203, 13210, 15371]}, "edge": {"target": [], "time": []}}}, "displayed_time": "22.42", "trialTime": 23466, "trial_type": "mouselab-mdp", "trial_index": 32, "time_elapsed": 1338175, "internal_node_id": "0.0-6.0-1.0-23.0"}}, {"uniqueid": "w45511493:a47163896", "current_trial": 33, "dateTime": 1693565990623, "trialdata": {"revealed_states": [], "clicked_states": ["32", "33", "29", "27", "11", "9", "5"], "num_clicks_accrued": [0, 0, 0, 0, 0, 0, 0, 0, 0, 0, 0, 0, 0], "stateRewards": ["", 2, -4, 4, 9, 69, 9, -75, 12, -86, 66, 25, -1, 3, 2, -13, -88, -3, 1, 4, -69, 49, -84, 2, -1, 4, 2, -18, -81, -52, -15, -69, -54, 25], "withholdReward": false, "trial_id": "mdp_trial_25", "block": "test", "trialIndex": 26, "score": 70.2, "costs": -9.8, "simulationMode": [null, null, null, null, null], "rewards": [2, -4, 4, 9, 69], "path": ["0", "0", "1", "2", "3", "4", "5"], "rt": [18551, 193, 1517, 227, 288], "actions": ["up", "up", "up", "right", "up"], "actionTimes": [21144, 21860, 23895, 24606, 25406], "queries": {"click": {"state": {"target": ["32", "33", "29", "27", "11", "9", "5"], "time": [3966, 6574, 8767, 10973, 13324, 15502, 17613]}, "edge": {"target": [], "time": []}}, "mouseover": {"state": {"target": ["22", "30", "32", "31", "25", "33", "29", "26", "27", "11", "9", "11", "9", "5", "6"], "time": [2874, 3497, 3710, 4291, 6114, 6351, 7003, 9191, 10736, 11285, 11624, 13202, 13657, 16764, 18684]}, "edge": {"target": [], "time": []}}, "mouseout": {"state": {"target": ["21", "22", "0", "22", "30", "32", "31", "25", "33", "29", "26", "27", "11", "9", "11", "9", "5"], "time": [1141, 1266, 1586, 2906, 3588, 4170, 6022, 6260, 6786, 9128, 9253, 11163, 11471, 12953, 13394, 16270, 17999]}, "edge": {"target": [], "time": []}}}, "displayed_time": "25.91", "trialTime": 26926, "trial_type": "mouselab-mdp", "trial_index": 33, "time_elapsed": 1365351, "internal_node_id": "0.0-6.0-1.0-24.0"}}, {"uniqueid": "w45511493:a47163896", "current_trial": 34, "dateTime": 1693566026248, "trialdata": {"revealed_states": [], "clicked_states": ["22", "21", "20", "17", "16", "6", "5", "9", "11", "27", "29", "33"], "num_clicks_accrued": [0, 0, 0, 0, 0, 0, 0, 0, 0, 0, 0, 0, 0], "stateRewards": ["", -1, 2, -6, 6, -82, -19, -39, -16, -83, 11, -33, -2, -2, 4, -6, -82, -1, -19, -6, -10, -67, -41, -2, 1, -7, 16, -23, -78, -52, 14, 31, -71, 74], "withholdReward": false, "trial_id": "mdp_trial_26", "block": "test", "trialIndex": 27, "score": 63.2, "costs": -16.8, "simulationMode": [null, null, null, null, null], "rewards": [-2, 1, -7, 14, 74], "path": ["0", "0", "23", "24", "25", "30", "33"], "rt": [27729, 285, 274, 215, 302], "actions": ["left", "left", "left", "down", "left"], "actionTimes": [30360, 31160, 31958, 32703, 33529], "queries": {"click": {"state": {"target": ["22", "21", "20", "17", "16", "6", "5", "9", "11", "27", "29", "33"], "time": [3941, 5896, 7881, 10082, 12200, 14270, 16264, 18289, 20351, 22449, 24465, 26496]}, "edge": {"target": [], "time": []}}, "mouseover": {"state": {"target": ["0", "22", "21", "22", "21", "20", "17", "16", "6", "5", "9", "8", "11", "27", "29", "33", "32"], "time": [3026, 3146, 3262, 3786, 4308, 6287, 8407, 10826, 12742, 14747, 16792, 18755, 18849, 20893, 22914, 25448, 27131]}, "edge": {"target": [], "time": []}}, "mouseout": {"state": {"target": ["6", "18", "18", "0", "22", "21", "22", "21", "20", "17", "16", "6", "5", "9", "8", "11", "27", "29", "29", "33"], "time": [1754, 1881, 2029, 3084, 3171, 3669, 4215, 6099, 8099, 10451, 12299, 14598, 16343, 18657, 18806, 20770, 22759, 24567, 25108, 26795]}, "edge": {"target": [], "time": []}}}, "displayed_time": "34.03", "trialTime": 35328, "trial_type": "mouselab-mdp", "trial_index": 34, "time_elapsed": 1400976, "internal_node_id": "0.0-6.0-1.0-25.0"}}, {"uniqueid": "w45511493:a47163896", "current_trial": 35, "dateTime": 1693566044984, "trialdata": {"revealed_states": [], "clicked_states": ["22", "21"], "num_clicks_accrued": [0, 0, 0, 0, 0, 0, 0, 0, 0, 0, 0, 0, 0], "stateRewards": ["", 2, -1, 8, -2, -16, 69, -39, -7, -13, -27, -86, 2, -2, 2, 13, -34, -16, -20, -5, 19, 81, 32, -2, -1, 2, -14, 20, 80, 58, 4, 70, 12, 73], "withholdReward": false, "trial_id": "mdp_trial_27", "block": "test", "trialIndex": 28, "score": 75.2, "costs": -2.8, "simulationMode": [null, null, null, null, null], "rewards": [2, -2, 2, -5, 81], "path": ["0", "0", "12", "13", "14", "19", "21"], "rt": [8500, 390, 349, 141, 297], "actions": ["right", "right", "right", "down", "down"], "actionTimes": [11434, 12301, 13156, 13810, 14614], "queries": {"click": {"state": {"target": ["22", "21"], "time": [5026, 7602]}, "edge": {"target": [], "time": []}}, "mouseover": {"state": {"target": ["12", "22", "22", "21", "22", "21", "20"], "time": [3504, 3593, 4052, 4546, 4822, 5345, 9727]}, "edge": {"target": [], "time": []}}, "mouseout": {"state": {"target": ["32", "0", "12", "22", "22", "21", "22", "21"], "time": [2013, 3502, 3534, 3648, 4266, 4713, 5314, 8241]}, "edge": {"target": [], "time": []}}}, "displayed_time": "16.93", "trialTime": 18450, "trial_type": "mouselab-mdp", "trial_index": 35, "time_elapsed": 1419712, "internal_node_id": "0.0-6.0-1.0-26.0"}}, {"uniqueid": "w45511493:a47163896", "current_trial": 36, "dateTime": 1693566067843, "trialdata": {"revealed_states": [], "clicked_states": ["21", "20", "22", "17", "16"], "num_clicks_accrued": [0, 0, 0, 0, 0, 0, 0, 0, 0, 0, 0, 0, 0], "stateRewards": ["", -2, -1, -3, -1, -78, -6, 2, -1, 22, -88, 32, 2, 2, -7, -8, -51, -17, 54, 2, -44, 54, 75, 2, -2, -8, -15, -29, 12, -67, 15, -1, -47, -47], "withholdReward": false, "trial_id": "mdp_trial_28", "block": "test", "trialIndex": 29, "score": 67, "costs": -7, "simulationMode": [null, null, null, null, null], "rewards": [2, 2, -7, 2, 75], "path": ["0", "0", "12", "13", "14", "19", "22"], "rt": [15274, 91, 178, 163, 302], "actions": ["right", "right", "right", "down", "left"], "actionTimes": [17640, 18248, 18953, 19600, 20391], "queries": {"click": {"state": {"target": ["21", "20", "22", "17", "16"], "time": [3896, 6041, 8520, 12711, 14885]}, "edge": {"target": [], "time": []}}, "mouseover": {"state": {"target": ["21", "20", "22", "14", "17", "17", "16"], "time": [3718, 4483, 8287, 8835, 9263, 12168, 13791]}, "edge": {"target": [], "time": []}}, "mouseout": {"state": {"target": ["20", "19", "22", "0", "21", "21", "20", "21", "22", "14", "17", "17", "16"], "time": [1489, 1560, 1607, 2390, 3935, 4267, 6429, 8070, 8708, 8892, 10594, 13604, 15256]}, "edge": {"target": [], "time": []}}}, "displayed_time": "20.87", "trialTime": 22554, "trial_type": "mouselab-mdp", "trial_index": 36, "time_elapsed": 1442571, "internal_node_id": "0.0-6.0-1.0-27.0"}}, {"uniqueid": "w45511493:a47163896", "current_trial": 37, "dateTime": 1693566091664, "trialdata": {"revealed_states": [], "clicked_states": ["5", "6", "9", "11", "16"], "num_clicks_accrued": [0, 0, 0, 0, 0, 0, 0, 0, 0, 0, 0, 0, 0], "stateRewards": ["", -1, -3, 3, 5, 56, 39, 50, -1, -80, 33, -46, 1, -2, -6, -8, 87, 48, 54, -11, -20, -64, -54, -2, 3, -7, -3, 12, 88, 35, -16, -46, -70, -3], "withholdReward": false, "trial_id": "mdp_trial_29", "block": "test", "trialIndex": 30, "score": 65, "costs": -7, "simulationMode": [null, null, null, null, null], "rewards": [1, -2, -6, -8, 87], "path": ["0", "0", "12", "13", "14", "15", "16"], "rt": [14991, 379, 278, 150, 160], "actions": ["right", "right", "right", "up", "up"], "actionTimes": [18511, 19382, 20174, 20854, 21542], "queries": {"click": {"state": {"target": ["5", "6", "9", "11", "16"], "time": [4779, 7278, 9318, 11969, 14548]}, "edge": {"target": [], "time": []}}, "mouseover": {"state": {"target": ["0", "23", "3", "5", "6", "9", "11", "10", "7", "16", "17"], "time": [3640, 4104, 4226, 4564, 6913, 7858, 11890, 14011, 14102, 14320, 15337]}, "edge": {"target": [], "time": []}}, "mouseout": {"state": {"target": ["19", "12", "0", "23", "3", "5", "5", "6", "9", "11", "11", "10", "7", "16", "16"], "time": [2914, 3061, 3701, 4166, 4283, 5886, 6420, 7517, 9415, 12104, 13208, 14044, 14133, 14629, 14780]}, "edge": {"target": [], "time": []}}}, "displayed_time": "22.06", "trialTime": 23550, "trial_type": "mouselab-mdp", "trial_index": 37, "time_elapsed": 1466392, "internal_node_id": "0.0-6.0-1.0-28.0"}}, {"uniqueid": "w45511493:a47163896", "current_trial": 38, "dateTime": 1693566119345, "trialdata": {"revealed_states": [], "clicked_states": ["31", "32", "33", "29", "27", "11", "9", "5"], "num_clicks_accrued": [0, 0, 0, 0, 0, 0, 0, 0, 0, 0, 0, 0, 0], "stateRewards": ["", -1, 3, 1, -7, 56, 76, 57, 3, 11, -9, 14, 1, -2, 2, 8, -77, -3, 79, -5, 88, 24, -66, -2, -1, 7, -7, -30, 14, -76, 11, -36, 28, -6], "withholdReward": false, "trial_id": "mdp_trial_30", "block": "test", "trialIndex": 31, "score": 40.8, "costs": -11.200000000000001, "simulationMode": [null, null, null, null, null], "rewards": [-1, 3, 1, -7, 56], "path": ["0", "0", "1", "2", "3", "4", "5"], "rt": [20728, 180, 196, 113, 114], "actions": ["up", "up", "up", "right", "up"], "actionTimes": [23020, 23693, 24419, 25043, 25691], "queries": {"click": {"state": {"target": ["31", "32", "33", "29", "27", "11", "9", "5"], "time": [3923, 5932, 8112, 10291, 12444, 14863, 16933, 19262]}, "edge": {"target": [], "time": []}}, "mouseover": {"state": {"target": ["23", "31", "31", "32", "33", "29", "27", "11", "8", "9", "5", "6"], "time": [3213, 3329, 3702, 4567, 6383, 9036, 10613, 14614, 15103, 15349, 17399, 19979]}, "edge": {"target": [], "time": []}}, "mouseout": {"state": {"target": ["17", "23", "31", "31", "32", "33", "29", "27", "11", "8", "9", "5"], "time": [1129, 3277, 3392, 4353, 6144, 8219, 10349, 14266, 15040, 15165, 17180, 19484]}, "edge": {"target": [], "time": []}}}, "displayed_time": "26.19", "trialTime": 27396, "trial_type": "mouselab-mdp", "trial_index": 38, "time_elapsed": 1494073, "internal_node_id": "0.0-6.0-1.0-29.0"}}, {"uniqueid": "w45511493:a47163896", "current_trial": 39, "dateTime": 1693566148112, "trialdata": {"revealed_states": [], "clicked_states": ["22", "21", "20", "17", "16", "6", "5", "9"], "num_clicks_accrued": [0, 0, 0, 0, 0, 0, 0, 0, 0, 0, 0, 0, 0], "stateRewards": ["", -2, -1, 3, -3, 71, -58, -21, 7, -10, -75, -37, 2, 4, -1, -12, -79, -29, -48, 3, -41, -10, -30, -1, -2, 1, -15, 13, 66, 22, -1, -42, -86, -55], "withholdReward": false, "trial_id": "mdp_trial_31", "block": "test", "trialIndex": 32, "score": 56.8, "costs": -11.200000000000001, "simulationMode": [null, null, null, null, null], "rewards": [-2, -1, 3, -3, 71], "path": ["0", "0", "1", "2", "3", "4", "5"], "rt": [20850, 718, 320, 205, 238], "actions": ["up", "up", "up", "right", "up"], "actionTimes": [23090, 24320, 25162, 25877, 26609], "queries": {"click": {"state": {"target": ["22", "21", "20", "17", "16", "6", "5", "9"], "time": [3489, 5538, 7547, 9569, 11582, 14044, 16123, 19953]}, "edge": {"target": [], "time": []}}, "mouseover": {"state": {"target": ["22", "21", "22", "21", "20", "17", "16", "6", "5", "9"], "time": [2467, 2940, 3304, 3826, 5947, 7990, 9960, 12028, 14826, 16443]}, "edge": {"target": [], "time": []}}, "mouseout": {"state": {"target": ["6", "13", "12", "22", "21", "22", "21", "20", "17", "16", "6", "5", "9"], "time": [1067, 1241, 1422, 2828, 3156, 3736, 5752, 7638, 9836, 11781, 14299, 16317, 20579]}, "edge": {"target": [], "time": []}}}, "displayed_time": "27.11", "trialTime": 28503, "trial_type": "mouselab-mdp", "trial_index": 39, "time_elapsed": 1522840, "internal_node_id": "0.0-6.0-1.0-30.0"}}, {"uniqueid": "w45511493:a47163896", "current_trial": 40, "dateTime": 1693566173832, "trialdata": {"revealed_states": [], "clicked_states": ["31", "32", "33", "29", "27", "11"], "num_clicks_accrued": [0, 0, 0, 0, 0, 0, 0, 0, 0, 0, 0, 0, 0], "stateRewards": ["", -1, -4, -1, -11, 43, 69, 39, 4, 17, -20, -82, -2, -1, 4, 8, -79, 24, -79, 11, 36, 64, 41, 2, 4, -1, 11, -79, -47, 75, -3, 63, -36, -19], "withholdReward": false, "trial_id": "mdp_trial_32", "block": "test", "trialIndex": 33, "score": 82.6, "costs": -8.4, "simulationMode": [null, null, null, null, null], "rewards": [2, 4, -1, 11, 75], "path": ["0", "0", "23", "24", "25", "26", "29"], "rt": [18366, 641, 236, 119, 75], "actions": ["left", "left", "left", "up", "left"], "actionTimes": [20457, 21586, 22316, 22947, 23549], "queries": {"click": {"state": {"target": ["31", "32", "33", "29", "27", "11"], "time": [3618, 6148, 8901, 11671, 14979, 17546]}, "edge": {"target": [], "time": []}}, "mouseover": {"state": {"target": ["0", "31", "32", "33", "29", "29", "27", "11", "9"], "time": [2870, 3391, 3980, 8183, 9418, 11471, 12083, 17335, 18635]}, "edge": {"target": [], "time": []}}, "mouseout": {"state": {"target": ["2", "0", "31", "32", "33", "29", "29", "27", "11"], "time": [1445, 2961, 3921, 7902, 9050, 10345, 11747, 16247, 18427]}, "edge": {"target": [], "time": []}}}, "displayed_time": "24.09", "trialTime": 25435, "trial_type": "mouselab-mdp", "trial_index": 40, "time_elapsed": 1548560, "internal_node_id": "0.0-6.0-1.0-31.0"}}, {"uniqueid": "w45511493:a47163896", "current_trial": 41, "dateTime": 1693566216242, "trialdata": {"revealed_states": [], "clicked_states": ["5", "6", "16", "7", "17", "20", "21", "22", "31", "32", "33", "29", "27", "11", "9"], "num_clicks_accrued": [0, 0, 0, 0, 0, 0, 0, 0, 0, 0, 0, 0, 0], "stateRewards": ["", -1, -2, 4, 9, 10, -75, 39, 16, -43, 88, -19, -1, 1, 2, 4, -31, 10, 73, 12, 41, -64, -81, -2, 2, -6, 1, -81, -1, -26, 3, -59, -3, -20], "withholdReward": false, "trial_id": "mdp_trial_33", "block": "test", "trialIndex": 34, "score": 34, "costs": -20.999999999999996, "simulationMode": [null, null, null, null, null], "rewards": [-1, 1, 2, 12, 41], "path": ["0", "0", "12", "13", "14", "19", "20"], "rt": [35154, 181, 113, 138, 201], "actions": ["right", "right", "right", "down", "right"], "actionTimes": [37789, 38469, 39116, 39756, 40469], "queries": {"click": {"state": {"target": ["5", "6", "16", "7", "17", "20", "21", "22", "31", "32", "33", "29", "27", "11", "9"], "time": [3751, 6005, 8113, 10485, 12621, 14758, 17102, 19441, 21885, 23943, 25991, 28072, 30227, 32316, 34342]}, "edge": {"target": [], "time": []}}, "mouseover": {"state": {"target": ["12", "13", "17", "17", "4", "5", "6", "16", "17", "7", "17", "20", "21", "22", "31", "32", "33", "29", "27", "8", "11", "9", "4", "17"], "time": [2744, 2777, 3119, 3240, 3328, 3389, 5599, 6991, 9068, 10287, 11348, 14372, 16110, 19174, 20725, 22359, 24396, 26426, 28537, 30682, 30867, 32701, 34795, 36311]}, "edge": {"target": [], "time": []}}, "mouseout": {"state": {"target": ["9", "15", "13", "0", "12", "13", "17", "17", "4", "5", "5", "6", "6", "16", "16", "17", "16", "7", "7", "16", "17", "20", "21", "21", "22", "31", "32", "33", "29", "27", "8", "11", "9", "4", "17"], "time": [1769, 1969, 2036, 2222, 2775, 2805, 3146, 3270, 3359, 3830, 4260, 6091, 6529, 8197, 8470, 9915, 9978, 10556, 10700, 10978, 13444, 15084, 18634, 19082, 19730, 22173, 24243, 26158, 28260, 30538, 30774, 32407, 34640, 34886, 36342]}, "edge": {"target": [], "time": []}}}, "displayed_time": "40.98", "trialTime": 42117, "trial_type": "mouselab-mdp", "trial_index": 41, "time_elapsed": 1590970, "internal_node_id": "0.0-6.0-1.0-32.0"}}, {"uniqueid": "w45511493:a47163896", "current_trial": 42, "dateTime": 1693566243138, "trialdata": {"revealed_states": [], "clicked_states": ["31", "32", "33", "29", "27", "11", "9", "5"], "num_clicks_accrued": [0, 0, 0, 0, 0, 0, 0, 0, 0, 0, 0, 0, 0], "stateRewards": ["", -1, 1, -1, 2, 19, 85, -18, 2, -3, -26, 36, 2, 4, 7, -9, -18, 70, 72, -5, 35, -20, -28, 1, -2, -4, -3, -59, -11, -63, -2, -72, 59, -69], "withholdReward": false, "trial_id": "mdp_trial_34", "block": "test", "trialIndex": 35, "score": 40.8, "costs": -11.200000000000001, "simulationMode": [null, null, null, null, null], "rewards": [1, -2, -4, -2, 59], "path": ["0", "0", "23", "24", "25", "30", "32"], "rt": [20296, 15, 130, 17, 183], "actions": ["left", "left", "left", "down", "down"], "actionTimes": [22616, 23161, 23827, 24373, 25090], "queries": {"click": {"state": {"target": ["31", "32", "33", "29", "27", "11", "9", "5"], "time": [3417, 5433, 8176, 10679, 12673, 14657, 17084, 19152]}, "edge": {"target": [], "time": []}}, "mouseover": {"state": {"target": ["0", "31", "32", "33", "29", "29", "27", "27", "11", "9", "11", "9", "5", "6", "23"], "time": [2718, 3208, 3818, 5822, 8541, 10454, 10978, 11699, 12993, 13270, 13791, 14966, 17474, 20010, 21499]}, "edge": {"target": [], "time": []}}, "mouseout": {"state": {"target": ["19", "22", "12", "0", "31", "32", "33", "29", "29", "27", "27", "11", "9", "11", "9", "5", "6", "23"], "time": [1356, 1556, 1758, 2780, 3727, 5634, 8250, 9308, 10856, 11355, 12870, 13085, 13669, 14746, 17382, 19398, 21376, 21531]}, "edge": {"target": [], "time": []}}}, "displayed_time": "25.62", "trialTime": 26616, "trial_type": "mouselab-mdp", "trial_index": 42, "time_elapsed": 1617866, "internal_node_id": "0.0-6.0-1.0-33.0"}}, {"uniqueid": "w45511493:a47163896", "current_trial": 43, "dateTime": 1693566267178, "trialdata": {"revealed_states": [], "clicked_states": ["22", "21", "20", "17", "16", "6"], "num_clicks_accrued": [0, 0, 0, 0, 0, 0, 0, 0, 0, 0, 0, 0, 0], "stateRewards": ["", 1, -1, 8, -3, 38, 85, -20, -4, 8, 23, 73, 2, -4, 6, -13, 44, 7, -28, -11, -77, 45, -69, 1, -1, -7, -11, 75, -51, -87, 7, 36, -53, -26], "withholdReward": false, "trial_id": "mdp_trial_35", "block": "test", "trialIndex": 36, "score": 81.6, "costs": -8.4, "simulationMode": [null, null, null, null, null], "rewards": [1, -1, 8, -3, 85], "path": ["0", "0", "1", "2", "3", "4", "6"], "rt": [17187, 39, 291, 142, 235], "actions": ["up", "up", "up", "right", "right"], "actionTimes": [19664, 20197, 21012, 21670, 22407], "queries": {"click": {"state": {"target": ["22", "21", "20", "17", "16", "6"], "time": [3558, 5588, 8727, 11521, 13577, 15855]}, "edge": {"target": [], "time": []}}, "mouseover": {"state": {"target": ["12", "22", "21", "20", "14", "14", "17", "16", "6", "6", "5"], "time": [3093, 3218, 3949, 5934, 9406, 10063, 11250, 12382, 14000, 14400, 16505]}, "edge": {"target": [], "time": []}}, "mouseout": {"state": {"target": ["0", "12", "22", "21", "20", "14", "14", "17", "16", "6", "6"], "time": [3091, 3154, 3856, 5747, 9346, 9847, 11092, 12134, 13877, 14061, 15928]}, "edge": {"target": [], "time": []}}}, "displayed_time": "22.91", "trialTime": 23757, "trial_type": "mouselab-mdp", "trial_index": 43, "time_elapsed": 1641905, "internal_node_id": "0.0-6.0-1.0-34.0"}}, {"uniqueid": "w45511493:a47163896", "current_trial": 44, "dateTime": 1693566293505, "trialdata": {"revealed_states": [], "clicked_states": ["9", "11", "27", "29", "33", "32", "31"], "num_clicks_accrued": [0, 0, 0, 0, 0, 0, 0, 0, 0, 0, 0, 0, 0], "stateRewards": ["", -1, 3, 2, 9, 41, 4, -46, -12, -54, -87, -25, 2, 3, -1, 11, -77, 12, -33, -9, -32, 35, 72, 1, 3, -7, 4, 37, 65, -73, 6, 77, -43, 8], "withholdReward": false, "trial_id": "mdp_trial_36", "block": "test", "trialIndex": 37, "score": 70.2, "costs": -9.8, "simulationMode": [null, null, null, null, null], "rewards": [1, 3, -7, 6, 77], "path": ["0", "0", "23", "24", "25", "30", "31"], "rt": [18664, 186, 241, 87, 284], "actions": ["left", "left", "left", "down", "right"], "actionTimes": [21297, 21967, 22735, 23327, 24111], "queries": {"click": {"state": {"target": ["9", "11", "27", "29", "33", "32", "31"], "time": [3877, 5800, 7769, 10113, 12408, 14549, 16837]}, "edge": {"target": [], "time": []}}, "mouseover": {"state": {"target": ["1", "2", "3", "9", "11", "27", "29", "33", "32", "31", "22"], "time": [3317, 3349, 3401, 3649, 4918, 6170, 8101, 12178, 12784, 15168, 17400]}, "edge": {"target": [], "time": []}}, "mouseout": {"state": {"target": ["5", "4", "0", "1", "2", "3", "9", "11", "11", "27", "29", "33", "32", "31", "22"], "time": [1799, 1862, 3255, 3347, 3374, 3431, 4216, 5873, 6110, 8038, 10967, 12692, 14982, 17123, 20069]}, "edge": {"target": [], "time": []}}}, "displayed_time": "24.63", "trialTime": 26032, "trial_type": "mouselab-mdp", "trial_index": 44, "time_elapsed": 1668232, "internal_node_id": "0.0-6.0-1.0-35.0"}}, {"uniqueid": "w45511493:a47163896", "current_trial": 45, "dateTime": 1693566312425, "trialdata": {"revealed_states": [], "clicked_states": ["22"], "num_clicks_accrued": [0, 0, 0, 0, 0, 0, 0, 0, 0, 0, 0, 0, 0], "stateRewards": ["", 2, 3, -2, -8, -8, -41, 74, 15, -23, -80, 1, 1, 3, 3, -15, -63, -78, 67, 13, 75, -41, 86, 2, -2, 6, -3, -8, -49, 50, -6, 83, 74, 80], "withholdReward": false, "trial_id": "mdp_trial_37", "block": "test", "trialIndex": 38, "score": 104.6, "costs": -1.4, "simulationMode": [null, null, null, null, null], "rewards": [1, 3, 3, 13, 86], "path": ["0", "0", "12", "13", "14", "19", "22"], "rt": [5713, 187, 206, 193, 279], "actions": ["right", "right", "right", "down", "left"], "actionTimes": [8782, 9479, 10208, 10904, 11703], "queries": {"click": {"state": {"target": ["22"], "time": [4089]}, "edge": {"target": [], "time": []}}, "mouseover": {"state": {"target": ["0", "22", "21"], "time": [3419, 3754, 4792]}, "edge": {"target": [], "time": []}}, "mouseout": {"state": {"target": ["0", "0", "22"], "time": [2538, 3443, 4607]}, "edge": {"target": [], "time": []}}}, "displayed_time": "17.07", "trialTime": 18663, "trial_type": "mouselab-mdp", "trial_index": 45, "time_elapsed": 1687153, "internal_node_id": "0.0-6.0-1.0-36.0"}}, {"uniqueid": "w45511493:a47163896", "current_trial": 46, "dateTime": 1693566338060, "trialdata": {"revealed_states": [], "clicked_states": ["22", "21", "20", "17", "16", "6", "5"], "num_clicks_accrued": [0, 0, 0, 0, 0, 0, 0, 0, 0, 0, 0, 0, 0], "stateRewards": ["", -1, 1, -2, 5, 73, 15, 61, 8, 7, 38, 76, 2, 2, -4, -6, -6, -26, 43, -5, -45, -85, -35, -2, 1, -4, 15, -10, 69, 72, -11, 84, -49, -38], "withholdReward": false, "trial_id": "mdp_trial_38", "block": "test", "trialIndex": 39, "score": 66.2, "costs": -9.8, "simulationMode": [null, null, null, null, null], "rewards": [-1, 1, -2, 5, 73], "path": ["0", "0", "1", "2", "3", "4", "5"], "rt": [17579, 113, 176, 92, 225], "actions": ["up", "up", "up", "right", "up"], "actionTimes": [20707, 21362, 22050, 22642, 23427], "queries": {"click": {"state": {"target": ["22", "21", "20", "17", "16", "6", "5"], "time": [5273, 7154, 9099, 11117, 13083, 14971, 17147]}, "edge": {"target": [], "time": []}}, "mouseover": {"state": {"target": ["12", "4", "5", "21", "22", "21", "20", "17", "16", "6", "5", "9"], "time": [3819, 4150, 4216, 4931, 5086, 5682, 7510, 9581, 11491, 13513, 15363, 18271]}, "edge": {"target": [], "time": []}}, "mouseout": {"state": {"target": ["21", "19", "22", "0", "12", "4", "5", "21", "22", "21", "20", "17", "16", "6", "5"], "time": [2251, 2362, 2478, 2819, 3882, 4182, 4276, 4963, 5521, 7387, 9249, 11306, 13215, 15269, 17218]}, "edge": {"target": [], "time": []}}}, "displayed_time": "23.94", "trialTime": 25363, "trial_type": "mouselab-mdp", "trial_index": 46, "time_elapsed": 1712787, "internal_node_id": "0.0-6.0-1.0-37.0"}}, {"uniqueid": "w45511493:a47163896", "current_trial": 47, "dateTime": 1693566414868, "trialdata": {"revealed_states": [], "clicked_states": ["31", "32", "33", "29", "27", "11", "9", "5"], "num_clicks_accrued": [0, 0, 0, 0, 0, 0, 0, 0, 0, 0, 0, 0, 0], "stateRewards": ["", 1, 1, -7, -9, -44, 24, -83, -15, 44, -24, 72, -2, -3, 4, -5, 57, 55, 29, -11, 22, 12, -25, -1, 2, 7, 12, 33, -8, 47, -4, 8, 50, -4], "withholdReward": false, "trial_id": "mdp_trial_39", "block": "test", "trialIndex": 40, "score": 40.8, "costs": -11.200000000000001, "simulationMode": [null, null, null, null, null], "rewards": [1, 1, -7, -15, 72], "path": ["0", "0", "1", "2", "3", "8", "11"], "rt": [20952, 42, 257, 55, 265], "actions": ["up", "up", "up", "left", "left"], "actionTimes": [23022, 23570, 24376, 24950, 25748], "queries": {"click": {"state": {"target": ["31", "32", "33", "29", "27", "11", "9", "5"], "time": [3476, 5448, 8225, 10494, 13070, 15109, 18156, 20390]}, "edge": {"target": [], "time": []}}, "mouseover": {"state": {"target": ["31", "32", "33", "30", "25", "29", "27", "27", "11", "9", "5", "5", "6"], "time": [3096, 3984, 5746, 8577, 8707, 9767, 10776, 11057, 13383, 15460, 18849, 19587, 21066]}, "edge": {"target": [], "time": []}}, "mouseout": {"state": {"target": ["9", "31", "32", "33", "30", "25", "29", "27", "27", "11", "9", "5", "5"], "time": [1390, 3738, 5652, 8514, 8616, 8770, 10652, 10868, 13291, 15169, 18444, 19089, 20631]}, "edge": {"target": [], "time": []}}}, "displayed_time": "26.23", "trialTime": 76501, "trial_type": "mouselab-mdp", "trial_index": 47, "time_elapsed": 1789596, "internal_node_id": "0.0-6.0-1.0-38.0"}}, {"uniqueid": "w45511493:a47163896", "current_trial": 48, "dateTime": 1693566450673, "trialdata": {"revealed_states": [], "clicked_states": ["31", "32", "33", "29", "27", "11", "9", "5", "6", "16", "17", "20"], "num_clicks_accrued": [0, 0, 0, 0, 0, 0, 0, 0, 0, 0, 0, 0, 0], "stateRewards": ["", 1, 4, -8, -13, -13, -87, -77, -10, -44, 54, 42, 2, -3, -4, 12, -9, -80, 52, 9, 84, -2, -65, 1, -4, -5, -6, 8, 80, 32, 13, -59, -5, -13], "withholdReward": false, "trial_id": "mdp_trial_40", "block": "test", "trialIndex": 41, "score": 71.2, "costs": -16.8, "simulationMode": [null, null, null, null, null], "rewards": [2, -3, -4, 9, 84], "path": ["0", "0", "12", "13", "14", "19", "20"], "rt": [28131, 201, 261, 210, 258], "actions": ["right", "right", "right", "down", "right"], "actionTimes": [30531, 31226, 31996, 32714, 33474], "queries": {"click": {"state": {"target": ["31", "32", "33", "29", "27", "11", "9", "5", "6", "16", "17", "20"], "time": [3779, 5730, 7732, 9698, 11635, 13837, 16452, 18644, 20962, 22997, 24956, 26994]}, "edge": {"target": [], "time": []}}, "mouseover": {"state": {"target": ["31", "32", "33", "29", "27", "11", "9", "5", "5", "6", "16", "17", "20", "21"], "time": [3309, 4322, 6298, 8148, 10120, 12490, 14167, 17533, 17901, 19591, 21814, 23480, 25614, 27713]}, "edge": {"target": [], "time": []}}, "mouseout": {"state": {"target": ["6", "1", "0", "31", "32", "33", "29", "27", "11", "9", "5", "5", "6", "16", "17", "20"], "time": [1540, 1864, 2965, 4105, 6047, 7871, 9937, 12060, 13937, 16823, 17837, 18699, 21087, 23077, 25276, 27250]}, "edge": {"target": [], "time": []}}}, "displayed_time": "33.99", "trialTime": 35487, "trial_type": "mouselab-mdp", "trial_index": 48, "time_elapsed": 1825400, "internal_node_id": "0.0-6.0-1.0-39.0"}}, {"uniqueid": "w45511493:a47163896", "current_trial": 49, "dateTime": 1693566495917, "trialdata": {"rt": 45239, "response": {"Q0": "$-16 to 16", "Q1": "$-32 to $32", "Q2": "$-88 to $88", "Q3": "The cost was always $1.4.", "Q4": "Very motivated"}, "question_order": [0, 1, 2, 3, 4], "trial_id": "final_quiz_control", "trial_type": "survey-multi-choice", "trial_index": 49, "time_elapsed": 1870644, "internal_node_id": "0.0-6.0-2.0"}}, {"uniqueid": "w45511493:a47163896", "current_trial": 50, "dateTime": 1693566563053, "trialdata": {"rt": 67128, "response": {"Q0": "Mostly check for the largest numbers on the outer level first", "Q1": "Yes, started checking from the middle out and then rather just check the outer values", "Q2": "Numbers are mostly random, so the most you check the more it costs and that comes off your total"}, "trial_id": "self_report_control", "trial_type": "survey-text", "trial_index": 50, "time_elapsed": 1937781, "internal_node_id": "0.0-6.0-3.0"}}, {"uniqueid": "w45511493:a47163896", "current_trial": 51, "dateTime": 1693566586469, "trialdata": {"rt": 23412, "response": {"gender": "female", "age": "51", "colorblind": "0", "effort": "0"}, "trial_type": "survey-html-form", "trial_index": 51, "time_elapsed": 1961197, "internal_node_id": "0.0-6.0-4.0"}}, {"uniqueid": "w45511493:a47163896", "current_trial": 52, "dateTime": 1693566614300, "trialdata": {"rt": 27826, "response": {"Q0": "Not really", "Q1": "No, this was first", "Q2": "It was fun"}, "trial_type": "survey-text", "trial_index": 52, "time_elapsed": 1989028, "internal_node_id": "0.0-6.0-5.0"}}, {"uniqueid": "w45511493:a47163896", "current_trial": 53, "dateTime": 1693566653871, "trialdata": {"rt": 39566, "stimulus": "<h1>Completion Code Instructions (1/2)</h1>\n<br><br><br><br>\nYou have reached the end of the experiment! The completion code consists of two parts: (1) a code with 2 characters (2) a code with 6 characters. On this page, you will receive the second part of the code. The first part of the completion code will be on the next page.\n<br><br>\nThe second part of your completion code is: <b>EWEK22</b>\n<br><br>\nPlease note this down. Then, press 'Finish HIT' in order to find the first part of your completion code. Once the data has been saved, you will receive this code either in this window or in the original browser window where you started the experiment.\n", "response": 0, "trial_type": "html-button-response", "trial_index": 53, "time_elapsed": 2028599, "internal_node_id": "0.0-6.0-6.0"}}, {"uniqueid": "w45511493:a47163896", "current_trial": 54, "dateTime": 1693566654876, "trialdata": {"success": true, "trial_type": "fullscreen", "trial_index": 54, "time_elapsed": 2029604, "internal_node_id": "0.0-7.0"}}], "questiondata": {"params": {"CODE": "C6DMOQA6", "MIN_TIME": 14, "inspectCost": 1, "startTime": "Fri Sep 01 2023 12:37:03 GMT+0200 (South Africa Standard Time)", "bonusRate": 0.002, "variance": "1_2_4_8_44", "branching": "31123"}, "final_score": 2161.2}, "eventdata": [{"eventtype": "initialized", "value": null, "timestamp": 1693564622983, "interval": 0}, {"eventtype": "window_resize", "value": [1024, 767], "timestamp": 1693564622983, "interval": 0}, {"eventtype": "window_resize", "value": [1024, 767], "timestamp": 1693564623484, "interval": 501}, {"eventtype": "window_resize", "value": [1920, 1080], "timestamp": 1693564630521, "interval": 7037}, {"eventtype": "focus", "value": "off", "timestamp": 1693566628050, "interval": 1997529}, {"eventtype": "focus", "value": "on", "timestamp": 1693566634156, "interval": 6106}, {"eventtype": "focus", "value": "off", "timestamp": 1693566637803, "interval": 3647}, {"eventtype": "focus", "value": "on", "timestamp": 1693566653771, "interval": 15968}, {"eventtype": "window_resize", "value": [1024, 767], "timestamp": 1693566654099, "interval": 328}], "useragent": "Mozilla/5.0 (Windows NT 10.0; Win64; x64) AppleWebKit/537.36 (KHTML, like Gecko) Chrome/116.0.0.0 Safari/537.36", "mode": "live", "id": "w45511493:a47163896", "status": "user data saved", "Beginhit": "2023-09-01 10:37:00.526024", "Beginexp": "2023-09-01 10:37:11.458033", "Endhit": "2023-09-01 11:10:55.921954", "psiturkStatus": 3, "browser": "<redacted>", "platform": "windows", "language": "en"}