{"condition": 1, "counterbalance": 0, "assignmentId": "a24180486", "workerId": "w56272024", "hitId": "h25836041", "currenttrial": 8, "bonus": 0, "data": [{"uniqueid": "w56272024:a24180486", "current_trial": 0, "dateTime": 1693389620341, "trialdata": {"success": true, "trial_type": "fullscreen", "trial_index": 0, "time_elapsed": 319189, "internal_node_id": "0.0-0.0"}}, {"uniqueid": "w56272024:a24180486", "current_trial": 1, "dateTime": 1693389624481, "trialdata": {"view_history": [{"page_index": 0, "viewing_time": 4122}], "rt": 4124, "trial_id": "exp_instructions_misaligned", "trial_type": "instructions", "trial_index": 1, "time_elapsed": 323333, "internal_node_id": "0.0-1.0"}}, {"uniqueid": "w56272024:a24180486", "current_trial": 2, "dateTime": 1693389727966, "trialdata": {"view_history": [{"page_index": 0, "viewing_time": 26090}, {"page_index": 1, "viewing_time": 51080}, {"page_index": 2, "viewing_time": 10547}, {"page_index": 3, "viewing_time": 15764}], "rt": 103481, "trial_id": "mouselab_instructions_1_misaligned", "trial_type": "instructions", "trial_index": 2, "time_elapsed": 426818, "internal_node_id": "0.0-2.0-1.0"}}, {"uniqueid": "w56272024:a24180486", "current_trial": 3, "dateTime": 1693389781586, "trialdata": {"revealed_states": [], "clicked_states": ["1", "23", "12", "2", "13", "17", "18", "14"], "num_clicks_accrued": [0, 0, 0, 0, 0, 0, 0, 0, 0, 0, 0, 0, 0], "stateRewards": ["", 10, 10, 10, 10, -10, 10, -10, 10, -10, 10, -10, -10, 10, 10, 10, 10, 10, 10, 10, -10, -10, 10, 10, 10, 10, -10, -10, 10, 10, 10, -10, 10, -10], "withholdReward": false, "trial_id": "practice_1", "block": "test", "trialIndex": 0, "score": 29.5, "costs": -4, "simulationMode": [null, null, null, null, null], "rewards": [-10, 10, 10, 10, 10], "path": ["0", "0", "12", "13", "14", "15", "16"], "rt": [28183, 526, 279, 13673, 388], "actions": ["right", "right", "right", "up", "up"], "actionTimes": [30873, 31897, 32697, 46891, 47772], "queries": {"click": {"state": {"target": ["1", "23", "12", "2", "13", "17", "18", "14"], "time": [10034, 12024, 13719, 17412, 20668, 22444, 23760, 25143]}, "edge": {"target": [], "time": []}}, "mouseover": {"state": {"target": ["1", "1", "2", "1", "23", "0", "12", "13", "0", "1", "2", "13", "15", "17", "15", "18", "14", "13", "12", "0", "23"], "time": [6803, 7253, 8522, 9589, 11388, 12870, 13153, 15436, 16038, 16671, 16854, 19021, 21635, 22051, 23136, 23471, 24851, 26135, 26169, 26233, 27353]}, "edge": {"target": [], "time": []}}, "mouseout": {"state": {"target": ["12", "0", "1", "1", "2", "1", "23", "0", "12", "12", "13", "12", "0", "1", "2", "13", "15", "17", "15", "18", "14", "13", "12", "0", "23", "22", "19", "14", "15", "18", "16", "15", "14", "19", "21"], "time": [1705, 6740, 6888, 8473, 9004, 11255, 12836, 13004, 13940, 15401, 16004, 16019, 16136, 16721, 18802, 21519, 21887, 23071, 23353, 24369, 25350, 26153, 26202, 27168, 28917, 34552, 36468, 36668, 37868, 38418, 41437, 41516, 49814, 49863, 51101]}, "edge": {"target": [], "time": []}}}, "displayed_time": "48.28", "trialTime": 53031, "trial_type": "mouselab-mdp", "trial_index": 3, "time_elapsed": 480437, "internal_node_id": "0.0-2.0-2.0-0.0"}}, {"uniqueid": "w56272024:a24180486", "current_trial": 4, "dateTime": 1693389822162, "trialdata": {"revealed_states": [], "clicked_states": ["1", "2", "12", "13", "14", "15"], "num_clicks_accrued": [0, 0, 0, 0, 0, 0, 0, 0, 0, 0, 0, 0, 0], "stateRewards": ["", -10, -10, -10, -10, -10, 10, 10, 10, 10, 10, 10, 10, -10, 10, 10, -10, -10, 10, 10, -10, -10, -10, -10, 10, 10, 10, 10, -10, 10, -10, 10, -10, 10], "withholdReward": false, "trial_id": "practice_2", "block": "test", "trialIndex": 1, "score": 10.5, "costs": -3, "simulationMode": [null, null, null, null, null], "rewards": [10, -10, 10, 10, -10], "path": ["0", "0", "12", "13", "14", "15", "16"], "rt": [16177, 260, 183, 515, 14663], "actions": ["right", "right", "right", "up", "up"], "actionTimes": [19227, 19977, 20664, 21695, 36861], "queries": {"click": {"state": {"target": ["1", "2", "12", "13", "14", "15"], "time": [6013, 8209, 10645, 12414, 14021, 17120]}, "edge": {"target": [], "time": []}}, "mouseover": {"state": {"target": ["1", "1", "2", "7", "12", "13", "14", "19", "15"], "time": [3817, 5483, 7065, 8983, 10214, 11632, 13433, 15633, 16748]}, "edge": {"target": [], "time": []}}, "mouseout": {"state": {"target": ["0", "1", "0", "1", "1", "2", "7", "12", "13", "14", "19", "14", "15", "16", "17", "15", "22"], "time": [1832, 2233, 3765, 5182, 6666, 8852, 10150, 11583, 13415, 15546, 16384, 16465, 18430, 24065, 24098, 38494, 38544]}, "edge": {"target": [], "time": []}}}, "displayed_time": "37.38", "trialTime": 40275, "trial_type": "mouselab-mdp", "trial_index": 4, "time_elapsed": 521013, "internal_node_id": "0.0-2.0-2.0-1.0"}}, {"uniqueid": "w56272024:a24180486", "current_trial": 5, "dateTime": 1693389829717, "trialdata": {"view_history": [{"page_index": 0, "viewing_time": 4677}, {"page_index": 1, "viewing_time": 2872}], "rt": 7550, "trial_id": "mouselab_instructions_2_misaligned", "trial_type": "instructions", "trial_index": 5, "time_elapsed": 528569, "internal_node_id": "0.0-2.0-3.0"}}, {"uniqueid": "w56272024:a24180486", "current_trial": 6, "dateTime": 1693389860832, "trialdata": {"rt": 31106, "response": {"Q0": "The cost for clicking on nodes may vary between nodes.", "Q1": "The better I perform the higher my bonus will be.", "Q2": "No, the amount of cash at each node of the web may be different each time.", "Q3": "To get the highest total score.", "Q4": "Only before moving the spider.", "Q5": "10 seconds"}, "question_order": [0, 1, 2, 3, 4, 5], "correct": {"Q0": "The cost for clicking on nodes may vary between nodes.", "Q1": "The better I perform the higher my bonus will be.", "Q2": "No, the amount of cash at each node of the web may be different each time.", "Q3": "To get the highest total score.", "Q4": "Only before moving the spider.", "Q5": "3 seconds"}, "trial_id": "mouselab_quiz_misaligned", "trial_type": "survey-multi-choice", "trial_index": 6, "time_elapsed": 559684, "internal_node_id": "0.0-2.0-4.0"}}, {"uniqueid": "w56272024:a24180486", "current_trial": 7, "dateTime": 1693389867633, "trialdata": {"success": true, "trial_type": "fullscreen", "trial_index": 7, "time_elapsed": 566485, "internal_node_id": "0.0-2.1-0.1-0.1"}}], "questiondata": {"params": {"CODE": "C6DMOQA6", "MIN_TIME": 14, "inspectCost": 1, "startTime": "Wed Aug 30 2023 10:55:00 GMT+0100 (British Summer Time)", "bonusRate": 0.002, "variance": "1_2_4_8_44", "branching": "31123"}}, "eventdata": [{"eventtype": "initialized", "value": null, "timestamp": 1693389299733, "interval": 0}, {"eventtype": "window_resize", "value": [1024, 767], "timestamp": 1693389299734, "interval": 1}, {"eventtype": "window_resize", "value": [1024, 767], "timestamp": 1693389300075, "interval": 341}, {"eventtype": "window_resize", "value": [1920, 1080], "timestamp": 1693389619626, "interval": 319551}, {"eventtype": "focus", "value": "off", "timestamp": 1693389864993, "interval": 245367}, {"eventtype": "focus", "value": "on", "timestamp": 1693389864993, "interval": 0}, {"eventtype": "window_resize", "value": [1024, 767], "timestamp": 1693389865251, "interval": 258}, {"eventtype": "window_resize", "value": [1920, 1080], "timestamp": 1693389866893, "interval": 1642}, {"eventtype": "window_resize", "value": [1024, 767], "timestamp": 1693389873345, "interval": 6452}], "useragent": "Mozilla/5.0 (Windows NT 10.0; Win64; x64) AppleWebKit/537.36 (KHTML, like Gecko) Chrome/115.0.0.0 Safari/537.36", "mode": "live", "id": "w56272024:a24180486", "status": "user data saved", "Beginhit": "2023-08-30 09:54:57.538253", "Beginexp": "2023-08-30 10:00:21.456198", "Endhit": null, "psiturkStatus": 6, "browser": "<redacted>", "platform": "windows", "language": "en-US", "excludeReason": "quizfail"}