{"condition": 1, "counterbalance": 0, "assignmentId": "a53933667", "workerId": "w50170238", "hitId": "h94915327", "currenttrial": 56, "bonus": 0, "data": [{"uniqueid": "w50170238:a53933667", "current_trial": 0, "dateTime": 1693391523272, "trialdata": {"success": true, "trial_type": "fullscreen", "trial_index": 0, "time_elapsed": 10900, "internal_node_id": "0.0-0.0"}}, {"uniqueid": "w50170238:a53933667", "current_trial": 1, "dateTime": 1693391531671, "trialdata": {"view_history": [{"page_index": 0, "viewing_time": 8391}], "rt": 8391, "trial_id": "exp_instructions_misaligned", "trial_type": "instructions", "trial_index": 1, "time_elapsed": 19299, "internal_node_id": "0.0-1.0"}}, {"uniqueid": "w50170238:a53933667", "current_trial": 2, "dateTime": 1693391730887, "trialdata": {"view_history": [{"page_index": 0, "viewing_time": 55021}, {"page_index": 1, "viewing_time": 85112}, {"page_index": 2, "viewing_time": 21304}, {"page_index": 3, "viewing_time": 37776}], "rt": 199213, "trial_id": "mouselab_instructions_1_misaligned", "trial_type": "instructions", "trial_index": 2, "time_elapsed": 218515, "internal_node_id": "0.0-2.0-1.0"}}, {"uniqueid": "w50170238:a53933667", "current_trial": 3, "dateTime": 1693391796586, "trialdata": {"revealed_states": [], "clicked_states": ["12", "18", "15", "13", "14", "19", "22", "21", "20", "1", "2", "23", "24", "25", "26", "30", "32", "27"], "num_clicks_accrued": [0, 0, 0, 0, 0, 0, 0, 0, 0, 0, 0, 0, 0], "stateRewards": ["", -10, 10, 10, 10, -10, -10, -10, 10, -10, -10, -10, 10, 10, -10, 10, 10, -10, -10, -10, -10, -10, 10, -10, 10, 10, -10, 10, 10, -10, -10, 10, 10, -10], "withholdReward": false, "trial_id": "practice_1", "block": "test", "trialIndex": 0, "score": 4.5, "costs": -9, "simulationMode": [null, null, null, null, null], "rewards": [-10, 10, 10, 10, -10], "path": ["0", "0", "1", "2", "3", "4", "6"], "rt": [41309, 498, 5674, 583, 483], "actions": ["up", "up", "up", "right", "right"], "actionTimes": [49244, 50243, 56419, 57515, 58499], "queries": {"click": {"state": {"target": ["12", "18", "15", "13", "14", "19", "22", "21", "20", "1", "2", "23", "24", "25", "26", "30", "32", "27"], "time": [9287, 11684, 13891, 14925, 16292, 18155, 19363, 21412, 23075, 25979, 27579, 30251, 31980, 33603, 35859, 38749, 40211, 42403]}, "edge": {"target": [], "time": []}}, "mouseover": {"state": {"target": ["12", "13", "12", "13", "18", "13", "14", "15", "14", "13", "22", "14", "19", "22", "19", "21", "22", "21", "20", "14", "18", "18", "1", "2", "10", "24", "23", "24", "25", "26", "28", "30", "32", "32", "25", "26", "27", "26", "1", "1"], "time": [7970, 8514, 8998, 9567, 11333, 12052, 12983, 13551, 14185, 14652, 15453, 15719, 16737, 17406, 17836, 18788, 19088, 20376, 22073, 24724, 24907, 25125, 25574, 26476, 29311, 29727, 29827, 30946, 32831, 35447, 37815, 38483, 39335, 39751, 41734, 41801, 42102, 42753, 44970, 45303]}, "edge": {"target": [], "time": []}}, "mouseout": {"state": {"target": ["0", "12", "13", "12", "13", "18", "13", "14", "15", "14", "13", "22", "14", "19", "22", "19", "21", "19", "22", "21", "20", "20", "14", "18", "18", "1", "2", "2", "10", "24", "23", "24", "25", "26", "26", "28", "30", "30", "32", "32", "25", "26", "27", "26", "1", "1"], "time": [7965, 7981, 8864, 9533, 11300, 11951, 12850, 13518, 14151, 14619, 15219, 15620, 16570, 17170, 17720, 18405, 18905, 19071, 19572, 21656, 23457, 24675, 24758, 24957, 25159, 26226, 28311, 29277, 29394, 29778, 30529, 32363, 35198, 36150, 37299, 38133, 38864, 39051, 39452, 40469, 41751, 41934, 42687, 43091, 45086, 46271]}, "edge": {"target": [], "time": []}}}, "displayed_time": "59.00", "trialTime": 65108, "trial_type": "mouselab-mdp", "trial_index": 3, "time_elapsed": 284213, "internal_node_id": "0.0-2.0-2.0-0.0"}}, {"uniqueid": "w50170238:a53933667", "current_trial": 4, "dateTime": 1693391827825, "trialdata": {"revealed_states": [], "clicked_states": ["1", "2", "3", "8", "9", "10"], "num_clicks_accrued": [0, 0, 0, 0, 0, 0, 0, 0, 0, 0, 0, 0, 0], "stateRewards": ["", 10, 10, 10, 10, -10, 10, 10, -10, -10, 10, -10, 10, 10, -10, 10, 10, -10, -10, 10, -10, 10, 10, -10, 10, 10, 10, -10, -10, 10, 10, 10, 10, -10], "withholdReward": false, "trial_id": "practice_2", "block": "test", "trialIndex": 1, "score": 30.5, "costs": -3, "simulationMode": [null, null, null, null, null], "rewards": [10, 10, 10, -10, 10], "path": ["0", "0", "1", "2", "3", "8", "10"], "rt": [17953, 469, 340, 603, 430], "actions": ["up", "up", "up", "left", "down"], "actionTimes": [22322, 23297, 24138, 25249, 26177], "queries": {"click": {"state": {"target": ["1", "2", "3", "8", "9", "10"], "time": [6241, 7833, 9778, 11705, 13977, 16610]}, "edge": {"target": [], "time": []}}, "mouseover": {"state": {"target": ["12", "1", "2", "7", "3", "8", "9", "10", "18"], "time": [4713, 5597, 6699, 8401, 9466, 11467, 13569, 15753, 18640]}, "edge": {"target": [], "time": []}}, "mouseout": {"state": {"target": ["20", "12", "0", "0", "0", "12", "1", "2", "7", "3", "3", "8", "3", "9", "10", "18"], "time": [1977, 2361, 2511, 3045, 3916, 5413, 6499, 8183, 9250, 10137, 11300, 11952, 12002, 14337, 16906, 18739]}, "edge": {"target": [], "time": []}}}, "displayed_time": "26.68", "trialTime": 30841, "trial_type": "mouselab-mdp", "trial_index": 4, "time_elapsed": 315453, "internal_node_id": "0.0-2.0-2.0-1.0"}}, {"uniqueid": "w50170238:a53933667", "current_trial": 5, "dateTime": 1693391874527, "trialdata": {"view_history": [{"page_index": 0, "viewing_time": 39146}, {"page_index": 1, "viewing_time": 7552}], "rt": 46698, "trial_id": "mouselab_instructions_2_misaligned", "trial_type": "instructions", "trial_index": 5, "time_elapsed": 362155, "internal_node_id": "0.0-2.0-3.0"}}, {"uniqueid": "w50170238:a53933667", "current_trial": 6, "dateTime": 1693391910593, "trialdata": {"rt": 36058, "response": {"Q0": "The cost for clicking on nodes may vary between nodes.", "Q1": "The better I perform the higher my bonus will be.", "Q2": "No, the amount of cash at each node of the web may be different each time.", "Q3": "To get the highest total score.", "Q4": "Only before moving the spider.", "Q5": "3 seconds"}, "question_order": [0, 1, 2, 3, 4, 5], "correct": {"Q0": "The cost for clicking on nodes may vary between nodes.", "Q1": "The better I perform the higher my bonus will be.", "Q2": "No, the amount of cash at each node of the web may be different each time.", "Q3": "To get the highest total score.", "Q4": "Only before moving the spider.", "Q5": "3 seconds"}, "trial_id": "mouselab_quiz_misaligned", "trial_type": "survey-multi-choice", "trial_index": 6, "time_elapsed": 398221, "internal_node_id": "0.0-2.0-4.0"}}, {"uniqueid": "w50170238:a53933667", "current_trial": 7, "dateTime": 1693391916015, "trialdata": {"rt": 5412, "response": {"Q0": "No"}, "question_order": [0], "trial_id": "repeat_check", "trial_type": "survey-multi-choice", "trial_index": 7, "time_elapsed": 403643, "internal_node_id": "0.0-4.0-0.0"}}, {"uniqueid": "w50170238:a53933667", "current_trial": 8, "dateTime": 1693391929488, "trialdata": {"rt": 13466, "stimulus": "\n<h1> Get ready to start the game! </h1>\n\nThank you for reading the instructions. Get ready start with the 40 rounds of this game.\n<br><br>\nIf you need to take a break, feel free to take one after the end of a round, before continuing to the next one.\n<br><br>\nRemember, the more money the spider gets, the bigger your bonus will be!\n<br><br>\n<div style='text-align: center;'>Press <code>space</code> to begin.</div>\n\n<br><br>\n(If, at any point, the <code>space</code> key does not take you to the next page, click once on the text and try again.)", "response": " ", "trial_id": "mdp_ready", "trial_type": "html-keyboard-response", "trial_index": 8, "time_elapsed": 417116, "internal_node_id": "0.0-6.0-0.0"}}, {"uniqueid": "w50170238:a53933667", "current_trial": 9, "dateTime": 1693391975377, "trialdata": {"revealed_states": [], "clicked_states": ["16", "17", "15", "14", "13", "1", "23", "24", "25"], "num_clicks_accrued": [0, 0, 0, 0, 0, 0, 0, 0, 0, 0, 0, 0, 0], "stateRewards": ["", -2, -4, -2, -13, -15, 87, -19, -6, -80, 30, 12, 1, 1, -8, 2, 55, 56, 15, 11, -68, -7, 55, -2, 3, -3, -3, 48, 62, 4, 1, -3, 69, -33], "withholdReward": false, "trial_id": "mdp_trial_1", "block": "test", "trialIndex": 2, "score": 44.05, "costs": -7.949999999999999, "simulationMode": [null, null, null, null, null], "rewards": [1, 1, -8, 2, 56], "path": ["0", "0", "12", "13", "14", "15", "17"], "rt": [32369, 482, 722, 729, 471], "actions": ["right", "right", "right", "up", "right"], "actionTimes": [35675, 36666, 37890, 39114, 40090], "queries": {"click": {"state": {"target": ["16", "17", "15", "14", "13", "1", "23", "24", "25"], "time": [5699, 9266, 12962, 14706, 17066, 19707, 22225, 23714, 25795]}, "edge": {"target": [], "time": []}}, "mouseover": {"state": {"target": ["12", "13", "15", "16", "15", "17", "15", "17", "14", "14", "15", "14", "19", "13", "12", "22", "0", "1", "2", "10", "23", "24", "25", "30", "31", "23", "28", "13", "13", "14", "19", "22", "12"], "time": [3725, 5012, 5143, 5360, 6312, 6378, 8279, 8712, 11165, 12380, 12614, 13355, 16132, 16434, 18852, 19018, 19202, 19469, 21020, 21520, 21720, 22921, 24356, 26989, 27356, 27757, 27941, 28524, 28740, 28891, 29024, 30492, 30725]}, "edge": {"target": [], "time": []}}, "mouseout": {"state": {"target": ["0", "0", "12", "13", "15", "16", "15", "17", "15", "17", "14", "14", "15", "14", "19", "13", "12", "22", "0", "1", "2", "10", "23", "24", "25", "30", "31", "23", "28", "13", "13", "14", "19", "22", "12"], "time": [2240, 3322, 4994, 5043, 5209, 5979, 6328, 8063, 8645, 9814, 12131, 12564, 13233, 15133, 16333, 17452, 18935, 19118, 19335, 19937, 21453, 21587, 22774, 24206, 26341, 27290, 27641, 27790, 28058, 28609, 28791, 28925, 29641, 30525, 31577]}, "edge": {"target": [], "time": []}}}, "displayed_time": "40.59", "trialTime": 45490, "trial_type": "mouselab-mdp", "trial_index": 9, "time_elapsed": 463004, "internal_node_id": "0.0-6.0-1.0-0.0"}}, {"uniqueid": "w50170238:a53933667", "current_trial": 10, "dateTime": 1693392024713, "trialdata": {"revealed_states": [], "clicked_states": ["1", "2", "7", "3", "8", "10", "25", "28", "12", "13", "14", "19", "20", "21", "22", "15"], "num_clicks_accrued": [0, 0, 0, 0, 0, 0, 0, 0, 0, 0, 0, 0, 0], "stateRewards": ["", -1, -1, 7, -15, -43, -21, -84, -9, -45, -66, 2, 1, -2, 2, 8, -27, 44, -52, -5, -84, 11, 53, 1, 4, -4, 16, 83, -82, -15, -16, 68, -43, 81], "withholdReward": false, "trial_id": "mdp_trial_2", "block": "test", "trialIndex": 3, "score": 28.400000000000002, "costs": -20.599999999999998, "simulationMode": [null, null, null, null, null], "rewards": [1, -2, 2, -5, 53], "path": ["0", "0", "12", "13", "14", "19", "22"], "rt": [40097, 372, 458, 595, 407], "actions": ["right", "right", "right", "down", "left"], "actionTimes": [42506, 43378, 44330, 45434, 46346], "queries": {"click": {"state": {"target": ["1", "2", "7", "3", "8", "10", "25", "28", "12", "13", "14", "19", "20", "21", "22", "15"], "time": [3275, 4595, 5642, 8715, 10082, 11226, 14722, 16794, 20939, 22274, 24587, 25906, 26737, 31378, 34915, 37931]}, "edge": {"target": [], "time": []}}, "mouseover": {"state": {"target": ["1", "2", "7", "4", "3", "8", "11", "10", "23", "24", "25", "24", "24", "28", "28", "24", "22", "12", "13", "14", "19", "20", "21", "21", "21", "22", "19", "14", "15", "17"], "time": [3009, 3926, 5328, 6229, 8429, 9263, 10748, 10932, 11698, 13666, 14349, 15251, 15883, 16200, 16534, 17186, 20503, 20669, 21287, 22756, 25507, 26308, 27242, 30909, 31125, 34079, 35281, 37365, 37648, 38299]}, "edge": {"target": [], "time": []}}, "mouseout": {"state": {"target": ["0", "1", "2", "7", "7", "4", "3", "8", "11", "10", "23", "24", "25", "24", "24", "28", "28", "24", "22", "12", "13", "14", "19", "20", "21", "21", "21", "22", "19", "14", "15", "17"], "time": [972, 3526, 5060, 5758, 6094, 8296, 9197, 10448, 10882, 11532, 13599, 14283, 15217, 15550, 16133, 16250, 17119, 19437, 20537, 21154, 22655, 25009, 26224, 27142, 28376, 30926, 31611, 35230, 35313, 37414, 38265, 38332]}, "edge": {"target": [], "time": []}}}, "displayed_time": "46.84", "trialTime": 48914, "trial_type": "mouselab-mdp", "trial_index": 10, "time_elapsed": 512340, "internal_node_id": "0.0-6.0-1.0-1.0"}}, {"uniqueid": "w50170238:a53933667", "current_trial": 11, "dateTime": 1693392046896, "trialdata": {"revealed_states": [], "clicked_states": [], "num_clicks_accrued": [0, 0, 0, 0, 0, 0, 0, 0, 0, 0, 0, 0, 0], "stateRewards": ["", 2, 3, -3, 12, -43, 81, -82, -15, 58, -7, -75, -1, -1, 3, -5, 50, -25, -8, 4, 66, 65, -66, 2, -4, 2, -1, -10, 10, 37, 11, 88, -37, 8], "withholdReward": false, "trial_id": "mdp_trial_3", "block": "test", "trialIndex": 4, "score": -68, "costs": 0, "simulationMode": [null, null, null, null, null], "rewards": [2, 3, -3, 12, -82], "path": ["0", "0", "1", "2", "3", "4", "7"], "rt": [2819, 409, 3188, 631, 1249], "actions": ["up", "up", "up", "right", "down"], "actionTimes": [7465, 8377, 12073, 13201, 14953], "queries": {"click": {"state": {"target": [], "time": []}, "edge": {"target": [], "time": []}}, "mouseover": {"state": {"target": ["12"], "time": [4680]}, "edge": {"target": [], "time": []}}, "mouseout": {"state": {"target": ["19", "22", "0", "12"], "time": [1058, 3393, 4669, 4705]}, "edge": {"target": [], "time": []}}}, "displayed_time": "18.65", "trialTime": 21769, "trial_type": "mouselab-mdp", "trial_index": 11, "time_elapsed": 534524, "internal_node_id": "0.0-6.0-1.0-2.0"}}, {"uniqueid": "w50170238:a53933667", "current_trial": 12, "dateTime": 1693392082016, "trialdata": {"revealed_states": [], "clicked_states": ["23", "24", "25", "26", "28", "27", "29", "30"], "num_clicks_accrued": [0, 0, 0, 0, 0, 0, 0, 0, 0, 0, 0, 0, 0], "stateRewards": ["", -1, -3, -6, 14, 41, 18, 63, -14, 80, 21, 17, -2, -4, -2, -5, 13, 70, 8, -4, -64, -10, -20, 2, -1, 4, -1, -17, -55, 42, -7, 47, 54, 15], "withholdReward": false, "trial_id": "mdp_trial_4", "block": "test", "trialIndex": 5, "score": 35.4, "costs": -10.600000000000001, "simulationMode": [null, null, null, null, null], "rewards": [2, -1, 4, -1, 42], "path": ["0", "0", "23", "24", "25", "26", "29"], "rt": [25290, 354, 368, 941, 371], "actions": ["left", "left", "left", "up", "left"], "actionTimes": [27720, 28584, 29447, 30887, 31767], "queries": {"click": {"state": {"target": ["23", "24", "25", "26", "28", "27", "29", "30"], "time": [4241, 6080, 8264, 10407, 12055, 14897, 18224, 21937]}, "edge": {"target": [], "time": []}}, "mouseover": {"state": {"target": ["23", "1", "23", "24", "25", "26", "28", "28", "27", "29", "25", "25", "30", "30", "31"], "time": [2891, 3392, 3843, 4527, 7244, 9663, 11099, 11382, 13867, 15801, 18805, 20371, 20804, 21499, 23371]}, "edge": {"target": [], "time": []}}, "mouseout": {"state": {"target": ["0", "23", "1", "23", "23", "24", "25", "25", "26", "28", "28", "27", "29", "25", "25", "30", "30", "31"], "time": [2842, 3075, 3575, 4309, 4444, 6900, 8370, 9362, 10998, 11148, 13132, 15418, 18570, 19889, 20688, 21320, 22340, 24255]}, "edge": {"target": [], "time": []}}}, "displayed_time": "32.27", "trialTime": 34624, "trial_type": "mouselab-mdp", "trial_index": 12, "time_elapsed": 569644, "internal_node_id": "0.0-6.0-1.0-3.0"}}, {"uniqueid": "w50170238:a53933667", "current_trial": 13, "dateTime": 1693392123672, "trialdata": {"revealed_states": [], "clicked_states": ["32", "30", "33", "31", "25", "26", "28", "29", "27"], "num_clicks_accrued": [0, 0, 0, 0, 0, 0, 0, 0, 0, 0, 0, 0, 0], "stateRewards": ["", 2, 2, 3, -15, 23, -14, 73, -7, -32, -20, -6, 1, 1, -5, -12, 73, 6, -84, 11, -81, -57, 13, -2, -1, -4, -8, -52, -58, 49, 13, 5, -41, -41], "withholdReward": false, "trial_id": "mdp_trial_5", "block": "test", "trialIndex": 6, "score": 17.05, "costs": -16.95, "simulationMode": [null, null, null, null, null], "rewards": [-2, -1, -4, -8, 49], "path": ["0", "0", "23", "24", "25", "26", "29"], "rt": [31422, 331, 308, 371, 336], "actions": ["left", "left", "left", "up", "left"], "actionTimes": [35137, 35976, 36784, 37664, 38496], "queries": {"click": {"state": {"target": ["32", "30", "33", "31", "25", "26", "28", "29", "27"], "time": [5289, 8489, 10865, 13954, 17105, 19872, 21936, 25761, 28697]}, "edge": {"target": [], "time": []}}, "mouseover": {"state": {"target": ["0", "32", "30", "31", "33", "31", "25", "24", "26", "24", "28", "29", "27", "24"], "time": [3740, 4453, 7122, 9122, 9888, 11708, 15477, 18061, 19478, 20613, 21062, 22886, 26463, 29852]}, "edge": {"target": [], "time": []}}, "mouseout": {"state": {"target": ["0", "0", "32", "30", "31", "30", "33", "30", "31", "25", "24", "26", "24", "28", "26", "29", "27", "24"], "time": [2400, 3835, 5853, 9039, 9771, 9855, 11291, 11607, 15209, 17581, 19411, 20329, 20846, 22564, 22631, 26149, 29186, 29869]}, "edge": {"target": [], "time": []}}}, "displayed_time": "38.99", "trialTime": 41216, "trial_type": "mouselab-mdp", "trial_index": 13, "time_elapsed": 611300, "internal_node_id": "0.0-6.0-1.0-4.0"}}, {"uniqueid": "w50170238:a53933667", "current_trial": 14, "dateTime": 1693392169840, "trialdata": {"revealed_states": [], "clicked_states": ["12", "13", "14", "15", "18", "16", "17", "1", "2", "3", "8", "11", "10", "9"], "num_clicks_accrued": [0, 0, 0, 0, 0, 0, 0, 0, 0, 0, 0, 0, 0], "stateRewards": ["", 2, 4, 7, -6, -76, -81, 2, 5, -66, -3, 36, -2, -4, 6, -2, -69, 4, -49, -6, 67, 38, -67, 2, 1, 1, 6, -68, -21, 52, -16, -16, 6, -70], "withholdReward": false, "trial_id": "mdp_trial_6", "block": "test", "trialIndex": 7, "score": 35.9, "costs": -18.1, "simulationMode": [null, null, null, null, null], "rewards": [2, 4, 7, 5, 36], "path": ["0", "0", "1", "2", "3", "8", "11"], "rt": [38285, 82, 107, 603, 182], "actions": ["up", "up", "up", "left", "left"], "actionTimes": [40195, 40786, 41394, 42490, 43170], "queries": {"click": {"state": {"target": ["12", "13", "14", "15", "18", "16", "17", "1", "2", "3", "8", "11", "10", "9"], "time": [3147, 4763, 6379, 8171, 9954, 13059, 16595, 19611, 21307, 23323, 25075, 26834, 29875, 33627]}, "edge": {"target": [], "time": []}}, "mouseover": {"state": {"target": ["22", "13", "12", "13", "14", "15", "18", "15", "16", "17", "20", "19", "13", "1", "2", "7", "7", "3", "7", "4", "8", "10", "11", "10", "8", "9", "3", "2"], "time": [2359, 2509, 2742, 3394, 5416, 7929, 9314, 11766, 12017, 13667, 17324, 18370, 18855, 19137, 20538, 21944, 22605, 23072, 23807, 24405, 24607, 25574, 26407, 28543, 31978, 33295, 34097, 34247]}, "edge": {"target": [], "time": []}}, "mouseout": {"state": {"target": ["0", "22", "13", "12", "13", "14", "14", "15", "14", "18", "15", "16", "17", "20", "19", "13", "1", "1", "2", "7", "7", "3", "7", "4", "3", "8", "10", "11", "10", "10", "8", "9", "3", "2"], "time": [1926, 2426, 2592, 3361, 5162, 6879, 7712, 8636, 9246, 10316, 11815, 13400, 16902, 17403, 18821, 18871, 19687, 19938, 21872, 22190, 22956, 23657, 24224, 24506, 24589, 25458, 25808, 27266, 30462, 31829, 32961, 33997, 34164, 34364]}, "edge": {"target": [], "time": []}}}, "displayed_time": "43.67", "trialTime": 45650, "trial_type": "mouselab-mdp", "trial_index": 14, "time_elapsed": 657467, "internal_node_id": "0.0-6.0-1.0-5.0"}}, {"uniqueid": "w50170238:a53933667", "current_trial": 15, "dateTime": 1693392196488, "trialdata": {"revealed_states": [], "clicked_states": ["1", "2", "3", "4", "7", "6"], "num_clicks_accrued": [0, 0, 0, 0, 0, 0, 0, 0, 0, 0, 0, 0, 0], "stateRewards": ["", -2, -4, 2, 10, -17, 18, 73, 11, -32, 23, -13, -2, -4, 7, 12, -25, 66, -23, 15, 40, -76, -9, 1, 2, -7, -5, -20, 24, 3, -5, 16, -73, 70], "withholdReward": false, "trial_id": "mdp_trial_7", "block": "test", "trialIndex": 8, "score": 72.1, "costs": -6.9, "simulationMode": [null, null, null, null, null], "rewards": [-2, -4, 2, 10, 73], "path": ["0", "0", "1", "2", "3", "4", "7"], "rt": [17578, 43, 61, 823, 360], "actions": ["up", "up", "up", "right", "down"], "actionTimes": [19837, 20388, 20973, 22300, 23156], "queries": {"click": {"state": {"target": ["1", "2", "3", "4", "7", "6"], "time": [3717, 4981, 7317, 8621, 10228, 13445]}, "edge": {"target": [], "time": []}}, "mouseover": {"state": {"target": ["12", "12", "1", "2", "7", "3", "4", "7", "6", "18"], "time": [2275, 2912, 3312, 4331, 5516, 6965, 7584, 9417, 11236, 14387]}, "edge": {"target": [], "time": []}}, "mouseout": {"state": {"target": ["1", "12", "0", "12", "12", "1", "2", "7", "3", "4", "7", "6", "18", "21"], "time": [43, 176, 1454, 2829, 3112, 3984, 5331, 6865, 7521, 9335, 10918, 13903, 14587, 25611]}, "edge": {"target": [], "time": []}}}, "displayed_time": "23.66", "trialTime": 26172, "trial_type": "mouselab-mdp", "trial_index": 15, "time_elapsed": 684116, "internal_node_id": "0.0-6.0-1.0-6.0"}}, {"uniqueid": "w50170238:a53933667", "current_trial": 16, "dateTime": 1693392239953, "trialdata": {"revealed_states": [], "clicked_states": ["22", "20", "21", "17", "16", "18", "7"], "num_clicks_accrued": [0, 0, 0, 0, 0, 0, 0, 0, 0, 0, 0, 0, 0], "stateRewards": ["", -1, 2, -6, 6, 43, 78, 78, -2, 55, -29, -17, -2, -4, 1, -15, 13, 7, -79, 8, -28, -68, 36, -1, -3, 3, -16, 84, -18, 87, 10, 32, 13, -81], "withholdReward": false, "trial_id": "mdp_trial_8", "block": "test", "trialIndex": 9, "score": 63.95, "costs": -15.05, "simulationMode": [null, null, null, null, null], "rewards": [-1, 2, -6, 6, 78], "path": ["0", "0", "1", "2", "3", "4", "7"], "rt": [30876, 301, 277, 663, 583], "actions": ["up", "up", "up", "right", "down"], "actionTimes": [35494, 36302, 37078, 38246, 39334], "queries": {"click": {"state": {"target": ["22", "20", "21", "17", "16", "18", "7"], "time": [6566, 9966, 13518, 17174, 20614, 24078, 28007]}, "edge": {"target": [], "time": []}}, "mouseover": {"state": {"target": ["19", "21", "22", "22", "21", "20", "21", "20", "17", "16", "18", "7", "6", "15"], "time": [5310, 5509, 5792, 6026, 6995, 7295, 11214, 16701, 16900, 19069, 23605, 27591, 29042, 32093]}, "edge": {"target": [], "time": []}}, "mouseout": {"state": {"target": ["0", "19", "21", "22", "22", "21", "20", "21", "20", "17", "17", "16", "18", "18", "7", "6", "7", "15", "21", "19", "14"], "time": [4634, 5409, 5726, 5859, 6778, 7211, 10232, 13817, 16735, 17502, 18986, 20971, 24390, 27341, 28018, 31927, 32026, 32128, 42550, 42616, 42716]}, "edge": {"target": [], "time": []}}}, "displayed_time": "39.84", "trialTime": 42967, "trial_type": "mouselab-mdp", "trial_index": 16, "time_elapsed": 727581, "internal_node_id": "0.0-6.0-1.0-7.0"}}, {"uniqueid": "w50170238:a53933667", "current_trial": 17, "dateTime": 1693392296840, "trialdata": {"revealed_states": [], "clicked_states": ["9", "11", "10", "5", "6", "7", "27", "29", "28", "33", "32", "31"], "num_clicks_accrued": [0, 0, 0, 0, 0, 0, 0, 0, 0, 0, 0, 0, 0], "stateRewards": ["", -2, 2, -5, -6, 10, -66, -58, -10, -11, -63, -70, -1, -4, -5, 7, 66, -64, -43, -3, 45, -37, 4, -2, -2, -6, -4, -30, 33, 43, 15, -32, -65, -59], "withholdReward": false, "trial_id": "mdp_trial_9", "block": "test", "trialIndex": 10, "score": 3.200000000000003, "costs": -25.799999999999994, "simulationMode": [null, null, null, null, null], "rewards": [-2, -2, -6, -4, 43], "path": ["0", "0", "23", "24", "25", "26", "29"], "rt": [46589, 220, 207, 681, 346], "actions": ["left", "left", "left", "up", "left"], "actionTimes": [50775, 51503, 52207, 53383, 54231], "queries": {"click": {"state": {"target": ["9", "11", "10", "5", "6", "7", "27", "29", "28", "33", "32", "31"], "time": [5503, 8800, 11999, 15799, 19063, 22327, 26231, 29470, 32959, 36311, 39591, 42896]}, "edge": {"target": [], "time": []}}, "mouseover": {"state": {"target": ["12", "1", "10", "8", "9", "11", "10", "3", "5", "4", "6", "7", "10", "27", "26", "29", "28", "24", "30", "33", "30", "32", "31", "22"], "time": [4269, 4734, 4783, 5049, 5116, 5917, 9787, 15240, 15538, 16207, 16523, 19559, 25595, 25963, 26898, 27197, 30766, 33452, 34135, 34335, 36837, 37821, 40139, 44029]}, "edge": {"target": [], "time": []}}, "mouseout": {"state": {"target": ["22", "0", "0", "12", "1", "10", "8", "9", "11", "10", "3", "5", "4", "6", "7", "10", "27", "26", "29", "28", "24", "30", "33", "30", "32", "31", "22"], "time": [3014, 3347, 4213, 4717, 4766, 4916, 5066, 5717, 9571, 15206, 15273, 16074, 16457, 19426, 23112, 25630, 26370, 26931, 29715, 33269, 33535, 34285, 36754, 37254, 39873, 43275, 46626]}, "edge": {"target": [], "time": []}}}, "displayed_time": "54.74", "trialTime": 56383, "trial_type": "mouselab-mdp", "trial_index": 17, "time_elapsed": 784468, "internal_node_id": "0.0-6.0-1.0-8.0"}}, {"uniqueid": "w50170238:a53933667", "current_trial": 18, "dateTime": 1693392316690, "trialdata": {"revealed_states": [], "clicked_states": ["22"], "num_clicks_accrued": [0, 0, 0, 0, 0, 0, 0, 0, 0, 0, 0, 0, 0], "stateRewards": ["", 2, 3, 6, -5, -74, -53, 17, -12, 46, 44, 18, -2, 4, 1, -8, 22, -23, -49, 9, -45, 55, 81, 1, -1, -7, -16, -83, -71, -45, 2, 51, 82, 61], "withholdReward": false, "trial_id": "mdp_trial_10", "block": "test", "trialIndex": 11, "score": 90.85, "costs": -2.15, "simulationMode": [null, null, null, null, null], "rewards": [-2, 4, 1, 9, 81], "path": ["0", "0", "12", "13", "14", "19", "22"], "rt": [9378, 330, 257, 355, 424], "actions": ["right", "right", "right", "down", "left"], "actionTimes": [11467, 12306, 13066, 13914, 14834], "queries": {"click": {"state": {"target": ["22"], "time": [3426]}, "edge": {"target": [], "time": []}}, "mouseover": {"state": {"target": ["0", "22", "22", "19"], "time": [2269, 2814, 3131, 3650]}, "edge": {"target": [], "time": []}}, "mouseout": {"state": {"target": ["0", "0", "22", "22", "19"], "time": [2214, 2315, 2865, 3617, 3667]}, "edge": {"target": [], "time": []}}}, "displayed_time": "16.09", "trialTime": 19347, "trial_type": "mouselab-mdp", "trial_index": 18, "time_elapsed": 804317, "internal_node_id": "0.0-6.0-1.0-9.0"}}, {"uniqueid": "w50170238:a53933667", "current_trial": 19, "dateTime": 1693392337128, "trialdata": {"revealed_states": [], "clicked_states": ["20", "22"], "num_clicks_accrued": [0, 0, 0, 0, 0, 0, 0, 0, 0, 0, 0, 0, 0], "stateRewards": ["", 1, -2, -3, 14, -42, -87, -37, -11, -50, 33, -44, -2, 4, -7, 13, 48, -75, -66, 12, 23, -2, 82, 1, -4, 3, 12, 51, -15, -26, -11, -52, -29, 82], "withholdReward": false, "trial_id": "mdp_trial_11", "block": "test", "trialIndex": 12, "score": 84.7, "costs": -4.3, "simulationMode": [null, null, null, null, null], "rewards": [-2, 4, -7, 12, 82], "path": ["0", "0", "12", "13", "14", "19", "22"], "rt": [11521, 258, 269, 413, 912], "actions": ["right", "right", "right", "down", "left"], "actionTimes": [13850, 14617, 15394, 16306, 17722], "queries": {"click": {"state": {"target": ["20", "22"], "time": [4027, 7338]}, "edge": {"target": [], "time": []}}, "mouseover": {"state": {"target": ["14", "19", "22", "19", "20", "21", "22", "21"], "time": [2350, 3130, 3230, 3646, 3747, 5099, 5416, 10719]}, "edge": {"target": [], "time": []}}, "mouseout": {"state": {"target": ["0", "14", "19", "22", "19", "20", "21", "22", "21"], "time": [2347, 2435, 3213, 3596, 3665, 4111, 5149, 7601, 10752]}, "edge": {"target": [], "time": []}}}, "displayed_time": "18.23", "trialTime": 19922, "trial_type": "mouselab-mdp", "trial_index": 19, "time_elapsed": 824756, "internal_node_id": "0.0-6.0-1.0-10.0"}}, {"uniqueid": "w50170238:a53933667", "current_trial": 20, "dateTime": 1693392360376, "trialdata": {"revealed_states": [], "clicked_states": ["6", "7", "18"], "num_clicks_accrued": [0, 0, 0, 0, 0, 0, 0, 0, 0, 0, 0, 0, 0], "stateRewards": ["", 2, -1, -1, -9, -81, -30, 55, -6, 78, 25, 62, 2, 4, -1, 9, -85, 1, -19, 1, -60, 12, -34, 1, 4, -1, -13, -24, -16, -83, -8, 16, 43, 9], "withholdReward": false, "trial_id": "mdp_trial_12", "block": "test", "trialIndex": 13, "score": 39.55, "costs": -6.449999999999999, "simulationMode": [null, null, null, null, null], "rewards": [2, -1, -1, -9, 55], "path": ["0", "0", "1", "2", "3", "4", "7"], "rt": [14218, 323, 283, 355, 385], "actions": ["up", "up", "up", "right", "down"], "actionTimes": [17029, 17875, 18651, 19507, 20387], "queries": {"click": {"state": {"target": ["6", "7", "18"], "time": [4147, 7643, 11251]}, "edge": {"target": [], "time": []}}, "mouseover": {"state": {"target": ["12", "12", "6", "18", "18", "7", "18", "18"], "time": [2831, 3287, 3720, 4506, 5156, 5456, 7959, 8408]}, "edge": {"target": [], "time": []}}, "mouseout": {"state": {"target": ["0", "12", "12", "6", "18", "18", "7", "18", "18"], "time": [2828, 2840, 3354, 4389, 4781, 5240, 7857, 7991, 11594]}, "edge": {"target": [], "time": []}}}, "displayed_time": "20.89", "trialTime": 22731, "trial_type": "mouselab-mdp", "trial_index": 20, "time_elapsed": 848004, "internal_node_id": "0.0-6.0-1.0-11.0"}}, {"uniqueid": "w50170238:a53933667", "current_trial": 21, "dateTime": 1693392392728, "trialdata": {"revealed_states": [], "clicked_states": ["22", "20", "21", "31", "33"], "num_clicks_accrued": [0, 0, 0, 0, 0, 0, 0, 0, 0, 0, 0, 0, 0], "stateRewards": ["", -1, 4, -8, 12, 14, 69, -8, 5, -72, -14, 56, -1, -1, -1, 9, 67, 19, 11, -9, -88, -58, 3, 2, -4, -8, 4, 62, 77, -74, 5, -31, 65, 88], "withholdReward": false, "trial_id": "mdp_trial_13", "block": "test", "trialIndex": 14, "score": 72.25, "costs": -10.75, "simulationMode": [null, null, null, null, null], "rewards": [2, -4, -8, 5, 88], "path": ["0", "0", "23", "24", "25", "30", "33"], "rt": [24656, 12, 112, 367, 866], "actions": ["left", "left", "left", "down", "left"], "actionTimes": [26627, 27147, 27779, 28651, 30019], "queries": {"click": {"state": {"target": ["22", "20", "21", "31", "33"], "time": [3148, 7748, 12778, 16189, 19603]}, "edge": {"target": [], "time": []}}, "mouseover": {"state": {"target": ["22", "19", "22", "19", "20", "20", "21", "33", "30", "33", "30", "31", "32", "33", "32"], "time": [2463, 2531, 2914, 3333, 4600, 7534, 8452, 13623, 13888, 14089, 14156, 14206, 16857, 17074, 20542]}, "edge": {"target": [], "time": []}}, "mouseout": {"state": {"target": ["13", "12", "0", "23", "0", "22", "19", "22", "19", "20", "20", "21", "33", "30", "33", "30", "31", "32", "33", "32"], "time": [678, 713, 745, 962, 2348, 2498, 2680, 3315, 3349, 7000, 8029, 13055, 13755, 13956, 14124, 14190, 16625, 16924, 20461, 23143]}, "edge": {"target": [], "time": []}}}, "displayed_time": "30.54", "trialTime": 31779, "trial_type": "mouselab-mdp", "trial_index": 21, "time_elapsed": 880356, "internal_node_id": "0.0-6.0-1.0-12.0"}}, {"uniqueid": "w50170238:a53933667", "current_trial": 22, "dateTime": 1693392418399, "trialdata": {"revealed_states": [], "clicked_states": ["33", "31"], "num_clicks_accrued": [0, 0, 0, 0, 0, 0, 0, 0, 0, 0, 0, 0, 0], "stateRewards": ["", 1, 3, -2, 15, 51, 15, -19, 11, 67, -45, -73, 2, 4, -2, -13, 36, 9, -28, 10, -30, 31, 16, 1, 2, -1, -16, 14, -22, 36, -1, 88, -5, 45], "withholdReward": false, "trial_id": "mdp_trial_14", "block": "test", "trialIndex": 15, "score": 84.7, "costs": -4.3, "simulationMode": [null, null, null, null, null], "rewards": [1, 2, -1, -1, 88], "path": ["0", "0", "23", "24", "25", "30", "31"], "rt": [12455, 251, 272, 329, 479], "actions": ["left", "left", "left", "down", "right"], "actionTimes": [18926, 19677, 20445, 21269, 22253], "queries": {"click": {"state": {"target": ["33", "31"], "time": [8214, 12525]}, "edge": {"target": [], "time": []}}, "mouseover": {"state": {"target": ["0", "32", "33", "31"], "time": [6489, 7277, 7527, 12214]}, "edge": {"target": [], "time": []}}, "mouseout": {"state": {"target": ["0", "0", "32", "33", "31"], "time": [6059, 6610, 7360, 8446, 12782]}, "edge": {"target": [], "time": []}}}, "displayed_time": "22.80", "trialTime": 25141, "trial_type": "mouselab-mdp", "trial_index": 22, "time_elapsed": 906027, "internal_node_id": "0.0-6.0-1.0-13.0"}}, {"uniqueid": "w50170238:a53933667", "current_trial": 23, "dateTime": 1693392453200, "trialdata": {"revealed_states": [], "clicked_states": ["27", "29", "31", "28", "33", "32"], "num_clicks_accrued": [0, 0, 0, 0, 0, 0, 0, 0, 0, 0, 0, 0, 0], "stateRewards": ["", 1, 2, -3, -5, 66, -50, -47, -5, 1, 28, -27, 1, 1, -1, -6, 37, -25, 56, 1, -82, -66, -40, -1, -4, -7, 15, -61, -23, 26, 10, 14, -56, 29], "withholdReward": false, "trial_id": "mdp_trial_15", "block": "test", "trialIndex": 16, "score": 14.100000000000001, "costs": -12.9, "simulationMode": [null, null, null, null, null], "rewards": [-1, -4, -7, 10, 29], "path": ["0", "0", "23", "24", "25", "30", "33"], "rt": [26962, 8, 139, 296, 1040], "actions": ["left", "left", "left", "down", "left"], "actionTimes": [28853, 29366, 30028, 30820, 32364], "queries": {"click": {"state": {"target": ["27", "29", "31", "28", "33", "32"], "time": [2996, 6253, 9653, 13461, 17309, 22246]}, "edge": {"target": [], "time": []}}, "mouseover": {"state": {"target": ["23", "26", "27", "27", "24", "25", "26", "29", "25", "30", "31", "24", "28", "24", "30", "33", "30", "32"], "time": [2335, 2401, 2534, 2751, 3370, 3836, 4020, 4504, 6590, 7305, 7456, 12875, 13191, 13746, 16727, 16995, 17512, 21964]}, "edge": {"target": [], "time": []}}, "mouseout": {"state": {"target": ["0", "23", "26", "27", "27", "24", "25", "26", "29", "25", "30", "31", "31", "24", "28", "24", "31", "30", "33", "30", "32"], "time": [1006, 2352, 2419, 2584, 3220, 3475, 3970, 4288, 6522, 6806, 7323, 9766, 9891, 12893, 13696, 13842, 14010, 16794, 17496, 17562, 22533]}, "edge": {"target": [], "time": []}}}, "displayed_time": "32.86", "trialTime": 34252, "trial_type": "mouselab-mdp", "trial_index": 23, "time_elapsed": 940827, "internal_node_id": "0.0-6.0-1.0-14.0"}}, {"uniqueid": "w50170238:a53933667", "current_trial": 24, "dateTime": 1693392471088, "trialdata": {"revealed_states": [], "clicked_states": ["9"], "num_clicks_accrued": [0, 0, 0, 0, 0, 0, 0, 0, 0, 0, 0, 0, 0], "stateRewards": ["", -2, 1, -5, 2, -68, 80, 33, 10, 67, -59, 20, -1, -3, 3, 14, 74, -2, 24, -16, 63, 80, 46, -1, 4, 6, 12, 83, -38, -43, -4, 43, 14, -79], "withholdReward": false, "trial_id": "mdp_trial_16", "block": "test", "trialIndex": 17, "score": 68.85, "costs": -2.15, "simulationMode": [null, null, null, null, null], "rewards": [-2, 1, -5, 10, 67], "path": ["0", "0", "1", "2", "3", "8", "9"], "rt": [8284, 95, 150, 643, 410], "actions": ["up", "up", "up", "left", "up"], "actionTimes": [10217, 10809, 11465, 12641, 13561], "queries": {"click": {"state": {"target": ["9"], "time": [2898]}, "edge": {"target": [], "time": []}}, "mouseover": {"state": {"target": ["1", "8", "9", "3", "2", "1", "1", "10", "11", "8"], "time": [2405, 2536, 2620, 3139, 3160, 3206, 3739, 3940, 4106, 6578]}, "edge": {"target": [], "time": []}}, "mouseout": {"state": {"target": ["0", "1", "8", "9", "3", "2", "1", "1", "10", "11", "8"], "time": [1502, 2429, 2555, 3105, 3155, 3189, 3272, 3905, 3990, 6574, 6589]}, "edge": {"target": [], "time": []}}}, "displayed_time": "15.93", "trialTime": 17337, "trial_type": "mouselab-mdp", "trial_index": 24, "time_elapsed": 958715, "internal_node_id": "0.0-6.0-1.0-15.0"}}, {"uniqueid": "w50170238:a53933667", "current_trial": 25, "dateTime": 1693392506288, "trialdata": {"revealed_states": [], "clicked_states": ["9", "11", "10", "5", "6", "7"], "num_clicks_accrued": [0, 0, 0, 0, 0, 0, 0, 0, 0, 0, 0, 0, 0], "stateRewards": ["", -1, 1, -5, -6, -78, 47, -13, 12, 48, -88, 20, 2, -3, -2, 13, -20, 37, -57, 14, -38, 30, 31, -2, -2, 8, 2, -23, 78, 28, 12, -74, -88, 8], "withholdReward": false, "trial_id": "mdp_trial_17", "block": "test", "trialIndex": 18, "score": 42.1, "costs": -12.9, "simulationMode": [null, null, null, null, null], "rewards": [-1, 1, -5, 12, 48], "path": ["0", "0", "1", "2", "3", "8", "9"], "rt": [26139, 182, 716, 691, 362], "actions": ["up", "up", "up", "left", "up"], "actionTimes": [28193, 28881, 30097, 31289, 32145], "queries": {"click": {"state": {"target": ["9", "11", "10", "5", "6", "7"], "time": [3089, 6658, 9978, 14906, 18281, 21681]}, "edge": {"target": [], "time": []}}, "mouseover": {"state": {"target": ["13", "18", "7", "8", "9", "10", "11", "10", "2", "7", "18", "15", "15", "6", "5", "16", "6", "6", "16", "7", "15"], "time": [2077, 2511, 2544, 2627, 2860, 3746, 3962, 7198, 13484, 13667, 13717, 13738, 13934, 14200, 14596, 15320, 16587, 16753, 18654, 20627, 22190]}, "edge": {"target": [], "time": []}}, "mouseout": {"state": {"target": ["17", "13", "12", "0", "0", "13", "18", "7", "8", "9", "10", "11", "10", "2", "7", "18", "15", "15", "6", "5", "16", "6", "6", "16", "7", "15"], "time": [941, 991, 1025, 1141, 2072, 2477, 2527, 2561, 2693, 3312, 3779, 6931, 10266, 13517, 13700, 13734, 13768, 14034, 14317, 15119, 16470, 16604, 18589, 20573, 21789, 22207]}, "edge": {"target": [], "time": []}}}, "displayed_time": "32.65", "trialTime": 34649, "trial_type": "mouselab-mdp", "trial_index": 25, "time_elapsed": 993915, "internal_node_id": "0.0-6.0-1.0-16.0"}}, {"uniqueid": "w50170238:a53933667", "current_trial": 26, "dateTime": 1693392537577, "trialdata": {"revealed_states": [], "clicked_states": ["17", "16", "18", "28", "27"], "num_clicks_accrued": [0, 0, 0, 0, 0, 0, 0, 0, 0, 0, 0, 0, 0], "stateRewards": ["", -2, 2, -1, -6, 22, 6, 6, -5, 70, -42, 65, 1, 3, 5, -6, -67, -9, 3, 14, 7, -62, -13, -2, 4, 1, 16, 42, -21, -52, -8, 32, 53, 81], "withholdReward": false, "trial_id": "mdp_trial_18", "block": "test", "trialIndex": 19, "score": 50.25, "costs": -10.75, "simulationMode": [null, null, null, null, null], "rewards": [-2, 4, 1, 16, 42], "path": ["0", "0", "23", "24", "25", "26", "27"], "rt": [22719, 60, 143, 837, 62], "actions": ["left", "left", "left", "up", "up"], "actionTimes": [24125, 24685, 25333, 26677, 27237], "queries": {"click": {"state": {"target": ["17", "16", "18", "28", "27"], "time": [2356, 5685, 9060, 12381, 16142]}, "edge": {"target": [], "time": []}}, "mouseover": {"state": {"target": ["13", "14", "17", "16", "16", "18", "13", "12", "23", "24", "26", "28", "27", "10", "10", "4", "5", "16", "17", "12", "0", "23", "25", "24", "24", "29", "0", "20"], "time": [1423, 1886, 2003, 3122, 3489, 6124, 9511, 9660, 9844, 9893, 10443, 10477, 15745, 16482, 16750, 16843, 17065, 19982, 20017, 20349, 20370, 20388, 20533, 21034, 21166, 21466, 21799, 21883]}, "edge": {"target": [], "time": []}}, "mouseout": {"state": {"target": ["15", "18", "0", "13", "14", "17", "17", "16", "16", "18", "13", "12", "23", "24", "26", "28", "28", "27", "10", "10", "4", "5", "16", "17", "12", "0", "23", "25", "24", "24", "29", "0", "20"], "time": [501, 534, 885, 1489, 1903, 2588, 3056, 3221, 5975, 9376, 9600, 9727, 9876, 9909, 10460, 12664, 15663, 16226, 16497, 16769, 16857, 19934, 19999, 20033, 20366, 20384, 20401, 20566, 21053, 21200, 21750, 21817, 21983]}, "edge": {"target": [], "time": []}}}, "displayed_time": "27.74", "trialTime": 30694, "trial_type": "mouselab-mdp", "trial_index": 26, "time_elapsed": 1025205, "internal_node_id": "0.0-6.0-1.0-17.0"}}, {"uniqueid": "w50170238:a53933667", "current_trial": 27, "dateTime": 1693392555376, "trialdata": {"revealed_states": [], "clicked_states": ["33"], "num_clicks_accrued": [0, 0, 0, 0, 0, 0, 0, 0, 0, 0, 0, 0, 0], "stateRewards": ["", 2, -2, -3, 10, -4, -1, -11, -8, -9, -36, -78, 2, 1, 7, -7, 44, -1, -31, -1, 26, 47, 83, 2, -4, -4, -6, -52, -76, -81, -1, -59, 45, 67], "withholdReward": false, "trial_id": "mdp_trial_19", "block": "test", "trialIndex": 20, "score": 57.85, "costs": -2.15, "simulationMode": [null, null, null, null, null], "rewards": [2, -4, -4, -1, 67], "path": ["0", "0", "23", "24", "25", "30", "33"], "rt": [9272, 100, 133, 403, 406], "actions": ["left", "left", "left", "down", "left"], "actionTimes": [11205, 11813, 12445, 13349, 14253], "queries": {"click": {"state": {"target": ["33"], "time": [2909]}, "edge": {"target": [], "time": []}}, "mouseover": {"state": {"target": ["12", "0", "30", "33", "30", "22", "31", "31"], "time": [2021, 2319, 2518, 2718, 3137, 3237, 3904, 4326]}, "edge": {"target": [], "time": []}}, "mouseout": {"state": {"target": ["22", "0", "12", "0", "30", "33", "30", "22", "31", "31"], "time": [950, 1955, 2240, 2352, 2652, 3001, 3153, 3303, 3987, 6838]}, "edge": {"target": [], "time": []}}}, "displayed_time": "15.94", "trialTime": 17221, "trial_type": "mouselab-mdp", "trial_index": 27, "time_elapsed": 1043004, "internal_node_id": "0.0-6.0-1.0-18.0"}}, {"uniqueid": "w50170238:a53933667", "current_trial": 28, "dateTime": 1693392574904, "trialdata": {"revealed_states": [], "clicked_states": ["11", "29"], "num_clicks_accrued": [0, 0, 0, 0, 0, 0, 0, 0, 0, 0, 0, 0, 0], "stateRewards": ["", -2, -3, 8, 14, -73, 73, 84, -12, -2, -50, -17, 2, 1, -2, -9, -44, -27, -33, 16, -63, -47, -66, -2, 1, 4, -5, -33, -11, 50, 9, 38, -79, 31], "withholdReward": false, "trial_id": "mdp_trial_20", "block": "test", "trialIndex": 21, "score": 43.7, "costs": -4.3, "simulationMode": [null, null, null, null, null], "rewards": [-2, 1, 4, -5, 50], "path": ["0", "0", "23", "24", "25", "26", "29"], "rt": [11960, 746, 264, 257, 370], "actions": ["left", "left", "left", "up", "left"], "actionTimes": [13564, 14812, 15580, 16340, 17204], "queries": {"click": {"state": {"target": ["11", "29"], "time": [2605, 6516]}, "edge": {"target": [], "time": []}}, "mouseover": {"state": {"target": ["0", "11", "10", "1", "28", "26", "29", "26", "28", "23"], "time": [1641, 2387, 2857, 2923, 5990, 6040, 6256, 6742, 6792, 6858]}, "edge": {"target": [], "time": []}}, "mouseout": {"state": {"target": ["0", "0", "11", "10", "1", "28", "26", "29", "26", "28", "23"], "time": [1118, 2087, 2840, 2873, 2939, 6023, 6073, 6600, 6775, 6808, 7022]}, "edge": {"target": [], "time": []}}}, "displayed_time": "17.71", "trialTime": 18940, "trial_type": "mouselab-mdp", "trial_index": 28, "time_elapsed": 1062532, "internal_node_id": "0.0-6.0-1.0-19.0"}}, {"uniqueid": "w50170238:a53933667", "current_trial": 29, "dateTime": 1693392613303, "trialdata": {"revealed_states": [], "clicked_states": ["32", "31", "33", "22", "20", "21", "17"], "num_clicks_accrued": [0, 0, 0, 0, 0, 0, 0, 0, 0, 0, 0, 0, 0], "stateRewards": ["", 1, 2, -6, -13, -51, 22, -4, -12, -44, -12, 6, -2, -2, -2, -14, -46, -4, -77, -2, 36, -79, 41, 2, -4, 2, -6, -55, 59, 70, -5, 39, -19, 24], "withholdReward": false, "trial_id": "mdp_trial_21", "block": "test", "trialIndex": 22, "score": 17.95, "costs": -15.05, "simulationMode": [null, null, null, null, null], "rewards": [-2, -2, -2, -2, 41], "path": ["0", "0", "12", "13", "14", "19", "22"], "rt": [31489, 109, 366, 249, 451], "actions": ["right", "right", "right", "down", "left"], "actionTimes": [32903, 33519, 34391, 35143, 36095], "queries": {"click": {"state": {"target": ["32", "31", "33", "22", "20", "21", "17"], "time": [2943, 6335, 9831, 13647, 17240, 20759, 25174]}, "edge": {"target": [], "time": []}}, "mouseover": {"state": {"target": ["32", "31", "30", "33", "30", "22", "19", "20", "21", "20", "17"], "time": [2669, 3754, 8673, 8741, 10157, 13258, 16910, 16946, 18180, 24232, 24631]}, "edge": {"target": [], "time": []}}, "mouseout": {"state": {"target": ["0", "32", "31", "31", "30", "33", "30", "22", "19", "20", "21", "20", "17"], "time": [850, 3153, 6622, 8657, 8716, 10108, 10191, 13926, 16928, 17563, 21114, 24266, 25467]}, "edge": {"target": [], "time": []}}}, "displayed_time": "36.59", "trialTime": 37775, "trial_type": "mouselab-mdp", "trial_index": 29, "time_elapsed": 1100931, "internal_node_id": "0.0-6.0-1.0-20.0"}}, {"uniqueid": "w50170238:a53933667", "current_trial": 30, "dateTime": 1693392632777, "trialdata": {"revealed_states": [], "clicked_states": ["5"], "num_clicks_accrued": [0, 0, 0, 0, 0, 0, 0, 0, 0, 0, 0, 0, 0], "stateRewards": ["", -2, 4, -5, -12, 85, -24, -18, -15, -78, -22, 26, -1, -1, 2, 14, -45, 52, -23, 7, -33, 24, -6, -2, -4, 5, -7, -16, 36, -39, 5, 71, -87, -23], "withholdReward": false, "trial_id": "mdp_trial_22", "block": "test", "trialIndex": 23, "score": 67.85, "costs": -2.15, "simulationMode": [null, null, null, null, null], "rewards": [-2, 4, -5, -12, 85], "path": ["0", "0", "1", "2", "3", "4", "5"], "rt": [7672, 60, 87, 807, 354], "actions": ["up", "up", "up", "right", "up"], "actionTimes": [9908, 10476, 11068, 12372, 13220], "queries": {"click": {"state": {"target": ["5"], "time": [3508]}, "edge": {"target": [], "time": []}}, "mouseover": {"state": {"target": ["18", "6", "5", "6", "18", "6", "17"], "time": [2805, 3073, 3305, 3741, 6159, 6391, 7007]}, "edge": {"target": [], "time": []}}, "mouseout": {"state": {"target": ["14", "13", "12", "0", "18", "6", "5", "6", "18", "6", "17"], "time": [1120, 1253, 1319, 2256, 2824, 3105, 3707, 3757, 6209, 6925, 7025]}, "edge": {"target": [], "time": []}}}, "displayed_time": "16.24", "trialTime": 18861, "trial_type": "mouselab-mdp", "trial_index": 30, "time_elapsed": 1120404, "internal_node_id": "0.0-6.0-1.0-21.0"}}, {"uniqueid": "w50170238:a53933667", "current_trial": 31, "dateTime": 1693392656415, "trialdata": {"revealed_states": [], "clicked_states": ["9", "11", "10"], "num_clicks_accrued": [0, 0, 0, 0, 0, 0, 0, 0, 0, 0, 0, 0, 0], "stateRewards": ["", 1, 3, 1, -13, 52, -28, 67, -14, 3, 63, -70, -1, -4, 7, -11, -10, 47, -18, 6, 69, -9, -61, 2, 3, -6, 10, 63, -34, 40, -6, -79, -35, -32], "withholdReward": false, "trial_id": "mdp_trial_23", "block": "test", "trialIndex": 24, "score": 47.55, "costs": -6.449999999999999, "simulationMode": [null, null, null, null, null], "rewards": [1, 3, 1, -14, 63], "path": ["0", "0", "1", "2", "3", "8", "10"], "rt": [16345, 23, 96, 693, 336], "actions": ["up", "up", "up", "left", "down"], "actionTimes": [17872, 18400, 19008, 20208, 21048], "queries": {"click": {"state": {"target": ["9", "11", "10"], "time": [2705, 6561, 10066]}, "edge": {"target": [], "time": []}}, "mouseover": {"state": {"target": ["12", "22", "22", "13", "1", "2", "8", "9", "8", "11", "10", "1", "7", "4", "5", "6"], "time": [1549, 1729, 1829, 1879, 1946, 1980, 2112, 2428, 3098, 3380, 8151, 10586, 10803, 10869, 11119, 13804]}, "edge": {"target": [], "time": []}}, "mouseout": {"state": {"target": ["21", "0", "12", "22", "22", "13", "1", "2", "8", "9", "8", "11", "10", "1", "7", "4", "5", "6"], "time": [226, 1546, 1583, 1812, 1862, 1896, 1963, 1996, 2295, 3048, 3332, 6884, 10403, 10736, 10836, 10920, 13787, 13821]}, "edge": {"target": [], "time": []}}}, "displayed_time": "21.55", "trialTime": 22912, "trial_type": "mouselab-mdp", "trial_index": 31, "time_elapsed": 1144043, "internal_node_id": "0.0-6.0-1.0-22.0"}}, {"uniqueid": "w50170238:a53933667", "current_trial": 32, "dateTime": 1693392675368, "trialdata": {"revealed_states": [], "clicked_states": ["29", "27"], "num_clicks_accrued": [0, 0, 0, 0, 0, 0, 0, 0, 0, 0, 0, 0, 0], "stateRewards": ["", -2, 2, 3, -7, -31, -33, 29, -8, -57, 50, -83, -1, -1, 5, 13, -23, -62, 25, 5, -66, -85, 14, 1, -2, -1, 16, 71, 33, -19, -14, 5, -43, 79], "withholdReward": false, "trial_id": "mdp_trial_24", "block": "test", "trialIndex": 25, "score": 80.7, "costs": -4.3, "simulationMode": [null, null, null, null, null], "rewards": [1, -2, -1, 16, 71], "path": ["0", "0", "23", "24", "25", "26", "27"], "rt": [10977, 246, 216, 210, 197], "actions": ["left", "left", "left", "up", "up"], "actionTimes": [13260, 14004, 14724, 15436, 16140], "queries": {"click": {"state": {"target": ["29", "27"], "time": [3301, 6796]}, "edge": {"target": [], "time": []}}, "mouseover": {"state": {"target": ["23", "24", "25", "29", "26", "13", "19", "22", "24", "26", "27", "10", "8", "9", "3", "22"], "time": [2663, 2697, 2796, 2980, 3515, 3633, 4021, 4100, 5345, 5400, 5699, 7436, 7501, 7719, 10220, 10351]}, "edge": {"target": [], "time": []}}, "mouseout": {"state": {"target": ["17", "15", "18", "23", "24", "25", "29", "26", "13", "19", "22", "24", "26", "27", "10", "8", "9", "3", "22"], "time": [611, 694, 761, 2680, 2746, 2896, 3481, 3549, 3648, 4039, 4149, 5378, 5500, 7034, 7468, 7618, 10201, 10236, 10401]}, "edge": {"target": [], "time": []}}}, "displayed_time": "16.64", "trialTime": 18300, "trial_type": "mouselab-mdp", "trial_index": 32, "time_elapsed": 1162995, "internal_node_id": "0.0-6.0-1.0-23.0"}}, {"uniqueid": "w50170238:a53933667", "current_trial": 33, "dateTime": 1693392698608, "trialdata": {"revealed_states": [], "clicked_states": ["9", "11", "10"], "num_clicks_accrued": [0, 0, 0, 0, 0, 0, 0, 0, 0, 0, 0, 0, 0], "stateRewards": ["", 1, -2, -8, -13, 4, 34, -84, -4, -49, 88, -70, -1, 3, -4, 10, -77, 13, -34, 15, -21, -16, 27, 1, -2, 8, -8, -6, 38, -26, 6, -15, 66, -3], "withholdReward": false, "trial_id": "mdp_trial_25", "block": "test", "trialIndex": 26, "score": 68.55, "costs": -6.449999999999999, "simulationMode": [null, null, null, null, null], "rewards": [1, -2, -8, -4, 88], "path": ["0", "0", "1", "2", "3", "8", "10"], "rt": [15034, 132, 106, 841, 395], "actions": ["up", "up", "up", "left", "down"], "actionTimes": [16985, 17625, 18233, 19569, 20473], "queries": {"click": {"state": {"target": ["9", "11", "10"], "time": [3785, 7241, 10586]}, "edge": {"target": [], "time": []}}, "mouseover": {"state": {"target": ["0", "31", "30", "33", "25", "28", "10", "9", "8", "2", "12", "0", "27", "11", "10", "23", "24", "26", "27", "1", "22"], "time": [2446, 2546, 2596, 2713, 3063, 3163, 3197, 3530, 3982, 4033, 4149, 4415, 4516, 4854, 8969, 11136, 11470, 11555, 11837, 13987, 14153]}, "edge": {"target": [], "time": []}}, "mouseout": {"state": {"target": ["0", "0", "31", "30", "33", "25", "28", "10", "9", "8", "2", "12", "0", "27", "11", "10", "23", "24", "26", "27", "1"], "time": [1969, 2464, 2563, 2696, 2996, 3114, 3181, 3214, 3965, 3999, 4050, 4249, 4433, 4534, 7600, 10870, 11153, 11503, 11670, 13937, 14008]}, "edge": {"target": [], "time": []}}}, "displayed_time": "20.98", "trialTime": 22561, "trial_type": "mouselab-mdp", "trial_index": 33, "time_elapsed": 1186235, "internal_node_id": "0.0-6.0-1.0-24.0"}}, {"uniqueid": "w50170238:a53933667", "current_trial": 34, "dateTime": 1693392726664, "trialdata": {"revealed_states": [], "clicked_states": ["17", "16", "18", "6"], "num_clicks_accrued": [0, 0, 0, 0, 0, 0, 0, 0, 0, 0, 0, 0, 0], "stateRewards": ["", -2, -1, -6, -14, -55, 78, -13, 11, 14, -71, 59, 2, 2, 6, -6, 9, 38, 14, 7, 85, 11, 68, 1, -4, -1, -3, -63, -85, 9, -2, 63, -86, -10], "withholdReward": false, "trial_id": "mdp_trial_26", "block": "test", "trialIndex": 27, "score": 46.4, "costs": -8.6, "simulationMode": [null, null, null, null, null], "rewards": [-2, -1, -6, -14, 78], "path": ["0", "0", "1", "2", "3", "4", "6"], "rt": [20234, 460, 47, 704, 71], "actions": ["up", "up", "up", "right", "right"], "actionTimes": [22085, 23052, 23604, 24828, 25396], "queries": {"click": {"state": {"target": ["17", "16", "18", "6"], "time": [3468, 7141, 11845, 15629]}, "edge": {"target": [], "time": []}}, "mouseover": {"state": {"target": ["12", "13", "14", "14", "17", "15", "16", "20", "14", "18", "14", "20", "14", "6"], "time": [2122, 2279, 2473, 2957, 3123, 4409, 4543, 11246, 11479, 11612, 12198, 15047, 15081, 15398]}, "edge": {"target": [], "time": []}}, "mouseout": {"state": {"target": ["22", "0", "12", "13", "14", "14", "17", "15", "16", "16", "17", "20", "14", "18", "14", "20", "14", "18", "6", "6"], "time": [805, 1871, 2207, 2439, 2573, 3023, 3692, 4459, 7240, 7445, 7545, 11446, 11514, 12131, 12215, 15065, 15098, 15164, 15712, 15866]}, "edge": {"target": [], "time": []}}}, "displayed_time": "25.91", "trialTime": 27396, "trial_type": "mouselab-mdp", "trial_index": 34, "time_elapsed": 1214291, "internal_node_id": "0.0-6.0-1.0-25.0"}}, {"uniqueid": "w50170238:a53933667", "current_trial": 35, "dateTime": 1693392745641, "trialdata": {"revealed_states": [], "clicked_states": ["6", "5"], "num_clicks_accrued": [0, 0, 0, 0, 0, 0, 0, 0, 0, 0, 0, 0, 0], "stateRewards": ["", 1, 2, 7, 13, 88, -71, 27, 3, 60, 5, -53, -2, 2, -6, -1, -30, 79, 47, -4, -14, 46, 68, 1, 1, 8, 10, -14, 86, 48, -11, -67, -44, 5], "withholdReward": false, "trial_id": "mdp_trial_27", "block": "test", "trialIndex": 28, "score": 106.7, "costs": -4.3, "simulationMode": [null, null, null, null, null], "rewards": [1, 2, 7, 13, 88], "path": ["0", "0", "1", "2", "3", "4", "5"], "rt": [11039, 36, 14, 697, 360], "actions": ["up", "up", "up", "right", "up"], "actionTimes": [12414, 12958, 13487, 14686, 15550], "queries": {"click": {"state": {"target": ["6", "5"], "time": [2454, 6071]}, "edge": {"target": [], "time": []}}, "mouseover": {"state": {"target": ["12", "6", "16", "17", "17", "16", "5", "5", "3", "8", "9", "3", "16"], "time": [1794, 2210, 2717, 2813, 3147, 3486, 3629, 4013, 6465, 6682, 7132, 9483, 9516]}, "edge": {"target": [], "time": []}}, "mouseout": {"state": {"target": ["14", "13", "12", "12", "6", "16", "17", "17", "16", "5", "5", "3", "8", "9", "3", "16"], "time": [576, 608, 659, 1828, 2697, 2751, 2832, 3448, 3511, 3659, 6348, 6632, 6965, 9465, 9499, 9533]}, "edge": {"target": [], "time": []}}}, "displayed_time": "16.06", "trialTime": 18328, "trial_type": "mouselab-mdp", "trial_index": 35, "time_elapsed": 1233269, "internal_node_id": "0.0-6.0-1.0-26.0"}}, {"uniqueid": "w50170238:a53933667", "current_trial": 36, "dateTime": 1693392777303, "trialdata": {"revealed_states": [], "clicked_states": ["5", "11", "29", "33", "17"], "num_clicks_accrued": [0, 0, 0, 0, 0, 0, 0, 0, 0, 0, 0, 0, 0], "stateRewards": ["", 2, -3, -2, 14, -4, 85, 46, 15, -28, 41, 31, -1, -1, -1, 5, 62, 79, 57, 12, -73, -64, 86, -1, 1, -3, -5, 68, 11, -32, 8, -80, -21, -56], "withholdReward": false, "trial_id": "mdp_trial_28", "block": "test", "trialIndex": 29, "score": 70.25, "costs": -10.75, "simulationMode": [null, null, null, null, null], "rewards": [-1, -1, -1, 5, 79], "path": ["0", "0", "12", "13", "14", "15", "17"], "rt": [24301, 41, 34, 580, 280], "actions": ["right", "right", "right", "up", "right"], "actionTimes": [25984, 26536, 27095, 28192, 28976], "queries": {"click": {"state": {"target": ["5", "11", "29", "33", "17"], "time": [2697, 7096, 11241, 14936, 19272]}, "edge": {"target": [], "time": []}}, "mouseover": {"state": {"target": ["7", "4", "5", "4", "18", "13", "19", "20", "21", "0", "10", "11", "12", "31", "30", "33", "29", "25", "32", "33", "22", "14", "17"], "time": [2192, 2228, 2358, 2927, 2977, 2999, 3035, 3060, 5978, 6144, 6427, 6677, 7429, 10530, 10551, 10597, 10996, 11482, 14549, 14633, 18569, 18818, 19051]}, "edge": {"target": [], "time": []}}, "mouseout": {"state": {"target": ["14", "7", "4", "5", "4", "18", "13", "19", "20", "21", "0", "10", "11", "11", "12", "31", "30", "33", "29", "25", "32", "33", "22", "14", "17"], "time": [640, 2210, 2291, 2910, 2944, 2995, 3017, 3053, 3076, 5996, 6194, 6577, 7189, 7330, 7463, 10547, 10580, 10663, 11449, 11533, 14582, 15151, 18618, 18884, 19553]}, "edge": {"target": [], "time": []}}}, "displayed_time": "29.48", "trialTime": 30992, "trial_type": "mouselab-mdp", "trial_index": 36, "time_elapsed": 1264931, "internal_node_id": "0.0-6.0-1.0-27.0"}}, {"uniqueid": "w50170238:a53933667", "current_trial": 37, "dateTime": 1693392802447, "trialdata": {"revealed_states": [], "clicked_states": ["17", "20", "21", "22"], "num_clicks_accrued": [0, 0, 0, 0, 0, 0, 0, 0, 0, 0, 0, 0, 0], "stateRewards": ["", -1, 2, -2, 5, 80, -61, -27, 12, 44, -26, -75, -2, -4, 1, -16, 42, -49, -50, 4, -44, 2, 80, -2, -2, 5, -2, 59, 10, 24, 7, -48, -86, -44], "withholdReward": false, "trial_id": "mdp_trial_29", "block": "test", "trialIndex": 30, "score": 70.4, "costs": -8.6, "simulationMode": [null, null, null, null, null], "rewards": [-2, -4, 1, 4, 80], "path": ["0", "0", "12", "13", "14", "19", "22"], "rt": [17860, 127, 175, 259, 419], "actions": ["right", "right", "right", "down", "left"], "actionTimes": [19811, 20435, 21115, 21883, 22811], "queries": {"click": {"state": {"target": ["17", "20", "21", "22"], "time": [2627, 6003, 9803, 13403]}, "edge": {"target": [], "time": []}}, "mouseover": {"state": {"target": ["15", "17", "20", "21", "22", "19", "20", "4", "5"], "time": [2125, 2423, 3727, 9612, 13181, 13681, 13833, 14066, 14166]}, "edge": {"target": [], "time": []}}, "mouseout": {"state": {"target": ["14", "13", "12", "0", "23", "15", "17", "17", "20", "21", "22", "19", "20", "4", "5"], "time": [871, 939, 956, 1005, 1238, 2223, 2723, 2860, 6262, 9982, 13649, 13750, 13899, 14083, 16750]}, "edge": {"target": [], "time": []}}}, "displayed_time": "23.31", "trialTime": 24499, "trial_type": "mouselab-mdp", "trial_index": 37, "time_elapsed": 1290075, "internal_node_id": "0.0-6.0-1.0-28.0"}}, {"uniqueid": "w50170238:a53933667", "current_trial": 38, "dateTime": 1693392848415, "trialdata": {"revealed_states": [], "clicked_states": ["5", "6", "7", "9", "11", "10", "18", "16", "17", "20"], "num_clicks_accrued": [0, 0, 0, 0, 0, 0, 0, 0, 0, 0, 0, 0, 0], "stateRewards": ["", 1, 2, -8, 9, 18, -83, -11, 6, -64, -48, 17, -2, -2, -5, -3, -24, -3, -86, -2, 48, -41, -22, -2, 4, 7, 8, 81, 13, -48, 10, 61, 19, 57], "withholdReward": false, "trial_id": "mdp_trial_30", "block": "test", "trialIndex": 31, "score": 15.5, "costs": -21.499999999999996, "simulationMode": [null, null, null, null, null], "rewards": [-2, -2, -5, -2, 48], "path": ["0", "0", "12", "13", "14", "19", "20"], "rt": [37932, 24, 164, 1049, 393], "actions": ["right", "right", "right", "down", "right"], "actionTimes": [39761, 40281, 40953, 42505, 43401], "queries": {"click": {"state": {"target": ["5", "6", "7", "9", "11", "10", "18", "16", "17", "20"], "time": [2865, 6378, 9865, 13537, 17289, 20683, 24048, 27497, 30769, 34250]}, "edge": {"target": [], "time": []}}, "mouseover": {"state": {"target": ["12", "7", "4", "5", "6", "6", "7", "18", "3", "8", "9", "2", "1", "23", "10", "11", "10", "24", "26", "28", "10", "0", "12", "12", "18", "16", "17", "20", "21", "17", "20", "20", "19", "21"], "time": [1851, 2261, 2328, 2477, 3347, 4381, 7365, 10401, 13134, 13169, 13268, 13903, 13938, 14354, 16720, 17021, 17572, 18139, 18390, 18572, 19904, 21608, 21659, 22208, 22292, 24809, 27861, 28250, 28496, 29045, 31298, 31381, 34551, 34749]}, "edge": {"target": [], "time": []}}, "mouseout": {"state": {"target": ["14", "12", "0", "12", "7", "4", "5", "6", "6", "7", "18", "7", "3", "8", "9", "9", "2", "1", "23", "10", "11", "10", "24", "26", "28", "10", "0", "12", "12", "18", "18", "18", "16", "17", "20", "21", "17", "20", "20", "19", "21"], "time": [692, 993, 1847, 2195, 2311, 2394, 3129, 3364, 6632, 10101, 13052, 13100, 13152, 13185, 13630, 13820, 13920, 13993, 16620, 16987, 17522, 17590, 18172, 18540, 19607, 20957, 21625, 21925, 22242, 24179, 24493, 24677, 27780, 28087, 28297, 28679, 31065, 31330, 34533, 34683, 37900]}, "edge": {"target": [], "time": []}}}, "displayed_time": "43.91", "trialTime": 45305, "trial_type": "mouselab-mdp", "trial_index": 38, "time_elapsed": 1336043, "internal_node_id": "0.0-6.0-1.0-29.0"}}, {"uniqueid": "w50170238:a53933667", "current_trial": 39, "dateTime": 1693392867792, "trialdata": {"revealed_states": [], "clicked_states": ["32", "31"], "num_clicks_accrued": [0, 0, 0, 0, 0, 0, 0, 0, 0, 0, 0, 0, 0], "stateRewards": ["", -1, -3, -5, -14, -13, -47, 79, 8, -60, -64, 41, -1, 2, 3, 13, -46, 61, -79, -11, -64, -65, 23, 1, -2, 6, -14, 46, 32, 21, 7, 75, -66, 15], "withholdReward": false, "trial_id": "mdp_trial_31", "block": "test", "trialIndex": 32, "score": 82.7, "costs": -4.3, "simulationMode": [null, null, null, null, null], "rewards": [1, -2, 6, 7, 75], "path": ["0", "0", "23", "24", "25", "30", "31"], "rt": [11783, 11, 143, 245, 390], "actions": ["left", "left", "left", "down", "right"], "actionTimes": [13579, 14099, 14747, 15499, 16395], "queries": {"click": {"state": {"target": ["32", "31"], "time": [3171, 6587]}, "edge": {"target": [], "time": []}}, "mouseover": {"state": {"target": ["0", "31", "32", "31"], "time": [1815, 2191, 2894, 4211]}, "edge": {"target": [], "time": []}}, "mouseout": {"state": {"target": ["19", "22", "0", "31", "32", "31"], "time": [623, 690, 1975, 2209, 3494, 6914]}, "edge": {"target": [], "time": []}}}, "displayed_time": "16.89", "trialTime": 18683, "trial_type": "mouselab-mdp", "trial_index": 39, "time_elapsed": 1355419, "internal_node_id": "0.0-6.0-1.0-30.0"}}, {"uniqueid": "w50170238:a53933667", "current_trial": 40, "dateTime": 1693392914248, "trialdata": {"revealed_states": [], "clicked_states": ["27", "29", "33", "9", "11", "6", "17", "20", "21"], "num_clicks_accrued": [0, 0, 0, 0, 0, 0, 0, 0, 0, 0, 0, 0, 0], "stateRewards": ["", -1, 3, 2, 9, 41, 4, -46, -12, -54, -87, -25, 2, 3, -1, 11, -77, 12, -33, -9, -32, 35, 72, 1, 3, -7, 4, 37, 65, -73, 6, 77, -43, 8], "withholdReward": false, "trial_id": "mdp_trial_32", "block": "test", "trialIndex": 33, "score": 10.650000000000002, "costs": -19.349999999999998, "simulationMode": [null, null, null, null, null], "rewards": [2, 3, -1, -9, 35], "path": ["0", "0", "12", "13", "14", "19", "21"], "rt": [38194, 722, 210, 678, 557], "actions": ["right", "right", "right", "down", "down"], "actionTimes": [39722, 40954, 41658, 42842, 43906], "queries": {"click": {"state": {"target": ["27", "29", "33", "9", "11", "6", "17", "20", "21"], "time": [2818, 6427, 10220, 14275, 18153, 21954, 25794, 30705, 34594]}, "edge": {"target": [], "time": []}}, "mouseover": {"state": {"target": ["23", "28", "26", "27", "24", "25", "29", "33", "23", "10", "8", "9", "2", "1", "0", "23", "11", "10", "2", "12", "13", "18", "6", "16", "17", "17", "20", "21", "21"], "time": [1986, 2036, 2118, 2518, 3121, 3422, 3721, 9773, 13709, 13793, 13827, 14043, 14567, 14610, 14693, 17511, 17928, 18457, 18495, 18606, 21465, 21487, 21698, 22250, 22316, 25550, 30301, 34139, 34389]}, "edge": {"target": [], "time": []}}, "mouseout": {"state": {"target": ["0", "23", "28", "26", "27", "24", "25", "29", "33", "23", "10", "8", "9", "2", "1", "0", "23", "11", "10", "2", "12", "13", "18", "6", "16", "17", "17", "20", "21", "21"], "time": [1553, 2019, 2069, 2202, 3038, 3188, 3539, 6707, 10442, 13727, 13810, 13909, 14478, 14604, 14649, 14715, 17529, 18422, 18490, 18511, 18625, 21483, 21514, 22216, 22283, 22335, 26052, 30938, 34189, 34807]}, "edge": {"target": [], "time": []}}}, "displayed_time": "44.40", "trialTime": 45754, "trial_type": "mouselab-mdp", "trial_index": 40, "time_elapsed": 1401875, "internal_node_id": "0.0-6.0-1.0-31.0"}}, {"uniqueid": "w50170238:a53933667", "current_trial": 41, "dateTime": 1693392931744, "trialdata": {"revealed_states": [], "clicked_states": ["6"], "num_clicks_accrued": [0, 0, 0, 0, 0, 0, 0, 0, 0, 0, 0, 0, 0], "stateRewards": ["", 1, 1, -5, 10, -31, 73, 14, -8, -23, 63, -70, -1, 2, 8, 7, 25, -59, 27, -10, -40, -71, -15, -2, 3, -8, -5, -19, 77, -34, 7, 67, 63, 19], "withholdReward": false, "trial_id": "mdp_trial_33", "block": "test", "trialIndex": 34, "score": 77.85, "costs": -2.15, "simulationMode": [null, null, null, null, null], "rewards": [1, 1, -5, 10, 73], "path": ["0", "0", "1", "2", "3", "4", "6"], "rt": [7407, 91, 51, 371, 191], "actions": ["up", "up", "up", "right", "right"], "actionTimes": [9098, 9690, 10250, 11154, 11842], "queries": {"click": {"state": {"target": ["6"], "time": [2770]}, "edge": {"target": [], "time": []}}, "mouseover": {"state": {"target": ["12", "6"], "time": [1775, 2423]}, "edge": {"target": [], "time": []}}, "mouseout": {"state": {"target": ["19", "22", "0", "12", "6"], "time": [621, 704, 938, 2257, 3010]}, "edge": {"target": [], "time": []}}}, "displayed_time": "15.69", "trialTime": 16842, "trial_type": "mouselab-mdp", "trial_index": 41, "time_elapsed": 1419371, "internal_node_id": "0.0-6.0-1.0-32.0"}}, {"uniqueid": "w50170238:a53933667", "current_trial": 42, "dateTime": 1693392954488, "trialdata": {"revealed_states": [], "clicked_states": ["5", "9", "11"], "num_clicks_accrued": [0, 0, 0, 0, 0, 0, 0, 0, 0, 0, 0, 0, 0], "stateRewards": ["", 1, 1, 1, 15, -76, 52, -32, 14, -57, 37, 49, 1, -4, -3, 6, 83, -76, 25, 9, 36, -1, -17, -1, 4, 4, -2, -22, -21, 58, -15, -57, 49, -24], "withholdReward": false, "trial_id": "mdp_trial_34", "block": "test", "trialIndex": 35, "score": 59.55, "costs": -6.449999999999999, "simulationMode": [null, null, null, null, null], "rewards": [1, 1, 1, 14, 49], "path": ["0", "0", "1", "2", "3", "8", "11"], "rt": [14608, 68, 109, 546, 168], "actions": ["up", "up", "up", "left", "left"], "actionTimes": [16009, 16577, 17184, 18240, 18920], "queries": {"click": {"state": {"target": ["5", "9", "11"], "time": [2216, 5904, 9633]}, "edge": {"target": [], "time": []}}, "mouseover": {"state": {"target": ["12", "7", "4", "5", "6", "16", "4", "3", "9", "3", "7", "10", "11", "10", "1", "12"], "time": [1712, 1828, 1862, 1945, 2497, 2536, 4704, 4807, 5514, 6183, 6287, 9133, 9400, 9935, 10020, 10143]}, "edge": {"target": [], "time": []}}, "mouseout": {"state": {"target": ["0", "12", "7", "4", "5", "5", "6", "16", "4", "3", "9", "3", "7", "10", "11", "10", "1", "12"], "time": [1444, 1762, 1845, 1895, 2311, 2447, 2516, 2568, 4756, 5163, 6150, 6235, 6307, 9152, 9902, 9969, 10056, 10164]}, "edge": {"target": [], "time": []}}}, "displayed_time": "19.43", "trialTime": 22064, "trial_type": "mouselab-mdp", "trial_index": 42, "time_elapsed": 1442115, "internal_node_id": "0.0-6.0-1.0-33.0"}}, {"uniqueid": "w50170238:a53933667", "current_trial": 43, "dateTime": 1693392981431, "trialdata": {"revealed_states": [], "clicked_states": ["17", "16", "18", "29"], "num_clicks_accrued": [0, 0, 0, 0, 0, 0, 0, 0, 0, 0, 0, 0, 0], "stateRewards": ["", -2, -3, 8, -4, -30, 31, 69, 9, 66, 87, 64, -2, 2, 8, 5, 47, 16, -39, -8, -54, 51, -19, 1, -2, -2, -11, -25, -26, 43, -9, 19, -84, 86], "withholdReward": false, "trial_id": "mdp_trial_35", "block": "test", "trialIndex": 36, "score": 51.4, "costs": -8.6, "simulationMode": [null, null, null, null, null], "rewards": [-2, 2, 8, 5, 47], "path": ["0", "0", "12", "13", "14", "15", "16"], "rt": [19173, 214, 259, 532, 90], "actions": ["right", "right", "right", "up", "up"], "actionTimes": [21063, 21782, 22542, 23582, 24174], "queries": {"click": {"state": {"target": ["17", "16", "18", "29"], "time": [2943, 6958, 11246, 15470]}, "edge": {"target": [], "time": []}}, "mouseover": {"state": {"target": ["12", "13", "15", "17", "20", "15", "16", "15", "18", "14", "13", "12", "0", "23", "26", "29", "26", "12", "14"], "time": [1915, 2334, 2449, 2649, 3418, 6503, 6585, 7222, 11005, 11574, 14674, 14696, 14713, 14743, 14974, 15158, 15744, 15815, 15854]}, "edge": {"target": [], "time": []}}, "mouseout": {"state": {"target": ["12", "0", "12", "13", "15", "17", "20", "15", "16", "15", "18", "14", "13", "12", "0", "23", "26", "29", "26", "12", "14"], "time": [731, 1911, 2305, 2368, 2500, 3169, 6369, 6520, 7187, 7273, 11523, 11593, 14691, 14709, 14728, 14774, 15074, 15726, 15763, 15834, 15903]}, "edge": {"target": [], "time": []}}}, "displayed_time": "24.67", "trialTime": 26198, "trial_type": "mouselab-mdp", "trial_index": 43, "time_elapsed": 1469059, "internal_node_id": "0.0-6.0-1.0-34.0"}}, {"uniqueid": "w50170238:a53933667", "current_trial": 44, "dateTime": 1693392999040, "trialdata": {"revealed_states": [], "clicked_states": ["6"], "num_clicks_accrued": [0, 0, 0, 0, 0, 0, 0, 0, 0, 0, 0, 0, 0], "stateRewards": ["", 1, 3, 3, -10, 52, 68, 59, 12, 7, 49, 21, -2, -3, -4, -2, -2, 63, 63, -4, 44, 43, -76, -2, -3, -6, 13, 48, 36, 12, -5, -36, -33, -11], "withholdReward": false, "trial_id": "mdp_trial_36", "block": "test", "trialIndex": 37, "score": 62.85, "costs": -2.15, "simulationMode": [null, null, null, null, null], "rewards": [1, 3, 3, -10, 68], "path": ["0", "0", "1", "2", "3", "4", "6"], "rt": [7343, 72, 90, 738, 183], "actions": ["up", "up", "up", "right", "right"], "actionTimes": [8830, 9405, 9990, 11253, 11933], "queries": {"click": {"state": {"target": ["6"], "time": [2462]}, "edge": {"target": [], "time": []}}, "mouseover": {"state": {"target": ["12", "6", "16", "17", "20"], "time": [1872, 2240, 2709, 2778, 2884]}, "edge": {"target": [], "time": []}}, "mouseout": {"state": {"target": ["21", "0", "12", "6", "16", "17", "20"], "time": [287, 1511, 1908, 2658, 2744, 2798, 2934]}, "edge": {"target": [], "time": []}}}, "displayed_time": "15.49", "trialTime": 16829, "trial_type": "mouselab-mdp", "trial_index": 44, "time_elapsed": 1486667, "internal_node_id": "0.0-6.0-1.0-35.0"}}, {"uniqueid": "w50170238:a53933667", "current_trial": 45, "dateTime": 1693393017120, "trialdata": {"revealed_states": [], "clicked_states": ["31"], "num_clicks_accrued": [0, 0, 0, 0, 0, 0, 0, 0, 0, 0, 0, 0, 0], "stateRewards": ["", 2, -1, -3, 16, -3, -16, -62, -1, 13, -26, 43, -1, 4, 3, -9, -54, -37, -3, -12, -71, -68, -57, 1, -3, 2, -9, 2, -2, -9, -11, 84, -52, 55], "withholdReward": false, "trial_id": "mdp_trial_37", "block": "test", "trialIndex": 38, "score": 70.85, "costs": -2.15, "simulationMode": [null, null, null, null, null], "rewards": [1, -3, 2, -11, 84], "path": ["0", "0", "23", "24", "25", "30", "31"], "rt": [7496, 176, 148, 225, 404], "actions": ["left", "left", "left", "down", "right"], "actionTimes": [9040, 9719, 10375, 11103, 12015], "queries": {"click": {"state": {"target": ["31"], "time": [2704]}, "edge": {"target": [], "time": []}}, "mouseover": {"state": {"target": ["31", "32", "31"], "time": [2034, 2334, 2450]}, "edge": {"target": [], "time": []}}, "mouseout": {"state": {"target": ["21", "0", "31", "32", "31"], "time": [515, 1573, 2051, 2384, 2986]}, "edge": {"target": [], "time": []}}}, "displayed_time": "15.54", "trialTime": 17359, "trial_type": "mouselab-mdp", "trial_index": 45, "time_elapsed": 1504748, "internal_node_id": "0.0-6.0-1.0-36.0"}}, {"uniqueid": "w50170238:a53933667", "current_trial": 46, "dateTime": 1693393036208, "trialdata": {"revealed_states": [], "clicked_states": ["28", "29"], "num_clicks_accrued": [0, 0, 0, 0, 0, 0, 0, 0, 0, 0, 0, 0, 0], "stateRewards": ["", 1, -1, 1, 13, 31, -56, 72, 2, 41, 5, 63, -2, -3, -2, 3, -71, -26, 52, 13, -31, 24, -67, 2, -2, 5, 4, 66, 43, 72, 9, 86, -26, 44], "withholdReward": false, "trial_id": "mdp_trial_38", "block": "test", "trialIndex": 39, "score": 76.7, "costs": -4.3, "simulationMode": [null, null, null, null, null], "rewards": [2, -2, 5, 4, 72], "path": ["0", "0", "23", "24", "25", "26", "29"], "rt": [11400, 129, 231, 251, 348], "actions": ["left", "left", "left", "up", "left"], "actionTimes": [13517, 14164, 14900, 15660, 16508], "queries": {"click": {"state": {"target": ["28", "29"], "time": [3317, 7156]}, "edge": {"target": [], "time": []}}, "mouseover": {"state": {"target": ["0", "23", "28", "28", "0", "24", "26", "29", "33"], "time": [2548, 2598, 2663, 3047, 3584, 5425, 5533, 5637, 7641]}, "edge": {"target": [], "time": []}}, "mouseout": {"state": {"target": ["0", "0", "23", "28", "28", "0", "24", "26", "29", "33"], "time": [2140, 2581, 2615, 2698, 3531, 3607, 5478, 5600, 7403, 7721]}, "edge": {"target": [], "time": []}}}, "displayed_time": "17.01", "trialTime": 18332, "trial_type": "mouselab-mdp", "trial_index": 46, "time_elapsed": 1523835, "internal_node_id": "0.0-6.0-1.0-37.0"}}, {"uniqueid": "w50170238:a53933667", "current_trial": 47, "dateTime": 1693393055098, "trialdata": {"revealed_states": [], "clicked_states": ["32"], "num_clicks_accrued": [0, 0, 0, 0, 0, 0, 0, 0, 0, 0, 0, 0, 0], "stateRewards": ["", 1, -2, 7, -14, 88, -56, -44, -14, 64, -51, -57, -2, 3, -4, -9, -11, 19, -77, -1, 68, 75, -67, -1, 1, -2, 5, -37, 70, -34, -10, -72, 63, -41], "withholdReward": false, "trial_id": "mdp_trial_39", "block": "test", "trialIndex": 40, "score": 48.85, "costs": -2.15, "simulationMode": [null, null, null, null, null], "rewards": [-1, 1, -2, -10, 63], "path": ["0", "0", "23", "24", "25", "30", "32"], "rt": [8438, 87, 79, 175, 227], "actions": ["left", "left", "left", "down", "down"], "actionTimes": [10910, 11493, 12085, 12781, 13517], "queries": {"click": {"state": {"target": ["32"], "time": [3895]}, "edge": {"target": [], "time": []}}, "mouseover": {"state": {"target": ["32"], "time": [3680]}, "edge": {"target": [], "time": []}}, "mouseout": {"state": {"target": ["0", "32"], "time": [1777, 4131]}, "edge": {"target": [], "time": []}}}, "displayed_time": "16.47", "trialTime": 18175, "trial_type": "mouselab-mdp", "trial_index": 47, "time_elapsed": 1542725, "internal_node_id": "0.0-6.0-1.0-38.0"}}, {"uniqueid": "w50170238:a53933667", "current_trial": 48, "dateTime": 1693393076232, "trialdata": {"revealed_states": [], "clicked_states": ["22", "20"], "num_clicks_accrued": [0, 0, 0, 0, 0, 0, 0, 0, 0, 0, 0, 0, 0], "stateRewards": ["", -2, 3, -5, -7, 66, 43, -60, -4, -70, -75, 4, -1, 2, 2, -13, 54, 11, -40, -1, 77, 32, 15, -2, 3, -8, -9, -35, 83, -27, 6, -74, -34, 44], "withholdReward": false, "trial_id": "mdp_trial_40", "block": "test", "trialIndex": 41, "score": 74.7, "costs": -4.3, "simulationMode": [null, null, null, null, null], "rewards": [-1, 2, 2, -1, 77], "path": ["0", "0", "12", "13", "14", "19", "20"], "rt": [12206, 117, 92, 387, 375], "actions": ["right", "right", "right", "down", "right"], "actionTimes": [14685, 15309, 15901, 16813, 17685], "queries": {"click": {"state": {"target": ["22", "20"], "time": [4361, 7989]}, "edge": {"target": [], "time": []}}, "mouseover": {"state": {"target": ["19", "20", "20", "19", "22", "22", "21", "20"], "time": [3164, 3247, 3563, 3747, 3848, 4097, 4637, 5172]}, "edge": {"target": [], "time": []}}, "mouseout": {"state": {"target": ["0", "19", "20", "20", "19", "22", "22", "21", "20"], "time": [2501, 3214, 3397, 3713, 3830, 3881, 4599, 4660, 8302]}, "edge": {"target": [], "time": []}}}, "displayed_time": "18.19", "trialTime": 20365, "trial_type": "mouselab-mdp", "trial_index": 48, "time_elapsed": 1563859, "internal_node_id": "0.0-6.0-1.0-39.0"}}, {"uniqueid": "w50170238:a53933667", "current_trial": 49, "dateTime": 1693393163406, "trialdata": {"rt": 87168, "response": {"Q0": "$-2 to $2", "Q1": "$-16 to $16", "Q2": "$-88 to $88", "Q3": "It was less costly to inspect further nodes.", "Q4": "Very motivated"}, "question_order": [0, 1, 2, 3, 4], "trial_id": "final_quiz_control", "trial_type": "survey-multi-choice", "trial_index": 49, "time_elapsed": 1651034, "internal_node_id": "0.0-6.0-2.0"}}, {"uniqueid": "w50170238:a53933667", "current_trial": 50, "dateTime": 1693393556362, "trialdata": {"rt": 392877, "response": {"Q0": "At first I just clicked randomly because I didn't quite know how to approach the task. It seemed to me that every node reveal cost $2.15 so after a few rounds I decided to ignore the path nodes and concentrate on looking at the outer ones. If I came upon a reasonable sum of money after the first or second reveal I didn't bother to waste money on further reveals.", "Q1": "Once I figured out that it was best not to pay for too many reveals I don't think my strategy changed although sometimes I ended up having to click more than I would have liked just to find something that would cover the cost of the reveals!", "Q2": "I couldn't seem to find any pattern so that made it difficult to improve. Plus working against the clock is something I don't enjoy."}, "trial_id": "self_report_control", "trial_type": "survey-text", "trial_index": 50, "time_elapsed": 2043990, "internal_node_id": "0.0-6.0-3.0"}}, {"uniqueid": "w50170238:a53933667", "current_trial": 51, "dateTime": 1693393629887, "trialdata": {"rt": 73518, "response": {"Q0": "Strongly disagree", "Q1": "Neither disagree nor agree", "Q2": "Neither disagree nor agree", "Q3": "Agree", "Q4": "Neither disagree nor agree", "Q5": "Strongly disagree", "Q6": "Strongly agree"}, "question_order": [0, 1, 2, 3, 4, 5, 6], "trial_id": "self_report_2", "trial_type": "survey-multi-choice", "trial_index": 51, "time_elapsed": 2117515, "internal_node_id": "0.0-6.0-4.0"}}, {"uniqueid": "w50170238:a53933667", "current_trial": 52, "dateTime": 1693393650550, "trialdata": {"rt": 20645, "response": {"gender": "female", "age": "57", "colorblind": "0", "effort": "0"}, "trial_type": "survey-html-form", "trial_index": 52, "time_elapsed": 2138178, "internal_node_id": "0.0-6.0-5.0"}}, {"uniqueid": "w50170238:a53933667", "current_trial": 53, "dateTime": 1693393710926, "trialdata": {"rt": 60363, "response": {"Q0": "Not really once I got into the game.", "Q1": "No, I'm pretty sure I would have remembered this game if I had played it before.", "Q2": "Fun!"}, "trial_type": "survey-text", "trial_index": 53, "time_elapsed": 2198554, "internal_node_id": "0.0-6.0-6.0"}}, {"uniqueid": "w50170238:a53933667", "current_trial": 54, "dateTime": 1693393755502, "trialdata": {"rt": 44568, "stimulus": "<h1>Completion Code Instructions (1/2)</h1>\n<br><br><br><br>\nYou have reached the end of the experiment! The completion code consists of two parts: (1) a code with 2 characters (2) a code with 6 characters. On this page, you will receive the second part of the code. The first part of the completion code will be on the next page.\n<br><br>\nThe second part of your completion code is: <b>EWEK22</b>\n<br><br>\nPlease note this down. Then, press 'Finish HIT' in order to find the first part of your completion code. Once the data has been saved, you will receive this code either in this window or in the original browser window where you started the experiment.\n", "response": 0, "trial_type": "html-button-response", "trial_index": 54, "time_elapsed": 2243130, "internal_node_id": "0.0-6.0-7.0"}}, {"uniqueid": "w50170238:a53933667", "current_trial": 55, "dateTime": 1693393756516, "trialdata": {"success": true, "trial_type": "fullscreen", "trial_index": 55, "time_elapsed": 2244144, "internal_node_id": "0.0-7.0"}}], "questiondata": {"params": {"CODE": "C6DMOQA6", "MIN_TIME": 14, "inspectCost": 1, "startTime": "Wed Aug 30 2023 11:31:51 GMT+0100 (British Summer Time)", "bonusRate": 0.002, "variance": "1_2_4_8_44", "branching": "31123"}, "final_score": 2088.9}, "eventdata": [{"eventtype": "initialized", "value": null, "timestamp": 1693391511084, "interval": 0}, {"eventtype": "window_resize", "value": [1024, 767], "timestamp": 1693391511084, "interval": 0}, {"eventtype": "window_resize", "value": [1024, 767], "timestamp": 1693391511410, "interval": 326}, {"eventtype": "focus", "value": "off", "timestamp": 1693391517103, "interval": 5693}, {"eventtype": "focus", "value": "on", "timestamp": 1693391519468, "interval": 2365}, {"eventtype": "window_resize", "value": [1600, 900], "timestamp": 1693391522510, "interval": 3042}, {"eventtype": "window_resize", "value": [1024, 767], "timestamp": 1693393755953, "interval": 2233443}], "useragent": "Mozilla/5.0 (Windows NT 10.0; Win64; x64) AppleWebKit/537.36 (KHTML, like Gecko) Chrome/116.0.0.0 Safari/537.36", "mode": "live", "id": "w50170238:a53933667", "status": "user data saved", "Beginhit": "2023-08-30 10:31:49.571984", "Beginexp": "2023-08-30 10:32:03.111868", "Endhit": "2023-08-30 11:09:16.866767", "psiturkStatus": 3, "browser": "<redacted>", "platform": "windows", "language": "en-US", "excludeReason": "invalidClickStrats"}