{"condition": 1, "counterbalance": 0, "assignmentId": "a67592730", "workerId": "w55528401", "hitId": "h32518185", "currenttrial": 62, "bonus": 0, "data": [{"uniqueid": "w55528401:a67592730", "current_trial": 0, "dateTime": 1693660569151, "trialdata": {"success": true, "trial_type": "fullscreen", "trial_index": 0, "time_elapsed": 245022, "internal_node_id": "0.0-0.0"}}, {"uniqueid": "w55528401:a67592730", "current_trial": 1, "dateTime": 1693660583305, "trialdata": {"view_history": [{"page_index": 0, "viewing_time": 14141}], "rt": 14142, "trial_id": "exp_instructions_misaligned", "trial_type": "instructions", "trial_index": 1, "time_elapsed": 259178, "internal_node_id": "0.0-1.0"}}, {"uniqueid": "w55528401:a67592730", "current_trial": 2, "dateTime": 1693661137465, "trialdata": {"view_history": [{"page_index": 0, "viewing_time": 186269}, {"page_index": 1, "viewing_time": 103944}, {"page_index": 2, "viewing_time": 20887}, {"page_index": 3, "viewing_time": 243057}], "rt": 554159, "trial_id": "mouselab_instructions_1_misaligned", "trial_type": "instructions", "trial_index": 2, "time_elapsed": 813338, "internal_node_id": "0.0-2.0-1.0"}}, {"uniqueid": "w55528401:a67592730", "current_trial": 3, "dateTime": 1693661335037, "trialdata": {"revealed_states": [], "clicked_states": ["3", "8", "9", "11", "10", "23", "25", "24", "30", "32", "33", "31", "26", "29"], "num_clicks_accrued": [0, 0, 0, 0, 0, 0, 0, 0, 0, 0, 0, 0, 0], "stateRewards": ["", 10, 10, 10, 10, -10, -10, -10, 10, 10, 10, 10, 10, 10, 10, 10, 10, 10, 10, 10, 10, 10, -10, -10, 10, -10, 10, 10, 10, -10, 10, -10, 10, -10], "withholdReward": false, "trial_id": "practice_1", "block": "test", "trialIndex": 0, "score": 46.5, "costs": -7, "simulationMode": [null, null, null, null, null], "rewards": [10, 10, 10, 10, 10], "path": ["0", "0", "12", "13", "14", "19", "21"], "rt": [185853, 360, 180, 630, 169], "actions": ["right", "right", "right", "down", "down"], "actionTimes": [190037, 190916, 191619, 192752, 193440], "queries": {"click": {"state": {"target": ["3", "8", "9", "11", "10", "23", "25", "24", "30", "32", "33", "31", "26", "29"], "time": [5820, 8134, 9361, 14331, 15630, 23241, 24916, 26719, 35187, 36237, 38097, 39413, 41032, 42225]}, "edge": {"target": [], "time": []}}, "mouseover": {"state": {"target": ["23", "2", "3", "8", "11", "8", "9", "4", "2", "3", "3", "8", "8", "11", "8", "10", "0", "0", "2", "8", "3", "2", "1", "1", "0", "23", "24", "25", "24", "31", "25", "25", "23", "24", "25", "25", "30", "32", "33", "31", "25", "26", "27", "26", "27", "29", "27", "28", "1", "0", "0", "17", "15"], "time": [4433, 5134, 5313, 7013, 7185, 7784, 8463, 10410, 12465, 12481, 12830, 13165, 13408, 14181, 15091, 15458, 17741, 19324, 19989, 20258, 20659, 21059, 21488, 21993, 22625, 23027, 23721, 24670, 25385, 31904, 32183, 32439, 33770, 34266, 34699, 34965, 35085, 35499, 37931, 38913, 39795, 40178, 40746, 40879, 41395, 42120, 42878, 43177, 44186, 45209, 45560, 187961, 188204]}, "edge": {"target": [], "time": []}}, "mouseout": {"state": {"target": ["15", "18", "7", "29", "25", "24", "23", "2", "2", "1", "23", "23", "2", "3", "8", "11", "8", "9", "4", "2", "3", "3", "8", "8", "11", "8", "10", "0", "0", "2", "8", "3", "2", "1", "1", "0", "23", "24", "25", "24", "31", "25", "25", "23", "24", "25", "25", "30", "32", "30", "33", "30", "31", "25", "26", "27", "26", "27", "26", "29", "26", "27", "28", "1", "0", "0", "17", "15"], "time": [983, 1032, 1716, 1898, 1933, 1967, 2116, 2381, 3115, 3202, 3686, 4949, 5184, 6662, 7146, 7516, 8345, 9844, 10478, 12477, 12493, 12876, 13209, 14077, 14958, 15408, 16458, 17774, 19654, 20056, 20575, 21007, 21472, 21538, 22291, 22738, 23654, 24608, 25033, 27237, 32054, 32249, 33039, 34204, 34671, 34733, 35032, 35465, 37166, 37915, 38529, 38863, 39762, 39878, 40634, 40851, 41329, 41679, 42080, 42465, 42794, 43127, 43227, 44261, 45261, 45592, 188038, 188219]}, "edge": {"target": [], "time": []}}}, "displayed_time": "193.95", "trialTime": 196799, "trial_type": "mouselab-mdp", "trial_index": 3, "time_elapsed": 1010908, "internal_node_id": "0.0-2.0-2.0-0.0"}}, {"uniqueid": "w55528401:a67592730", "current_trial": 4, "dateTime": 1693661353829, "trialdata": {"revealed_states": [], "clicked_states": [], "num_clicks_accrued": [0, 0, 0, 0, 0, 0, 0, 0, 0, 0, 0, 0, 0], "stateRewards": ["", -10, -10, -10, 10, -10, 10, -10, 10, -10, 10, -10, -10, -10, -10, -10, 10, 10, 10, 10, -10, -10, -10, 10, 10, -10, -10, -10, -10, -10, 10, 10, -10, 10], "withholdReward": false, "trial_id": "practice_2", "block": "test", "trialIndex": 1, "score": -26.5, "costs": 0, "simulationMode": [null, null, null, null, null], "rewards": [-10, -10, -10, 10, -10], "path": ["0", "0", "1", "2", "3", "8", "9"], "rt": [3134, 7, 325, 83, 82], "actions": ["up", "up", "up", "left", "up"], "actionTimes": [10115, 10640, 11503, 12095, 12694], "queries": {"click": {"state": {"target": [], "time": []}, "edge": {"target": [], "time": []}}, "mouseover": {"state": {"target": ["12", "15"], "time": [7029, 7094]}, "edge": {"target": [], "time": []}}, "mouseout": {"state": {"target": ["15", "18", "1", "23", "31", "23", "0", "12", "15", "6", "7"], "time": [6028, 6046, 6079, 6128, 6298, 6486, 7002, 7045, 7128, 16162, 16358]}, "edge": {"target": [], "time": []}}}, "displayed_time": "13.21", "trialTime": 18608, "trial_type": "mouselab-mdp", "trial_index": 4, "time_elapsed": 1029700, "internal_node_id": "0.0-2.0-2.0-1.0"}}, {"uniqueid": "w55528401:a67592730", "current_trial": 5, "dateTime": 1693661385967, "trialdata": {"view_history": [{"page_index": 0, "viewing_time": 24932}, {"page_index": 1, "viewing_time": 7200}], "rt": 32133, "trial_id": "mouselab_instructions_2_misaligned", "trial_type": "instructions", "trial_index": 5, "time_elapsed": 1061840, "internal_node_id": "0.0-2.0-3.0"}}, {"uniqueid": "w55528401:a67592730", "current_trial": 6, "dateTime": 1693661418490, "trialdata": {"rt": 32516, "response": {"Q0": "The cost for clicking on nodes may vary between nodes.", "Q1": "The better I perform the higher my bonus will be.", "Q2": "No, the amount of cash at each node of the web may be different each time.", "Q3": "To get the highest total score.", "Q4": "Any time during the round.", "Q5": "3 seconds"}, "question_order": [0, 1, 2, 3, 4, 5], "correct": {"Q0": "The cost for clicking on nodes may vary between nodes.", "Q1": "The better I perform the higher my bonus will be.", "Q2": "No, the amount of cash at each node of the web may be different each time.", "Q3": "To get the highest total score.", "Q4": "Only before moving the spider.", "Q5": "3 seconds"}, "trial_id": "mouselab_quiz_misaligned", "trial_type": "survey-multi-choice", "trial_index": 6, "time_elapsed": 1094363, "internal_node_id": "0.0-2.0-4.0"}}, {"uniqueid": "w55528401:a67592730", "current_trial": 7, "dateTime": 1693661424682, "trialdata": {"success": true, "trial_type": "fullscreen", "trial_index": 7, "time_elapsed": 1100554, "internal_node_id": "0.0-2.1-0.1-0.1"}}, {"uniqueid": "w55528401:a67592730", "current_trial": 8, "dateTime": 1693661432206, "trialdata": {"view_history": [{"page_index": 0, "viewing_time": 3050}, {"page_index": 1, "viewing_time": 1976}, {"page_index": 2, "viewing_time": 1496}, {"page_index": 3, "viewing_time": 999}], "rt": 7522, "trial_id": "mouselab_instructions_1_misaligned", "trial_type": "instructions", "trial_index": 8, "time_elapsed": 1108079, "internal_node_id": "0.0-2.1-1.1"}}, {"uniqueid": "w55528401:a67592730", "current_trial": 9, "dateTime": 1693661482857, "trialdata": {"revealed_states": [], "clicked_states": ["25"], "num_clicks_accrued": [0, 0, 0, 0, 0, 0, 0, 0, 0, 0, 0, 0, 0], "stateRewards": ["", 10, 10, 10, 10, -10, -10, -10, 10, 10, 10, 10, 10, 10, 10, 10, 10, 10, 10, 10, 10, 10, -10, -10, 10, -10, 10, 10, 10, -10, 10, -10, 10, -10], "withholdReward": false, "trial_id": "practice_1", "block": "test", "trialIndex": 2, "score": 13, "costs": -0.5, "simulationMode": [null, null, null, null, null], "rewards": [-10, 10, -10, 10, 10], "path": ["0", "0", "23", "24", "25", "30", "32"], "rt": [7218, 2580, 377, 528, 286], "actions": ["left", "left", "left", "down", "down"], "actionTimes": [10168, 13259, 14155, 15209, 16013], "queries": {"click": {"state": {"target": ["25"], "time": [6815]}, "edge": {"target": [], "time": []}}, "mouseover": {"state": {"target": ["1", "2", "3", "2", "3", "2", "1", "23", "24", "25", "24", "23", "0", "12", "31"], "time": [3731, 3846, 3916, 4248, 4981, 5829, 5878, 5996, 6179, 6399, 8868, 8895, 9428, 9576, 9628]}, "edge": {"target": [], "time": []}}, "mouseout": {"state": {"target": ["12", "0", "1", "2", "3", "2", "3", "2", "1", "23", "24", "25", "24", "23", "0", "12", "31", "32", "12", "6", "15", "14", "19", "21", "21", "15", "15", "12"], "time": [1284, 2634, 3813, 3899, 4197, 4434, 5799, 5846, 5895, 6013, 6284, 8864, 8880, 9382, 9477, 9593, 9660, 45342, 45375, 45625, 45776, 45808, 45825, 45858, 45956, 46940, 47856, 48024]}, "edge": {"target": [], "time": []}}}, "displayed_time": "16.53", "trialTime": 50439, "trial_type": "mouselab-mdp", "trial_index": 9, "time_elapsed": 1158729, "internal_node_id": "0.0-2.1-2.1-0.1"}}, {"uniqueid": "w55528401:a67592730", "current_trial": 10, "dateTime": 1693661497806, "trialdata": {"revealed_states": [], "clicked_states": ["17"], "num_clicks_accrued": [0, 0, 0, 0, 0, 0, 0, 0, 0, 0, 0, 0, 0], "stateRewards": ["", -10, -10, -10, 10, -10, 10, -10, 10, -10, 10, -10, -10, -10, -10, -10, 10, 10, 10, 10, -10, -10, -10, 10, 10, -10, -10, -10, -10, -10, 10, 10, -10, 10], "withholdReward": false, "trial_id": "practice_2", "block": "test", "trialIndex": 3, "score": -27, "costs": -0.5, "simulationMode": [null, null, null, null, null], "rewards": [-10, -10, -10, 10, -10], "path": ["0", "0", "12", "13", "14", "19", "21"], "rt": [4437, 317, 146, 498, 688], "actions": ["right", "right", "right", "down", "down"], "actionTimes": [6584, 7426, 8088, 9105, 10309], "queries": {"click": {"state": {"target": ["17"], "time": [3391]}, "edge": {"target": [], "time": []}}, "mouseover": {"state": {"target": ["18", "17", "22"], "time": [2672, 2956, 4023]}, "edge": {"target": [], "time": []}}, "mouseout": {"state": {"target": ["0", "0", "18", "17", "22"], "time": [107, 2639, 2688, 3922, 4073]}, "edge": {"target": [], "time": []}}}, "displayed_time": "10.82", "trialTime": 14739, "trial_type": "mouselab-mdp", "trial_index": 10, "time_elapsed": 1173678, "internal_node_id": "0.0-2.1-2.1-1.1"}}, {"uniqueid": "w55528401:a67592730", "current_trial": 11, "dateTime": 1693661512742, "trialdata": {"view_history": [{"page_index": 0, "viewing_time": 13698}, {"page_index": 1, "viewing_time": 1231}], "rt": 14930, "trial_id": "mouselab_instructions_2_misaligned", "trial_type": "instructions", "trial_index": 11, "time_elapsed": 1188615, "internal_node_id": "0.0-2.1-3.1"}}, {"uniqueid": "w55528401:a67592730", "current_trial": 12, "dateTime": 1693661589290, "trialdata": {"rt": 76541, "response": {"Q0": "The cost for clicking on nodes may vary between nodes.", "Q1": "The better I perform the higher my bonus will be.", "Q2": "No, the amount of cash at each node of the web may be different each time.", "Q3": "To get the highest total score.", "Q4": "Only before moving the spider.", "Q5": "3 seconds"}, "question_order": [0, 1, 2, 3, 4, 5], "correct": {"Q0": "The cost for clicking on nodes may vary between nodes.", "Q1": "The better I perform the higher my bonus will be.", "Q2": "No, the amount of cash at each node of the web may be different each time.", "Q3": "To get the highest total score.", "Q4": "Only before moving the spider.", "Q5": "3 seconds"}, "trial_id": "mouselab_quiz_misaligned", "trial_type": "survey-multi-choice", "trial_index": 12, "time_elapsed": 1265162, "internal_node_id": "0.0-2.1-4.1"}}, {"uniqueid": "w55528401:a67592730", "current_trial": 13, "dateTime": 1693661595159, "trialdata": {"rt": 5857, "response": {"Q0": "No"}, "question_order": [0], "trial_id": "repeat_check", "trial_type": "survey-multi-choice", "trial_index": 13, "time_elapsed": 1271031, "internal_node_id": "0.0-4.0-0.0"}}, {"uniqueid": "w55528401:a67592730", "current_trial": 14, "dateTime": 1693661610667, "trialdata": {"rt": 15497, "stimulus": "\n<h1> Get ready to start the game! </h1>\n\nThank you for reading the instructions. Get ready start with the 40 rounds of this game.\n<br><br>\nIf you need to take a break, feel free to take one after the end of a round, before continuing to the next one.\n<br><br>\nRemember, the more money the spider gets, the bigger your bonus will be!\n<br><br>\n<div style='text-align: center;'>Press <code>space</code> to begin.</div>\n\n<br><br>\n(If, at any point, the <code>space</code> key does not take you to the next page, click once on the text and try again.)", "response": " ", "trial_id": "mdp_ready", "trial_type": "html-keyboard-response", "trial_index": 14, "time_elapsed": 1286539, "internal_node_id": "0.0-6.0-0.0"}}, {"uniqueid": "w55528401:a67592730", "current_trial": 15, "dateTime": 1693661631671, "trialdata": {"revealed_states": [], "clicked_states": ["29"], "num_clicks_accrued": [0, 0, 0, 0, 0, 0, 0, 0, 0, 0, 0, 0, 0], "stateRewards": ["", -1, 3, 1, -11, -22, -36, 19, -5, -70, -52, 50, -2, -4, 4, -2, -41, -83, 29, -2, 22, 10, -6, -2, 3, -2, 14, 54, 44, 77, -9, -65, -37, -40], "withholdReward": false, "trial_id": "mdp_trial_1", "block": "test", "trialIndex": 4, "score": 87.85, "costs": -2.15, "simulationMode": [null, null, null, null, null], "rewards": [-2, 3, -2, 14, 77], "path": ["0", "0", "23", "24", "25", "26", "29"], "rt": [6748, 741, 587, 211, 86], "actions": ["left", "left", "left", "up", "left"], "actionTimes": [9967, 11219, 12315, 13038, 13648], "queries": {"click": {"state": {"target": ["29"], "time": [5163]}, "edge": {"target": [], "time": []}}, "mouseover": {"state": {"target": ["23", "24", "26", "29", "26", "28", "12", "0"], "time": [3663, 3711, 3883, 3944, 5797, 5814, 5977, 8675]}, "edge": {"target": [], "time": []}}, "mouseout": {"state": {"target": ["1", "0", "23", "24", "26", "29", "26", "28", "12", "0", "23", "1", "0"], "time": [983, 3650, 3694, 3797, 3896, 5795, 5811, 5829, 6262, 14943, 15128, 15423, 15474]}, "edge": {"target": [], "time": []}}}, "displayed_time": "17.22", "trialTime": 20757, "trial_type": "mouselab-mdp", "trial_index": 15, "time_elapsed": 1307542, "internal_node_id": "0.0-6.0-1.0-0.0"}}, {"uniqueid": "w55528401:a67592730", "current_trial": 16, "dateTime": 1693661652194, "trialdata": {"revealed_states": [], "clicked_states": ["5"], "num_clicks_accrued": [0, 0, 0, 0, 0, 0, 0, 0, 0, 0, 0, 0, 0], "stateRewards": ["", 2, -4, 7, 3, 23, -42, 4, 7, -81, -33, 7, -2, -4, 5, -1, 50, -57, -14, -13, -14, 44, 55, -2, -2, 5, -2, 33, 1, 57, -13, -7, 58, 87], "withholdReward": false, "trial_id": "mdp_trial_2", "block": "test", "trialIndex": 5, "score": 28.85, "costs": -2.15, "simulationMode": [null, null, null, null, null], "rewards": [2, -4, 7, 3, 23], "path": ["0", "0", "1", "2", "3", "4", "5"], "rt": [8498, 668, 484, 697, 433], "actions": ["up", "up", "up", "right", "up"], "actionTimes": [12402, 13586, 14583, 15796, 16747], "queries": {"click": {"state": {"target": ["5"], "time": [6036]}, "edge": {"target": [], "time": []}}, "mouseover": {"state": {"target": ["7", "5"], "time": [5049, 5334]}, "edge": {"target": [], "time": []}}, "mouseout": {"state": {"target": ["1", "1", "0", "7", "5"], "time": [1038, 1841, 4372, 5067, 6983]}, "edge": {"target": [], "time": []}}}, "displayed_time": "17.91", "trialTime": 20296, "trial_type": "mouselab-mdp", "trial_index": 16, "time_elapsed": 1328065, "internal_node_id": "0.0-6.0-1.0-1.0"}}, {"uniqueid": "w55528401:a67592730", "current_trial": 17, "dateTime": 1693661672953, "trialdata": {"revealed_states": [], "clicked_states": ["17"], "num_clicks_accrued": [0, 0, 0, 0, 0, 0, 0, 0, 0, 0, 0, 0, 0], "stateRewards": ["", 2, 4, -6, -13, -75, -81, 30, 7, 5, 59, -65, -1, -1, 7, 14, -38, 36, -41, 1, -54, -5, 64, 2, -1, 5, 6, -19, 79, 11, 16, -33, -50, 58], "withholdReward": false, "trial_id": "mdp_trial_3", "block": "test", "trialIndex": 6, "score": 52.85, "costs": -2.15, "simulationMode": [null, null, null, null, null], "rewards": [-1, -1, 7, 14, 36], "path": ["0", "0", "12", "13", "14", "15", "17"], "rt": [5210, 65, 113, 248, 119], "actions": ["right", "right", "right", "up", "right"], "actionTimes": [9836, 10415, 11046, 11813, 12448], "queries": {"click": {"state": {"target": ["17"], "time": [5639]}, "edge": {"target": [], "time": []}}, "mouseover": {"state": {"target": ["15", "17", "17"], "time": [5065, 5085, 5419]}, "edge": {"target": [], "time": []}}, "mouseout": {"state": {"target": ["0", "0", "15", "17", "17"], "time": [3252, 4034, 5083, 5114, 5831]}, "edge": {"target": [], "time": []}}}, "displayed_time": "18.63", "trialTime": 20517, "trial_type": "mouselab-mdp", "trial_index": 17, "time_elapsed": 1348826, "internal_node_id": "0.0-6.0-1.0-2.0"}}, {"uniqueid": "w55528401:a67592730", "current_trial": 18, "dateTime": 1693661691142, "trialdata": {"revealed_states": [], "clicked_states": ["9"], "num_clicks_accrued": [0, 0, 0, 0, 0, 0, 0, 0, 0, 0, 0, 0, 0], "stateRewards": ["", -2, 3, -1, -9, 44, 48, -37, -3, 71, -39, 87, -1, 3, -4, 4, -21, 59, -15, -8, -1, 28, -38, 2, 4, 4, 8, -85, -72, -63, 14, 58, 63, -46], "withholdReward": false, "trial_id": "mdp_trial_4", "block": "test", "trialIndex": 7, "score": 65.85, "costs": -2.15, "simulationMode": [null, null, null, null, null], "rewards": [-2, 3, -1, -3, 71], "path": ["0", "0", "1", "2", "3", "8", "9"], "rt": [5056, 47, 706, 253, 375], "actions": ["up", "up", "up", "left", "up"], "actionTimes": [7278, 7843, 9082, 9847, 10734], "queries": {"click": {"state": {"target": ["9"], "time": [3136]}, "edge": {"target": [], "time": []}}, "mouseover": {"state": {"target": ["1", "2", "8", "9"], "time": [2527, 2576, 2627, 2710]}, "edge": {"target": [], "time": []}}, "mouseout": {"state": {"target": ["17", "12", "0", "23", "0", "1", "2", "8", "9"], "time": [978, 1127, 1160, 1350, 2493, 2560, 2593, 2661, 3359]}, "edge": {"target": [], "time": []}}}, "displayed_time": "16.22", "trialTime": 17956, "trial_type": "mouselab-mdp", "trial_index": 18, "time_elapsed": 1367012, "internal_node_id": "0.0-6.0-1.0-3.0"}}, {"uniqueid": "w55528401:a67592730", "current_trial": 19, "dateTime": 1693661717757, "trialdata": {"revealed_states": [], "clicked_states": ["27"], "num_clicks_accrued": [0, 0, 0, 0, 0, 0, 0, 0, 0, 0, 0, 0, 0], "stateRewards": ["", -2, 2, -4, -4, -59, 88, 62, -3, 69, -15, -34, 1, -2, -5, 7, -54, -20, 78, -16, -74, -53, -21, 2, -4, 2, 13, -8, -44, 26, 9, 72, 4, 17], "withholdReward": false, "trial_id": "mdp_trial_5", "block": "test", "trialIndex": 8, "score": -55.15, "costs": -2.15, "simulationMode": [null, null, null, null, null], "rewards": [1, -2, -5, 7, -54], "path": ["0", "0", "12", "13", "14", "15", "16"], "rt": [6081, 433, 693, 132, 101], "actions": ["right", "right", "right", "up", "up"], "actionTimes": [9331, 10286, 11497, 12152, 12772], "queries": {"click": {"state": {"target": ["27"], "time": [4212]}, "edge": {"target": [], "time": []}}, "mouseover": {"state": {"target": ["23", "24", "25", "27"], "time": [3338, 3372, 3421, 3823]}, "edge": {"target": [], "time": []}}, "mouseout": {"state": {"target": ["6", "6", "2", "10", "0", "23", "24", "25", "27", "20", "12", "24", "23", "24", "28", "23"], "time": [1373, 1676, 1755, 1787, 3310, 3355, 3388, 3519, 4420, 25644, 25676, 25709, 25895, 25915, 26180, 26329]}, "edge": {"target": [], "time": []}}}, "displayed_time": "17.25", "trialTime": 26380, "trial_type": "mouselab-mdp", "trial_index": 19, "time_elapsed": 1393629, "internal_node_id": "0.0-6.0-1.0-4.0"}}, {"uniqueid": "w55528401:a67592730", "current_trial": 20, "dateTime": 1693661734815, "trialdata": {"revealed_states": [], "clicked_states": ["21"], "num_clicks_accrued": [0, 0, 0, 0, 0, 0, 0, 0, 0, 0, 0, 0, 0], "stateRewards": ["", 2, 4, 4, -8, -36, -33, 38, 16, -51, 57, 57, 1, 3, 4, -6, 45, 68, 87, 1, 63, 24, -55, -2, 2, -6, -13, -63, -50, 8, 2, 80, 6, 60], "withholdReward": false, "trial_id": "mdp_trial_6", "block": "test", "trialIndex": 9, "score": 30.85, "costs": -2.15, "simulationMode": [null, null, null, null, null], "rewards": [1, 3, 4, 1, 24], "path": ["0", "0", "12", "13", "14", "19", "21"], "rt": [5817, 14, 112, 260, 147], "actions": ["right", "right", "right", "down", "down"], "actionTimes": [7414, 7942, 8589, 9370, 10026], "queries": {"click": {"state": {"target": ["21"], "time": [3249]}, "edge": {"target": [], "time": []}}, "mouseover": {"state": {"target": ["0", "13", "14", "21"], "time": [1685, 1945, 1964, 3014]}, "edge": {"target": [], "time": []}}, "mouseout": {"state": {"target": ["1", "0", "0", "13", "14", "21"], "time": [999, 1229, 1712, 1962, 1979, 3745]}, "edge": {"target": [], "time": []}}}, "displayed_time": "15.60", "trialTime": 16806, "trial_type": "mouselab-mdp", "trial_index": 20, "time_elapsed": 1410686, "internal_node_id": "0.0-6.0-1.0-5.0"}}, {"uniqueid": "w55528401:a67592730", "current_trial": 21, "dateTime": 1693661753699, "trialdata": {"revealed_states": [], "clicked_states": ["9"], "num_clicks_accrued": [0, 0, 0, 0, 0, 0, 0, 0, 0, 0, 0, 0, 0], "stateRewards": ["", 2, 4, 4, 9, -88, -10, 44, 16, -54, 64, 78, 1, 2, 5, 16, 80, 36, 7, -4, 9, -47, -70, -1, -3, 6, -16, 11, 80, 28, 8, -1, 34, -17], "withholdReward": false, "trial_id": "mdp_trial_7", "block": "test", "trialIndex": 10, "score": 6.85, "costs": -2.15, "simulationMode": [null, null, null, null, null], "rewards": [-1, -3, 6, 8, -1], "path": ["0", "0", "23", "24", "25", "30", "31"], "rt": [6913, 785, 184, 401, 440], "actions": ["left", "left", "left", "down", "right"], "actionTimes": [10061, 11364, 12064, 12984, 13936], "queries": {"click": {"state": {"target": ["9"], "time": [4833]}, "edge": {"target": [], "time": []}}, "mouseover": {"state": {"target": ["10", "8", "9"], "time": [4169, 4185, 4497]}, "edge": {"target": [], "time": []}}, "mouseout": {"state": {"target": ["17", "23", "0", "10", "8", "9", "17", "19", "22"], "time": [1617, 1768, 4069, 4182, 4213, 4980, 15707, 15940, 15973]}, "edge": {"target": [], "time": []}}}, "displayed_time": "17.15", "trialTime": 18618, "trial_type": "mouselab-mdp", "trial_index": 21, "time_elapsed": 1429570, "internal_node_id": "0.0-6.0-1.0-6.0"}}, {"uniqueid": "w55528401:a67592730", "current_trial": 22, "dateTime": 1693661771137, "trialdata": {"revealed_states": [], "clicked_states": ["22"], "num_clicks_accrued": [0, 0, 0, 0, 0, 0, 0, 0, 0, 0, 0, 0, 0], "stateRewards": ["", 2, -1, -1, 7, 11, -40, -22, -2, 69, 37, 8, -2, 4, -8, -12, -2, -72, -3, -12, 17, 63, 12, 1, 3, -7, 6, 25, 61, 61, -9, 28, -17, 27], "withholdReward": false, "trial_id": "mdp_trial_8", "block": "test", "trialIndex": 11, "score": -8.149999999999999, "costs": -2.15, "simulationMode": [null, null, null, null, null], "rewards": [-2, 4, -8, -12, 12], "path": ["0", "0", "12", "13", "14", "19", "22"], "rt": [6911, 295, 133, 149, 282], "actions": ["right", "right", "right", "down", "left"], "actionTimes": [8771, 9580, 10231, 10899, 11697], "queries": {"click": {"state": {"target": ["22"], "time": [4207]}, "edge": {"target": [], "time": []}}, "mouseover": {"state": {"target": ["0", "22", "22", "19", "20"], "time": [2369, 3352, 3506, 4483, 4502]}, "edge": {"target": [], "time": []}}, "mouseout": {"state": {"target": ["12", "0", "22", "22", "19", "20"], "time": [1167, 2401, 3398, 4467, 4499, 4516]}, "edge": {"target": [], "time": []}}}, "displayed_time": "15.86", "trialTime": 17184, "trial_type": "mouselab-mdp", "trial_index": 22, "time_elapsed": 1447009, "internal_node_id": "0.0-6.0-1.0-7.0"}}, {"uniqueid": "w55528401:a67592730", "current_trial": 23, "dateTime": 1693661788167, "trialdata": {"revealed_states": [], "clicked_states": ["17"], "num_clicks_accrued": [0, 0, 0, 0, 0, 0, 0, 0, 0, 0, 0, 0, 0], "stateRewards": ["", 1, -2, -8, -3, 31, -84, -55, -14, 15, -58, 17, -2, -3, 7, 7, -12, 48, 67, 4, -44, -68, 46, 2, 3, -5, -7, 76, 27, 5, 11, 57, 52, 59], "withholdReward": false, "trial_id": "mdp_trial_9", "block": "test", "trialIndex": 12, "score": 54.85, "costs": -2.15, "simulationMode": [null, null, null, null, null], "rewards": [-2, -3, 7, 7, 48], "path": ["0", "0", "12", "13", "14", "15", "17"], "rt": [6093, 321, 94, 264, 63], "actions": ["right", "right", "right", "up", "right"], "actionTimes": [7719, 8552, 9157, 9944, 10527], "queries": {"click": {"state": {"target": ["17"], "time": [3886]}, "edge": {"target": [], "time": []}}, "mouseover": {"state": {"target": ["23", "24", "24", "23", "0", "12", "13", "17"], "time": [2131, 2164, 2548, 3017, 3047, 3065, 3082, 3381]}, "edge": {"target": [], "time": []}}, "mouseout": {"state": {"target": ["17", "15", "18", "0", "0", "23", "24", "24", "23", "0", "12", "13", "17"], "time": [546, 579, 597, 1131, 2115, 2148, 2180, 2580, 3031, 3063, 3080, 3097, 4345]}, "edge": {"target": [], "time": []}}}, "displayed_time": "15.63", "trialTime": 16772, "trial_type": "mouselab-mdp", "trial_index": 23, "time_elapsed": 1464039, "internal_node_id": "0.0-6.0-1.0-8.0"}}, {"uniqueid": "w55528401:a67592730", "current_trial": 24, "dateTime": 1693661805405, "trialdata": {"revealed_states": [], "clicked_states": ["32"], "num_clicks_accrued": [0, 0, 0, 0, 0, 0, 0, 0, 0, 0, 0, 0, 0], "stateRewards": ["", 2, 3, -3, 4, 72, -28, 34, -12, 57, -64, -15, 2, 1, -4, -15, 2, 49, 31, -1, -42, -58, 31, -2, 1, -2, -13, -75, -19, -22, -6, 61, 10, -56], "withholdReward": false, "trial_id": "mdp_trial_10", "block": "test", "trialIndex": 13, "score": -46.15, "costs": -2.15, "simulationMode": [null, null, null, null, null], "rewards": [2, 1, -4, -1, -42], "path": ["0", "0", "12", "13", "14", "19", "20"], "rt": [9195, 80, 102, 100, 216], "actions": ["right", "right", "right", "down", "right"], "actionTimes": [10942, 11534, 12155, 12770, 13504], "queries": {"click": {"state": {"target": ["32"], "time": [4654]}, "edge": {"target": [], "time": []}}, "mouseover": {"state": {"target": ["23", "26", "32", "32"], "time": [2191, 2290, 3611, 4172]}, "edge": {"target": [], "time": []}}, "mouseout": {"state": {"target": ["7", "0", "23", "26", "32", "32"], "time": [705, 2178, 2223, 2878, 3656, 4872]}, "edge": {"target": [], "time": []}}}, "displayed_time": "15.74", "trialTime": 16976, "trial_type": "mouselab-mdp", "trial_index": 24, "time_elapsed": 1481276, "internal_node_id": "0.0-6.0-1.0-9.0"}}, {"uniqueid": "w55528401:a67592730", "current_trial": 25, "dateTime": 1693661925210, "trialdata": {"revealed_states": [], "clicked_states": [], "num_clicks_accrued": [0, 0, 0, 0, 0, 0, 0, 0, 0, 0, 0, 0, 0], "stateRewards": ["", 1, -2, -2, 10, -31, -77, 35, 9, -47, 8, 48, -2, 1, -4, -3, -26, -50, 43, -11, 76, -38, 17, 1, -1, 6, 10, 15, -9, 12, -8, 85, 11, -55], "withholdReward": false, "trial_id": "mdp_trial_11", "block": "test", "trialIndex": 14, "score": 28, "costs": 0, "simulationMode": [null, null, null, null, null], "rewards": [1, -1, 6, 10, 12], "path": ["0", "0", "23", "24", "25", "26", "29"], "rt": [8628, 3, 3, 204, 3], "actions": ["left", "left", "left", "up", "left"], "actionTimes": [10884, 11400, 11932, 12667, 13183], "queries": {"click": {"state": {"target": [], "time": []}, "edge": {"target": [], "time": []}}, "mouseover": {"state": {"target": ["4", "10", "24", "31", "32", "0"], "time": [7403, 7866, 8234, 8313, 8598, 10163]}, "edge": {"target": [], "time": []}}, "mouseout": {"state": {"target": ["3", "3", "2", "1", "4", "10", "24", "31", "32", "0", "0", "12", "22", "19", "31", "30"], "time": [1316, 1515, 1549, 1600, 7416, 8011, 8299, 8467, 8896, 10180, 14562, 14910, 15046, 15078, 22575, 22923]}, "edge": {"target": [], "time": []}}}, "displayed_time": "16.25", "trialTime": 119548, "trial_type": "mouselab-mdp", "trial_index": 25, "time_elapsed": 1601081, "internal_node_id": "0.0-6.0-1.0-10.0"}}, {"uniqueid": "w55528401:a67592730", "current_trial": 26, "dateTime": 1693661942212, "trialdata": {"revealed_states": [], "clicked_states": ["17"], "num_clicks_accrued": [0, 0, 0, 0, 0, 0, 0, 0, 0, 0, 0, 0, 0], "stateRewards": ["", 2, 3, -1, 6, 44, -4, -59, -14, -3, 64, 16, 1, -3, 3, 6, 3, 49, 19, 3, -49, -14, -86, 1, 2, -3, -8, -33, 14, 32, -13, -77, -47, -67], "withholdReward": false, "trial_id": "mdp_trial_12", "block": "test", "trialIndex": 15, "score": 53.85, "costs": -2.15, "simulationMode": [null, null, null, null, null], "rewards": [1, -3, 3, 6, 49], "path": ["0", "0", "12", "13", "14", "15", "17"], "rt": [4440, 375, 564, 143, 69], "actions": ["right", "right", "right", "up", "right"], "actionTimes": [6056, 6951, 8022, 8684, 9262], "queries": {"click": {"state": {"target": ["17"], "time": [2374]}, "edge": {"target": [], "time": []}}, "mouseover": {"state": {"target": ["17"], "time": [2181]}, "edge": {"target": [], "time": []}}, "mouseout": {"state": {"target": ["27", "10", "2", "1", "0", "17", "17", "19", "22"], "time": [459, 475, 525, 814, 1247, 2493, 3092, 16057, 16069]}, "edge": {"target": [], "time": []}}}, "displayed_time": "15.63", "trialTime": 16708, "trial_type": "mouselab-mdp", "trial_index": 26, "time_elapsed": 1618084, "internal_node_id": "0.0-6.0-1.0-11.0"}}, {"uniqueid": "w55528401:a67592730", "current_trial": 27, "dateTime": 1693661960102, "trialdata": {"revealed_states": [], "clicked_states": ["5"], "num_clicks_accrued": [0, 0, 0, 0, 0, 0, 0, 0, 0, 0, 0, 0, 0], "stateRewards": ["", 2, -3, -5, 5, 11, -9, -33, 6, 67, 6, -30, -1, -2, -6, 13, 55, 13, 72, -14, 75, 21, -66, -2, -4, 6, 15, -1, -35, 60, 2, 51, -73, 12], "withholdReward": false, "trial_id": "mdp_trial_13", "block": "test", "trialIndex": 16, "score": 7.85, "costs": -2.15, "simulationMode": [null, null, null, null, null], "rewards": [2, -3, -5, 5, 11], "path": ["0", "0", "1", "2", "3", "4", "5"], "rt": [4971, 425, 92, 32, 148], "actions": ["up", "up", "up", "right", "up"], "actionTimes": [7322, 8271, 8883, 9424, 10090], "queries": {"click": {"state": {"target": ["5"], "time": [2996]}, "edge": {"target": [], "time": []}}, "mouseover": {"state": {"target": ["5"], "time": [2729]}, "edge": {"target": [], "time": []}}, "mouseout": {"state": {"target": ["0", "1", "2", "7", "1", "12", "12", "0", "5"], "time": [13, 232, 261, 946, 1048, 1192, 1826, 2377, 3032]}, "edge": {"target": [], "time": []}}}, "displayed_time": "16.35", "trialTime": 17606, "trial_type": "mouselab-mdp", "trial_index": 27, "time_elapsed": 1635973, "internal_node_id": "0.0-6.0-1.0-12.0"}}, {"uniqueid": "w55528401:a67592730", "current_trial": 28, "dateTime": 1693661977257, "trialdata": {"revealed_states": [], "clicked_states": ["6"], "num_clicks_accrued": [0, 0, 0, 0, 0, 0, 0, 0, 0, 0, 0, 0, 0], "stateRewards": ["", 1, 2, 7, 13, 88, -71, 27, 3, 60, 5, -53, -2, 2, -6, -1, -30, 79, 47, -4, -14, 46, 68, 1, 1, 8, 10, -14, 86, 48, -11, -67, -44, 5], "withholdReward": false, "trial_id": "mdp_trial_14", "block": "test", "trialIndex": 17, "score": -47.15, "costs": -2.15, "simulationMode": [null, null, null, null, null], "rewards": [1, 1, 8, -11, -44], "path": ["0", "0", "23", "24", "25", "30", "32"], "rt": [5895, 5, 117, 68, 245], "actions": ["left", "left", "left", "down", "down"], "actionTimes": [7576, 8105, 8748, 9332, 10093], "queries": {"click": {"state": {"target": ["6"], "time": [3199]}, "edge": {"target": [], "time": []}}, "mouseover": {"state": {"target": ["7", "4", "5", "6"], "time": [2233, 2315, 2581, 2986]}, "edge": {"target": [], "time": []}}, "mouseout": {"state": {"target": ["17", "14", "13", "0", "23", "7", "4", "5", "6"], "time": [766, 815, 849, 899, 1169, 2264, 2453, 2820, 3415]}, "edge": {"target": [], "time": []}}}, "displayed_time": "15.69", "trialTime": 16876, "trial_type": "mouselab-mdp", "trial_index": 28, "time_elapsed": 1653128, "internal_node_id": "0.0-6.0-1.0-13.0"}}, {"uniqueid": "w55528401:a67592730", "current_trial": 29, "dateTime": 1693661998614, "trialdata": {"revealed_states": [], "clicked_states": ["27"], "num_clicks_accrued": [0, 0, 0, 0, 0, 0, 0, 0, 0, 0, 0, 0, 0], "stateRewards": ["", -1, -4, 8, 8, -68, 47, 24, -7, -61, 49, -69, -1, -1, 8, -7, 42, 1, -45, -11, 10, -63, -6, 1, 4, 6, -16, 79, -37, -58, -12, 81, 18, -53], "withholdReward": false, "trial_id": "mdp_trial_15", "block": "test", "trialIndex": 18, "score": 71.85, "costs": -2.15, "simulationMode": [null, null, null, null, null], "rewards": [1, 4, 6, -16, 79], "path": ["0", "0", "23", "24", "25", "26", "27"], "rt": [4461, 62, 60, 86, 65], "actions": ["left", "left", "left", "up", "up"], "actionTimes": [5984, 6559, 7139, 7733, 8293], "queries": {"click": {"state": {"target": ["27"], "time": [2138]}, "edge": {"target": [], "time": []}}, "mouseover": {"state": {"target": ["23", "26", "27", "1", "18"], "time": [1545, 1647, 1951, 2312, 2428]}, "edge": {"target": [], "time": []}}, "mouseout": {"state": {"target": ["15", "1", "0", "23", "26", "27", "1", "18", "16", "14", "12", "21"], "time": [865, 1047, 1529, 1580, 1681, 2262, 2329, 2479, 18589, 18605, 19991, 20106]}, "edge": {"target": [], "time": []}}}, "displayed_time": "15.52", "trialTime": 21056, "trial_type": "mouselab-mdp", "trial_index": 29, "time_elapsed": 1674485, "internal_node_id": "0.0-6.0-1.0-14.0"}}, {"uniqueid": "w55528401:a67592730", "current_trial": 30, "dateTime": 1693662016120, "trialdata": {"revealed_states": [], "clicked_states": ["21"], "num_clicks_accrued": [0, 0, 0, 0, 0, 0, 0, 0, 0, 0, 0, 0, 0], "stateRewards": ["", 1, 2, 3, 16, 63, -25, 16, -4, -14, 82, -66, -1, -3, -3, -11, -14, 19, 46, 3, -34, -82, 66, -2, -3, 4, -5, -63, 77, -37, -1, -45, -41, 84], "withholdReward": false, "trial_id": "mdp_trial_16", "block": "test", "trialIndex": 19, "score": 81.85, "costs": -2.15, "simulationMode": [null, null, null, null, null], "rewards": [1, 2, 3, -4, 82], "path": ["0", "0", "1", "2", "3", "8", "10"], "rt": [6020, 438, 2, 43, 69], "actions": ["up", "up", "up", "left", "down"], "actionTimes": [7744, 8700, 9214, 9786, 10394], "queries": {"click": {"state": {"target": ["21"], "time": [3289]}, "edge": {"target": [], "time": []}}, "mouseover": {"state": {"target": ["0", "22", "19", "14", "22", "19", "21"], "time": [2094, 2143, 2193, 2296, 2647, 2896, 3062]}, "edge": {"target": [], "time": []}}, "mouseout": {"state": {"target": ["17", "17", "28", "23", "0", "22", "19", "14", "22", "19", "21", "17", "20"], "time": [232, 596, 926, 1046, 2110, 2159, 2210, 2328, 2733, 2981, 3493, 11744, 12058]}, "edge": {"target": [], "time": []}}}, "displayed_time": "15.72", "trialTime": 17155, "trial_type": "mouselab-mdp", "trial_index": 30, "time_elapsed": 1691991, "internal_node_id": "0.0-6.0-1.0-15.0"}}, {"uniqueid": "w55528401:a67592730", "current_trial": 31, "dateTime": 1693662033174, "trialdata": {"revealed_states": [], "clicked_states": ["7"], "num_clicks_accrued": [0, 0, 0, 0, 0, 0, 0, 0, 0, 0, 0, 0, 0], "stateRewards": ["", -1, 2, -6, 6, 43, 78, 78, -2, 55, -29, -17, -2, -4, 1, -15, 13, 7, -79, 8, -28, -68, 36, -1, -3, 3, -16, 84, -18, 87, 10, 32, 13, -81], "withholdReward": false, "trial_id": "mdp_trial_17", "block": "test", "trialIndex": 20, "score": 76.85, "costs": -2.15, "simulationMode": [null, null, null, null, null], "rewards": [-1, 2, -6, 6, 78], "path": ["0", "0", "1", "2", "3", "4", "7"], "rt": [5503, 59, 31, 601, 183], "actions": ["up", "up", "up", "right", "down"], "actionTimes": [7119, 7695, 8267, 9405, 10099], "queries": {"click": {"state": {"target": ["7"], "time": [3154]}, "edge": {"target": [], "time": []}}, "mouseover": {"state": {"target": ["1", "7", "16"], "time": [2334, 2921, 3302]}, "edge": {"target": [], "time": []}}, "mouseout": {"state": {"target": ["13", "22", "0", "1", "7", "16"], "time": [819, 902, 1889, 2401, 3251, 3319]}, "edge": {"target": [], "time": []}}}, "displayed_time": "15.62", "trialTime": 16774, "trial_type": "mouselab-mdp", "trial_index": 31, "time_elapsed": 1709045, "internal_node_id": "0.0-6.0-1.0-16.0"}}, {"uniqueid": "w55528401:a67592730", "current_trial": 32, "dateTime": 1693662050235, "trialdata": {"revealed_states": [], "clicked_states": ["31"], "num_clicks_accrued": [0, 0, 0, 0, 0, 0, 0, 0, 0, 0, 0, 0, 0], "stateRewards": ["", -2, 2, 3, -7, -31, -33, 29, -8, -57, 50, -83, -1, -1, 5, 13, -23, -62, 25, 5, -66, -85, 14, 1, -2, -1, 16, 71, 33, -19, -14, 5, -43, 79], "withholdReward": false, "trial_id": "mdp_trial_18", "block": "test", "trialIndex": 21, "score": -7.15, "costs": -2.15, "simulationMode": [null, null, null, null, null], "rewards": [1, -2, -1, 16, -19], "path": ["0", "0", "23", "24", "25", "26", "29"], "rt": [6225, 345, 142, 83, 70], "actions": ["left", "left", "left", "up", "left"], "actionTimes": [7978, 8837, 9498, 10089, 10675], "queries": {"click": {"state": {"target": ["31"], "time": [3221]}, "edge": {"target": [], "time": []}}, "mouseover": {"state": {"target": ["23", "31"], "time": [2579, 2993]}, "edge": {"target": [], "time": []}}, "mouseout": {"state": {"target": ["14", "12", "0", "23", "31"], "time": [1041, 1295, 1758, 2608, 3358]}, "edge": {"target": [], "time": []}}}, "displayed_time": "15.75", "trialTime": 16767, "trial_type": "mouselab-mdp", "trial_index": 32, "time_elapsed": 1726107, "internal_node_id": "0.0-6.0-1.0-17.0"}}, {"uniqueid": "w55528401:a67592730", "current_trial": 33, "dateTime": 1693662066989, "trialdata": {"revealed_states": [], "clicked_states": ["29"], "num_clicks_accrued": [0, 0, 0, 0, 0, 0, 0, 0, 0, 0, 0, 0, 0], "stateRewards": ["", -2, 3, -1, 2, -72, 63, 20, -1, 62, -66, 39, -2, 3, -6, 14, 22, 47, 1, 8, -49, -1, -41, 2, 2, -6, -16, -64, -60, -34, 16, 54, 22, -7], "withholdReward": false, "trial_id": "mdp_trial_19", "block": "test", "trialIndex": 22, "score": -72.15, "costs": -2.15, "simulationMode": [null, null, null, null, null], "rewards": [-2, 3, -1, 2, -72], "path": ["0", "0", "1", "2", "3", "4", "5"], "rt": [5949, 528, 105, 4, 106], "actions": ["up", "up", "up", "right", "up"], "actionTimes": [7131, 8177, 8801, 9317, 9954], "queries": {"click": {"state": {"target": ["29"], "time": [2470]}, "edge": {"target": [], "time": []}}, "mouseover": {"state": {"target": ["25", "29", "24", "23", "14"], "time": [1596, 1883, 2664, 2683, 2797]}, "edge": {"target": [], "time": []}}, "mouseout": {"state": {"target": ["17", "15", "12", "12", "0", "25", "29", "24", "23", "14", "17"], "time": [252, 266, 499, 718, 1550, 1614, 2647, 2681, 2697, 3047, 11112]}, "edge": {"target": [], "time": []}}}, "displayed_time": "15.18", "trialTime": 16453, "trial_type": "mouselab-mdp", "trial_index": 33, "time_elapsed": 1742860, "internal_node_id": "0.0-6.0-1.0-18.0"}}, {"uniqueid": "w55528401:a67592730", "current_trial": 34, "dateTime": 1693662084189, "trialdata": {"revealed_states": [], "clicked_states": ["17"], "num_clicks_accrued": [0, 0, 0, 0, 0, 0, 0, 0, 0, 0, 0, 0, 0], "stateRewards": ["", -1, -1, 4, -16, -75, 81, -51, -7, -84, 73, -30, -2, 1, -3, -16, -77, 33, 14, 1, 45, 87, -66, 2, 2, -5, -7, -19, -17, 79, -3, 8, 49, 47], "withholdReward": false, "trial_id": "mdp_trial_20", "block": "test", "trialIndex": 23, "score": 10.850000000000001, "costs": -2.15, "simulationMode": [null, null, null, null, null], "rewards": [-2, 1, -3, -16, 33], "path": ["0", "0", "12", "13", "14", "15", "17"], "rt": [4678, 390, 42, 51, 623], "actions": ["right", "right", "right", "up", "right"], "actionTimes": [5974, 6877, 7428, 8018, 9172], "queries": {"click": {"state": {"target": ["17"], "time": [2211]}, "edge": {"target": [], "time": []}}, "mouseover": {"state": {"target": ["12", "13", "14", "17"], "time": [1304, 1353, 1385, 1753]}, "edge": {"target": [], "time": []}}, "mouseout": {"state": {"target": ["10", "2", "1", "0", "12", "13", "14", "17"], "time": [417, 587, 685, 1302, 1337, 1369, 1488, 2318]}, "edge": {"target": [], "time": []}}}, "displayed_time": "15.30", "trialTime": 16867, "trial_type": "mouselab-mdp", "trial_index": 34, "time_elapsed": 1760061, "internal_node_id": "0.0-6.0-1.0-19.0"}}, {"uniqueid": "w55528401:a67592730", "current_trial": 35, "dateTime": 1693662101236, "trialdata": {"revealed_states": [], "clicked_states": ["17"], "num_clicks_accrued": [0, 0, 0, 0, 0, 0, 0, 0, 0, 0, 0, 0, 0], "stateRewards": ["", -1, 2, -6, 6, -82, -19, -39, -16, -83, 11, -33, -2, -2, 4, -6, -82, -1, -19, -6, -10, -67, -41, -2, 1, -7, 16, -23, -78, -52, 14, 31, -71, 74], "withholdReward": false, "trial_id": "mdp_trial_21", "block": "test", "trialIndex": 24, "score": -72.15, "costs": -2.15, "simulationMode": [null, null, null, null, null], "rewards": [-2, 1, -7, 16, -78], "path": ["0", "0", "23", "24", "25", "26", "28"], "rt": [5429, 70, 6, 542, 23], "actions": ["left", "left", "left", "up", "right"], "actionTimes": [7213, 7796, 8299, 9367, 9929], "queries": {"click": {"state": {"target": ["17"], "time": [3196]}, "edge": {"target": [], "time": []}}, "mouseover": {"state": {"target": ["20", "17"], "time": [2590, 2808]}, "edge": {"target": [], "time": []}}, "mouseout": {"state": {"target": ["16", "7", "0", "0", "20", "17"], "time": [258, 663, 1274, 1540, 2690, 3340]}, "edge": {"target": [], "time": []}}}, "displayed_time": "15.79", "trialTime": 16728, "trial_type": "mouselab-mdp", "trial_index": 35, "time_elapsed": 1777108, "internal_node_id": "0.0-6.0-1.0-20.0"}}, {"uniqueid": "w55528401:a67592730", "current_trial": 36, "dateTime": 1693662118762, "trialdata": {"revealed_states": [], "clicked_states": ["9"], "num_clicks_accrued": [0, 0, 0, 0, 0, 0, 0, 0, 0, 0, 0, 0, 0], "stateRewards": ["", 1, -3, -4, -11, -56, 61, -47, -16, -28, -9, 69, -2, -3, -4, -8, 40, -86, 59, -4, 80, 27, 54, -1, 3, -1, 8, 67, 23, 50, 6, 83, -43, -29], "withholdReward": false, "trial_id": "mdp_trial_22", "block": "test", "trialIndex": 25, "score": 38.85, "costs": -2.15, "simulationMode": [null, null, null, null, null], "rewards": [-2, -3, -4, -4, 54], "path": ["0", "0", "12", "13", "14", "19", "22"], "rt": [5207, 302, 606, 582, 155], "actions": ["right", "right", "right", "down", "left"], "actionTimes": [7160, 7981, 9094, 10187, 10860], "queries": {"click": {"state": {"target": ["9"], "time": [2985]}, "edge": {"target": [], "time": []}}, "mouseover": {"state": {"target": ["2", "3", "9", "5"], "time": [2508, 2554, 2939, 3238]}, "edge": {"target": [], "time": []}}, "mouseout": {"state": {"target": ["0", "0", "2", "3", "9", "5", "17", "20"], "time": [1509, 2225, 2538, 2589, 3088, 3255, 11917, 11968]}, "edge": {"target": [], "time": []}}}, "displayed_time": "15.95", "trialTime": 17193, "trial_type": "mouselab-mdp", "trial_index": 36, "time_elapsed": 1794634, "internal_node_id": "0.0-6.0-1.0-21.0"}}, {"uniqueid": "w55528401:a67592730", "current_trial": 37, "dateTime": 1693662135412, "trialdata": {"revealed_states": [], "clicked_states": ["5"], "num_clicks_accrued": [0, 0, 0, 0, 0, 0, 0, 0, 0, 0, 0, 0, 0], "stateRewards": ["", -1, 1, 3, -8, -23, -15, -14, -11, -23, 58, 68, 1, 3, 5, 12, -17, -41, -7, -10, -4, 82, 10, 1, 4, -4, 11, 73, 55, -55, -1, -86, -86, 54], "withholdReward": false, "trial_id": "mdp_trial_23", "block": "test", "trialIndex": 26, "score": -88.15, "costs": -2.15, "simulationMode": [null, null, null, null, null], "rewards": [1, 4, -4, -1, -86], "path": ["0", "0", "23", "24", "25", "30", "32"], "rt": [5409, 38, 209, 21, 148], "actions": ["left", "left", "left", "down", "down"], "actionTimes": [6617, 7168, 7874, 8419, 9098], "queries": {"click": {"state": {"target": ["5"], "time": [2444]}, "edge": {"target": [], "time": []}}, "mouseover": {"state": {"target": ["12", "18", "3", "5", "5"], "time": [1464, 1766, 1879, 2133, 2300]}, "edge": {"target": [], "time": []}}, "mouseout": {"state": {"target": ["14", "13", "22", "0", "12", "18", "3", "5", "5", "20", "19"], "time": [262, 431, 479, 1214, 1481, 1845, 1998, 2180, 2563, 15757, 15774]}, "edge": {"target": [], "time": []}}}, "displayed_time": "15.21", "trialTime": 16325, "trial_type": "mouselab-mdp", "trial_index": 37, "time_elapsed": 1811283, "internal_node_id": "0.0-6.0-1.0-22.0"}}, {"uniqueid": "w55528401:a67592730", "current_trial": 38, "dateTime": 1693662152483, "trialdata": {"revealed_states": [], "clicked_states": ["32"], "num_clicks_accrued": [0, 0, 0, 0, 0, 0, 0, 0, 0, 0, 0, 0, 0], "stateRewards": ["", 1, -3, 4, 13, -72, 52, 5, 5, -58, 5, 14, 2, 1, 3, -14, -86, -4, 73, 6, -58, -50, 49, 2, -3, -4, 2, 33, -41, 42, -11, 81, 45, 53], "withholdReward": false, "trial_id": "mdp_trial_24", "block": "test", "trialIndex": 27, "score": 26.85, "costs": -2.15, "simulationMode": [null, null, null, null, null], "rewards": [2, -3, -4, -11, 45], "path": ["0", "0", "23", "24", "25", "30", "32"], "rt": [4102, 331, 78, 583, 142], "actions": ["left", "left", "left", "down", "down"], "actionTimes": [5526, 6377, 6975, 8078, 8738], "queries": {"click": {"state": {"target": ["32"], "time": [2148]}, "edge": {"target": [], "time": []}}, "mouseover": {"state": {"target": ["31", "32", "21"], "time": [1714, 1947, 2411]}, "edge": {"target": [], "time": []}}, "mouseout": {"state": {"target": ["2", "1", "0", "0", "31", "32", "21", "14"], "time": [351, 478, 746, 1530, 1783, 2346, 2429, 10443]}, "edge": {"target": [], "time": []}}}, "displayed_time": "15.42", "trialTime": 16741, "trial_type": "mouselab-mdp", "trial_index": 38, "time_elapsed": 1828355, "internal_node_id": "0.0-6.0-1.0-23.0"}}, {"uniqueid": "w55528401:a67592730", "current_trial": 39, "dateTime": 1693662169613, "trialdata": {"revealed_states": [], "clicked_states": ["33"], "num_clicks_accrued": [0, 0, 0, 0, 0, 0, 0, 0, 0, 0, 0, 0, 0], "stateRewards": ["", -2, 2, -1, -6, 22, 6, 6, -5, 70, -42, 65, 1, 3, 5, -6, -67, -9, 3, 14, 7, -62, -13, -2, 4, 1, 16, 42, -21, -52, -8, 32, 53, 81], "withholdReward": false, "trial_id": "mdp_trial_25", "block": "test", "trialIndex": 28, "score": 73.85, "costs": -2.15, "simulationMode": [null, null, null, null, null], "rewards": [-2, 4, 1, -8, 81], "path": ["0", "0", "23", "24", "25", "30", "33"], "rt": [5341, 116, 130, 4, 168], "actions": ["left", "left", "left", "down", "left"], "actionTimes": [6713, 7351, 7999, 8504, 9204], "queries": {"click": {"state": {"target": ["33"], "time": [2227]}, "edge": {"target": [], "time": []}}, "mouseover": {"state": {"target": ["23", "31", "30", "33", "30"], "time": [1589, 1651, 1803, 1837, 2371]}, "edge": {"target": [], "time": []}}, "mouseout": {"state": {"target": ["1", "0", "0", "23", "31", "30", "33", "30", "21"], "time": [686, 752, 1001, 1618, 1684, 1835, 2368, 2386, 16064]}, "edge": {"target": [], "time": []}}}, "displayed_time": "15.37", "trialTime": 16682, "trial_type": "mouselab-mdp", "trial_index": 39, "time_elapsed": 1845484, "internal_node_id": "0.0-6.0-1.0-24.0"}}, {"uniqueid": "w55528401:a67592730", "current_trial": 40, "dateTime": 1693662186570, "trialdata": {"revealed_states": [], "clicked_states": ["27"], "num_clicks_accrued": [0, 0, 0, 0, 0, 0, 0, 0, 0, 0, 0, 0, 0], "stateRewards": ["", 2, 3, 6, -12, -29, 12, 87, 4, 35, -30, 67, 2, 3, -5, -9, 44, 69, -8, 1, 45, -8, 28, -2, -1, -8, 11, -12, -5, 81, 9, 87, 82, 88], "withholdReward": false, "trial_id": "mdp_trial_26", "block": "test", "trialIndex": 29, "score": 57.85, "costs": -2.15, "simulationMode": [null, null, null, null, null], "rewards": [2, 3, -5, -9, 69], "path": ["0", "0", "12", "13", "14", "15", "17"], "rt": [5269, 298, 618, 130, 58], "actions": ["right", "right", "right", "up", "right"], "actionTimes": [6829, 7646, 8783, 9428, 10007], "queries": {"click": {"state": {"target": ["27"], "time": [2568]}, "edge": {"target": [], "time": []}}, "mouseover": {"state": {"target": ["27", "18", "15", "17"], "time": [2233, 2898, 2998, 3047]}, "edge": {"target": [], "time": []}}, "mouseout": {"state": {"target": ["0", "27", "27", "18", "15", "17", "17"], "time": [1803, 2648, 2748, 2982, 3015, 3198, 11648]}, "edge": {"target": [], "time": []}}}, "displayed_time": "15.56", "trialTime": 16629, "trial_type": "mouselab-mdp", "trial_index": 40, "time_elapsed": 1862441, "internal_node_id": "0.0-6.0-1.0-25.0"}}, {"uniqueid": "w55528401:a67592730", "current_trial": 41, "dateTime": 1693662202974, "trialdata": {"revealed_states": [], "clicked_states": ["7"], "num_clicks_accrued": [0, 0, 0, 0, 0, 0, 0, 0, 0, 0, 0, 0, 0], "stateRewards": ["", 2, -2, -8, 9, -20, 55, -58, 14, 42, 2, 36, 1, -3, -5, 5, -58, 57, 60, 16, 57, 30, -70, -2, 1, 3, 10, 59, 23, 77, -13, -26, 88, -72], "withholdReward": false, "trial_id": "mdp_trial_27", "block": "test", "trialIndex": 30, "score": -39.15, "costs": -2.15, "simulationMode": [null, null, null, null, null], "rewards": [-2, 1, 3, -13, -26], "path": ["0", "0", "23", "24", "25", "30", "31"], "rt": [4941, 664, 91, 9, 486], "actions": ["left", "left", "left", "down", "right"], "actionTimes": [6021, 7207, 7816, 8318, 9326], "queries": {"click": {"state": {"target": ["7"], "time": [1939]}, "edge": {"target": [], "time": []}}, "mouseover": {"state": {"target": ["7", "16"], "time": [1790, 2193]}, "edge": {"target": [], "time": []}}, "mouseout": {"state": {"target": ["3", "2", "1", "7", "16", "17", "13"], "time": [412, 457, 541, 2141, 2441, 10989, 11053]}, "edge": {"target": [], "time": []}}}, "displayed_time": "15.08", "trialTime": 16085, "trial_type": "mouselab-mdp", "trial_index": 41, "time_elapsed": 1878846, "internal_node_id": "0.0-6.0-1.0-26.0"}}, {"uniqueid": "w55528401:a67592730", "current_trial": 42, "dateTime": 1693662219492, "trialdata": {"revealed_states": [], "clicked_states": ["27"], "num_clicks_accrued": [0, 0, 0, 0, 0, 0, 0, 0, 0, 0, 0, 0, 0], "stateRewards": ["", 2, -2, -3, 10, -4, -1, -11, -8, -9, -36, -78, 2, 1, 7, -7, 44, -1, -31, -1, 26, 47, 83, 2, -4, -4, -6, -52, -76, -81, -1, -59, 45, 67], "withholdReward": false, "trial_id": "mdp_trial_28", "block": "test", "trialIndex": 31, "score": 44.85, "costs": -2.15, "simulationMode": [null, null, null, null, null], "rewards": [2, 1, 7, -7, 44], "path": ["0", "0", "12", "13", "14", "15", "16"], "rt": [5361, 330, 781, 10, 41], "actions": ["right", "right", "right", "up", "up"], "actionTimes": [6331, 7177, 8479, 9024, 9591], "queries": {"click": {"state": {"target": ["27"], "time": [1533]}, "edge": {"target": [], "time": []}}, "mouseover": {"state": {"target": ["27", "10", "2", "18"], "time": [1103, 1714, 1766, 1830]}, "edge": {"target": [], "time": []}}, "mouseout": {"state": {"target": ["0", "27", "10", "2", "18"], "time": [979, 1572, 1750, 1782, 1881]}, "edge": {"target": [], "time": []}}}, "displayed_time": "14.97", "trialTime": 16134, "trial_type": "mouselab-mdp", "trial_index": 42, "time_elapsed": 1895363, "internal_node_id": "0.0-6.0-1.0-27.0"}}, {"uniqueid": "w55528401:a67592730", "current_trial": 43, "dateTime": 1693662236285, "trialdata": {"revealed_states": [], "clicked_states": ["2"], "num_clicks_accrued": [0, 0, 0, 0, 0, 0, 0, 0, 0, 0, 0, 0, 0], "stateRewards": ["", 2, -3, 5, -14, -63, -9, -24, -11, -54, -43, 68, 2, -2, -4, 7, -64, 30, 47, 12, -74, 11, 86, 1, -3, 3, 10, -71, -42, -52, -1, -29, -16, 69], "withholdReward": false, "trial_id": "mdp_trial_29", "block": "test", "trialIndex": 32, "score": 18.65, "costs": -0.35, "simulationMode": [null, null, null, null, null], "rewards": [2, -2, -4, 12, 11], "path": ["0", "0", "12", "13", "14", "19", "21"], "rt": [4371, 453, 20, 4, 133], "actions": ["right", "right", "right", "down", "down"], "actionTimes": [5767, 6742, 7276, 7809, 8472], "queries": {"click": {"state": {"target": ["2"], "time": [2549]}, "edge": {"target": [], "time": []}}, "mouseover": {"state": {"target": ["1", "2"], "time": [1891, 2211]}, "edge": {"target": [], "time": []}}, "mouseout": {"state": {"target": ["6", "1", "2", "17", "15", "18", "13", "14"], "time": [293, 2006, 2580, 15467, 15484, 15668, 15716, 16398]}, "edge": {"target": [], "time": []}}}, "displayed_time": "15.40", "trialTime": 16447, "trial_type": "mouselab-mdp", "trial_index": 43, "time_elapsed": 1912157, "internal_node_id": "0.0-6.0-1.0-28.0"}}, {"uniqueid": "w55528401:a67592730", "current_trial": 44, "dateTime": 1693662253202, "trialdata": {"revealed_states": [], "clicked_states": ["26"], "num_clicks_accrued": [0, 0, 0, 0, 0, 0, 0, 0, 0, 0, 0, 0, 0], "stateRewards": ["", -1, 3, 8, 9, -53, 20, -84, 2, -28, -62, -31, -1, -2, -7, 2, 51, 58, 45, -4, -17, -41, 36, 2, -2, -7, -15, 29, -54, -37, -16, -43, 65, -17], "withholdReward": false, "trial_id": "mdp_trial_30", "block": "test", "trialIndex": 33, "score": 48.45, "costs": -1.55, "simulationMode": [null, null, null, null, null], "rewards": [-1, -2, -7, 2, 58], "path": ["0", "0", "12", "13", "14", "15", "17"], "rt": [2827, 286, 863, 67, 613], "actions": ["right", "right", "right", "up", "right"], "actionTimes": [4116, 4915, 6292, 6877, 8008], "queries": {"click": {"state": {"target": ["26"], "time": [2539]}, "edge": {"target": [], "time": []}}, "mouseover": {"state": {"target": ["23", "24", "25", "26", "28", "18", "15"], "time": [1307, 1365, 1877, 2278, 2826, 2893, 2926]}, "edge": {"target": [], "time": []}}, "mouseout": {"state": {"target": ["12", "0", "0", "23", "24", "25", "26", "28", "18", "15", "17", "17"], "time": [677, 762, 1303, 1325, 1730, 2112, 2810, 2842, 2909, 3027, 11821, 12542]}, "edge": {"target": [], "time": []}}}, "displayed_time": "15.29", "trialTime": 16575, "trial_type": "mouselab-mdp", "trial_index": 44, "time_elapsed": 1929074, "internal_node_id": "0.0-6.0-1.0-29.0"}}, {"uniqueid": "w55528401:a67592730", "current_trial": 45, "dateTime": 1693662271305, "trialdata": {"revealed_states": [], "clicked_states": ["9"], "num_clicks_accrued": [0, 0, 0, 0, 0, 0, 0, 0, 0, 0, 0, 0, 0], "stateRewards": ["", 1, -2, -3, 14, -42, -87, -37, -11, -50, 33, -44, -2, 4, -7, 13, 48, -75, -66, 12, 23, -2, 82, 1, -4, 3, 12, 51, -15, -26, -11, -52, -29, 82], "withholdReward": false, "trial_id": "mdp_trial_31", "block": "test", "trialIndex": 34, "score": 86.85, "costs": -2.15, "simulationMode": [null, null, null, null, null], "rewards": [-2, 4, -7, 12, 82], "path": ["0", "0", "12", "13", "14", "19", "22"], "rt": [4713, 316, 477, 46, 114], "actions": ["right", "right", "right", "down", "left"], "actionTimes": [6983, 7814, 8807, 9377, 10028], "queries": {"click": {"state": {"target": ["9"], "time": [3380]}, "edge": {"target": [], "time": []}}, "mouseover": {"state": {"target": ["10", "9", "9"], "time": [2680, 2981, 3213]}, "edge": {"target": [], "time": []}}, "mouseout": {"state": {"target": ["7", "0", "10", "9", "9", "17", "22", "19", "20"], "time": [350, 2615, 2698, 3083, 3564, 11529, 11768, 11809, 11826]}, "edge": {"target": [], "time": []}}}, "displayed_time": "16.27", "trialTime": 17741, "trial_type": "mouselab-mdp", "trial_index": 45, "time_elapsed": 1947177, "internal_node_id": "0.0-6.0-1.0-30.0"}}, {"uniqueid": "w55528401:a67592730", "current_trial": 46, "dateTime": 1693662288117, "trialdata": {"revealed_states": [], "clicked_states": ["6"], "num_clicks_accrued": [0, 0, 0, 0, 0, 0, 0, 0, 0, 0, 0, 0, 0], "stateRewards": ["", -2, -4, -2, -13, -15, 87, -19, -6, -80, 30, 12, 1, 1, -8, 2, 55, 56, 15, 11, -68, -7, 55, -2, 3, -3, -3, 48, 62, 4, 1, -3, 69, -33], "withholdReward": false, "trial_id": "mdp_trial_32", "block": "test", "trialIndex": 35, "score": 63.85, "costs": -2.15, "simulationMode": [null, null, null, null, null], "rewards": [-2, -4, -2, -13, 87], "path": ["0", "0", "1", "2", "3", "4", "6"], "rt": [4415, 472, 81, 502, 191], "actions": ["up", "up", "up", "right", "right"], "actionTimes": [5815, 6812, 7403, 8421, 9128], "queries": {"click": {"state": {"target": ["6"], "time": [2543]}, "edge": {"target": [], "time": []}}, "mouseover": {"state": {"target": ["0", "0", "1", "7", "6"], "time": [1416, 2004, 2088, 2187, 2386]}, "edge": {"target": [], "time": []}}, "mouseout": {"state": {"target": ["6", "7", "12", "0", "0", "0", "1", "7", "6"], "time": [253, 521, 671, 854, 1453, 2037, 2139, 2207, 2659]}, "edge": {"target": [], "time": []}}}, "displayed_time": "15.40", "trialTime": 16466, "trial_type": "mouselab-mdp", "trial_index": 46, "time_elapsed": 1963988, "internal_node_id": "0.0-6.0-1.0-31.0"}}, {"uniqueid": "w55528401:a67592730", "current_trial": 47, "dateTime": 1693662305030, "trialdata": {"revealed_states": [], "clicked_states": ["3"], "num_clicks_accrued": [0, 0, 0, 0, 0, 0, 0, 0, 0, 0, 0, 0, 0], "stateRewards": ["", -2, -4, 6, 14, -34, 49, 36, -8, -3, 32, -4, 1, -2, 1, -8, -20, -71, -57, -7, -86, -62, -16, -2, -3, -5, 11, 23, -21, 53, 5, -5, 85, 73], "withholdReward": false, "trial_id": "mdp_trial_33", "block": "test", "trialIndex": 36, "score": 79.05, "costs": -0.95, "simulationMode": [null, null, null, null, null], "rewards": [-2, -3, -5, 5, 85], "path": ["0", "0", "23", "24", "25", "30", "32"], "rt": [2376, 208, 451, 35, 233], "actions": ["left", "left", "left", "down", "down"], "actionTimes": [3893, 4609, 5571, 6118, 6848], "queries": {"click": {"state": {"target": ["3"], "time": [2289]}, "edge": {"target": [], "time": []}}, "mouseover": {"state": {"target": ["10", "3"], "time": [1816, 1998]}, "edge": {"target": [], "time": []}}, "mouseout": {"state": {"target": ["15", "1", "28", "26", "25", "24", "23", "0", "10", "3", "11"], "time": [421, 483, 501, 800, 904, 948, 982, 1523, 1916, 2399, 8132]}, "edge": {"target": [], "time": []}}}, "displayed_time": "15.52", "trialTime": 16517, "trial_type": "mouselab-mdp", "trial_index": 47, "time_elapsed": 1980901, "internal_node_id": "0.0-6.0-1.0-32.0"}}, {"uniqueid": "w55528401:a67592730", "current_trial": 48, "dateTime": 1693662321733, "trialdata": {"revealed_states": [], "clicked_states": ["27"], "num_clicks_accrued": [0, 0, 0, 0, 0, 0, 0, 0, 0, 0, 0, 0, 0], "stateRewards": ["", 1, 1, -5, 10, -31, 73, 14, -8, -23, 63, -70, -1, 2, 8, 7, 25, -59, 27, -10, -40, -71, -15, -2, 3, -8, -5, -19, 77, -34, 7, 67, 63, 19], "withholdReward": false, "trial_id": "mdp_trial_34", "block": "test", "trialIndex": 37, "score": 40.85, "costs": -2.15, "simulationMode": [null, null, null, null, null], "rewards": [-1, 2, 8, 7, 27], "path": ["0", "0", "12", "13", "14", "15", "18"], "rt": [4179, 292, 97, 39, 567], "actions": ["right", "right", "right", "up", "left"], "actionTimes": [5801, 6603, 7241, 7800, 8859], "queries": {"click": {"state": {"target": ["27"], "time": [2355]}, "edge": {"target": [], "time": []}}, "mouseover": {"state": {"target": ["23", "26", "27"], "time": [1635, 1708, 2174]}, "edge": {"target": [], "time": []}}, "mouseout": {"state": {"target": ["12", "0", "23", "26", "27"], "time": [726, 1633, 1642, 2040, 2493]}, "edge": {"target": [], "time": []}}}, "displayed_time": "15.62", "trialTime": 16272, "trial_type": "mouselab-mdp", "trial_index": 48, "time_elapsed": 1997605, "internal_node_id": "0.0-6.0-1.0-33.0"}}, {"uniqueid": "w55528401:a67592730", "current_trial": 49, "dateTime": 1693662338854, "trialdata": {"revealed_states": [], "clicked_states": ["5"], "num_clicks_accrued": [0, 0, 0, 0, 0, 0, 0, 0, 0, 0, 0, 0, 0], "stateRewards": ["", -1, 4, -5, 9, 29, -75, -42, -16, 24, -28, -41, 2, -3, 1, 10, 60, 47, 55, -1, -53, 22, -40, 2, -3, -6, 4, -26, 44, 54, 15, -76, 42, 14], "withholdReward": false, "trial_id": "mdp_trial_35", "block": "test", "trialIndex": 38, "score": 33.85, "costs": -2.15, "simulationMode": [null, null, null, null, null], "rewards": [-1, 4, -5, 9, 29], "path": ["0", "0", "1", "2", "3", "4", "5"], "rt": [4758, 32, 119, 759, 115], "actions": ["up", "up", "up", "right", "up"], "actionTimes": [6327, 6874, 7511, 8783, 9406], "queries": {"click": {"state": {"target": ["5"], "time": [3009]}, "edge": {"target": [], "time": []}}, "mouseover": {"state": {"target": ["1", "2", "3", "5", "5"], "time": [2063, 2392, 2512, 2708, 2868]}, "edge": {"target": [], "time": []}}, "mouseout": {"state": {"target": ["16", "15", "13", "12", "12", "1", "2", "3", "5", "5", "18", "13", "19", "20", "20"], "time": [708, 759, 842, 891, 1029, 2325, 2444, 2643, 2775, 3091, 10657, 10876, 10972, 11004, 16671]}, "edge": {"target": [], "time": []}}}, "displayed_time": "15.57", "trialTime": 16737, "trial_type": "mouselab-mdp", "trial_index": 49, "time_elapsed": 2014726, "internal_node_id": "0.0-6.0-1.0-34.0"}}, {"uniqueid": "w55528401:a67592730", "current_trial": 50, "dateTime": 1693662356687, "trialdata": {"revealed_states": [], "clicked_states": ["16"], "num_clicks_accrued": [0, 0, 0, 0, 0, 0, 0, 0, 0, 0, 0, 0, 0], "stateRewards": ["", -1, 1, 8, -8, -49, 62, -78, 16, 28, -81, 78, -2, -3, -1, -4, 67, 49, -2, -13, -16, -39, 83, 1, -4, 4, -5, -20, 7, 84, 7, -32, -59, 19], "withholdReward": false, "trial_id": "mdp_trial_36", "block": "test", "trialIndex": 39, "score": 54.85, "costs": -2.15, "simulationMode": [null, null, null, null, null], "rewards": [-2, -3, -1, -4, 67], "path": ["0", "0", "12", "13", "14", "15", "16"], "rt": [4927, 165, 37, 103, 43], "actions": ["right", "right", "right", "up", "up"], "actionTimes": [7126, 7814, 8371, 8984, 9541], "queries": {"click": {"state": {"target": ["16"], "time": [3376]}, "edge": {"target": [], "time": []}}, "mouseover": {"state": {"target": ["13", "14", "17", "15", "16"], "time": [2598, 2632, 2904, 2950, 3199]}, "edge": {"target": [], "time": []}}, "mouseout": {"state": {"target": ["15", "12", "0", "13", "14", "17", "15", "16"], "time": [973, 1316, 2266, 2615, 2649, 2948, 2981, 3482]}, "edge": {"target": [], "time": []}}}, "displayed_time": "16.20", "trialTime": 17433, "trial_type": "mouselab-mdp", "trial_index": 50, "time_elapsed": 2032558, "internal_node_id": "0.0-6.0-1.0-35.0"}}, {"uniqueid": "w55528401:a67592730", "current_trial": 51, "dateTime": 1693662373276, "trialdata": {"revealed_states": [], "clicked_states": ["17"], "num_clicks_accrued": [0, 0, 0, 0, 0, 0, 0, 0, 0, 0, 0, 0, 0], "stateRewards": ["", -2, 4, -5, -12, 85, -24, -18, -15, -78, -22, 26, -1, -1, 2, 14, -45, 52, -23, 7, -33, 24, -6, -2, -4, 5, -7, -16, 36, -39, 5, 71, -87, -23], "withholdReward": false, "trial_id": "mdp_trial_37", "block": "test", "trialIndex": 40, "score": 63.85, "costs": -2.15, "simulationMode": [null, null, null, null, null], "rewards": [-1, -1, 2, 14, 52], "path": ["0", "0", "12", "13", "14", "15", "17"], "rt": [4751, 35, 103, 82, 480], "actions": ["right", "right", "right", "up", "right"], "actionTimes": [6011, 6559, 7177, 7773, 8772], "queries": {"click": {"state": {"target": ["17"], "time": [2174]}, "edge": {"target": [], "time": []}}, "mouseover": {"state": {"target": ["12", "13", "14", "17"], "time": [1374, 1546, 1657, 2040]}, "edge": {"target": [], "time": []}}, "mouseout": {"state": {"target": ["16", "7", "12", "0", "12", "13", "14", "17"], "time": [42, 391, 692, 1340, 1529, 1641, 1745, 2291]}, "edge": {"target": [], "time": []}}}, "displayed_time": "15.26", "trialTime": 16206, "trial_type": "mouselab-mdp", "trial_index": 51, "time_elapsed": 2049147, "internal_node_id": "0.0-6.0-1.0-36.0"}}, {"uniqueid": "w55528401:a67592730", "current_trial": 52, "dateTime": 1693662390114, "trialdata": {"revealed_states": [], "clicked_states": ["27"], "num_clicks_accrued": [0, 0, 0, 0, 0, 0, 0, 0, 0, 0, 0, 0, 0], "stateRewards": ["", -2, -3, -3, 9, 79, 67, 22, -15, -56, 27, -85, -2, 4, -4, -15, -20, -32, 60, 15, 71, 57, 17, 1, 2, -8, 15, -37, -81, 82, 15, 21, -3, 2], "withholdReward": false, "trial_id": "mdp_trial_38", "block": "test", "trialIndex": 41, "score": 81.85, "costs": -2.15, "simulationMode": [null, null, null, null, null], "rewards": [-2, 4, -4, 15, 71], "path": ["0", "0", "12", "13", "14", "19", "20"], "rt": [4542, 60, 580, 49, 140], "actions": ["right", "right", "right", "down", "right"], "actionTimes": [5744, 6317, 7435, 8004, 8661], "queries": {"click": {"state": {"target": ["27"], "time": [2230]}, "edge": {"target": [], "time": []}}, "mouseover": {"state": {"target": ["1", "10", "8", "9", "11", "27", "10", "2", "16"], "time": [1473, 1591, 1639, 1740, 1872, 1972, 2339, 2358, 2389]}, "edge": {"target": [], "time": []}}, "mouseout": {"state": {"target": ["7", "12", "1", "10", "8", "9", "11", "27", "10", "2", "16", "17"], "time": [492, 775, 1522, 1622, 1672, 1842, 1905, 2305, 2356, 2374, 2405, 10021]}, "edge": {"target": [], "time": []}}}, "displayed_time": "15.20", "trialTime": 16435, "trial_type": "mouselab-mdp", "trial_index": 52, "time_elapsed": 2065986, "internal_node_id": "0.0-6.0-1.0-37.0"}}, {"uniqueid": "w55528401:a67592730", "current_trial": 53, "dateTime": 1693662407329, "trialdata": {"revealed_states": [], "clicked_states": ["9"], "num_clicks_accrued": [0, 0, 0, 0, 0, 0, 0, 0, 0, 0, 0, 0, 0], "stateRewards": ["", 2, -3, 5, 11, -79, 54, 11, -9, -78, 33, 22, -2, -1, 2, 14, 43, 34, 1, 10, 49, -65, 39, -1, 1, -1, 3, -16, -2, 11, 2, 12, 48, -65], "withholdReward": false, "trial_id": "mdp_trial_39", "block": "test", "trialIndex": 42, "score": 46.85, "costs": -2.15, "simulationMode": [null, null, null, null, null], "rewards": [-1, 1, -1, 2, 48], "path": ["0", "0", "23", "24", "25", "30", "32"], "rt": [5869, 301, 89, 280, 91], "actions": ["left", "left", "left", "down", "down"], "actionTimes": [7317, 8146, 8745, 9536, 10146], "queries": {"click": {"state": {"target": ["9"], "time": [2103]}, "edge": {"target": [], "time": []}}, "mouseover": {"state": {"target": ["1", "9", "5", "20"], "time": [1455, 1991, 2273, 6874]}, "edge": {"target": [], "time": []}}, "mouseout": {"state": {"target": ["3", "0", "0", "1", "9", "5", "20", "21"], "time": [564, 907, 1223, 1474, 2240, 2291, 11289, 12089]}, "edge": {"target": [], "time": []}}}, "displayed_time": "15.45", "trialTime": 16826, "trial_type": "mouselab-mdp", "trial_index": 53, "time_elapsed": 2083200, "internal_node_id": "0.0-6.0-1.0-38.0"}}, {"uniqueid": "w55528401:a67592730", "current_trial": 54, "dateTime": 1693662424368, "trialdata": {"revealed_states": [], "clicked_states": ["29"], "num_clicks_accrued": [0, 0, 0, 0, 0, 0, 0, 0, 0, 0, 0, 0, 0], "stateRewards": ["", -2, -3, 1, -14, 48, -49, 67, -1, -35, -48, 3, -2, 1, -4, -5, 86, -84, 39, 1, 48, 41, -42, -1, -4, 2, -7, 18, -86, 17, 7, -9, 57, -69], "withholdReward": false, "trial_id": "mdp_trial_40", "block": "test", "trialIndex": 43, "score": 5.85, "costs": -2.15, "simulationMode": [null, null, null, null, null], "rewards": [-1, -4, 2, -7, 18], "path": ["0", "0", "23", "24", "25", "26", "27"], "rt": [7071, 288, 48, 8, 73], "actions": ["left", "left", "left", "up", "up"], "actionTimes": [8399, 9225, 9784, 10333, 10939], "queries": {"click": {"state": {"target": ["29"], "time": [2621]}, "edge": {"target": [], "time": []}}, "mouseover": {"state": {"target": ["14", "13", "12", "31", "25", "29", "26", "28", "12", "22"], "time": [1752, 1787, 1819, 1987, 2288, 2488, 2753, 2771, 2968, 3385]}, "edge": {"target": [], "time": []}}, "mouseout": {"state": {"target": ["18", "0", "14", "13", "12", "31", "25", "29", "26", "28", "12", "22", "14", "13", "21"], "time": [253, 1338, 1785, 1801, 1836, 2019, 2303, 2736, 2769, 2785, 3086, 3519, 11867, 11898, 12298]}, "edge": {"target": [], "time": []}}}, "displayed_time": "15.33", "trialTime": 16637, "trial_type": "mouselab-mdp", "trial_index": 54, "time_elapsed": 2100239, "internal_node_id": "0.0-6.0-1.0-39.0"}}, {"uniqueid": "w55528401:a67592730", "current_trial": 55, "dateTime": 1693662509606, "trialdata": {"rt": 85162, "response": {"Q0": "$-2 to $2", "Q1": "$-32 to $32", "Q2": "$-88 to $88", "Q3": "The cost for clicking on nodes varied between nodes.", "Q4": "Very motivated"}, "question_order": [0, 1, 2, 3, 4], "trial_id": "final_quiz_control", "trial_type": "survey-multi-choice", "trial_index": 55, "time_elapsed": 2185478, "internal_node_id": "0.0-6.0-2.0"}}, {"uniqueid": "w55528401:a67592730", "current_trial": 56, "dateTime": 1693662668107, "trialdata": {"rt": 158399, "response": {"Q0": "If the number revealed by the inspector was negative I would go the furthest direction away from that one. \n\nI mainly clicked the furthest out nodules each time which cost more but I think ultimately served me better. If it was above +15 I knew I'd be in the green going to that destination", "Q1": "I feel like I did get better as I went on, I switched up the nodules I inspected as in I went to different ends of the map and used law of averages to work out that the same one that had +81 before but not the next time", "Q2": "It was tricky at times because when it was a smaller positive number, eg +12 , it's hard to tell if that route would make gains or losses so was more of a lottery"}, "trial_id": "self_report_control", "trial_type": "survey-text", "trial_index": 56, "time_elapsed": 2343980, "internal_node_id": "0.0-6.0-3.0"}}, {"uniqueid": "w55528401:a67592730", "current_trial": 57, "dateTime": 1693662707726, "trialdata": {"rt": 39601, "response": {"Q0": "Strongly disagree", "Q1": "Neither disagree nor agree", "Q2": "Neither disagree nor agree", "Q3": "Neither disagree nor agree", "Q4": "Neither disagree nor agree", "Q5": "Neither disagree nor agree", "Q6": "Neither disagree nor agree"}, "question_order": [0, 1, 2, 3, 4, 5, 6], "trial_id": "self_report_2", "trial_type": "survey-multi-choice", "trial_index": 57, "time_elapsed": 2383599, "internal_node_id": "0.0-6.0-4.0"}}, {"uniqueid": "w55528401:a67592730", "current_trial": 58, "dateTime": 1693662733443, "trialdata": {"rt": 25666, "response": {"gender": "male", "age": "37", "colorblind": "0", "effort": "0"}, "trial_type": "survey-html-form", "trial_index": 58, "time_elapsed": 2409316, "internal_node_id": "0.0-6.0-5.0"}}, {"uniqueid": "w55528401:a67592730", "current_trial": 59, "dateTime": 1693662770323, "trialdata": {"rt": 36872, "response": {"Q0": "No, all fine", "Q1": "I've never done this before", "Q2": "Best of luck with all your research! (That was fun!)"}, "trial_type": "survey-text", "trial_index": 59, "time_elapsed": 2446196, "internal_node_id": "0.0-6.0-6.0"}}, {"uniqueid": "w55528401:a67592730", "current_trial": 60, "dateTime": 1693662807230, "trialdata": {"rt": 36891, "stimulus": "<h1>Completion Code Instructions (1/2)</h1>\n<br><br><br><br>\nYou have reached the end of the experiment! The completion code consists of two parts: (1) a code with 2 characters (2) a code with 6 characters. On this page, you will receive the second part of the code. The first part of the completion code will be on the next page.\n<br><br>\nThe second part of your completion code is: <b>EWEK22</b>\n<br><br>\nPlease note this down. Then, press 'Next' in order to find the first part of your completion code. Once the data has been saved, you will receive this code either in this window or in the original browser window where you started the experiment.\n <br><br>\n<h2 style='color: red;'>Note: this is <strong>NOT</strong> the full completion code. Copy this down and click 'Next' to get the full completion code on the next page.</h2>", "response": 0, "trial_type": "html-button-response", "trial_index": 60, "time_elapsed": 2483103, "internal_node_id": "0.0-6.0-7.0"}}, {"uniqueid": "w55528401:a67592730", "current_trial": 61, "dateTime": 1693662808240, "trialdata": {"success": true, "trial_type": "fullscreen", "trial_index": 61, "time_elapsed": 2484113, "internal_node_id": "0.0-7.0"}}], "questiondata": {"params": {"CODE": "C6DMOQA6", "MIN_TIME": 14, "inspectCost": 1, "startTime": "Sat Sep 02 2023 14:12:03 GMT+0100 (British Summer Time)", "bonusRate": 0.002, "variance": "1_2_4_8_44", "branching": "31123"}, "final_score": 1090.75}, "eventdata": [{"eventtype": "initialized", "value": null, "timestamp": 1693660322903, "interval": 0}, {"eventtype": "window_resize", "value": [1032, 608], "timestamp": 1693660322903, "interval": 0}, {"eventtype": "window_resize", "value": [1032, 608], "timestamp": 1693660323224, "interval": 321}, {"eventtype": "focus", "value": "off", "timestamp": 1693660362169, "interval": 38945}, {"eventtype": "focus", "value": "on", "timestamp": 1693660366223, "interval": 4054}, {"eventtype": "window_resize", "value": [1280, 720], "timestamp": 1693660568372, "interval": 202149}, {"eventtype": "window_resize", "value": [1032, 608], "timestamp": 1693660608067, "interval": 39695}, {"eventtype": "focus", "value": "off", "timestamp": 1693660609053, "interval": 986}, {"eventtype": "focus", "value": "on", "timestamp": 1693660618778, "interval": 9725}, {"eventtype": "focus", "value": "off", "timestamp": 1693660619681, "interval": 903}, {"eventtype": "focus", "value": "on", "timestamp": 1693660636518, "interval": 16837}, {"eventtype": "focus", "value": "off", "timestamp": 1693660638658, "interval": 2140}, {"eventtype": "focus", "value": "on", "timestamp": 1693660653790, "interval": 15132}, {"eventtype": "window_resize", "value": [1280, 622], "timestamp": 1693660655065, "interval": 1275}, {"eventtype": "focus", "value": "off", "timestamp": 1693660778236, "interval": 123171}, {"eventtype": "focus", "value": "on", "timestamp": 1693660784926, "interval": 6690}, {"eventtype": "focus", "value": "off", "timestamp": 1693660878769, "interval": 93843}, {"eventtype": "focus", "value": "on", "timestamp": 1693660884792, "interval": 6023}, {"eventtype": "focus", "value": "off", "timestamp": 1693660900639, "interval": 15847}, {"eventtype": "focus", "value": "on", "timestamp": 1693660905626, "interval": 4987}, {"eventtype": "focus", "value": "off", "timestamp": 1693660910150, "interval": 4524}, {"eventtype": "focus", "value": "on", "timestamp": 1693660913588, "interval": 3438}, {"eventtype": "focus", "value": "off", "timestamp": 1693661102049, "interval": 188461}, {"eventtype": "focus", "value": "on", "timestamp": 1693661104659, "interval": 2610}, {"eventtype": "focus", "value": "off", "timestamp": 1693661194620, "interval": 89961}, {"eventtype": "focus", "value": "on", "timestamp": 1693661325248, "interval": 130628}, {"eventtype": "focus", "value": "off", "timestamp": 1693661421611, "interval": 96363}, {"eventtype": "focus", "value": "on", "timestamp": 1693661421611, "interval": 0}, {"eventtype": "window_resize", "value": [1280, 720], "timestamp": 1693661423919, "interval": 2308}, {"eventtype": "window_resize", "value": [1280, 622], "timestamp": 1693661529454, "interval": 105535}, {"eventtype": "focus", "value": "off", "timestamp": 1693661529917, "interval": 463}, {"eventtype": "focus", "value": "on", "timestamp": 1693661537320, "interval": 7403}, {"eventtype": "focus", "value": "off", "timestamp": 1693661542729, "interval": 5409}, {"eventtype": "focus", "value": "on", "timestamp": 1693661562694, "interval": 19965}, {"eventtype": "focus", "value": "off", "timestamp": 1693661568772, "interval": 6078}, {"eventtype": "focus", "value": "on", "timestamp": 1693661576385, "interval": 7613}, {"eventtype": "focus", "value": "off", "timestamp": 1693661601583, "interval": 25198}, {"eventtype": "focus", "value": "on", "timestamp": 1693661607718, "interval": 6135}, {"eventtype": "window_resize", "value": [1032, 608], "timestamp": 1693662449165, "interval": 841447}, {"eventtype": "focus", "value": "off", "timestamp": 1693662482746, "interval": 33581}, {"eventtype": "focus", "value": "on", "timestamp": 1693662503822, "interval": 21076}, {"eventtype": "focus", "value": "off", "timestamp": 1693662795193, "interval": 291371}, {"eventtype": "focus", "value": "on", "timestamp": 1693662807171, "interval": 11978}], "useragent": "Mozilla/5.0 (Windows NT 10.0; Win64; x64) AppleWebKit/537.36 (KHTML, like Gecko) Chrome/116.0.0.0 Safari/537.36", "mode": "live", "id": "w55528401:a67592730", "status": "user data saved", "Beginhit": "2023-09-02 13:12:01.593029", "Beginexp": "2023-09-02 13:16:09.86148", "Endhit": "2023-09-02 13:53:29.10954", "psiturkStatus": 3, "browser": "<redacted>", "platform": "windows", "language": "en-GB"}