{"condition": 1, "counterbalance": 0, "assignmentId": "a33934982", "workerId": "w72210178", "hitId": "h11840159", "currenttrial": 12, "bonus": 0, "data": [{"uniqueid": "w72210178:a33934982", "current_trial": 0, "dateTime": 1693568686490, "trialdata": {"success": true, "trial_type": "fullscreen", "trial_index": 0, "time_elapsed": 5608, "internal_node_id": "0.0-0.0"}}, {"uniqueid": "w72210178:a33934982", "current_trial": 1, "dateTime": 1693568695161, "trialdata": {"view_history": [{"page_index": 0, "viewing_time": 8668}], "rt": 8668, "trial_id": "exp_instructions_misaligned", "trial_type": "instructions", "trial_index": 1, "time_elapsed": 14280, "internal_node_id": "0.0-1.0"}}, {"uniqueid": "w72210178:a33934982", "current_trial": 2, "dateTime": 1693568824414, "trialdata": {"view_history": [{"page_index": 0, "viewing_time": 52139}, {"page_index": 1, "viewing_time": 39676}, {"page_index": 2, "viewing_time": 12553}, {"page_index": 3, "viewing_time": 24856}], "rt": 129235, "trial_id": "mouselab_instructions_1_misaligned", "trial_type": "instructions", "trial_index": 2, "time_elapsed": 143521, "internal_node_id": "0.0-2.0-1.0"}}, {"uniqueid": "w72210178:a33934982", "current_trial": 3, "dateTime": 1693568848816, "trialdata": {"revealed_states": [], "clicked_states": [], "num_clicks_accrued": [0, 0, 0, 0, 0, 0, 0, 0, 0, 0, 0, 0, 0], "stateRewards": ["", -10, 10, -10, -10, 10, -10, -10, 10, -10, -10, 10, -10, 10, -10, -10, -10, 10, 10, 10, -10, 10, -10, -10, -10, 10, 10, -10, -10, -10, 10, -10, -10, -10], "withholdReward": false, "trial_id": "practice_1", "block": "test", "trialIndex": 0, "score": -26.5, "costs": 0, "simulationMode": [null, null, null, null, null], "rewards": [-10, 10, -10, -10, -10], "path": ["0", "0", "1", "2", "3", "4", "6"], "rt": [2625, 1973, 1201, 1514, 1541], "actions": ["up", "up", "up", "right", "right"], "actionTimes": [9816, 12313, 14048, 16078, 18134], "queries": {"click": {"state": {"target": [], "time": []}, "edge": {"target": [], "time": []}}, "mouseover": {"state": {"target": [], "time": []}, "edge": {"target": [], "time": []}}, "mouseout": {"state": {"target": ["1", "0"], "time": [5371, 7208]}, "edge": {"target": [], "time": []}}}, "displayed_time": "18.66", "trialTime": 23569, "trial_type": "mouselab-mdp", "trial_index": 3, "time_elapsed": 167934, "internal_node_id": "0.0-2.0-2.0-0.0"}}, {"uniqueid": "w72210178:a33934982", "current_trial": 4, "dateTime": 1693568864249, "trialdata": {"revealed_states": [], "clicked_states": [], "num_clicks_accrued": [0, 0, 0, 0, 0, 0, 0, 0, 0, 0, 0, 0, 0], "stateRewards": ["", 10, -10, 10, -10, -10, -10, -10, 10, -10, 10, 10, 10, 10, -10, 10, -10, -10, 10, -10, 10, -10, -10, 10, 10, 10, -10, -10, -10, -10, -10, 10, -10, 10], "withholdReward": false, "trial_id": "practice_2", "block": "test", "trialIndex": 1, "score": -6.5, "costs": 0, "simulationMode": [null, null, null, null, null], "rewards": [10, 10, -10, -10, -10], "path": ["0", "0", "12", "13", "14", "19", "21"], "rt": [1493, 645, 541, 458, 423], "actions": ["right", "right", "right", "down", "down"], "actionTimes": [5073, 6239, 7284, 8252, 9170], "queries": {"click": {"state": {"target": [], "time": []}, "edge": {"target": [], "time": []}}, "mouseover": {"state": {"target": [], "time": []}, "edge": {"target": [], "time": []}}, "mouseout": {"state": {"target": ["1", "23", "24", "29", "2", "1", "0"], "time": [3040, 12706, 12723, 12856, 13139, 13406, 13455]}, "edge": {"target": [], "time": []}}}, "displayed_time": "9.66", "trialTime": 15158, "trial_type": "mouselab-mdp", "trial_index": 4, "time_elapsed": 183368, "internal_node_id": "0.0-2.0-2.0-1.0"}}, {"uniqueid": "w72210178:a33934982", "current_trial": 5, "dateTime": 1693568938857, "trialdata": {"view_history": [{"page_index": 0, "viewing_time": 59999}, {"page_index": 1, "viewing_time": 14587}], "rt": 74602, "trial_id": "mouselab_instructions_2_misaligned", "trial_type": "instructions", "trial_index": 5, "time_elapsed": 257973, "internal_node_id": "0.0-2.0-3.0"}}, {"uniqueid": "w72210178:a33934982", "current_trial": 6, "dateTime": 1693569101352, "trialdata": {"rt": 162264, "response": {"Q0": "The cost for clicking on nodes may vary between nodes.", "Q1": "The better I perform the higher my bonus will be.", "Q2": "No, the amount of cash at each node of the web may be different each time.", "Q3": "To get the highest total score.", "Q4": "Only after moving the spider.", "Q5": "3 seconds"}, "question_order": [0, 1, 2, 3, 4, 5], "correct": {"Q0": "The cost for clicking on nodes may vary between nodes.", "Q1": "The better I perform the higher my bonus will be.", "Q2": "No, the amount of cash at each node of the web may be different each time.", "Q3": "To get the highest total score.", "Q4": "Only before moving the spider.", "Q5": "3 seconds"}, "trial_id": "mouselab_quiz_misaligned", "trial_type": "survey-multi-choice", "trial_index": 6, "time_elapsed": 420461, "internal_node_id": "0.0-2.0-4.0"}}, {"uniqueid": "w72210178:a33934982", "current_trial": 7, "dateTime": 1693569113683, "trialdata": {"success": true, "trial_type": "fullscreen", "trial_index": 7, "time_elapsed": 432802, "internal_node_id": "0.0-2.1-0.1-0.1"}}, {"uniqueid": "w72210178:a33934982", "current_trial": 8, "dateTime": 1693569211703, "trialdata": {"view_history": [{"page_index": 0, "viewing_time": 33626}, {"page_index": 1, "viewing_time": 43784}, {"page_index": 2, "viewing_time": 14042}, {"page_index": 3, "viewing_time": 6550}], "rt": 98013, "trial_id": "mouselab_instructions_1_misaligned", "trial_type": "instructions", "trial_index": 8, "time_elapsed": 530819, "internal_node_id": "0.0-2.1-1.1"}}, {"uniqueid": "w72210178:a33934982", "current_trial": 9, "dateTime": 1693569221634, "trialdata": {"revealed_states": [], "clicked_states": [], "num_clicks_accrued": [0, 0, 0, 0, 0, 0, 0, 0, 0, 0, 0, 0, 0], "stateRewards": ["", -10, 10, -10, -10, 10, -10, -10, 10, -10, -10, 10, -10, 10, -10, -10, -10, 10, 10, 10, -10, 10, -10, -10, -10, 10, 10, -10, -10, -10, 10, -10, -10, -10], "withholdReward": false, "trial_id": "practice_1", "block": "test", "trialIndex": 2, "score": -26.5, "costs": 0, "simulationMode": [null, null, null, null, null], "rewards": [-10, 10, -10, -10, -10], "path": ["0", "0", "1", "2", "3", "4", "6"], "rt": [1022, 27, 93, 49, 75], "actions": ["up", "up", "up", "right", "right"], "actionTimes": [3169, 3717, 4319, 4891, 5487], "queries": {"click": {"state": {"target": [], "time": []}, "edge": {"target": [], "time": []}}, "mouseover": {"state": {"target": ["0"], "time": [2254]}, "edge": {"target": [], "time": []}}, "mouseout": {"state": {"target": ["12", "0"], "time": [1153, 1838]}, "edge": {"target": [], "time": []}}}, "displayed_time": "6.01", "trialTime": 9451, "trial_type": "mouselab-mdp", "trial_index": 9, "time_elapsed": 540752, "internal_node_id": "0.0-2.1-2.1-0.1"}}, {"uniqueid": "w72210178:a33934982", "current_trial": 10, "dateTime": 1693569228841, "trialdata": {"revealed_states": [], "clicked_states": [], "num_clicks_accrued": [0, 0, 0, 0, 0, 0, 0, 0, 0, 0, 0, 0, 0], "stateRewards": ["", 10, -10, 10, -10, -10, -10, -10, 10, -10, 10, 10, 10, 10, -10, 10, -10, -10, 10, -10, 10, -10, -10, 10, 10, 10, -10, -10, -10, -10, -10, 10, -10, 10], "withholdReward": false, "trial_id": "practice_2", "block": "test", "trialIndex": 3, "score": 33.5, "costs": 0, "simulationMode": [null, null, null, null, null], "rewards": [10, -10, 10, 10, 10], "path": ["0", "0", "1", "2", "3", "8", "11"], "rt": [398, 111, 60, 72, 82], "actions": ["up", "up", "up", "left", "left"], "actionTimes": [3308, 3929, 4511, 5090, 5685], "queries": {"click": {"state": {"target": [], "time": []}, "edge": {"target": [], "time": []}}, "mouseover": {"state": {"target": [], "time": []}, "edge": {"target": [], "time": []}}, "mouseout": {"state": {"target": ["0", "0", "0"], "time": [572, 2197, 6630]}, "edge": {"target": [], "time": []}}}, "displayed_time": "6.20", "trialTime": 6973, "trial_type": "mouselab-mdp", "trial_index": 10, "time_elapsed": 547960, "internal_node_id": "0.0-2.1-2.1-1.1"}}, {"uniqueid": "w72210178:a33934982", "current_trial": 11, "dateTime": 1693569250566, "trialdata": {"view_history": [{"page_index": 0, "viewing_time": 14488}, {"page_index": 1, "viewing_time": 7234}], "rt": 21722, "trial_id": "mouselab_instructions_2_misaligned", "trial_type": "instructions", "trial_index": 11, "time_elapsed": 569685, "internal_node_id": "0.0-2.1-3.1"}}], "questiondata": {"params": {"CODE": "C6DMOQA6", "MIN_TIME": 14, "inspectCost": 1, "startTime": "Fri Sep 01 2023 12:44:40 GMT+0100 (British Summer Time)", "bonusRate": 0.002, "variance": "1_2_4_8_44", "branching": "31123"}}, "eventdata": [{"eventtype": "initialized", "value": null, "timestamp": 1693568679548, "interval": 0}, {"eventtype": "window_resize", "value": [1032, 600], "timestamp": 1693568679548, "interval": 0}, {"eventtype": "window_resize", "value": [1032, 600], "timestamp": 1693568679928, "interval": 380}, {"eventtype": "window_resize", "value": [1280, 720], "timestamp": 1693568685747, "interval": 5819}, {"eventtype": "focus", "value": "off", "timestamp": 1693569109747, "interval": 424000}, {"eventtype": "focus", "value": "on", "timestamp": 1693569109750, "interval": 3}, {"eventtype": "window_resize", "value": [1032, 600], "timestamp": 1693569110134, "interval": 384}, {"eventtype": "window_resize", "value": [1280, 720], "timestamp": 1693569112923, "interval": 2789}, {"eventtype": "window_resize", "value": [1032, 600], "timestamp": 1693569273013, "interval": 160090}], "useragent": "Mozilla/5.0 (Windows NT 10.0; Win64; x64) AppleWebKit/537.36 (KHTML, like Gecko) Chrome/116.0.0.0 Safari/537.36", "mode": "live", "id": "w72210178:a33934982", "status": "user data saved", "Beginhit": "2023-09-01 11:44:43.132803", "Beginexp": "2023-09-01 11:44:52.462438", "Endhit": null, "psiturkStatus": 6, "browser": "<redacted>", "platform": "windows", "language": "en-GB", "excludeReason": "quizfail"}