{"condition": 0, "counterbalance": 0, "assignmentId": "a48064732", "workerId": "w16622391", "hitId": "h70653175", "currenttrial": 9, "bonus": 0, "data": [{"uniqueid": "w16622391:a48064732", "current_trial": 0, "dateTime": 1691484000129, "trialdata": {"success": true, "trial_type": "fullscreen", "trial_index": 0, "time_elapsed": 1592, "internal_node_id": "0.0-0.0"}}, {"uniqueid": "w16622391:a48064732", "current_trial": 1, "dateTime": 1691484000749, "trialdata": {"view_history": [{"page_index": 0, "viewing_time": 617}], "rt": 618, "trial_id": "exp_instructions_misaligned", "trial_type": "instructions", "trial_index": 1, "time_elapsed": 2212, "internal_node_id": "0.0-1.0"}}, {"uniqueid": "w16622391:a48064732", "current_trial": 2, "dateTime": 1691484003046, "trialdata": {"success": true, "trial_type": "fullscreen", "trial_index": 2, "time_elapsed": 4509, "internal_node_id": "0.0-2.0-0.0"}}, {"uniqueid": "w16622391:a48064732", "current_trial": 3, "dateTime": 1691484012334, "trialdata": {"view_history": [{"page_index": 0, "viewing_time": 3071}, {"page_index": 1, "viewing_time": 4726}, {"page_index": 2, "viewing_time": 970}, {"page_index": 3, "viewing_time": 520}], "rt": 9287, "trial_id": "mouselab_instructions_1_misaligned", "trial_type": "instructions", "trial_index": 3, "time_elapsed": 13797, "internal_node_id": "0.0-2.0-1.0"}}, {"uniqueid": "w16622391:a48064732", "current_trial": 4, "dateTime": 1691484018342, "trialdata": {"revealed_states": [], "clicked_states": ["18"], "num_clicks_accrued": [0, 0, 0, 0, 0, 0, 0, 0, 0, 0, 0, 0, 0], "stateRewards": ["", 10, -10, -10, 10, -10, -10, 10, 10, 10, -10, 10, 10, -10, 10, -10, -10, 10, -10, 10, 10, 10, -10, -10, -10, 10, -10, -10, -10, 10, 10, 10, 10, -10], "withholdReward": false, "trial_id": "practice_1", "block": "test", "trialIndex": 0, "score": -7, "costs": -0.5, "simulationMode": [null, null, null, null, null, null], "rewards": [10, -10, 10, -10, -10], "path": ["0", "0", "12", "13", "14", "15", "16"], "rt": [1326, 167, 106, 41, 1, 110], "actions": ["right", "right", "right", "right", "up", "up"], "actionTimes": [2114, 2284, 2908, 3474, 3987, 4626], "queries": {"click": {"state": {"target": ["18"], "time": [1901]}, "edge": {"target": [], "time": []}}, "mouseover": {"state": {"target": ["12", "13", "18"], "time": [865, 1217, 1733]}, "edge": {"target": [], "time": []}}, "mouseout": {"state": {"target": ["0", "0", "12", "13", "18"], "time": [null, 834, 903, 1232, 5347]}, "edge": {"target": [], "time": []}}}, "displayed_time": "5.13", "trialTime": 5586, "trial_type": "mouselab-mdp", "trial_index": 4, "time_elapsed": 19805, "internal_node_id": "0.0-2.0-2.0-0.0"}}, {"uniqueid": "w16622391:a48064732", "current_trial": 5, "dateTime": 1691484026329, "trialdata": {"revealed_states": [], "clicked_states": [], "num_clicks_accrued": [0, 0, 0, 0, 0, 0, 0, 0, 0, 0, 0, 0, 0], "stateRewards": ["", -10, -10, -10, -10, 10, 10, 10, -10, -10, -10, 10, -10, -10, 10, 10, -10, 10, 10, 10, 10, 10, -10, 10, 10, 10, 10, 10, 10, 10, -10, 10, -10, -10], "withholdReward": false, "trial_id": "practice_2", "block": "test", "trialIndex": 1, "score": -6.5, "costs": 0, "simulationMode": [null, null, null, null, null], "rewards": [-10, -10, 10, 10, -10], "path": ["0", "0", "12", "13", "14", "15", "16"], "rt": [28, 146, 88, 80, 3930], "actions": ["right", "right", "right", "up", "up"], "actionTimes": [932, 1597, 2205, 2797, 7245], "queries": {"click": {"state": {"target": [], "time": []}, "edge": {"target": [], "time": []}}, "mouseover": {"state": {"target": [], "time": []}, "edge": {"target": [], "time": []}}, "mouseout": {"state": {"target": ["12", "0", "0", "1"], "time": [451, 700, 6036, 6398]}, "edge": {"target": [], "time": []}}}, "displayed_time": "7.75", "trialTime": 7760, "trial_type": "mouselab-mdp", "trial_index": 5, "time_elapsed": 27792, "internal_node_id": "0.0-2.0-2.0-1.0"}}, {"uniqueid": "w16622391:a48064732", "current_trial": 6, "dateTime": 1691484029067, "trialdata": {"view_history": [{"page_index": 0, "viewing_time": 1830}, {"page_index": 1, "viewing_time": 906}], "rt": 2736, "trial_id": "mouselab_instructions_2_misaligned", "trial_type": "instructions", "trial_index": 6, "time_elapsed": 30530, "internal_node_id": "0.0-2.0-3.0"}}, {"uniqueid": "w16622391:a48064732", "current_trial": 7, "dateTime": 1691484036646, "trialdata": {"rt": 7576, "response": {"Q0": "The cost for clicking on nodes may vary between nodes.", "Q1": "The better I perform the higher my bonus will be.", "Q2": "No, the amount of cash at each node of the web may be different each time.", "Q3": "To get the highest total score.", "Q4": "Only before moving the spider.", "Q5": "3 seconds"}, "question_order": [0, 1, 2, 3, 4, 5], "correct": {"Q0": "The cost for clicking on nodes may vary between nodes.", "Q1": "The better I perform the higher my bonus will be.", "Q2": "No, the amount of cash at each node of the web may be different each time.", "Q3": "To get the highest total score.", "Q4": "Only before moving the spider.", "Q5": "3 seconds"}, "trial_id": "mouselab_quiz_misaligned", "trial_type": "survey-multi-choice", "trial_index": 7, "time_elapsed": 38109, "internal_node_id": "0.0-2.0-4.0"}}, {"uniqueid": "w16622391:a48064732", "current_trial": 8, "dateTime": 1691484037781, "trialdata": {"rt": 1131, "stimulus": "\n<h1> Get ready to start the game! </h1>\n\nThank you for reading the instructions. Get ready start with the 40 rounds of this game.\n<br><br>\nIf you need to take a break, feel free to take one after the end of a round, before continuing to the next one.\n<br><br>\nRemember, the more money the spider gets, the bigger your bonus will be!\n<br><br>\n<div style='text-align: center;'>Press <code>space</code> to begin.</div>\n\n<br><br>\n(If, at any point, the <code>space</code> key does not take you to the next page, click once on the text and try again.)", "response": " ", "trial_id": "mdp_ready", "trial_type": "html-keyboard-response", "trial_index": 8, "time_elapsed": 39244, "internal_node_id": "0.0-4.0-0.0"}}], "questiondata": {"params": {"CODE": "C6DMOQA6", "MIN_TIME": 14, "inspectCost": 1, "startTime": "Tue Aug 08 2023 10:39:57 GMT+0200 (Central European Summer Time)", "bonusRate": 0.002, "variance": "1_2_4_8_44", "branching": "31123"}}, "eventdata": [{"eventtype": "initialized", "value": null, "timestamp": 1691483997504, "interval": 0}, {"eventtype": "window_resize", "value": [1024, 740], "timestamp": 1691483997504, "interval": 0}, {"eventtype": "window_resize", "value": [1024, 740], "timestamp": 1691483997825, "interval": 321}, {"eventtype": "window_resize", "value": [1440, 900], "timestamp": 1691483999368, "interval": 1543}], "useragent": "Mozilla/5.0 (Macintosh; Intel Mac OS X 10_15_7) AppleWebKit/537.36 (KHTML, like Gecko) Chrome/115.0.0.0 Safari/537.36", "mode": "debug", "id": "w16622391:a48064732", "status": "user data saved", "Beginhit": "2023-08-08 08:39:56.647561", "Beginexp": "2023-08-08 08:40:00.274717", "Endhit": null, "psiturkStatus": 2, "browser": "<redacted>", "platform": "macos", "language": "en-US", "excludeReason": "quizfail"}