{"condition": 1, "counterbalance": 0, "assignmentId": "a79952852", "workerId": "w79287731", "hitId": "h67488364", "currenttrial": 56, "bonus": 0, "data": [{"uniqueid": "w79287731:a79952852", "current_trial": 0, "dateTime": 1691071538320, "trialdata": {"success": true, "trial_type": "fullscreen", "trial_index": 0, "time_elapsed": 21235, "internal_node_id": "0.0-0.0"}}, {"uniqueid": "w79287731:a79952852", "current_trial": 1, "dateTime": 1691071581349, "trialdata": {"view_history": [{"page_index": 0, "viewing_time": 43016}], "rt": 43017, "trial_id": "exp_instructions_misaligned", "trial_type": "instructions", "trial_index": 1, "time_elapsed": 64265, "internal_node_id": "0.0-1.0"}}, {"uniqueid": "w79287731:a79952852", "current_trial": 2, "dateTime": 1691071585893, "trialdata": {"success": true, "trial_type": "fullscreen", "trial_index": 2, "time_elapsed": 68809, "internal_node_id": "0.0-2.0-0.0"}}, {"uniqueid": "w79287731:a79952852", "current_trial": 3, "dateTime": 1691071741346, "trialdata": {"view_history": [{"page_index": 0, "viewing_time": 55519}, {"page_index": 1, "viewing_time": 567}, {"page_index": 2, "viewing_time": 6722}, {"page_index": 1, "viewing_time": 50656}, {"page_index": 2, "viewing_time": 17830}, {"page_index": 3, "viewing_time": 24153}], "rt": 155448, "trial_id": "mouselab_instructions_1_misaligned", "trial_type": "instructions", "trial_index": 3, "time_elapsed": 224261, "internal_node_id": "0.0-2.0-1.0"}}, {"uniqueid": "w79287731:a79952852", "current_trial": 4, "dateTime": 1691071802899, "trialdata": {"revealed_states": [], "clicked_states": [], "num_clicks_accrued": [0, 0, 0, 0, 0, 0, 0, 0, 0, 0, 0, 0, 0], "stateRewards": ["", 10, -10, 10, -10, 10, 10, 10, 10, 10, 10, 10, -10, 10, 10, -10, 10, -10, 10, 10, -10, 10, -10, -10, 10, 10, 10, -10, -10, 10, -10, 10, 10, -10], "withholdReward": false, "trial_id": "practice_1", "block": "test", "trialIndex": 0, "score": 13.5, "costs": 0, "simulationMode": [null, null, null, null, null], "rewards": [10, -10, 10, -10, 10], "path": ["0", "0", "1", "2", "3", "4", "5"], "rt": [35806, 188, 67, 618, 873], "actions": ["up", "up", "up", "right", "up"], "actionTimes": [52652, 53345, 53906, 55041, 56426], "queries": {"click": {"state": {"target": [], "time": []}, "edge": {"target": [], "time": []}}, "mouseover": {"state": {"target": ["1", "0"], "time": [51075, 51530]}, "edge": {"target": [], "time": []}}, "mouseout": {"state": {"target": ["0", "1"], "time": [21237, 51365]}, "edge": {"target": [], "time": []}}}, "displayed_time": "56.94", "trialTime": 60405, "trial_type": "mouselab-mdp", "trial_index": 4, "time_elapsed": 285814, "internal_node_id": "0.0-2.0-2.0-0.0"}}, {"uniqueid": "w79287731:a79952852", "current_trial": 5, "dateTime": 1691071818479, "trialdata": {"revealed_states": [], "clicked_states": [], "num_clicks_accrued": [0, 0, 0, 0, 0, 0, 0, 0, 0, 0, 0, 0, 0], "stateRewards": ["", 10, -10, 10, -10, -10, -10, -10, 10, 10, 10, 10, 10, -10, 10, -10, -10, -10, -10, 10, -10, -10, 10, -10, -10, 10, -10, -10, 10, -10, 10, 10, -10, 10], "withholdReward": false, "trial_id": "practice_2", "block": "test", "trialIndex": 1, "score": 33.5, "costs": 0, "simulationMode": [null, null, null, null, null], "rewards": [10, -10, 10, 10, 10], "path": ["0", "0", "1", "2", "3", "8", "11"], "rt": [3302, 235, 27, 783, 201], "actions": ["up", "up", "up", "left", "left"], "actionTimes": [5307, 6050, 6590, 7881, 8580], "queries": {"click": {"state": {"target": [], "time": []}, "edge": {"target": [], "time": []}}, "mouseover": {"state": {"target": [], "time": []}, "edge": {"target": [], "time": []}}, "mouseout": {"state": {"target": ["0", "12"], "time": [12603, 12639]}, "edge": {"target": [], "time": []}}}, "displayed_time": "9.08", "trialTime": 15308, "trial_type": "mouselab-mdp", "trial_index": 5, "time_elapsed": 301394, "internal_node_id": "0.0-2.0-2.0-1.0"}}, {"uniqueid": "w79287731:a79952852", "current_trial": 6, "dateTime": 1691071852709, "trialdata": {"view_history": [{"page_index": 0, "viewing_time": 25100}, {"page_index": 1, "viewing_time": 9126}], "rt": 34227, "trial_id": "mouselab_instructions_2_misaligned", "trial_type": "instructions", "trial_index": 6, "time_elapsed": 335625, "internal_node_id": "0.0-2.0-3.0"}}, {"uniqueid": "w79287731:a79952852", "current_trial": 7, "dateTime": 1691071891591, "trialdata": {"rt": 38783, "response": {"Q0": "The cost for clicking on nodes may vary between nodes.", "Q1": "The better I perform the higher my bonus will be.", "Q2": "No, the amount of cash at each node of the web may be different each time.", "Q3": "To get the highest total score.", "Q4": "Only before moving the spider.", "Q5": "3 seconds"}, "question_order": [0, 1, 2, 3, 4, 5], "correct": {"Q0": "The cost for clicking on nodes may vary between nodes.", "Q1": "The better I perform the higher my bonus will be.", "Q2": "No, the amount of cash at each node of the web may be different each time.", "Q3": "To get the highest total score.", "Q4": "Only before moving the spider.", "Q5": "3 seconds"}, "trial_id": "mouselab_quiz_misaligned", "trial_type": "survey-multi-choice", "trial_index": 7, "time_elapsed": 374507, "internal_node_id": "0.0-2.0-4.0"}}, {"uniqueid": "w79287731:a79952852", "current_trial": 8, "dateTime": 1691071902961, "trialdata": {"rt": 11360, "stimulus": "\n<h1> Get ready to start the game! </h1>\n\nThank you for reading the instructions. Get ready start with the 40 rounds of this game.\n<br><br>\nIf you need to take a break, feel free to take one after the end of a round, before continuing to the next one.\n<br><br>\nRemember, the more money the spider gets, the bigger your bonus will be!\n<br><br>\n<div style='text-align: center;'>Press <code>space</code> to begin.</div>\n\n<br><br>\n(If, at any point, the <code>space</code> key does not take you to the next page, click once on the text and try again.)", "response": " ", "trial_id": "mdp_ready", "trial_type": "html-keyboard-response", "trial_index": 8, "time_elapsed": 385877, "internal_node_id": "0.0-4.0-0.0"}}, {"uniqueid": "w79287731:a79952852", "current_trial": 9, "dateTime": 1691071922076, "trialdata": {"revealed_states": [], "clicked_states": [], "num_clicks_accrued": [0, 0, 0, 0, 0, 0, 0, 0, 0, 0, 0, 0, 0], "stateRewards": ["", -2, -4, -8, 8, 63, -50, -19, -7, -17, -31, 31, 1, 3, -5, 12, -35, -63, -29, -4, -17, -75, -79, -2, -3, -2, 8, -3, -85, 10, -2, -82, -82, 56], "withholdReward": false, "trial_id": "mdp_trial_1", "block": "test", "trialIndex": 2, "score": -56, "costs": 0, "simulationMode": [null, null, null, null, null], "rewards": [-2, -4, -8, 8, -50], "path": ["0", "0", "1", "2", "3", "4", "6"], "rt": [4105, 124, 152, 55, 1], "actions": ["up", "up", "up", "right", "right"], "actionTimes": [6255, 6898, 7559, 8126, 8655], "queries": {"click": {"state": {"target": [], "time": []}, "edge": {"target": [], "time": []}}, "mouseover": {"state": {"target": [], "time": []}, "edge": {"target": [], "time": []}}, "mouseout": {"state": {"target": ["3", "2", "1"], "time": [943, 993, 1143]}, "edge": {"target": [], "time": []}}}, "displayed_time": "16.15", "trialTime": 18711, "trial_type": "mouselab-mdp", "trial_index": 9, "time_elapsed": 404991, "internal_node_id": "0.0-4.0-1.0-0.0"}}, {"uniqueid": "w79287731:a79952852", "current_trial": 10, "dateTime": 1691071942068, "trialdata": {"revealed_states": [], "clicked_states": [], "num_clicks_accrued": [0, 0, 0, 0, 0, 0, 0, 0, 0, 0, 0, 0, 0], "stateRewards": ["", 2, -1, 8, -2, -16, 69, -39, -7, -13, -27, -86, 2, -2, 2, 13, -34, -16, -20, -5, 19, 81, 32, -2, -1, 2, -14, 20, 80, 58, 4, 70, 12, 73], "withholdReward": false, "trial_id": "mdp_trial_2", "block": "test", "trialIndex": 3, "score": 16, "costs": 0, "simulationMode": [null, null, null, null, null], "rewards": [2, -2, 2, -5, 19], "path": ["0", "0", "12", "13", "14", "19", "20"], "rt": [7815, 447, 447, 618, 478], "actions": ["right", "right", "right", "down", "right"], "actionTimes": [8726, 9678, 10628, 11748, 12740], "queries": {"click": {"state": {"target": [], "time": []}, "edge": {"target": [], "time": []}}, "mouseover": {"state": {"target": [], "time": []}, "edge": {"target": [], "time": []}}, "mouseout": {"state": {"target": ["0", "0", "0", "23"], "time": [578, 7727, 16762, 16873]}, "edge": {"target": [], "time": []}}}, "displayed_time": "14.91", "trialTime": 19652, "trial_type": "mouselab-mdp", "trial_index": 10, "time_elapsed": 424984, "internal_node_id": "0.0-4.0-1.0-1.0"}}, {"uniqueid": "w79287731:a79952852", "current_trial": 11, "dateTime": 1691071960152, "trialdata": {"revealed_states": [], "clicked_states": [], "num_clicks_accrued": [0, 0, 0, 0, 0, 0, 0, 0, 0, 0, 0, 0, 0], "stateRewards": ["", -2, 3, 8, -9, 59, 41, -50, -1, 82, 66, 33, 2, -2, 7, 8, 1, -38, 12, -16, 24, -37, 67, 1, 4, -2, 5, 35, -83, 28, 8, -27, 69, -64], "withholdReward": false, "trial_id": "mdp_trial_3", "block": "test", "trialIndex": 4, "score": 43, "costs": 0, "simulationMode": [null, null, null, null, null], "rewards": [1, 4, -2, 5, 35], "path": ["0", "0", "23", "24", "25", "26", "27"], "rt": [2232, 353, 297, 855, 673], "actions": ["left", "left", "left", "up", "up"], "actionTimes": [4272, 5155, 5964, 7320, 8490], "queries": {"click": {"state": {"target": [], "time": []}, "edge": {"target": [], "time": []}}, "mouseover": {"state": {"target": [], "time": []}, "edge": {"target": [], "time": []}}, "mouseout": {"state": {"target": ["23"], "time": [1272]}, "edge": {"target": [], "time": []}}}, "displayed_time": "16.04", "trialTime": 17737, "trial_type": "mouselab-mdp", "trial_index": 11, "time_elapsed": 443067, "internal_node_id": "0.0-4.0-1.0-2.0"}}, {"uniqueid": "w79287731:a79952852", "current_trial": 12, "dateTime": 1691071977306, "trialdata": {"revealed_states": [], "clicked_states": [], "num_clicks_accrued": [0, 0, 0, 0, 0, 0, 0, 0, 0, 0, 0, 0, 0], "stateRewards": ["", -2, 4, -3, -13, 63, -36, 62, 11, 78, 34, -51, 2, -2, 8, -6, -40, -18, 31, 9, 64, 39, 79, 1, 4, -4, 15, -12, 76, 73, -10, -77, 86, -4], "withholdReward": false, "trial_id": "mdp_trial_4", "block": "test", "trialIndex": 5, "score": 44, "costs": 0, "simulationMode": [null, null, null, null, null], "rewards": [-2, 4, -3, 11, 34], "path": ["0", "0", "1", "2", "3", "8", "10"], "rt": [4708, 732, 574, 864, 435], "actions": ["up", "up", "up", "left", "down"], "actionTimes": [5905, 7146, 8235, 9625, 10562], "queries": {"click": {"state": {"target": [], "time": []}, "edge": {"target": [], "time": []}}, "mouseover": {"state": {"target": [], "time": []}, "edge": {"target": [], "time": []}}, "mouseout": {"state": {"target": [], "time": []}, "edge": {"target": [], "time": []}}}, "displayed_time": "15.20", "trialTime": 16738, "trial_type": "mouselab-mdp", "trial_index": 12, "time_elapsed": 460222, "internal_node_id": "0.0-4.0-1.0-3.0"}}, {"uniqueid": "w79287731:a79952852", "current_trial": 13, "dateTime": 1691071995506, "trialdata": {"revealed_states": [], "clicked_states": [], "num_clicks_accrued": [0, 0, 0, 0, 0, 0, 0, 0, 0, 0, 0, 0, 0], "stateRewards": ["", 1, 2, 8, -2, 23, -69, -18, -16, 54, -21, 71, -1, -4, 7, 11, 43, -6, 88, 6, -55, 72, 43, 1, -3, -2, -1, 68, -31, -54, 4, -8, 25, -2], "withholdReward": false, "trial_id": "mdp_trial_5", "block": "test", "trialIndex": 6, "score": 80, "costs": 0, "simulationMode": [null, null, null, null, null], "rewards": [-1, -4, 7, 6, 72], "path": ["0", "0", "12", "13", "14", "19", "21"], "rt": [5592, 443, 313, 509, 704], "actions": ["right", "right", "right", "down", "down"], "actionTimes": [7776, 8715, 9533, 10561, 11774], "queries": {"click": {"state": {"target": [], "time": []}, "edge": {"target": [], "time": []}}, "mouseover": {"state": {"target": [], "time": []}, "edge": {"target": [], "time": []}}, "mouseout": {"state": {"target": [], "time": []}, "edge": {"target": [], "time": []}}}, "displayed_time": "16.19", "trialTime": 17780, "trial_type": "mouselab-mdp", "trial_index": 13, "time_elapsed": 478421, "internal_node_id": "0.0-4.0-1.0-4.0"}}, {"uniqueid": "w79287731:a79952852", "current_trial": 14, "dateTime": 1691072013133, "trialdata": {"revealed_states": [], "clicked_states": [], "num_clicks_accrued": [0, 0, 0, 0, 0, 0, 0, 0, 0, 0, 0, 0, 0], "stateRewards": ["", 2, 3, -2, -8, -8, -41, 74, 15, -23, -80, 1, 1, 3, 3, -15, -63, -78, 67, 13, 75, -41, 86, 2, -2, 6, -3, -8, -49, 50, -6, 83, 74, 80], "withholdReward": false, "trial_id": "mdp_trial_6", "block": "test", "trialIndex": 7, "score": -13, "costs": 0, "simulationMode": [null, null, null, null, null], "rewards": [2, 3, -2, -8, -8], "path": ["0", "0", "1", "2", "3", "4", "5"], "rt": [4609, 498, 942, 953, 1188], "actions": ["up", "up", "up", "right", "up"], "actionTimes": [6741, 7756, 9198, 10660, 12342], "queries": {"click": {"state": {"target": [], "time": []}, "edge": {"target": [], "time": []}}, "mouseover": {"state": {"target": [], "time": []}, "edge": {"target": [], "time": []}}, "mouseout": {"state": {"target": ["0"], "time": [1894]}, "edge": {"target": [], "time": []}}}, "displayed_time": "16.13", "trialTime": 17195, "trial_type": "mouselab-mdp", "trial_index": 14, "time_elapsed": 496048, "internal_node_id": "0.0-4.0-1.0-5.0"}}, {"uniqueid": "w79287731:a79952852", "current_trial": 15, "dateTime": 1691072030013, "trialdata": {"revealed_states": [], "clicked_states": [], "num_clicks_accrued": [0, 0, 0, 0, 0, 0, 0, 0, 0, 0, 0, 0, 0], "stateRewards": ["", 1, -4, -6, -1, -21, 17, -72, 10, 77, 67, -46, -1, 4, -2, 14, -66, -49, -45, -15, -52, 23, -67, 2, -2, -2, 15, -3, 45, -64, 5, -44, 83, 61], "withholdReward": false, "trial_id": "mdp_trial_7", "block": "test", "trialIndex": 8, "score": 9, "costs": 0, "simulationMode": [null, null, null, null, null], "rewards": [-1, 4, -2, -15, 23], "path": ["0", "0", "12", "13", "14", "19", "21"], "rt": [5431, 298, 349, 424, 960], "actions": ["right", "right", "right", "down", "down"], "actionTimes": [6648, 7454, 8303, 9245, 10713], "queries": {"click": {"state": {"target": [], "time": []}, "edge": {"target": [], "time": []}}, "mouseover": {"state": {"target": ["0"], "time": [4823]}, "edge": {"target": [], "time": []}}, "mouseout": {"state": {"target": ["0", "0"], "time": [999, 4972]}, "edge": {"target": [], "time": []}}}, "displayed_time": "15.22", "trialTime": 15940, "trial_type": "mouselab-mdp", "trial_index": 15, "time_elapsed": 512928, "internal_node_id": "0.0-4.0-1.0-6.0"}}, {"uniqueid": "w79287731:a79952852", "current_trial": 16, "dateTime": 1691072050173, "trialdata": {"revealed_states": [], "clicked_states": [], "num_clicks_accrued": [0, 0, 0, 0, 0, 0, 0, 0, 0, 0, 0, 0, 0], "stateRewards": ["", 1, 4, 7, -16, -84, -6, -46, -12, -7, -49, -26, -1, 2, -4, 2, 22, 37, -64, 1, 88, -13, -10, 1, -4, -2, 5, 2, -10, -34, 9, 66, 55, 38], "withholdReward": false, "trial_id": "mdp_trial_8", "block": "test", "trialIndex": 9, "score": 59, "costs": 0, "simulationMode": [null, null, null, null, null], "rewards": [1, -4, -2, 9, 55], "path": ["0", "0", "23", "24", "25", "30", "32"], "rt": [7286, 246, 176, 272, 534], "actions": ["left", "left", "left", "down", "down"], "actionTimes": [8751, 9497, 10208, 10988, 12015], "queries": {"click": {"state": {"target": [], "time": []}, "edge": {"target": [], "time": []}}, "mouseover": {"state": {"target": ["0", "23"], "time": [3073, 5239]}, "edge": {"target": [], "time": []}}, "mouseout": {"state": {"target": ["0"], "time": [3122]}, "edge": {"target": [], "time": []}}}, "displayed_time": "15.46", "trialTime": 19662, "trial_type": "mouselab-mdp", "trial_index": 16, "time_elapsed": 533088, "internal_node_id": "0.0-4.0-1.0-7.0"}}, {"uniqueid": "w79287731:a79952852", "current_trial": 17, "dateTime": 1691072067387, "trialdata": {"revealed_states": [], "clicked_states": [], "num_clicks_accrued": [0, 0, 0, 0, 0, 0, 0, 0, 0, 0, 0, 0, 0], "stateRewards": ["", 2, -3, -2, 14, -4, 85, 46, 15, -28, 41, 31, -1, -1, -1, 5, 62, 79, 57, 12, -73, -64, 86, -1, 1, -3, -5, 68, 11, -32, 8, -80, -21, -56], "withholdReward": false, "trial_id": "mdp_trial_9", "block": "test", "trialIndex": 10, "score": 3, "costs": 0, "simulationMode": [null, null, null, null, null], "rewards": [-1, 1, -3, -5, 11], "path": ["0", "0", "23", "24", "25", "26", "28"], "rt": [5590, 332, 410, 779, 806], "actions": ["left", "left", "left", "up", "right"], "actionTimes": [7549, 8372, 9298, 10583, 11908], "queries": {"click": {"state": {"target": [], "time": []}, "edge": {"target": [], "time": []}}, "mouseover": {"state": {"target": ["0"], "time": [4826]}, "edge": {"target": [], "time": []}}, "mouseout": {"state": {"target": ["23", "0", "0"], "time": [883, 1013, 5708]}, "edge": {"target": [], "time": []}}}, "displayed_time": "15.96", "trialTime": 16751, "trial_type": "mouselab-mdp", "trial_index": 17, "time_elapsed": 550302, "internal_node_id": "0.0-4.0-1.0-8.0"}}, {"uniqueid": "w79287731:a79952852", "current_trial": 18, "dateTime": 1691072088894, "trialdata": {"revealed_states": [], "clicked_states": ["12"], "num_clicks_accrued": [0, 0, 0, 0, 0, 0, 0, 0, 0, 0, 0, 0, 0], "stateRewards": ["", 1, 1, 7, -11, 80, -20, -53, -14, 3, 31, 27, 2, -1, -8, -10, 33, 41, 86, 9, 78, -37, -13, -1, -2, -6, -8, -80, 75, 4, -16, -49, -74, 24], "withholdReward": false, "trial_id": "mdp_trial_10", "block": "test", "trialIndex": 11, "score": -34.75, "costs": 0.25, "simulationMode": [null, null, null, null, null], "rewards": [2, -1, -8, 9, -37], "path": ["0", "0", "12", "13", "14", "19", "21"], "rt": [7500, 720, 438, 615, 988], "actions": ["right", "right", "right", "down", "down"], "actionTimes": [9872, 11087, 12037, 13163, 14666], "queries": {"click": {"state": {"target": ["12"], "time": [5484]}, "edge": {"target": [], "time": []}}, "mouseover": {"state": {"target": ["12", "0", "23"], "time": [4684, 5520, 8752]}, "edge": {"target": [], "time": []}}, "mouseout": {"state": {"target": ["12", "12", "0", "23"], "time": [1608, 5518, 6152, 18318]}, "edge": {"target": [], "time": []}}}, "displayed_time": "16.37", "trialTime": 21054, "trial_type": "mouselab-mdp", "trial_index": 18, "time_elapsed": 571809, "internal_node_id": "0.0-4.0-1.0-9.0"}}, {"uniqueid": "w79287731:a79952852", "current_trial": 19, "dateTime": 1691072105008, "trialdata": {"revealed_states": [], "clicked_states": [], "num_clicks_accrued": [0, 0, 0, 0, 0, 0, 0, 0, 0, 0, 0, 0, 0], "stateRewards": ["", -2, 2, 8, -6, -25, 3, 87, 2, -62, -2, 74, -2, -1, 2, -1, 79, 49, -37, -14, 5, 67, -9, -1, 2, -2, 5, 15, 38, 32, -14, -38, -38, 30], "withholdReward": false, "trial_id": "mdp_trial_11", "block": "test", "trialIndex": 12, "score": 19, "costs": 0, "simulationMode": [null, null, null, null, null], "rewards": [-1, 2, -2, 5, 15], "path": ["0", "0", "23", "24", "25", "26", "27"], "rt": [6481, 349, 312, 1144, 551], "actions": ["left", "left", "left", "up", "up"], "actionTimes": [7333, 8183, 9013, 10661, 11716], "queries": {"click": {"state": {"target": [], "time": []}, "edge": {"target": [], "time": []}}, "mouseover": {"state": {"target": ["0", "0"], "time": [3211, 5886]}, "edge": {"target": [], "time": []}}, "mouseout": {"state": {"target": ["0", "0"], "time": [612, 3374]}, "edge": {"target": [], "time": []}}}, "displayed_time": "14.85", "trialTime": 15689, "trial_type": "mouselab-mdp", "trial_index": 19, "time_elapsed": 587923, "internal_node_id": "0.0-4.0-1.0-10.0"}}, {"uniqueid": "w79287731:a79952852", "current_trial": 20, "dateTime": 1691072122479, "trialdata": {"revealed_states": [], "clicked_states": [], "num_clicks_accrued": [0, 0, 0, 0, 0, 0, 0, 0, 0, 0, 0, 0, 0], "stateRewards": ["", 1, -1, 8, 4, 76, -33, -17, -3, -1, -54, -74, -2, 2, -5, 13, -51, 63, 83, 1, 84, 29, -36, 2, -1, 7, -12, -10, -44, -43, -14, 8, -69, 19], "withholdReward": false, "trial_id": "mdp_trial_12", "block": "test", "trialIndex": 13, "score": -5, "costs": 0, "simulationMode": [null, null, null, null, null], "rewards": [1, -1, 8, 4, -17], "path": ["0", "0", "1", "2", "3", "4", "7"], "rt": [6482, 303, 163, 953, 281], "actions": ["up", "up", "up", "right", "down"], "actionTimes": [8224, 9026, 9684, 11140, 11932], "queries": {"click": {"state": {"target": [], "time": []}, "edge": {"target": [], "time": []}}, "mouseover": {"state": {"target": ["0"], "time": [3578]}, "edge": {"target": [], "time": []}}, "mouseout": {"state": {"target": ["0", "0"], "time": [1135, 4243]}, "edge": {"target": [], "time": []}}}, "displayed_time": "15.75", "trialTime": 17112, "trial_type": "mouselab-mdp", "trial_index": 20, "time_elapsed": 605394, "internal_node_id": "0.0-4.0-1.0-11.0"}}, {"uniqueid": "w79287731:a79952852", "current_trial": 21, "dateTime": 1691072140534, "trialdata": {"revealed_states": [], "clicked_states": [], "num_clicks_accrued": [0, 0, 0, 0, 0, 0, 0, 0, 0, 0, 0, 0, 0], "stateRewards": ["", 1, -2, 4, 7, -43, -83, -60, -5, -86, -80, 83, -1, -2, 6, 11, -15, 21, 13, 9, 29, -49, 11, -1, 4, -6, -11, 87, 40, 63, -8, -39, -11, 62], "withholdReward": false, "trial_id": "mdp_trial_13", "block": "test", "trialIndex": 14, "score": 73, "costs": 0, "simulationMode": [null, null, null, null, null], "rewards": [-1, 4, -6, -11, 87], "path": ["0", "0", "23", "24", "25", "26", "27"], "rt": [6038, 2971, 462, 1078, 223], "actions": ["left", "left", "left", "up", "up"], "actionTimes": [7494, 10978, 11949, 13531, 14257], "queries": {"click": {"state": {"target": [], "time": []}, "edge": {"target": [], "time": []}}, "mouseover": {"state": {"target": ["0"], "time": [4809]}, "edge": {"target": [], "time": []}}, "mouseout": {"state": {"target": ["0"], "time": [1871]}, "edge": {"target": [], "time": []}}}, "displayed_time": "15.46", "trialTime": 17701, "trial_type": "mouselab-mdp", "trial_index": 21, "time_elapsed": 623448, "internal_node_id": "0.0-4.0-1.0-12.0"}}, {"uniqueid": "w79287731:a79952852", "current_trial": 22, "dateTime": 1691072157180, "trialdata": {"revealed_states": [], "clicked_states": [], "num_clicks_accrued": [0, 0, 0, 0, 0, 0, 0, 0, 0, 0, 0, 0, 0], "stateRewards": ["", -2, 2, -5, -6, 10, -66, -58, -10, -11, -63, -70, -1, -4, -5, 7, 66, -64, -43, -3, 45, -37, 4, -2, -2, -6, -4, -30, 33, 43, 15, -32, -65, -59], "withholdReward": false, "trial_id": "mdp_trial_14", "block": "test", "trialIndex": 15, "score": -85, "costs": 0, "simulationMode": [null, null, null, null, null], "rewards": [-2, 2, -5, -10, -70], "path": ["0", "0", "1", "2", "3", "8", "11"], "rt": [6548, 486, 436, 875, 632], "actions": ["up", "up", "up", "left", "left"], "actionTimes": [7907, 8897, 9831, 11218, 12340], "queries": {"click": {"state": {"target": [], "time": []}, "edge": {"target": [], "time": []}}, "mouseover": {"state": {"target": ["0", "12"], "time": [4116, 4282]}, "edge": {"target": [], "time": []}}, "mouseout": {"state": {"target": ["0", "0", "12"], "time": [1774, 4181, 4652]}, "edge": {"target": [], "time": []}}}, "displayed_time": "15.36", "trialTime": 16124, "trial_type": "mouselab-mdp", "trial_index": 22, "time_elapsed": 640095, "internal_node_id": "0.0-4.0-1.0-13.0"}}, {"uniqueid": "w79287731:a79952852", "current_trial": 23, "dateTime": 1691072175059, "trialdata": {"revealed_states": [], "clicked_states": [], "num_clicks_accrued": [0, 0, 0, 0, 0, 0, 0, 0, 0, 0, 0, 0, 0], "stateRewards": ["", 2, -1, 4, -9, -43, 7, 54, -13, 38, -40, -83, -1, 2, -8, -10, 34, -33, 11, -14, -79, 65, 26, 1, 2, 4, 10, 21, 1, 86, 4, -53, 28, -29], "withholdReward": false, "trial_id": "mdp_trial_15", "block": "test", "trialIndex": 16, "score": 44, "costs": 0, "simulationMode": [null, null, null, null, null], "rewards": [-1, 2, -8, -14, 65], "path": ["0", "0", "12", "13", "14", "19", "21"], "rt": [4746, 279, 290, 233, 519], "actions": ["right", "right", "right", "down", "down"], "actionTimes": [6386, 7166, 7959, 8686, 9720], "queries": {"click": {"state": {"target": [], "time": []}, "edge": {"target": [], "time": []}}, "mouseover": {"state": {"target": ["0"], "time": [4357]}, "edge": {"target": [], "time": []}}, "mouseout": {"state": {"target": ["0", "0"], "time": [1002, 4740]}, "edge": {"target": [], "time": []}}}, "displayed_time": "15.64", "trialTime": 17490, "trial_type": "mouselab-mdp", "trial_index": 23, "time_elapsed": 657974, "internal_node_id": "0.0-4.0-1.0-14.0"}}, {"uniqueid": "w79287731:a79952852", "current_trial": 24, "dateTime": 1691072193356, "trialdata": {"revealed_states": [], "clicked_states": [], "num_clicks_accrued": [0, 0, 0, 0, 0, 0, 0, 0, 0, 0, 0, 0, 0], "stateRewards": ["", -2, 3, -1, 2, -72, 63, 20, -1, 62, -66, 39, -2, 3, -6, 14, 22, 47, 1, 8, -49, -1, -41, 2, 2, -6, -16, -64, -60, -34, 16, 54, 22, -7], "withholdReward": false, "trial_id": "mdp_trial_16", "block": "test", "trialIndex": 17, "score": 31, "costs": 0, "simulationMode": [null, null, null, null, null], "rewards": [-2, 3, -6, 14, 22], "path": ["0", "0", "12", "13", "14", "15", "16"], "rt": [3723, 671, 371, 1159, 730], "actions": ["right", "right", "right", "up", "up"], "actionTimes": [6645, 7817, 8700, 10369, 11606], "queries": {"click": {"state": {"target": [], "time": []}, "edge": {"target": [], "time": []}}, "mouseover": {"state": {"target": [], "time": []}, "edge": {"target": [], "time": []}}, "mouseout": {"state": {"target": ["18", "16"], "time": [13338, 13390]}, "edge": {"target": [], "time": []}}}, "displayed_time": "16.92", "trialTime": 17999, "trial_type": "mouselab-mdp", "trial_index": 24, "time_elapsed": 676272, "internal_node_id": "0.0-4.0-1.0-15.0"}}, {"uniqueid": "w79287731:a79952852", "current_trial": 25, "dateTime": 1691072222190, "trialdata": {"revealed_states": [], "clicked_states": ["12", "23", "24", "25", "1", "2", "7"], "num_clicks_accrued": [0, 0, 0, 0, 0, 0, 0, 0, 0, 0, 0, 0, 0], "stateRewards": ["", 2, 4, -3, 16, -58, 30, -35, 11, -60, 47, 27, -2, -1, -7, -16, 23, -70, 68, -10, -65, -43, -34, -2, 1, 7, 9, -63, 34, -31, -8, -12, -86, 59], "withholdReward": false, "trial_id": "mdp_trial_17", "block": "test", "trialIndex": 18, "score": -6.050000000000001, "costs": -3.05, "simulationMode": [null, null, null, null, null], "rewards": [-2, -1, -7, -16, 23], "path": ["0", "0", "12", "13", "14", "15", "16"], "rt": [18569, 361, 249, 1629, 143], "actions": ["right", "right", "right", "up", "up"], "actionTimes": [20718, 21583, 22337, 24467, 25111], "queries": {"click": {"state": {"target": ["12", "23", "24", "25", "1", "2", "7"], "time": [4270, 6136, 7213, 8149, 9944, 10908, 12223]}, "edge": {"target": [], "time": []}}, "mouseover": {"state": {"target": ["12", "0", "23", "24", "25", "0", "12", "1", "2", "3", "4", "7", "13", "12", "13"], "time": [4157, 5490, 6021, 6983, 7866, 8815, 9215, 9649, 10697, 11298, 11797, 11980, 13394, 14843, 15793]}, "edge": {"target": [], "time": []}}, "mouseout": {"state": {"target": ["0", "12", "0", "23", "24", "25", "24", "23", "0", "12", "1", "2", "3", "4", "7", "13", "12", "13"], "time": [2656, 5186, 5753, 6933, 7816, 8599, 8649, 8748, 8948, 9554, 10630, 11230, 11748, 11913, 12712, 14010, 14893, 17376]}, "edge": {"target": [], "time": []}}}, "displayed_time": "25.62", "trialTime": 28539, "trial_type": "mouselab-mdp", "trial_index": 25, "time_elapsed": 705104, "internal_node_id": "0.0-4.0-1.0-16.0"}}, {"uniqueid": "w79287731:a79952852", "current_trial": 26, "dateTime": 1691072246925, "trialdata": {"revealed_states": [], "clicked_states": [], "num_clicks_accrued": [0, 0, 0, 0, 0, 0, 0, 0, 0, 0, 0, 0, 0], "stateRewards": ["", -1, 2, -2, 5, 80, -61, -27, 12, 44, -26, -75, -2, -4, 1, -16, 42, -49, -50, 4, -44, 2, 80, -2, -2, 5, -2, 59, 10, 24, 7, -48, -86, -44], "withholdReward": false, "trial_id": "mdp_trial_18", "block": "test", "trialIndex": 19, "score": -15, "costs": 0, "simulationMode": [null, null, null, null, null], "rewards": [-1, 2, -2, 12, -26], "path": ["0", "0", "1", "2", "3", "8", "10"], "rt": [3145, 2276, 888, 2239, 212], "actions": ["up", "up", "up", "left", "down"], "actionTimes": [8031, 16279, 17673, 20421, 21141], "queries": {"click": {"state": {"target": [], "time": []}, "edge": {"target": [], "time": []}}, "mouseover": {"state": {"target": [], "time": []}, "edge": {"target": [], "time": []}}, "mouseout": {"state": {"target": ["20", "19", "22", "0"], "time": [837, 863, 897, 1532]}, "edge": {"target": [], "time": []}}}, "displayed_time": "21.64", "trialTime": 24409, "trial_type": "mouselab-mdp", "trial_index": 26, "time_elapsed": 729840, "internal_node_id": "0.0-4.0-1.0-17.0"}}, {"uniqueid": "w79287731:a79952852", "current_trial": 27, "dateTime": 1691072266775, "trialdata": {"revealed_states": [], "clicked_states": [], "num_clicks_accrued": [0, 0, 0, 0, 0, 0, 0, 0, 0, 0, 0, 0, 0], "stateRewards": ["", 1, -3, 4, 13, -72, 52, 5, 5, -58, 5, 14, 2, 1, 3, -14, -86, -4, 73, 6, -58, -50, 49, 2, -3, -4, 2, 33, -41, 42, -11, 81, 45, 53], "withholdReward": false, "trial_id": "mdp_trial_19", "block": "test", "trialIndex": 20, "score": 39, "costs": 0, "simulationMode": [null, null, null, null, null], "rewards": [2, -3, -4, 2, 42], "path": ["0", "0", "23", "24", "25", "26", "29"], "rt": [4167, 188, 268, 1051, 4779], "actions": ["left", "left", "left", "up", "left"], "actionTimes": [6558, 7253, 8033, 9582, 14857], "queries": {"click": {"state": {"target": [], "time": []}, "edge": {"target": [], "time": []}}, "mouseover": {"state": {"target": [], "time": []}, "edge": {"target": [], "time": []}}, "mouseout": {"state": {"target": ["14", "13", "12"], "time": [1507, 1552, 1685]}, "edge": {"target": [], "time": []}}}, "displayed_time": "16.39", "trialTime": 19326, "trial_type": "mouselab-mdp", "trial_index": 27, "time_elapsed": 749691, "internal_node_id": "0.0-4.0-1.0-18.0"}}, {"uniqueid": "w79287731:a79952852", "current_trial": 28, "dateTime": 1691072284377, "trialdata": {"revealed_states": [], "clicked_states": [], "num_clicks_accrued": [0, 0, 0, 0, 0, 0, 0, 0, 0, 0, 0, 0, 0], "stateRewards": ["", 1, 2, -3, -6, 50, -7, 7, -7, -80, 21, -1, 2, 2, 4, -1, 33, 84, 1, 14, -53, 81, 6, -2, -2, -3, -9, -87, -38, -59, -5, -74, -3, -71], "withholdReward": false, "trial_id": "mdp_trial_20", "block": "test", "trialIndex": 21, "score": 1, "costs": 0, "simulationMode": [null, null, null, null, null], "rewards": [1, 2, -3, -6, 7], "path": ["0", "0", "1", "2", "3", "4", "7"], "rt": [1980, 552, 183, 116, 690], "actions": ["up", "up", "up", "right", "down"], "actionTimes": [4552, 5609, 6322, 6937, 8143], "queries": {"click": {"state": {"target": [], "time": []}, "edge": {"target": [], "time": []}}, "mouseover": {"state": {"target": [], "time": []}, "edge": {"target": [], "time": []}}, "mouseout": {"state": {"target": ["29", "26", "28", "23", "16"], "time": [1232, 1292, 1341, 1878, 13697]}, "edge": {"target": [], "time": []}}}, "displayed_time": "16.57", "trialTime": 17199, "trial_type": "mouselab-mdp", "trial_index": 28, "time_elapsed": 767291, "internal_node_id": "0.0-4.0-1.0-19.0"}}, {"uniqueid": "w79287731:a79952852", "current_trial": 29, "dateTime": 1691072303544, "trialdata": {"revealed_states": [], "clicked_states": [], "num_clicks_accrued": [0, 0, 0, 0, 0, 0, 0, 0, 0, 0, 0, 0, 0], "stateRewards": ["", 1, -2, -8, -3, 31, -84, -55, -14, 15, -58, 17, -2, -3, 7, 7, -12, 48, 67, 4, -44, -68, 46, 2, 3, -5, -7, 76, 27, 5, 11, 57, 52, 59], "withholdReward": false, "trial_id": "mdp_trial_21", "block": "test", "trialIndex": 22, "score": 63, "costs": 0, "simulationMode": [null, null, null, null, null], "rewards": [2, 3, -5, 11, 52], "path": ["0", "0", "23", "24", "25", "30", "32"], "rt": [4279, 553, 401, 445, 466], "actions": ["left", "left", "left", "down", "down"], "actionTimes": [7708, 8762, 9681, 10619, 11588], "queries": {"click": {"state": {"target": [], "time": []}, "edge": {"target": [], "time": []}}, "mouseover": {"state": {"target": [], "time": []}, "edge": {"target": [], "time": []}}, "mouseout": {"state": {"target": ["7", "0"], "time": [1286, 1921]}, "edge": {"target": [], "time": []}}}, "displayed_time": "17.43", "trialTime": 18806, "trial_type": "mouselab-mdp", "trial_index": 29, "time_elapsed": 786458, "internal_node_id": "0.0-4.0-1.0-20.0"}}, {"uniqueid": "w79287731:a79952852", "current_trial": 30, "dateTime": 1691072320628, "trialdata": {"revealed_states": [], "clicked_states": [], "num_clicks_accrued": [0, 0, 0, 0, 0, 0, 0, 0, 0, 0, 0, 0, 0], "stateRewards": ["", -1, -1, 4, -16, -75, 81, -51, -7, -84, 73, -30, -2, 1, -3, -16, -77, 33, 14, 1, 45, 87, -66, 2, 2, -5, -7, -19, -17, 79, -3, 8, 49, 47], "withholdReward": false, "trial_id": "mdp_trial_22", "block": "test", "trialIndex": 23, "score": -97, "costs": 0, "simulationMode": [null, null, null, null, null], "rewards": [-2, 1, -3, -16, -77], "path": ["0", "0", "12", "13", "14", "15", "16"], "rt": [3672, 470, 693, 3499, 284], "actions": ["right", "right", "right", "up", "up"], "actionTimes": [5288, 6266, 7470, 11476, 12256], "queries": {"click": {"state": {"target": [], "time": []}, "edge": {"target": [], "time": []}}, "mouseover": {"state": {"target": [], "time": []}, "edge": {"target": [], "time": []}}, "mouseout": {"state": {"target": ["0", "18", "15", "18"], "time": [70, 189, 504, 566]}, "edge": {"target": [], "time": []}}}, "displayed_time": "15.62", "trialTime": 16329, "trial_type": "mouselab-mdp", "trial_index": 30, "time_elapsed": 803543, "internal_node_id": "0.0-4.0-1.0-21.0"}}, {"uniqueid": "w79287731:a79952852", "current_trial": 31, "dateTime": 1691072402185, "trialdata": {"revealed_states": [], "clicked_states": [], "num_clicks_accrued": [0, 0, 0, 0, 0, 0, 0, 0, 0, 0, 0, 0, 0], "stateRewards": ["", 1, 4, -8, -5, -15, -7, 21, 13, -30, 40, -65, 1, 1, 5, -14, 35, 27, -38, -11, 36, -58, -47, -2, 4, -3, 13, -16, -49, 22, 15, -56, -44, -10], "withholdReward": false, "trial_id": "mdp_trial_23", "block": "test", "trialIndex": 24, "score": 4, "costs": 0, "simulationMode": [null, null, null, null, null], "rewards": [-2, 4, -3, 15, -10], "path": ["0", "0", "23", "24", "25", "30", "33"], "rt": [1730, 627, 1433, 409, 550], "actions": ["left", "left", "left", "down", "left"], "actionTimes": [3707, 4840, 6762, 7679, 8744], "queries": {"click": {"state": {"target": [], "time": []}, "edge": {"target": [], "time": []}}, "mouseover": {"state": {"target": [], "time": []}, "edge": {"target": [], "time": []}}, "mouseout": {"state": {"target": ["22", "0"], "time": [790, 1501]}, "edge": {"target": [], "time": []}}}, "displayed_time": "15.98", "trialTime": 81083, "trial_type": "mouselab-mdp", "trial_index": 31, "time_elapsed": 885100, "internal_node_id": "0.0-4.0-1.0-22.0"}}, {"uniqueid": "w79287731:a79952852", "current_trial": 32, "dateTime": 1691072422109, "trialdata": {"revealed_states": [], "clicked_states": [], "num_clicks_accrued": [0, 0, 0, 0, 0, 0, 0, 0, 0, 0, 0, 0, 0], "stateRewards": ["", -2, 2, 5, -14, -56, 64, 84, -5, 52, 39, 85, -2, 1, 7, 8, 21, 29, -78, -9, -10, -69, 10, -2, -1, -7, 15, 72, 20, 41, -2, 52, 80, 22], "withholdReward": false, "trial_id": "mdp_trial_24", "block": "test", "trialIndex": 25, "score": 85, "costs": 0, "simulationMode": [null, null, null, null, null], "rewards": [-2, 2, 5, -5, 85], "path": ["0", "0", "1", "2", "3", "8", "11"], "rt": [5910, 188, 257, 350, 79], "actions": ["up", "up", "up", "left", "left"], "actionTimes": [7571, 8271, 9038, 9902, 10475], "queries": {"click": {"state": {"target": [], "time": []}, "edge": {"target": [], "time": []}}, "mouseover": {"state": {"target": ["0", "12"], "time": [4300, 6050]}, "edge": {"target": [], "time": []}}, "mouseout": {"state": {"target": ["0", "0", "12", "18"], "time": [1207, 4521, 11850, 11879]}, "edge": {"target": [], "time": []}}}, "displayed_time": "16.67", "trialTime": 19393, "trial_type": "mouselab-mdp", "trial_index": 32, "time_elapsed": 905024, "internal_node_id": "0.0-4.0-1.0-23.0"}}, {"uniqueid": "w79287731:a79952852", "current_trial": 33, "dateTime": 1691072440606, "trialdata": {"revealed_states": [], "clicked_states": [], "num_clicks_accrued": [0, 0, 0, 0, 0, 0, 0, 0, 0, 0, 0, 0, 0], "stateRewards": ["", -1, -3, -5, -14, -13, -47, 79, 8, -60, -64, 41, -1, 2, 3, 13, -46, 61, -79, -11, -64, -65, 23, 1, -2, 6, -14, 46, 32, 21, 7, 75, -66, 15], "withholdReward": false, "trial_id": "mdp_trial_25", "block": "test", "trialIndex": 26, "score": 37, "costs": 0, "simulationMode": [null, null, null, null, null], "rewards": [1, -2, 6, -14, 46], "path": ["0", "0", "23", "24", "25", "26", "27"], "rt": [2152, 349, 447, 1597, 55], "actions": ["left", "left", "left", "up", "up"], "actionTimes": [4459, 5312, 6291, 8392, 8964], "queries": {"click": {"state": {"target": [], "time": []}, "edge": {"target": [], "time": []}}, "mouseover": {"state": {"target": [], "time": []}, "edge": {"target": [], "time": []}}, "mouseout": {"state": {"target": ["14", "13", "12"], "time": [1382, 1431, 1799]}, "edge": {"target": [], "time": []}}}, "displayed_time": "16.31", "trialTime": 17904, "trial_type": "mouselab-mdp", "trial_index": 33, "time_elapsed": 923521, "internal_node_id": "0.0-4.0-1.0-24.0"}}, {"uniqueid": "w79287731:a79952852", "current_trial": 34, "dateTime": 1691072466681, "trialdata": {"revealed_states": [], "clicked_states": [], "num_clicks_accrued": [0, 0, 0, 0, 0, 0, 0, 0, 0, 0, 0, 0, 0], "stateRewards": ["", -1, 2, 6, 11, 21, -21, -21, -6, 48, -71, 88, -1, -3, 3, 7, 64, 2, 9, -4, 37, -67, 72, 2, 2, -8, -8, -10, 71, -40, -3, 73, 80, 47], "withholdReward": false, "trial_id": "mdp_trial_26", "block": "test", "trialIndex": 27, "score": 67, "costs": 0, "simulationMode": [null, null, null, null, null], "rewards": [-1, -3, 3, -4, 72], "path": ["0", "0", "12", "13", "14", "19", "22"], "rt": [2964, 1243, 140, 206, 371], "actions": ["right", "right", "right", "down", "left"], "actionTimes": [5258, 7007, 7652, 8367, 9248], "queries": {"click": {"state": {"target": [], "time": []}, "edge": {"target": [], "time": []}}, "mouseover": {"state": {"target": [], "time": []}, "edge": {"target": [], "time": []}}, "mouseout": {"state": {"target": ["17", "13", "12"], "time": [806, 918, 1401]}, "edge": {"target": [], "time": []}}}, "displayed_time": "16.30", "trialTime": 25648, "trial_type": "mouselab-mdp", "trial_index": 34, "time_elapsed": 949596, "internal_node_id": "0.0-4.0-1.0-25.0"}}, {"uniqueid": "w79287731:a79952852", "current_trial": 35, "dateTime": 1691072486063, "trialdata": {"revealed_states": [], "clicked_states": [], "num_clicks_accrued": [0, 0, 0, 0, 0, 0, 0, 0, 0, 0, 0, 0, 0], "stateRewards": ["", 1, -1, -7, -7, -22, 15, -13, 13, 26, -32, 38, -1, 1, -7, -4, 16, -62, 86, 12, -54, 56, 64, -2, -1, 6, 14, -57, 37, 62, -6, -25, 50, -70], "withholdReward": false, "trial_id": "mdp_trial_27", "block": "test", "trialIndex": 28, "score": 47, "costs": 0, "simulationMode": [null, null, null, null, null], "rewards": [-2, -1, 6, -6, 50], "path": ["0", "0", "23", "24", "25", "30", "32"], "rt": [2951, 370, 360, 372, 294], "actions": ["left", "left", "left", "down", "down"], "actionTimes": [6406, 7281, 8154, 9032, 9837], "queries": {"click": {"state": {"target": [], "time": []}, "edge": {"target": [], "time": []}}, "mouseover": {"state": {"target": [], "time": []}, "edge": {"target": [], "time": []}}, "mouseout": {"state": {"target": ["18"], "time": [1900]}, "edge": {"target": [], "time": []}}}, "displayed_time": "17.47", "trialTime": 18804, "trial_type": "mouselab-mdp", "trial_index": 35, "time_elapsed": 968977, "internal_node_id": "0.0-4.0-1.0-26.0"}}, {"uniqueid": "w79287731:a79952852", "current_trial": 36, "dateTime": 1691072651610, "trialdata": {"revealed_states": [], "clicked_states": [], "num_clicks_accrued": [0, 0, 0, 0, 0, 0, 0, 0, 0, 0, 0, 0, 0], "stateRewards": ["", 1, 2, -3, -5, 66, -50, -47, -5, 1, 28, -27, 1, 1, -1, -6, 37, -25, 56, 1, -82, -66, -40, -1, -4, -7, 15, -61, -23, 26, 10, 14, -56, 29], "withholdReward": false, "trial_id": "mdp_trial_28", "block": "test", "trialIndex": 29, "score": -4, "costs": 0, "simulationMode": [null, null, null, null, null], "rewards": [1, 2, -3, -5, 1], "path": ["0", "0", "1", "2", "3", "8", "9"], "rt": [3492, 1649, 346, 376, 660], "actions": ["up", "up", "up", "left", "up"], "actionTimes": [4540, 6694, 7551, 8432, 9598], "queries": {"click": {"state": {"target": [], "time": []}, "edge": {"target": [], "time": []}}, "mouseover": {"state": {"target": [], "time": []}, "edge": {"target": [], "time": []}}, "mouseout": {"state": {"target": ["0"], "time": [769]}, "edge": {"target": [], "time": []}}}, "displayed_time": "15.05", "trialTime": 165069, "trial_type": "mouselab-mdp", "trial_index": 36, "time_elapsed": 1134525, "internal_node_id": "0.0-4.0-1.0-27.0"}}, {"uniqueid": "w79287731:a79952852", "current_trial": 37, "dateTime": 1691072672393, "trialdata": {"revealed_states": [], "clicked_states": [], "num_clicks_accrued": [0, 0, 0, 0, 0, 0, 0, 0, 0, 0, 0, 0, 0], "stateRewards": ["", -1, 3, 1, -11, -22, -36, 19, -5, -70, -52, 50, -2, -4, 4, -2, -41, -83, 29, -2, 22, 10, -6, -2, 3, -2, 14, 54, 44, 77, -9, -65, -37, -40], "withholdReward": false, "trial_id": "mdp_trial_29", "block": "test", "trialIndex": 30, "score": 67, "costs": 0, "simulationMode": [null, null, null, null, null], "rewards": [-2, 3, -2, 14, 54], "path": ["0", "0", "23", "24", "25", "26", "27"], "rt": [4958, 586, 91, 564, 98], "actions": ["left", "left", "left", "up", "up"], "actionTimes": [9155, 10245, 10848, 11922, 12521], "queries": {"click": {"state": {"target": [], "time": []}, "edge": {"target": [], "time": []}}, "mouseover": {"state": {"target": [], "time": []}, "edge": {"target": [], "time": []}}, "mouseout": {"state": {"target": ["1", "32", "0"], "time": [2188, 2647, 3466]}, "edge": {"target": [], "time": []}}}, "displayed_time": "18.20", "trialTime": 20434, "trial_type": "mouselab-mdp", "trial_index": 37, "time_elapsed": 1155308, "internal_node_id": "0.0-4.0-1.0-28.0"}}, {"uniqueid": "w79287731:a79952852", "current_trial": 38, "dateTime": 1691072690402, "trialdata": {"revealed_states": [], "clicked_states": [], "num_clicks_accrued": [0, 0, 0, 0, 0, 0, 0, 0, 0, 0, 0, 0, 0], "stateRewards": ["", -2, 4, 3, 5, -61, 4, 30, 1, -47, 83, 10, 1, 4, 7, -14, 19, -74, -83, 6, -2, -2, -65, -1, -2, 4, -11, 12, -1, -68, 11, -38, -28, 66], "withholdReward": false, "trial_id": "mdp_trial_30", "block": "test", "trialIndex": 31, "score": -85, "costs": 0, "simulationMode": [null, null, null, null, null], "rewards": [1, 4, 7, -14, -83], "path": ["0", "0", "12", "13", "14", "15", "18"], "rt": [3760, 718, 68, 384, 168], "actions": ["right", "right", "right", "up", "left"], "actionTimes": [6311, 7533, 8121, 9027, 9711], "queries": {"click": {"state": {"target": [], "time": []}, "edge": {"target": [], "time": []}}, "mouseover": {"state": {"target": [], "time": []}, "edge": {"target": [], "time": []}}, "mouseout": {"state": {"target": ["0", "0"], "time": [1802, 10902]}, "edge": {"target": [], "time": []}}}, "displayed_time": "16.55", "trialTime": 17529, "trial_type": "mouselab-mdp", "trial_index": 38, "time_elapsed": 1173316, "internal_node_id": "0.0-4.0-1.0-29.0"}}, {"uniqueid": "w79287731:a79952852", "current_trial": 39, "dateTime": 1691072709071, "trialdata": {"revealed_states": [], "clicked_states": [], "num_clicks_accrued": [0, 0, 0, 0, 0, 0, 0, 0, 0, 0, 0, 0, 0], "stateRewards": ["", -1, 3, -4, -14, 78, 67, 2, 13, -32, 28, 39, -2, 1, -4, -4, -4, -42, -86, 11, 64, -29, -32, -1, -4, 2, -7, 5, 68, -61, 2, -21, 85, 50], "withholdReward": false, "trial_id": "mdp_trial_31", "block": "test", "trialIndex": 32, "score": -23, "costs": 0, "simulationMode": [null, null, null, null, null], "rewards": [-2, 1, -4, 11, -29], "path": ["0", "0", "12", "13", "14", "19", "21"], "rt": [1214, 312, 601, 30, 751], "actions": ["right", "right", "right", "down", "down"], "actionTimes": [3963, 4773, 5882, 6422, 7708], "queries": {"click": {"state": {"target": [], "time": []}, "edge": {"target": [], "time": []}}, "mouseover": {"state": {"target": [], "time": []}, "edge": {"target": [], "time": []}}, "mouseout": {"state": {"target": ["17", "15", "18", "0"], "time": [1619, 1747, 1829, 18000]}, "edge": {"target": [], "time": []}}}, "displayed_time": "16.75", "trialTime": 18195, "trial_type": "mouselab-mdp", "trial_index": 39, "time_elapsed": 1191985, "internal_node_id": "0.0-4.0-1.0-30.0"}}, {"uniqueid": "w79287731:a79952852", "current_trial": 40, "dateTime": 1691072725684, "trialdata": {"revealed_states": [], "clicked_states": [], "num_clicks_accrued": [0, 0, 0, 0, 0, 0, 0, 0, 0, 0, 0, 0, 0], "stateRewards": ["", -2, -4, 4, -11, -63, -60, -7, 2, -14, 81, -43, -1, -1, -5, 7, 10, 69, 40, 8, -83, 52, 60, 1, 2, 5, -5, 16, 64, 14, -3, 29, 7, -51], "withholdReward": false, "trial_id": "mdp_trial_32", "block": "test", "trialIndex": 33, "score": -43, "costs": 0, "simulationMode": [null, null, null, null, null], "rewards": [-2, -4, 4, 2, -43], "path": ["0", "0", "1", "2", "3", "8", "11"], "rt": [1382, 197, 223, 164, 273], "actions": ["up", "up", "up", "left", "left"], "actionTimes": [2826, 3541, 4268, 4949, 5733], "queries": {"click": {"state": {"target": [], "time": []}, "edge": {"target": [], "time": []}}, "mouseover": {"state": {"target": [], "time": []}, "edge": {"target": [], "time": []}}, "mouseout": {"state": {"target": ["23", "16"], "time": [766, 7025]}, "edge": {"target": [], "time": []}}}, "displayed_time": "15.45", "trialTime": 16227, "trial_type": "mouselab-mdp", "trial_index": 40, "time_elapsed": 1208599, "internal_node_id": "0.0-4.0-1.0-31.0"}}, {"uniqueid": "w79287731:a79952852", "current_trial": 41, "dateTime": 1691072743578, "trialdata": {"revealed_states": [], "clicked_states": [], "num_clicks_accrued": [0, 0, 0, 0, 0, 0, 0, 0, 0, 0, 0, 0, 0], "stateRewards": ["", -2, -2, -3, -6, -15, -11, 41, -12, -63, -76, 2, -2, -3, 8, 9, -36, -2, -18, -16, -32, -85, -17, -2, 1, 5, -16, 82, 35, -88, -1, 80, -82, -20], "withholdReward": false, "trial_id": "mdp_trial_33", "block": "test", "trialIndex": 34, "score": -79, "costs": 0, "simulationMode": [null, null, null, null, null], "rewards": [-2, 1, 5, -1, -82], "path": ["0", "0", "23", "24", "25", "30", "32"], "rt": [1020, 548, 39, 118, 350], "actions": ["left", "left", "left", "down", "down"], "actionTimes": [2844, 3922, 4478, 5107, 5970], "queries": {"click": {"state": {"target": [], "time": []}, "edge": {"target": [], "time": []}}, "mouseover": {"state": {"target": [], "time": []}, "edge": {"target": [], "time": []}}, "mouseout": {"state": {"target": ["14", "12", "23", "23", "0", "12"], "time": [418, 508, 659, 975, 16941, 17008]}, "edge": {"target": [], "time": []}}}, "displayed_time": "15.83", "trialTime": 17331, "trial_type": "mouselab-mdp", "trial_index": 41, "time_elapsed": 1226493, "internal_node_id": "0.0-4.0-1.0-32.0"}}, {"uniqueid": "w79287731:a79952852", "current_trial": 42, "dateTime": 1691072769837, "trialdata": {"revealed_states": [], "clicked_states": ["23", "24", "25", "30", "32"], "num_clicks_accrued": [0, 0, 0, 0, 0, 0, 0, 0, 0, 0, 0, 0, 0], "stateRewards": ["", -1, 3, 1, -7, 56, 76, 57, 3, 11, -9, 14, 1, -2, 2, 8, -77, -3, 79, -5, 88, 24, -66, -2, -1, 7, -7, -30, 14, -76, 11, -36, 28, -6], "withholdReward": false, "trial_id": "mdp_trial_34", "block": "test", "trialIndex": 35, "score": 67.25, "costs": -4.75, "simulationMode": [null, null, null, null, null], "rewards": [-1, 3, 1, -7, 76], "path": ["0", "0", "1", "2", "3", "4", "6"], "rt": [15303, 396, 390, 905, 79], "actions": ["up", "up", "up", "right", "right"], "actionTimes": [17157, 18056, 18952, 20362, 20952], "queries": {"click": {"state": {"target": ["23", "24", "25", "30", "32"], "time": [2881, 4246, 5230, 6219, 7244]}, "edge": {"target": [], "time": []}}, "mouseover": {"state": {"target": ["23", "24", "25", "30", "32", "31", "24", "28", "26"], "time": [2625, 3921, 4970, 5936, 6954, 8067, 8184, 8899, 9053]}, "edge": {"target": [], "time": []}}, "mouseout": {"state": {"target": ["12", "23", "23", "24", "25", "30", "32", "31", "24", "28", "26", "10", "2"], "time": [924, 2933, 3872, 4904, 5892, 6890, 7373, 8117, 8201, 8983, 22974, 23019, 23034]}, "edge": {"target": [], "time": []}}}, "displayed_time": "21.45", "trialTime": 25590, "trial_type": "mouselab-mdp", "trial_index": 42, "time_elapsed": 1252751, "internal_node_id": "0.0-4.0-1.0-33.0"}}, {"uniqueid": "w79287731:a79952852", "current_trial": 43, "dateTime": 1691072788207, "trialdata": {"revealed_states": [], "clicked_states": [], "num_clicks_accrued": [0, 0, 0, 0, 0, 0, 0, 0, 0, 0, 0, 0, 0], "stateRewards": ["", 2, -1, 3, -12, -83, 6, -33, 9, 28, 24, -50, -2, -1, -2, -5, -87, 37, 82, 12, 80, -5, 10, -2, -3, -6, 9, 22, -1, 16, 9, 77, -62, 58], "withholdReward": false, "trial_id": "mdp_trial_35", "block": "test", "trialIndex": 36, "score": -37, "costs": 0, "simulationMode": [null, null, null, null, null], "rewards": [2, -1, 3, 9, -50], "path": ["0", "0", "1", "2", "3", "8", "11"], "rt": [1521, 603, 221, 109, 398], "actions": ["up", "up", "up", "left", "left"], "actionTimes": [4131, 5238, 5956, 6579, 7564], "queries": {"click": {"state": {"target": [], "time": []}, "edge": {"target": [], "time": []}}, "mouseover": {"state": {"target": [], "time": []}, "edge": {"target": [], "time": []}}, "mouseout": {"state": {"target": ["14", "13"], "time": [1610, 1671]}, "edge": {"target": [], "time": []}}}, "displayed_time": "16.61", "trialTime": 17918, "trial_type": "mouselab-mdp", "trial_index": 43, "time_elapsed": 1271122, "internal_node_id": "0.0-4.0-1.0-34.0"}}, {"uniqueid": "w79287731:a79952852", "current_trial": 44, "dateTime": 1691072807535, "trialdata": {"revealed_states": [], "clicked_states": [], "num_clicks_accrued": [0, 0, 0, 0, 0, 0, 0, 0, 0, 0, 0, 0, 0], "stateRewards": ["", -2, 3, -1, -9, 44, 48, -37, -3, 71, -39, 87, -1, 3, -4, 4, -21, 59, -15, -8, -1, 28, -38, 2, 4, 4, 8, -85, -72, -63, 14, 58, 63, -46], "withholdReward": false, "trial_id": "mdp_trial_36", "block": "test", "trialIndex": 37, "score": 87, "costs": 0, "simulationMode": [null, null, null, null, null], "rewards": [2, 4, 4, 14, 63], "path": ["0", "0", "23", "24", "25", "30", "32"], "rt": [3987, 503, 275, 451, 654], "actions": ["left", "left", "left", "down", "down"], "actionTimes": [7270, 8277, 9050, 10013, 11176], "queries": {"click": {"state": {"target": [], "time": []}, "edge": {"target": [], "time": []}}, "mouseover": {"state": {"target": [], "time": []}, "edge": {"target": [], "time": []}}, "mouseout": {"state": {"target": ["20", "19", "13"], "time": [1717, 1734, 1779]}, "edge": {"target": [], "time": []}}}, "displayed_time": "17.28", "trialTime": 18392, "trial_type": "mouselab-mdp", "trial_index": 44, "time_elapsed": 1290450, "internal_node_id": "0.0-4.0-1.0-35.0"}}, {"uniqueid": "w79287731:a79952852", "current_trial": 45, "dateTime": 1691072829774, "trialdata": {"revealed_states": [], "clicked_states": [], "num_clicks_accrued": [0, 0, 0, 0, 0, 0, 0, 0, 0, 0, 0, 0, 0], "stateRewards": ["", -2, 3, -5, -7, 66, 43, -60, -4, -70, -75, 4, -1, 2, 2, -13, 54, 11, -40, -1, 77, 32, 15, -2, 3, -8, -9, -35, 83, -27, 6, -74, -34, 44], "withholdReward": false, "trial_id": "mdp_trial_37", "block": "test", "trialIndex": 38, "score": 34, "costs": 0, "simulationMode": [null, null, null, null, null], "rewards": [-1, 2, 2, -1, 32], "path": ["0", "0", "12", "13", "14", "19", "21"], "rt": [2429, 681, 431, 1243, 65], "actions": ["right", "right", "right", "down", "down"], "actionTimes": [5132, 6327, 7278, 11217, 11788], "queries": {"click": {"state": {"target": [], "time": []}, "edge": {"target": [], "time": []}}, "mouseover": {"state": {"target": [], "time": []}, "edge": {"target": [], "time": []}}, "mouseout": {"state": {"target": ["0"], "time": [1334]}, "edge": {"target": [], "time": []}}}, "displayed_time": "16.70", "trialTime": 21732, "trial_type": "mouselab-mdp", "trial_index": 45, "time_elapsed": 1312689, "internal_node_id": "0.0-4.0-1.0-36.0"}}, {"uniqueid": "w79287731:a79952852", "current_trial": 46, "dateTime": 1691072846701, "trialdata": {"revealed_states": [], "clicked_states": [], "num_clicks_accrued": [0, 0, 0, 0, 0, 0, 0, 0, 0, 0, 0, 0, 0], "stateRewards": ["", -2, 3, 3, -14, 62, 36, 49, 16, 11, 17, -84, 2, -1, 6, 2, -82, -73, 49, -6, -87, 48, 50, -1, -2, -1, -16, -11, 37, -44, 4, 55, 73, -10], "withholdReward": false, "trial_id": "mdp_trial_38", "block": "test", "trialIndex": 39, "score": -10, "costs": 0, "simulationMode": [null, null, null, null, null], "rewards": [-1, -2, -1, 4, -10], "path": ["0", "0", "23", "24", "25", "30", "33"], "rt": [4054, 526, 495, 370, 792], "actions": ["left", "left", "left", "down", "left"], "actionTimes": [5165, 6203, 7204, 8079, 9387], "queries": {"click": {"state": {"target": [], "time": []}, "edge": {"target": [], "time": []}}, "mouseover": {"state": {"target": [], "time": []}, "edge": {"target": [], "time": []}}, "mouseout": {"state": {"target": ["0"], "time": [835]}, "edge": {"target": [], "time": []}}}, "displayed_time": "15.11", "trialTime": 16430, "trial_type": "mouselab-mdp", "trial_index": 46, "time_elapsed": 1329616, "internal_node_id": "0.0-4.0-1.0-37.0"}}, {"uniqueid": "w79287731:a79952852", "current_trial": 47, "dateTime": 1691072865825, "trialdata": {"revealed_states": [], "clicked_states": [], "num_clicks_accrued": [0, 0, 0, 0, 0, 0, 0, 0, 0, 0, 0, 0, 0], "stateRewards": ["", -2, 2, -4, -4, -59, 88, 62, -3, 69, -15, -34, 1, -2, -5, 7, -54, -20, 78, -16, -74, -53, -21, 2, -4, 2, 13, -8, -44, 26, 9, 72, 4, 17], "withholdReward": false, "trial_id": "mdp_trial_39", "block": "test", "trialIndex": 40, "score": -53, "costs": 0, "simulationMode": [null, null, null, null, null], "rewards": [1, -2, -5, 7, -54], "path": ["0", "0", "12", "13", "14", "15", "16"], "rt": [4510, 342, 272, 355, 273], "actions": ["right", "right", "right", "up", "up"], "actionTimes": [6851, 7697, 8477, 9344, 10132], "queries": {"click": {"state": {"target": [], "time": []}, "edge": {"target": [], "time": []}}, "mouseover": {"state": {"target": [], "time": []}, "edge": {"target": [], "time": []}}, "mouseout": {"state": {"target": ["0"], "time": [1273]}, "edge": {"target": [], "time": []}}}, "displayed_time": "16.34", "trialTime": 18629, "trial_type": "mouselab-mdp", "trial_index": 47, "time_elapsed": 1348739, "internal_node_id": "0.0-4.0-1.0-38.0"}}, {"uniqueid": "w79287731:a79952852", "current_trial": 48, "dateTime": 1691072886065, "trialdata": {"revealed_states": [], "clicked_states": ["23", "24", "25", "30", "32"], "num_clicks_accrued": [0, 0, 0, 0, 0, 0, 0, 0, 0, 0, 0, 0, 0], "stateRewards": ["", -2, 1, -5, 2, -68, 80, 33, 10, 67, -59, 20, -1, -3, 3, 14, 74, -2, 24, -16, 63, 80, 46, -1, 4, 6, 12, 83, -38, -43, -4, 43, 14, -79], "withholdReward": false, "trial_id": "mdp_trial_40", "block": "test", "trialIndex": 41, "score": 24.25, "costs": -4.75, "simulationMode": [null, null, null, null, null, null], "rewards": [-2, 1, -5, 2, 33], "path": ["0", "0", "1", "2", "3", "4", "7"], "rt": [7717, 1914, 509, 367, 1195, 133], "actions": ["up", "up", "up", "up", "right", "down"], "actionTimes": [11210, 13128, 14147, 15018, 16746, 17382], "queries": {"click": {"state": {"target": ["23", "24", "25", "30", "32"], "time": [5620, 6458, 7234, 8294, 9197]}, "edge": {"target": [], "time": []}}, "mouseover": {"state": {"target": ["23", "24", "25", "30", "32", "31", "0", "12"], "time": [5010, 6192, 6958, 7969, 8973, 9756, 10276, 10341]}, "edge": {"target": [], "time": []}}, "mouseout": {"state": {"target": ["0", "23", "24", "25", "30", "32", "31", "0"], "time": [2378, 6127, 6908, 7964, 8756, 9364, 9823, 10324]}, "edge": {"target": [], "time": []}}}, "displayed_time": "17.88", "trialTime": 19766, "trial_type": "mouselab-mdp", "trial_index": 48, "time_elapsed": 1368981, "internal_node_id": "0.0-4.0-1.0-39.0"}}, {"uniqueid": "w79287731:a79952852", "current_trial": 49, "dateTime": 1691073214640, "trialdata": {"rt": 327342, "response": {"Q0": "$-2 to $2", "Q1": "$-16 to $16", "Q2": "$-16 to $16", "Q3": "The cost for clicking on nodes varied between nodes.", "Q4": "Slightly motivated"}, "question_order": [0, 1, 2, 3, 4], "trial_id": "final_quiz_control", "trial_type": "survey-multi-choice", "trial_index": 49, "time_elapsed": 1697555, "internal_node_id": "0.0-4.0-2.0"}}, {"uniqueid": "w79287731:a79952852", "current_trial": 50, "dateTime": 1691073494307, "trialdata": {"rt": 279212, "response": {"Q0": "I did not have a particular strategy. Sometimes I would try and avoid the previous path if that path had cost me a lot of money in the previous round ", "Q1": "No ", "Q2": "Not wanting to spend money to look at the nodes and also realising that as the game went further, the amount you lost became more "}, "trial_id": "self_report_control", "trial_type": "survey-text", "trial_index": 50, "time_elapsed": 1977221, "internal_node_id": "0.0-4.0-3.0"}}, {"uniqueid": "w79287731:a79952852", "current_trial": 51, "dateTime": 1691073542337, "trialdata": {"rt": 48010, "response": {"Q0": "Disagree", "Q1": "Disagree", "Q2": "Agree", "Q3": "Agree", "Q4": "Disagree", "Q5": "Agree", "Q6": "Strongly disagree"}, "question_order": [0, 1, 2, 3, 4, 5, 6], "trial_id": "self_report_2", "trial_type": "survey-multi-choice", "trial_index": 51, "time_elapsed": 2025253, "internal_node_id": "0.0-4.0-4.0"}}, {"uniqueid": "w79287731:a79952852", "current_trial": 52, "dateTime": 1691073585261, "trialdata": {"rt": 42855, "response": {"gender": "female", "age": "25", "colorblind": "0", "effort": "1"}, "trial_type": "survey-html-form", "trial_index": 52, "time_elapsed": 2068176, "internal_node_id": "0.0-4.0-5.0"}}, {"uniqueid": "w79287731:a79952852", "current_trial": 53, "dateTime": 1691073633194, "trialdata": {"rt": 47922, "response": {"Q0": "I was confused a bit by the instructions initially but I was able to understand how to play the game properly as time went on ", "Q1": "No ", "Q2": "None "}, "trial_type": "survey-text", "trial_index": 53, "time_elapsed": 2116110, "internal_node_id": "0.0-4.0-6.0"}}, {"uniqueid": "w79287731:a79952852", "current_trial": 54, "dateTime": 1691073640758, "trialdata": {"rt": 3813, "stimulus": "Press 'Finish HIT' in order to reach the completion code. Once the data has been saved, you will receive the code either in this window or in the original browser window where you started the experiment.\n", "response": 0, "trial_type": "html-button-response", "trial_index": 54, "time_elapsed": 2123674, "internal_node_id": "0.0-5.0"}}, {"uniqueid": "w79287731:a79952852", "current_trial": 55, "dateTime": 1691073641830, "trialdata": {"success": true, "trial_type": "fullscreen", "trial_index": 55, "time_elapsed": 2124746, "internal_node_id": "0.0-6.0"}}], "questiondata": {"params": {"CODE": "C6DMOQA6", "MIN_TIME": 14, "inspectCost": 1, "startTime": "Thu Aug 03 2023 16:05:11 GMT+0200 (South Africa Standard Time)", "bonusRate": 0.002, "variance": "1_2_4_8_44", "branching": "31123"}, "final_score": 397.7}, "eventdata": [{"eventtype": "initialized", "value": null, "timestamp": 1691071511087, "interval": 0}, {"eventtype": "window_resize", "value": [1024, 652], "timestamp": 1691071511087, "interval": 0}, {"eventtype": "window_resize", "value": [1024, 652], "timestamp": 1691071511642, "interval": 555}, {"eventtype": "window_resize", "value": [1366, 768], "timestamp": 1691071538096, "interval": 26454}], "useragent": "Mozilla/5.0 (Windows NT 10.0; Win64; x64) AppleWebKit/537.36 (KHTML, like Gecko) Chrome/114.0.0.0 Safari/537.36", "mode": "live", "id": "w79287731:a79952852", "status": "user data saved", "Beginhit": "2023-08-03 14:05:17.739242", "Beginexp": "2023-08-03 14:05:49.538115", "Endhit": "2023-08-03 14:41:00.162219", "psiturkStatus": 3, "browser": "<redacted>", "platform": "windows", "language": "en-US"}