{"condition": 0, "counterbalance": 0, "assignmentId": "a62461417", "workerId": "w90625846", "hitId": "h77523826", "currenttrial": 55, "bonus": 0, "data": [{"uniqueid": "w90625846:a62461417", "current_trial": 0, "dateTime": 1691076735636, "trialdata": {"success": true, "trial_type": "fullscreen", "trial_index": 0, "time_elapsed": 2894, "internal_node_id": "0.0-0.0"}}, {"uniqueid": "w90625846:a62461417", "current_trial": 1, "dateTime": 1691076740066, "trialdata": {"view_history": [{"page_index": 0, "viewing_time": 4425}], "rt": 4426, "trial_id": "exp_instructions_control", "trial_type": "instructions", "trial_index": 1, "time_elapsed": 7325, "internal_node_id": "0.0-1.0"}}, {"uniqueid": "w90625846:a62461417", "current_trial": 2, "dateTime": 1691076742783, "trialdata": {"success": true, "trial_type": "fullscreen", "trial_index": 2, "time_elapsed": 10042, "internal_node_id": "0.0-2.0-0.0"}}, {"uniqueid": "w90625846:a62461417", "current_trial": 3, "dateTime": 1691076845787, "trialdata": {"view_history": [{"page_index": 0, "viewing_time": 35751}, {"page_index": 1, "viewing_time": 41733}, {"page_index": 2, "viewing_time": 11579}, {"page_index": 3, "viewing_time": 13938}], "rt": 103001, "trial_id": "mouselab_instructions_1_control", "trial_type": "instructions", "trial_index": 3, "time_elapsed": 113046, "internal_node_id": "0.0-2.0-1.0"}}, {"uniqueid": "w90625846:a62461417", "current_trial": 4, "dateTime": 1691076877612, "trialdata": {"revealed_states": [], "clicked_states": ["23", "12", "1", "24", "28", "26", "25", "27", "13", "14", "15", "2"], "num_clicks_accrued": [0, 0, 0, 0, 0, 0, 0, 0, 0, 0, 0, 0, 0], "stateRewards": ["", 10, -10, 10, 10, -10, -10, -10, 10, -10, -10, 10, 10, -10, -10, -10, -10, -10, 10, 10, -10, 10, -10, -10, -10, 10, -10, -10, 10, 10, 10, -10, 10, -10], "withholdReward": false, "trial_id": "practice_1", "block": "test", "trialIndex": 0, "score": -32.5, "costs": -6, "simulationMode": [null, null, null, null, null], "rewards": [-10, -10, 10, -10, -10], "path": ["0", "0", "23", "24", "25", "26", "27"], "rt": [21656, 573, 130, 971, 91], "actions": ["left", "left", "left", "up", "up"], "actionTimes": [22883, 23967, 24619, 26114, 26726], "queries": {"click": {"state": {"target": ["23", "12", "1", "24", "28", "26", "25", "27", "13", "14", "15", "2"], "time": [2587, 4666, 5738, 6833, 8162, 9548, 10644, 11949, 16465, 17865, 19241, 20436]}, "edge": {"target": [], "time": []}}, "mouseover": {"state": {"target": ["23", "12", "1", "1", "24", "28", "25", "26", "25", "27", "24", "24", "24", "23", "12", "12", "13", "14", "15", "18", "2", "10"], "time": [2338, 4501, 5220, 5554, 6582, 7496, 8595, 9380, 9994, 11692, 12708, 13037, 13739, 13771, 14152, 14572, 16411, 17166, 18366, 19545, 20161, 21028]}, "edge": {"target": [], "time": []}}, "mouseout": {"state": {"target": ["0", "0", "23", "12", "1", "1", "1", "24", "28", "25", "26", "25", "26", "27", "26", "24", "24", "24", "23", "12", "12", "13", "14", "15", "18", "2", "10"], "time": [374, 1994, 2796, 5151, 5269, 5988, 6419, 6863, 8496, 9312, 9960, 11141, 11624, 12309, 12373, 12789, 13603, 13755, 13786, 14235, 16266, 17132, 18247, 19494, 19714, 20671, 21541]}, "edge": {"target": [], "time": []}}}, "displayed_time": "27.24", "trialTime": 31306, "trial_type": "mouselab-mdp", "trial_index": 4, "time_elapsed": 144870, "internal_node_id": "0.0-2.0-2.0-0.0"}}, {"uniqueid": "w90625846:a62461417", "current_trial": 5, "dateTime": 1691076907880, "trialdata": {"revealed_states": [], "clicked_states": ["23", "1", "12"], "num_clicks_accrued": [0, 0, 0, 0, 0, 0, 0, 0, 0, 0, 0, 0, 0], "stateRewards": ["", -10, -10, -10, 10, -10, 10, -10, 10, -10, 10, 10, -10, 10, -10, 10, -10, 10, -10, -10, -10, -10, 10, -10, -10, -10, 10, -10, -10, 10, 10, 10, 10, -10], "withholdReward": false, "trial_id": "practice_2", "block": "test", "trialIndex": 1, "score": -8, "costs": -1.5, "simulationMode": [null, null, null, null, null], "rewards": [-10, -10, -10, 10, 10], "path": ["0", "0", "1", "2", "3", "8", "11"], "rt": [12806, 1427, 1743, 473, 1181], "actions": ["up", "up", "up", "left", "left"], "actionTimes": [16006, 17950, 20212, 21206, 22896], "queries": {"click": {"state": {"target": ["23", "1", "12"], "time": [8313, 10736, 12428]}, "edge": {"target": [], "time": []}}, "mouseover": {"state": {"target": ["23", "26", "24", "23", "23", "1", "12", "0"], "time": [4277, 4388, 4953, 5437, 7566, 10365, 11778, 13325]}, "edge": {"target": [], "time": []}}, "mouseout": {"state": {"target": ["12", "0", "23", "26", "24", "23", "23", "1", "1", "12", "0", "0", "12", "13"], "time": [2492, 4255, 4305, 4559, 5387, 6836, 9963, 10917, 11195, 13295, 13444, 26657, 26677, 26691]}, "edge": {"target": [], "time": []}}}, "displayed_time": "23.41", "trialTime": 29928, "trial_type": "mouselab-mdp", "trial_index": 5, "time_elapsed": 175139, "internal_node_id": "0.0-2.0-2.0-1.0"}}, {"uniqueid": "w90625846:a62461417", "current_trial": 6, "dateTime": 1691076928897, "trialdata": {"view_history": [{"page_index": 0, "viewing_time": 17239}, {"page_index": 1, "viewing_time": 3774}], "rt": 21013, "trial_id": "mouselab_instructions_2_control", "trial_type": "instructions", "trial_index": 6, "time_elapsed": 196156, "internal_node_id": "0.0-2.0-3.0"}}, {"uniqueid": "w90625846:a62461417", "current_trial": 7, "dateTime": 1691076951666, "trialdata": {"rt": 22763, "response": {"Q0": "The cost for clicking on nodes may vary between nodes.", "Q1": "The better I perform the higher my bonus will be.", "Q2": "No, the amount of cash at each node of the web may be different each time.", "Q3": "To get the highest total score.", "Q4": "Only before moving the spider.", "Q5": "3 seconds"}, "question_order": [0, 1, 2, 3, 4, 5], "correct": {"Q0": "The cost for clicking on nodes may vary between nodes.", "Q1": "The better I perform the higher my bonus will be.", "Q2": "No, the amount of cash at each node of the web may be different each time.", "Q3": "To get the highest total score.", "Q4": "Only before moving the spider.", "Q5": "3 seconds"}, "trial_id": "mouselab_quiz_control", "trial_type": "survey-multi-choice", "trial_index": 7, "time_elapsed": 218925, "internal_node_id": "0.0-2.0-4.0"}}, {"uniqueid": "w90625846:a62461417", "current_trial": 8, "dateTime": 1691076956545, "trialdata": {"rt": 4871, "stimulus": "\n<h1> Get ready to start the game! </h1>\n\nThank you for reading the instructions. Get ready start with the 40 rounds of this game.\n<br><br>\nIf you need to take a break, feel free to take one after the end of a round, before continuing to the next one.\n<br><br>\nRemember, the more money the spider gets, the bigger your bonus will be!\n<br><br>\n<div style='text-align: center;'>Press <code>space</code> to begin.</div>\n\n<br><br>\n(If, at any point, the <code>space</code> key does not take you to the next page, click once on the text and try again.)", "response": " ", "trial_id": "mdp_ready", "trial_type": "html-keyboard-response", "trial_index": 8, "time_elapsed": 223804, "internal_node_id": "0.0-4.0-0.0"}}, {"uniqueid": "w90625846:a62461417", "current_trial": 9, "dateTime": 1691076975591, "trialdata": {"revealed_states": [], "clicked_states": ["23"], "num_clicks_accrued": [0, 0, 0, 0, 0, 0, 0, 0, 0, 0, 0, 0, 0], "stateRewards": ["", 2, -1, 1, 10, -52, 86, -22, -2, -14, -63, 38, 1, 3, 7, -8, 11, -32, -27, 9, -71, 40, -87, -2, -1, 5, -7, 12, 31, -57, 13, 86, -58, 29], "withholdReward": false, "trial_id": "mdp_trial_1", "block": "test", "trialIndex": 2, "score": 42.6, "costs": -1.4, "simulationMode": [null, null, null, null, null], "rewards": [-2, -1, 5, 13, 29], "path": ["0", "0", "23", "24", "25", "30", "33"], "rt": [4046, 953, 920, 679, 431], "actions": ["left", "left", "left", "down", "left"], "actionTimes": [5198, 6663, 8102, 9302, 10251], "queries": {"click": {"state": {"target": ["23"], "time": [2365]}, "edge": {"target": [], "time": []}}, "mouseover": {"state": {"target": ["23", "23"], "time": [1897, 2213]}, "edge": {"target": [], "time": []}}, "mouseout": {"state": {"target": ["1", "23", "23", "23", "23"], "time": [415, 1980, 2505, 3345, 13901]}, "edge": {"target": [], "time": []}}}, "displayed_time": "15.15", "trialTime": 18701, "trial_type": "mouselab-mdp", "trial_index": 9, "time_elapsed": 242850, "internal_node_id": "0.0-4.0-1.0-0.0"}}, {"uniqueid": "w90625846:a62461417", "current_trial": 10, "dateTime": 1691077000192, "trialdata": {"revealed_states": [], "clicked_states": ["1", "12", "23"], "num_clicks_accrued": [0, 0, 0, 0, 0, 0, 0, 0, 0, 0, 0, 0, 0], "stateRewards": ["", -1, 2, -6, 6, 43, 78, 78, -2, 55, -29, -17, -2, -4, 1, -15, 13, 7, -79, 8, -28, -68, 36, -1, -3, 3, -16, 84, -18, 87, 10, 32, 13, -81], "withholdReward": false, "trial_id": "mdp_trial_2", "block": "test", "trialIndex": 3, "score": -76.2, "costs": -4.199999999999999, "simulationMode": [null, null, null, null, null], "rewards": [-1, -3, 3, 10, -81], "path": ["0", "0", "23", "24", "25", "30", "33"], "rt": [7844, 397, 169, 110, 270], "actions": ["left", "left", "left", "down", "left"], "actionTimes": [10452, 11380, 12066, 12695, 13482], "queries": {"click": {"state": {"target": ["1", "12", "23"], "time": [3593, 5840, 7898]}, "edge": {"target": [], "time": []}}, "mouseover": {"state": {"target": ["1", "12", "0", "23", "24", "23"], "time": [3176, 4757, 6063, 6105, 6190, 6541]}, "edge": {"target": [], "time": []}}, "mouseout": {"state": {"target": ["19", "22", "0", "1", "12", "0", "23", "24", "23"], "time": [878, 895, 1427, 4176, 6058, 6089, 6155, 6472, 8284]}, "edge": {"target": [], "time": []}}}, "displayed_time": "16.61", "trialTime": 24213, "trial_type": "mouselab-mdp", "trial_index": 10, "time_elapsed": 267451, "internal_node_id": "0.0-4.0-1.0-1.0"}}, {"uniqueid": "w90625846:a62461417", "current_trial": 11, "dateTime": 1691077025458, "trialdata": {"revealed_states": [], "clicked_states": ["12", "13", "14", "15", "19"], "num_clicks_accrued": [0, 0, 0, 0, 0, 0, 0, 0, 0, 0, 0, 0, 0], "stateRewards": ["", 2, -2, 7, -11, -76, -65, -23, 16, -58, 30, 81, 1, 2, 7, 14, 9, 55, -2, 6, 11, -15, 31, -1, -1, -3, 2, 15, 2, 46, 15, 18, 45, -34], "withholdReward": false, "trial_id": "mdp_trial_3", "block": "test", "trialIndex": 4, "score": 26, "costs": -7, "simulationMode": [null, null, null, null, null], "rewards": [1, 2, 7, 14, 9], "path": ["0", "0", "12", "13", "14", "15", "16"], "rt": [14020, 41, 46, 56, 113], "actions": ["right", "right", "right", "up", "up"], "actionTimes": [17571, 18136, 18719, 19313, 19952], "queries": {"click": {"state": {"target": ["12", "13", "14", "15", "19"], "time": [5224, 7243, 9582, 12017, 14671]}, "edge": {"target": [], "time": []}}, "mouseover": {"state": {"target": ["12", "13", "14", "15", "15", "19", "22", "12"], "time": [4944, 5878, 7625, 10270, 11699, 12380, 15177, 15522]}, "edge": {"target": [], "time": []}}, "mouseout": {"state": {"target": ["16", "17", "0", "12", "13", "14", "15", "15", "15", "14", "19", "22"], "time": [199, 2179, 4792, 5809, 7575, 10238, 10334, 12147, 12281, 12348, 15129, 15196]}, "edge": {"target": [], "time": []}}}, "displayed_time": "20.48", "trialTime": 24770, "trial_type": "mouselab-mdp", "trial_index": 11, "time_elapsed": 292716, "internal_node_id": "0.0-4.0-1.0-2.0"}}, {"uniqueid": "w90625846:a62461417", "current_trial": 12, "dateTime": 1691077047886, "trialdata": {"revealed_states": [], "clicked_states": ["12", "13", "24", "2"], "num_clicks_accrued": [0, 0, 0, 0, 0, 0, 0, 0, 0, 0, 0, 0, 0], "stateRewards": ["", -1, 3, 8, 9, -53, 20, -84, 2, -28, -62, -31, -1, -2, -7, 2, 51, 58, 45, -4, -17, -41, 36, 2, -2, -7, -15, 29, -54, -37, -16, -43, 65, -17], "withholdReward": false, "trial_id": "mdp_trial_4", "block": "test", "trialIndex": 5, "score": -21.6, "costs": -5.6, "simulationMode": [null, null, null, null, null], "rewards": [-1, 3, 8, 2, -28], "path": ["0", "0", "1", "2", "3", "8", "9"], "rt": [11492, 56, 64, 936, 652], "actions": ["up", "up", "up", "left", "up"], "actionTimes": [12871, 13439, 14028, 15482, 16648], "queries": {"click": {"state": {"target": ["12", "13", "24", "2"], "time": [2133, 4567, 7112, 10011]}, "edge": {"target": [], "time": []}}, "mouseover": {"state": {"target": ["12", "13", "14", "14", "23", "24", "2", "1"], "time": [1866, 4244, 4982, 5343, 6739, 6772, 9800, 10584]}, "edge": {"target": [], "time": []}}, "mouseout": {"state": {"target": ["12", "23", "12", "13", "14", "14", "23", "24", "24", "2", "1"], "time": [599, 765, 4094, 4927, 5026, 6672, 6755, 7622, 9386, 10534, 10667]}, "edge": {"target": [], "time": []}}}, "displayed_time": "17.16", "trialTime": 22038, "trial_type": "mouselab-mdp", "trial_index": 12, "time_elapsed": 315144, "internal_node_id": "0.0-4.0-1.0-3.0"}}, {"uniqueid": "w90625846:a62461417", "current_trial": 13, "dateTime": 1691077077911, "trialdata": {"revealed_states": [], "clicked_states": ["1", "3", "24", "14", "16", "21", "32"], "num_clicks_accrued": [0, 0, 0, 0, 0, 0, 0, 0, 0, 0, 0, 0, 0], "stateRewards": ["", 1, -2, -8, -3, 31, -84, -55, -14, 15, -58, 17, -2, -3, 7, 7, -12, 48, 67, 4, -44, -68, 46, 2, 3, -5, -7, 76, 27, 5, 11, 57, 52, 59], "withholdReward": false, "trial_id": "mdp_trial_5", "block": "test", "trialIndex": 6, "score": 53.2, "costs": -9.8, "simulationMode": [null, null, null, null, null], "rewards": [2, 3, -5, 11, 52], "path": ["0", "0", "23", "24", "25", "30", "32"], "rt": [20985, 185, 79, 135, 69], "actions": ["left", "left", "left", "down", "down"], "actionTimes": [22383, 23087, 23681, 24338, 24922], "queries": {"click": {"state": {"target": ["1", "3", "24", "14", "16", "21", "32"], "time": [2304, 5115, 8198, 10389, 13774, 16525, 19411]}, "edge": {"target": [], "time": []}}, "mouseover": {"state": {"target": ["1", "2", "3", "8", "3", "2", "1", "24", "24", "23", "0", "12", "13", "14", "13", "12", "25", "25", "18", "16", "15", "19", "21", "19", "14", "13", "31", "32", "30", "25", "26", "27"], "time": [1865, 3816, 4182, 4263, 4794, 5648, 7491, 7774, 8106, 8639, 8988, 9058, 9125, 9394, 10702, 10723, 11137, 12200, 13330, 13614, 14031, 15827, 16358, 17078, 17459, 18655, 18755, 19054, 19775, 19830, 20107, 20188]}, "edge": {"target": [], "time": []}}, "mouseout": {"state": {"target": ["0", "1", "1", "2", "3", "8", "3", "2", "1", "24", "24", "23", "0", "12", "13", "14", "13", "12", "25", "25", "18", "16", "15", "14", "19", "21", "19", "14", "13", "31", "32", "30", "25", "26"], "time": [1789, 3017, 3780, 4131, 4212, 4711, 5577, 7364, 7705, 7806, 8606, 8672, 9021, 9089, 9359, 10686, 10718, 10739, 11982, 13232, 13347, 13997, 14047, 15129, 16277, 16666, 17412, 18626, 18688, 18988, 19738, 19803, 20054, 20153]}, "edge": {"target": [], "time": []}}}, "displayed_time": "25.43", "trialTime": 29618, "trial_type": "mouselab-mdp", "trial_index": 13, "time_elapsed": 345170, "internal_node_id": "0.0-4.0-1.0-4.0"}}, {"uniqueid": "w90625846:a62461417", "current_trial": 14, "dateTime": 1691077100569, "trialdata": {"revealed_states": [], "clicked_states": ["27", "32", "21", "16", "5", "9"], "num_clicks_accrued": [0, 0, 0, 0, 0, 0, 0, 0, 0, 0, 0, 0, 0], "stateRewards": ["", -2, -3, 4, 1, 33, -53, 15, 9, -12, 61, -6, -2, 4, 6, -11, 47, -43, -7, -11, 46, 23, -28, -1, -1, 3, -10, 11, 76, -76, 10, 18, -38, 87], "withholdReward": false, "trial_id": "mdp_trial_6", "block": "test", "trialIndex": 7, "score": 35.6, "costs": -8.4, "simulationMode": [null, null, null, null, null], "rewards": [-2, 4, 6, -11, 47], "path": ["0", "0", "12", "13", "14", "15", "16"], "rt": [13850, 543, 111, 433, 64], "actions": ["right", "right", "right", "up", "up"], "actionTimes": [15479, 16551, 17179, 18131, 18715], "queries": {"click": {"state": {"target": ["27", "32", "21", "16", "5", "9"], "time": [2324, 4259, 6231, 8253, 10322, 12283]}, "edge": {"target": [], "time": []}}, "mouseover": {"state": {"target": ["28", "27", "26", "25", "30", "32", "21", "21", "19", "14", "16", "6", "5", "9"], "time": [1722, 1803, 2588, 2663, 2956, 3012, 4985, 5366, 6567, 6599, 6934, 8690, 8981, 10662]}, "edge": {"target": [], "time": []}}, "mouseout": {"state": {"target": ["27", "28", "23", "28", "27", "26", "25", "30", "32", "21", "21", "19", "14", "16", "6", "5", "9"], "time": [456, 522, 795, 1739, 2555, 2622, 2942, 3006, 4602, 5084, 6531, 6588, 6613, 8614, 8714, 10483, 12487]}, "edge": {"target": [], "time": []}}}, "displayed_time": "19.25", "trialTime": 22278, "trial_type": "mouselab-mdp", "trial_index": 14, "time_elapsed": 367827, "internal_node_id": "0.0-4.0-1.0-5.0"}}, {"uniqueid": "w90625846:a62461417", "current_trial": 15, "dateTime": 1691077134459, "trialdata": {"revealed_states": [], "clicked_states": ["27", "32", "9", "5", "16", "21", "20", "22", "31", "33"], "num_clicks_accrued": [0, 0, 0, 0, 0, 0, 0, 0, 0, 0, 0, 0, 0], "stateRewards": ["", -1, 2, -6, 6, -82, -19, -39, -16, -83, 11, -33, -2, -2, 4, -6, -82, -1, -19, -6, -10, -67, -41, -2, 1, -7, 16, -23, -78, -52, 14, 31, -71, 74], "withholdReward": false, "trial_id": "mdp_trial_7", "block": "test", "trialIndex": 8, "score": 66, "costs": -14.000000000000002, "simulationMode": [null, null, null, null, null], "rewards": [-2, 1, -7, 14, 74], "path": ["0", "0", "23", "24", "25", "30", "33"], "rt": [24310, 220, 504, 158, 252], "actions": ["left", "left", "left", "down", "left"], "actionTimes": [26099, 26831, 27856, 28532, 29307], "queries": {"click": {"state": {"target": ["27", "32", "9", "5", "16", "21", "20", "22", "31", "33"], "time": [3046, 5006, 7053, 9135, 11107, 13043, 16281, 18692, 21116, 23308]}, "edge": {"target": [], "time": []}}, "mouseover": {"state": {"target": ["23", "26", "27", "26", "25", "32", "30", "24", "8", "9", "5", "5", "6", "18", "16", "15", "14", "19", "21", "20", "17", "14", "22", "31", "30", "33", "30", "0"], "time": [2195, 2261, 2594, 3528, 3800, 4130, 5325, 5354, 5413, 5843, 7405, 7654, 9455, 9543, 9836, 11398, 11433, 11453, 12300, 16023, 16923, 18135, 18519, 19595, 21782, 22032, 23725, 24079]}, "edge": {"target": [], "time": []}}, "mouseout": {"state": {"target": ["3", "2", "1", "1", "23", "26", "27", "26", "25", "32", "30", "24", "8", "9", "5", "5", "6", "18", "16", "15", "14", "19", "21", "20", "17", "14", "22", "22", "31", "30", "33", "30", "31"], "time": [597, 846, 1012, 1229, 2229, 2278, 3478, 3578, 3841, 5292, 5346, 5373, 5428, 7341, 7442, 9407, 9472, 9754, 11368, 11416, 11448, 11500, 15673, 16790, 18053, 18169, 18837, 19137, 21732, 21965, 23700, 23764, 23828]}, "edge": {"target": [], "time": []}}}, "displayed_time": "29.82", "trialTime": 33496, "trial_type": "mouselab-mdp", "trial_index": 15, "time_elapsed": 401718, "internal_node_id": "0.0-4.0-1.0-6.0"}}, {"uniqueid": "w90625846:a62461417", "current_trial": 16, "dateTime": 1691077158821, "trialdata": {"revealed_states": [], "clicked_states": ["32", "31", "33"], "num_clicks_accrued": [0, 0, 0, 0, 0, 0, 0, 0, 0, 0, 0, 0, 0], "stateRewards": ["", 1, 1, -2, 7, -31, -6, 76, 1, -36, -16, -53, 2, 1, 7, 13, -47, -10, 47, -7, 72, 46, -56, -2, -2, -2, 11, -80, 44, 38, 16, 67, 85, -78], "withholdReward": false, "trial_id": "mdp_trial_8", "block": "test", "trialIndex": 9, "score": 90.8, "costs": -4.199999999999999, "simulationMode": [null, null, null, null, null], "rewards": [-2, -2, -2, 16, 85], "path": ["0", "0", "23", "24", "25", "30", "32"], "rt": [7727, 231, 2, 102, 58], "actions": ["left", "left", "left", "down", "down"], "actionTimes": [9251, 10001, 10521, 11152, 11732], "queries": {"click": {"state": {"target": ["32", "31", "33"], "time": [2544, 4614, 6525]}, "edge": {"target": [], "time": []}}, "mouseover": {"state": {"target": ["0", "32", "31", "30", "33", "30", "0"], "time": [1697, 2381, 3007, 4858, 5027, 7025, 7254]}, "edge": {"target": [], "time": []}}, "mouseout": {"state": {"target": ["0", "0", "32", "31", "30", "33", "30"], "time": [780, 1728, 2945, 4841, 4910, 7007, 7054]}, "edge": {"target": [], "time": []}}}, "displayed_time": "15.53", "trialTime": 23977, "trial_type": "mouselab-mdp", "trial_index": 16, "time_elapsed": 426079, "internal_node_id": "0.0-4.0-1.0-7.0"}}, {"uniqueid": "w90625846:a62461417", "current_trial": 17, "dateTime": 1691077181399, "trialdata": {"revealed_states": [], "clicked_states": ["27", "9", "11", "5", "10"], "num_clicks_accrued": [0, 0, 0, 0, 0, 0, 0, 0, 0, 0, 0, 0, 0], "stateRewards": ["", 2, 3, 6, -12, -29, 12, 87, 4, 35, -30, 67, 2, 3, -5, -9, 44, 69, -8, 1, 45, -8, 28, -2, -1, -8, 11, -12, -5, 81, 9, 87, 82, 88], "withholdReward": false, "trial_id": "mdp_trial_9", "block": "test", "trialIndex": 10, "score": 75, "costs": -7, "simulationMode": [null, null, null, null, null], "rewards": [2, 3, 6, 4, 67], "path": ["0", "0", "1", "2", "3", "8", "11"], "rt": [13697, 202, 86, 671, 43], "actions": ["up", "up", "up", "left", "left"], "actionTimes": [15053, 15776, 16376, 17560, 18114], "queries": {"click": {"state": {"target": ["27", "9", "11", "5", "10"], "time": [2470, 4418, 7340, 9422, 11833]}, "edge": {"target": [], "time": []}}, "mouseover": {"state": {"target": ["28", "27", "8", "9", "8", "10", "24", "32", "32", "24", "28", "11", "8", "5", "3", "10", "8"], "time": [1810, 2125, 2945, 3259, 4692, 4715, 5022, 5108, 5322, 6701, 6735, 7051, 7706, 8053, 11177, 11294, 12583]}, "edge": {"target": [], "time": []}}, "mouseout": {"state": {"target": ["0", "1", "2", "1", "28", "27", "8", "9", "8", "10", "24", "32", "32", "24", "28", "11", "8", "5", "3", "10"], "time": [235, 311, 710, 760, 1826, 2861, 3027, 4673, 4710, 4756, 5056, 5140, 6629, 6719, 6752, 7687, 7734, 9748, 11227, 11962]}, "edge": {"target": [], "time": []}}}, "displayed_time": "18.65", "trialTime": 22140, "trial_type": "mouselab-mdp", "trial_index": 17, "time_elapsed": 448657, "internal_node_id": "0.0-4.0-1.0-8.0"}}, {"uniqueid": "w90625846:a62461417", "current_trial": 18, "dateTime": 1691077201699, "trialdata": {"revealed_states": [], "clicked_states": ["29", "27", "9", "28"], "num_clicks_accrued": [0, 0, 0, 0, 0, 0, 0, 0, 0, 0, 0, 0, 0], "stateRewards": ["", -1, -4, 8, 8, -68, 47, 24, -7, -61, 49, -69, -1, -1, 8, -7, 42, 1, -45, -11, 10, -63, -6, 1, 4, 6, -16, 79, -37, -58, -12, 81, 18, -53], "withholdReward": false, "trial_id": "mdp_trial_10", "block": "test", "trialIndex": 11, "score": 68.4, "costs": -5.6, "simulationMode": [null, null, null, null, null], "rewards": [1, 4, 6, -16, 79], "path": ["0", "0", "23", "24", "25", "26", "27"], "rt": [10772, 202, 333, 1563, 146], "actions": ["left", "left", "left", "up", "up"], "actionTimes": [12840, 13571, 14426, 16504, 17167], "queries": {"click": {"state": {"target": ["29", "27", "9", "28"], "time": [3620, 5518, 7746, 10072]}, "edge": {"target": [], "time": []}}, "mouseover": {"state": {"target": ["23", "24", "25", "29", "29", "27", "11", "9", "11", "28", "10", "3", "5"], "time": [2592, 2641, 2890, 2991, 3357, 4056, 6073, 6636, 8134, 9218, 10412, 10495, 11045]}, "edge": {"target": [], "time": []}}, "mouseout": {"state": {"target": ["8", "10", "0", "1", "0", "23", "24", "25", "29", "29", "27", "11", "9", "11", "28", "10", "3"], "time": [898, 926, 1375, 1628, 2576, 2625, 2658, 2957, 3007, 3735, 6037, 6326, 8002, 9132, 10225, 10448, 10580]}, "edge": {"target": [], "time": []}}}, "displayed_time": "17.69", "trialTime": 19892, "trial_type": "mouselab-mdp", "trial_index": 18, "time_elapsed": 468957, "internal_node_id": "0.0-4.0-1.0-9.0"}}, {"uniqueid": "w90625846:a62461417", "current_trial": 19, "dateTime": 1691077234168, "trialdata": {"revealed_states": [], "clicked_states": ["9", "5", "6", "7", "10", "11", "16", "17", "20", "21"], "num_clicks_accrued": [0, 0, 0, 0, 0, 0, 0, 0, 0, 0, 0, 0, 0], "stateRewards": ["", -2, -3, -3, 9, 79, 67, 22, -15, -56, 27, -85, -2, 4, -4, -15, -20, -32, 60, 15, 71, 57, 17, 1, 2, -8, 15, -37, -81, 82, 15, 21, -3, 2], "withholdReward": false, "trial_id": "mdp_trial_11", "block": "test", "trialIndex": 12, "score": 70, "costs": -14.000000000000002, "simulationMode": [null, null, null, null, null], "rewards": [-2, 4, -4, 15, 71], "path": ["0", "0", "12", "13", "14", "19", "20"], "rt": [23473, 214, 93, 115, 56], "actions": ["right", "right", "right", "down", "right"], "actionTimes": [26763, 27493, 28099, 28735, 29309], "queries": {"click": {"state": {"target": ["9", "5", "6", "7", "10", "11", "16", "17", "20", "21"], "time": [4941, 6925, 9692, 11723, 14670, 16703, 18749, 20722, 22683, 24751]}, "edge": {"target": [], "time": []}}, "mouseover": {"state": {"target": ["1", "2", "3", "8", "9", "5", "18", "15", "16", "6", "7", "4", "5", "8", "11", "11", "10", "11", "1", "17", "16", "16", "17", "20", "21"], "time": [4058, 4107, 4422, 4472, 4673, 5758, 7555, 7838, 8613, 9248, 10148, 12262, 12628, 14025, 14046, 14324, 14424, 15156, 17572, 17969, 18238, 18500, 19654, 21765, 22960]}, "edge": {"target": [], "time": []}}, "mouseout": {"state": {"target": ["5", "6", "15", "13", "12", "23", "1", "2", "3", "8", "9", "5", "5", "18", "15", "16", "6", "7", "4", "5", "8", "11", "11", "10", "11", "10", "1", "17", "16", "16", "16", "17", "20"], "time": [246, 327, 1282, 1294, 1327, 1576, 4074, 4123, 4440, 4556, 5559, 7069, 7138, 7585, 7870, 9165, 10065, 12195, 12319, 13992, 14043, 14058, 14373, 14814, 17487, 17552, 17608, 18192, 18283, 18819, 19120, 21097, 22911]}, "edge": {"target": [], "time": []}}}, "displayed_time": "29.84", "trialTime": 32061, "trial_type": "mouselab-mdp", "trial_index": 19, "time_elapsed": 501426, "internal_node_id": "0.0-4.0-1.0-10.0"}}, {"uniqueid": "w90625846:a62461417", "current_trial": 20, "dateTime": 1691077261584, "trialdata": {"revealed_states": [], "clicked_states": ["9", "5", "16", "20", "21", "22", "32", "31", "33"], "num_clicks_accrued": [0, 0, 0, 0, 0, 0, 0, 0, 0, 0, 0, 0, 0], "stateRewards": ["", -1, -3, 1, 13, -64, -29, 12, -4, -33, 50, 56, 2, -3, 4, 11, -64, -58, -55, 12, 47, 38, -25, -2, 2, 5, -15, 85, 7, 84, 10, 8, 57, 26], "withholdReward": false, "trial_id": "mdp_trial_12", "block": "test", "trialIndex": 13, "score": 59.4, "costs": -12.600000000000001, "simulationMode": [null, null, null, null, null], "rewards": [-2, 2, 5, 10, 57], "path": ["0", "0", "23", "24", "25", "30", "32"], "rt": [20562, 194, 476, 95, 482], "actions": ["left", "left", "left", "down", "down"], "actionTimes": [21955, 22659, 23656, 24280, 25277], "queries": {"click": {"state": {"target": ["9", "5", "16", "20", "21", "22", "32", "31", "33"], "time": [2570, 4542, 6624, 8609, 10771, 12799, 14844, 16951, 18887]}, "edge": {"target": [], "time": []}}, "mouseover": {"state": {"target": ["1", "8", "9", "5", "15", "16", "15", "20", "21", "22", "22", "31", "32", "31", "30", "33"], "time": [1878, 1927, 2276, 3210, 5272, 5396, 6903, 7022, 9086, 11263, 11529, 13945, 14010, 15438, 17209, 17353]}, "edge": {"target": [], "time": []}}, "mouseout": {"state": {"target": ["21", "0", "1", "8", "9", "5", "15", "16", "15", "20", "21", "22", "22", "31", "32", "31", "30", "33"], "time": [628, 994, 1894, 2199, 3126, 4856, 5323, 6871, 6936, 8834, 10953, 11282, 12989, 13978, 15157, 17188, 17253, 19386]}, "edge": {"target": [], "time": []}}}, "displayed_time": "25.80", "trialTime": 27013, "trial_type": "mouselab-mdp", "trial_index": 20, "time_elapsed": 528843, "internal_node_id": "0.0-4.0-1.0-11.0"}}, {"uniqueid": "w90625846:a62461417", "current_trial": 21, "dateTime": 1691077279225, "trialdata": {"revealed_states": [], "clicked_states": ["27", "29"], "num_clicks_accrued": [0, 0, 0, 0, 0, 0, 0, 0, 0, 0, 0, 0, 0], "stateRewards": ["", -2, 2, 5, -14, -56, 64, 84, -5, 52, 39, 85, -2, 1, 7, 8, 21, 29, -78, -9, -10, -69, 10, -2, -1, -7, 15, 72, 20, 41, -2, 52, 80, 22], "withholdReward": false, "trial_id": "mdp_trial_13", "block": "test", "trialIndex": 14, "score": 74.2, "costs": -2.8, "simulationMode": [null, null, null, null, null], "rewards": [-2, -1, -7, 15, 72], "path": ["0", "0", "23", "24", "25", "26", "27"], "rt": [5237, 201, 578, 22, 5], "actions": ["left", "left", "left", "up", "up"], "actionTimes": [6648, 7371, 8463, 9005, 9527], "queries": {"click": {"state": {"target": ["27", "29"], "time": [2596, 4740]}, "edge": {"target": [], "time": []}}, "mouseover": {"state": {"target": ["27", "27", "29", "26", "28"], "time": [2191, 2340, 2994, 5020, 5057]}, "edge": {"target": [], "time": []}}, "mouseout": {"state": {"target": ["30", "23", "0", "27", "27", "29", "26", "28", "1"], "time": [592, 642, 775, 2208, 2941, 4918, 5053, 5090, 13924]}, "edge": {"target": [], "time": []}}}, "displayed_time": "15.41", "trialTime": 17060, "trial_type": "mouselab-mdp", "trial_index": 21, "time_elapsed": 546483, "internal_node_id": "0.0-4.0-1.0-12.0"}}, {"uniqueid": "w90625846:a62461417", "current_trial": 22, "dateTime": 1691077310999, "trialdata": {"revealed_states": [], "clicked_states": ["27", "32", "33", "31", "21", "16", "20", "22", "5", "9"], "num_clicks_accrued": [0, 0, 0, 0, 0, 0, 0, 0, 0, 0, 0, 0, 0], "stateRewards": ["", 2, -1, 4, -9, -43, 7, 54, -13, 38, -40, -83, -1, 2, -8, -10, 34, -33, 11, -14, -79, 65, 26, 1, 2, 4, 10, 21, 1, 86, 4, -53, 28, -29], "withholdReward": false, "trial_id": "mdp_trial_14", "block": "test", "trialIndex": 15, "score": 30, "costs": -14.000000000000002, "simulationMode": [null, null, null, null, null], "rewards": [-1, 2, -8, -14, 65], "path": ["0", "0", "12", "13", "14", "19", "21"], "rt": [24383, 36, 549, 125, 134], "actions": ["right", "right", "right", "down", "down"], "actionTimes": [26568, 27121, 28183, 28822, 29479], "queries": {"click": {"state": {"target": ["27", "32", "33", "31", "21", "16", "20", "22", "5", "9"], "time": [4177, 6173, 8390, 10398, 12419, 14661, 16693, 18691, 21224, 23512]}, "edge": {"target": [], "time": []}}, "mouseover": {"state": {"target": ["23", "24", "27", "25", "30", "32", "30", "33", "30", "31", "21", "19", "14", "16", "15", "14", "20", "19", "22", "14", "14", "15", "6", "5", "9", "9"], "time": [2951, 3533, 3965, 4583, 4615, 4883, 6695, 7061, 8592, 8679, 10840, 12722, 12759, 12804, 15085, 15132, 15448, 16897, 16996, 19358, 19758, 19794, 19825, 20128, 21655, 22037]}, "edge": {"target": [], "time": []}}, "mouseout": {"state": {"target": ["17", "23", "24", "27", "25", "30", "32", "30", "33", "30", "31", "21", "19", "14", "16", "15", "14", "20", "19", "22", "14", "14", "15", "6", "5", "9", "9"], "time": [1002, 3515, 3550, 4532, 4598, 4652, 6595, 7014, 8509, 8626, 10692, 12689, 12752, 12781, 15034, 15118, 15414, 16863, 16912, 18870, 19395, 19774, 19808, 19861, 21589, 21705, 24434]}, "edge": {"target": [], "time": []}}}, "displayed_time": "29.99", "trialTime": 31324, "trial_type": "mouselab-mdp", "trial_index": 22, "time_elapsed": 578258, "internal_node_id": "0.0-4.0-1.0-13.0"}}, {"uniqueid": "w90625846:a62461417", "current_trial": 23, "dateTime": 1691077333569, "trialdata": {"revealed_states": [], "clicked_states": ["27", "9", "5", "16", "21", "32"], "num_clicks_accrued": [0, 0, 0, 0, 0, 0, 0, 0, 0, 0, 0, 0, 0], "stateRewards": ["", 1, 1, -5, 10, -31, 73, 14, -8, -23, 63, -70, -1, 2, 8, 7, 25, -59, 27, -10, -40, -71, -15, -2, 3, -8, -5, -19, 77, -34, 7, 67, 63, 19], "withholdReward": false, "trial_id": "mdp_trial_15", "block": "test", "trialIndex": 16, "score": 54.6, "costs": -8.4, "simulationMode": [null, null, null, null, null], "rewards": [-2, 3, -8, 7, 63], "path": ["0", "0", "23", "24", "25", "30", "32"], "rt": [15702, 239, 68, 180, 322], "actions": ["left", "left", "left", "down", "down"], "actionTimes": [17898, 18655, 19231, 19942, 20783], "queries": {"click": {"state": {"target": ["27", "9", "5", "16", "21", "32"], "time": [3639, 5781, 7754, 9971, 12125, 14583]}, "edge": {"target": [], "time": []}}, "mouseover": {"state": {"target": ["23", "26", "27", "27", "9", "5", "5", "6", "16", "15", "14", "19", "21", "14", "13", "32", "30", "33"], "time": [2737, 2803, 2918, 3475, 4368, 6134, 6364, 8095, 8512, 10243, 10293, 10345, 10960, 13536, 13576, 14152, 14901, 15318]}, "edge": {"target": [], "time": []}}, "mouseout": {"state": {"target": ["8", "10", "1", "0", "0", "23", "26", "27", "27", "9", "5", "5", "6", "16", "15", "14", "19", "21", "14", "13", "32", "30", "33"], "time": [905, 972, 1404, 1486, 1704, 2770, 2869, 3119, 4002, 5951, 6149, 8063, 8131, 10209, 10261, 10327, 10881, 12325, 13572, 13603, 14618, 14918, 17229]}, "edge": {"target": [], "time": []}}}, "displayed_time": "21.30", "trialTime": 22130, "trial_type": "mouselab-mdp", "trial_index": 23, "time_elapsed": 600828, "internal_node_id": "0.0-4.0-1.0-14.0"}}, {"uniqueid": "w90625846:a62461417", "current_trial": 24, "dateTime": 1691077377348, "trialdata": {"revealed_states": [], "clicked_states": ["32", "21", "22", "20", "16", "5", "9", "27", "17", "18", "11", "6", "29", "28", "31", "33"], "num_clicks_accrued": [0, 0, 0, 0, 0, 0, 0, 0, 0, 0, 0, 0, 0], "stateRewards": ["", -1, 1, 8, -3, -24, 11, -65, -6, -77, 48, 44, -2, 1, -2, -7, -55, -35, 33, 8, -28, 19, -53, -1, -1, -5, -5, -70, 10, 44, 8, -58, -70, 51], "withholdReward": false, "trial_id": "mdp_trial_16", "block": "test", "trialIndex": 17, "score": 29.600000000000005, "costs": -22.399999999999995, "simulationMode": [null, null, null, null, null], "rewards": [-1, -1, -5, 8, 51], "path": ["0", "0", "23", "24", "25", "30", "33"], "rt": [37289, 119, 208, 124, 198], "actions": ["left", "left", "left", "down", "left"], "actionTimes": [38711, 39353, 40075, 40723, 41430], "queries": {"click": {"state": {"target": ["32", "21", "22", "20", "16", "5", "9", "27", "17", "18", "11", "6", "29", "28", "31", "33"], "time": [2466, 4511, 6620, 8606, 10680, 13289, 15882, 17872, 19925, 21921, 23978, 26073, 28971, 31029, 33548, 35510]}, "edge": {"target": [], "time": []}}, "mouseover": {"state": {"target": ["23", "24", "30", "32", "19", "21", "22", "22", "19", "20", "14", "15", "16", "6", "5", "4", "9", "27", "1", "14", "17", "15", "18", "4", "8", "11", "8", "3", "4", "6", "4", "3", "27", "26", "29", "26", "28", "28", "28", "24", "31", "30", "33"], "time": [1873, 1906, 1988, 2071, 3175, 3514, 4853, 5194, 6983, 7317, 8980, 9296, 9400, 12773, 13106, 13824, 15619, 16334, 18651, 18765, 19250, 20312, 20631, 22510, 22725, 22858, 24709, 24761, 24839, 25106, 26443, 26486, 28416, 28497, 28598, 29431, 29465, 29717, 30383, 33080, 33157, 33973, 34027]}, "edge": {"target": [], "time": []}}, "mouseout": {"state": {"target": ["12", "23", "24", "30", "32", "19", "21", "22", "22", "19", "20", "14", "15", "16", "6", "5", "4", "9", "9", "27", "1", "14", "17", "15", "18", "4", "8", "11", "8", "3", "4", "6", "4", "3", "27", "26", "29", "26", "28", "28", "28", "28", "24", "31", "30", "33"], "time": [925, 1889, 1923, 2038, 2805, 3404, 4771, 4887, 6950, 7036, 8934, 9014, 9387, 12690, 12822, 13773, 15256, 16048, 16236, 18266, 18668, 18832, 20266, 20328, 22442, 22575, 22811, 24691, 24756, 24824, 24909, 26387, 26470, 26523, 28449, 28531, 29401, 29447, 29500, 29851, 31206, 31483, 33124, 33957, 34007, 36640]}, "edge": {"target": [], "time": []}}}, "displayed_time": "41.95", "trialTime": 43362, "trial_type": "mouselab-mdp", "trial_index": 24, "time_elapsed": 644606, "internal_node_id": "0.0-4.0-1.0-15.0"}}, {"uniqueid": "w90625846:a62461417", "current_trial": 25, "dateTime": 1691077395244, "trialdata": {"revealed_states": [], "clicked_states": ["9", "10", "7", "5"], "num_clicks_accrued": [0, 0, 0, 0, 0, 0, 0, 0, 0, 0, 0, 0, 0], "stateRewards": ["", 1, -1, 8, 4, 76, -33, -17, -3, -1, -54, -74, -2, 2, -5, 13, -51, 63, 83, 1, 84, 29, -36, 2, -1, 7, -12, -10, -44, -43, -14, 8, -69, 19], "withholdReward": false, "trial_id": "mdp_trial_17", "block": "test", "trialIndex": 18, "score": 82.4, "costs": -5.6, "simulationMode": [null, null, null, null, null], "rewards": [1, -1, 8, 4, 76], "path": ["0", "0", "1", "2", "3", "4", "5"], "rt": [10065, 45, 61, 83, 113], "actions": ["up", "up", "up", "right", "up"], "actionTimes": [11608, 12166, 12759, 13365, 14004], "queries": {"click": {"state": {"target": ["9", "10", "7", "5"], "time": [2370, 4331, 6389, 8362]}, "edge": {"target": [], "time": []}}, "mouseover": {"state": {"target": ["1", "10", "8", "9", "3", "2", "4", "2", "10", "2", "7", "4", "5", "6", "18"], "time": [1631, 1662, 1699, 2112, 2779, 2845, 3298, 3596, 3628, 4658, 4728, 6675, 7072, 8756, 10898]}, "edge": {"target": [], "time": []}}, "mouseout": {"state": {"target": ["1", "1", "10", "8", "9", "3", "2", "4", "2", "10", "10", "2", "7", "4", "5", "6"], "time": [830, 1646, 1696, 1712, 2745, 2814, 2864, 3521, 3611, 4501, 4625, 4692, 6590, 6706, 8666, 9139]}, "edge": {"target": [], "time": []}}}, "displayed_time": "15.54", "trialTime": 17466, "trial_type": "mouselab-mdp", "trial_index": 25, "time_elapsed": 662502, "internal_node_id": "0.0-4.0-1.0-16.0"}}, {"uniqueid": "w90625846:a62461417", "current_trial": 26, "dateTime": 1691077411798, "trialdata": {"revealed_states": [], "clicked_states": ["21", "20", "22"], "num_clicks_accrued": [0, 0, 0, 0, 0, 0, 0, 0, 0, 0, 0, 0, 0], "stateRewards": ["", -1, -2, -1, -10, -57, 73, -72, -16, 75, -14, -46, -2, -3, -7, -1, -61, -60, 76, -4, 50, 4, 14, 2, 2, -7, 12, -65, -32, 15, -8, -76, -25, -61], "withholdReward": false, "trial_id": "mdp_trial_18", "block": "test", "trialIndex": 19, "score": 29.8, "costs": -4.199999999999999, "simulationMode": [null, null, null, null, null], "rewards": [-2, -3, -7, -4, 50], "path": ["0", "0", "12", "13", "14", "19", "20"], "rt": [8384, 57, 223, 91, 166], "actions": ["right", "right", "right", "down", "right"], "actionTimes": [9723, 10301, 11049, 11679, 12358], "queries": {"click": {"state": {"target": ["21", "20", "22"], "time": [2648, 4692, 6933]}, "edge": {"target": [], "time": []}}, "mouseover": {"state": {"target": ["22", "21", "20", "19", "22", "22"], "time": [1904, 2269, 3396, 5116, 5150, 5386]}, "edge": {"target": [], "time": []}}, "mouseout": {"state": {"target": ["18", "12", "0", "0", "22", "21", "20", "19", "22", "22"], "time": [405, 487, 554, 855, 1937, 3333, 5083, 5133, 5200, 7945]}, "edge": {"target": [], "time": []}}}, "displayed_time": "15.34", "trialTime": 16123, "trial_type": "mouselab-mdp", "trial_index": 26, "time_elapsed": 679056, "internal_node_id": "0.0-4.0-1.0-17.0"}}, {"uniqueid": "w90625846:a62461417", "current_trial": 27, "dateTime": 1691077432629, "trialdata": {"revealed_states": [], "clicked_states": ["32", "27", "9", "21"], "num_clicks_accrued": [0, 0, 0, 0, 0, 0, 0, 0, 0, 0, 0, 0, 0], "stateRewards": ["", 2, -4, 7, 3, 23, -42, 4, 7, -81, -33, 7, -2, -4, 5, -1, 50, -57, -14, -13, -14, 44, 55, -2, -2, 5, -2, 33, 1, 57, -13, -7, 58, 87], "withholdReward": false, "trial_id": "mdp_trial_19", "block": "test", "trialIndex": 20, "score": 40.4, "costs": -5.6, "simulationMode": [null, null, null, null, null], "rewards": [-2, -2, 5, -13, 58], "path": ["0", "0", "23", "24", "25", "30", "32"], "rt": [14715, 199, 209, 10, 178], "actions": ["left", "left", "left", "down", "down"], "actionTimes": [16016, 16732, 17457, 17989, 18694], "queries": {"click": {"state": {"target": ["32", "27", "9", "21"], "time": [2792, 5106, 9502, 12545]}, "edge": {"target": [], "time": []}}, "mouseover": {"state": {"target": ["23", "24", "32", "33", "27", "27", "28", "8", "9", "8", "28", "25", "25", "26", "9", "9", "5", "4", "22", "21", "0"], "time": [1868, 1918, 2284, 3259, 4116, 4447, 5516, 7441, 7775, 7842, 7958, 8075, 8399, 8475, 9107, 9362, 10607, 11720, 12040, 12419, 13074]}, "edge": {"target": [], "time": []}}, "mouseout": {"state": {"target": ["22", "0", "23", "24", "32", "33", "27", "27", "27", "28", "8", "9", "8", "28", "25", "25", "26", "9", "9", "5", "4", "22", "21"], "time": [619, 718, 1901, 1968, 3166, 4048, 4135, 5256, 5484, 5544, 7459, 7808, 7858, 8008, 8107, 8458, 8723, 9123, 9939, 11703, 11737, 12101, 12556]}, "edge": {"target": [], "time": []}}}, "displayed_time": "19.21", "trialTime": 20411, "trial_type": "mouselab-mdp", "trial_index": 27, "time_elapsed": 699887, "internal_node_id": "0.0-4.0-1.0-18.0"}}, {"uniqueid": "w90625846:a62461417", "current_trial": 28, "dateTime": 1691077455883, "trialdata": {"revealed_states": [], "clicked_states": ["32", "21", "22", "20", "17"], "num_clicks_accrued": [0, 0, 0, 0, 0, 0, 0, 0, 0, 0, 0, 0, 0], "stateRewards": ["", -2, 4, -5, -12, 85, -24, -18, -15, -78, -22, 26, -1, -1, 2, 14, -45, 52, -23, 7, -33, 24, -6, -2, -4, 5, -7, -16, 36, -39, 5, 71, -87, -23], "withholdReward": false, "trial_id": "mdp_trial_20", "block": "test", "trialIndex": 21, "score": 59, "costs": -7, "simulationMode": [null, null, null, null, null], "rewards": [-1, -1, 2, 14, 52], "path": ["0", "0", "12", "13", "14", "15", "17"], "rt": [14055, 57, 448, 212, 76], "actions": ["right", "right", "right", "up", "right"], "actionTimes": [18151, 18728, 19720, 20445, 21046], "queries": {"click": {"state": {"target": ["32", "21", "22", "20", "17"], "time": [5879, 7888, 10787, 12797, 15013]}, "edge": {"target": [], "time": []}}, "mouseover": {"state": {"target": ["23", "24", "32", "32", "21", "19", "15", "16", "15", "14", "22", "19", "20", "17", "16", "16", "15"], "time": [4704, 4903, 5405, 5684, 6336, 8250, 8336, 8698, 10262, 10297, 10395, 11065, 11444, 13208, 15389, 15714, 17301]}, "edge": {"target": [], "time": []}}, "mouseout": {"state": {"target": ["0", "23", "24", "32", "32", "21", "19", "15", "16", "15", "14", "22", "19", "20", "17", "16", "16"], "time": [3670, 4869, 5086, 5439, 6188, 8079, 8284, 8668, 10245, 10280, 10317, 11031, 11128, 12952, 15172, 15424, 17251]}, "edge": {"target": [], "time": []}}}, "displayed_time": "21.57", "trialTime": 22805, "trial_type": "mouselab-mdp", "trial_index": 28, "time_elapsed": 723141, "internal_node_id": "0.0-4.0-1.0-19.0"}}, {"uniqueid": "w90625846:a62461417", "current_trial": 29, "dateTime": 1691077480710, "trialdata": {"revealed_states": [], "clicked_states": ["9", "5", "10", "7", "27"], "num_clicks_accrued": [0, 0, 0, 0, 0, 0, 0, 0, 0, 0, 0, 0, 0], "stateRewards": ["", 1, -2, -3, 14, -42, -87, -37, -11, -50, 33, -44, -2, 4, -7, 13, 48, -75, -66, 12, 23, -2, 82, 1, -4, 3, 12, 51, -15, -26, -11, -52, -29, 82], "withholdReward": false, "trial_id": "mdp_trial_21", "block": "test", "trialIndex": 22, "score": 56, "costs": -7, "simulationMode": [null, null, null, null, null], "rewards": [1, -4, 3, 12, 51], "path": ["0", "0", "23", "24", "25", "26", "27"], "rt": [14079, 926, 566, 1599, 152], "actions": ["left", "left", "left", "up", "up"], "actionTimes": [16019, 17482, 18569, 20688, 21351], "queries": {"click": {"state": {"target": ["9", "5", "10", "7", "27"], "time": [3060, 5039, 7633, 9703, 12700]}, "edge": {"target": [], "time": []}}, "mouseover": {"state": {"target": ["8", "9", "3", "4", "5", "3", "8", "10", "26", "29", "26", "10", "2", "7", "2", "28", "24", "31", "30", "26", "27", "26"], "time": [2675, 2708, 3392, 3441, 3877, 5342, 5374, 5407, 5754, 6041, 7201, 7384, 8018, 8070, 9999, 10431, 10565, 11862, 12210, 12326, 12584, 13049]}, "edge": {"target": [], "time": []}}, "mouseout": {"state": {"target": ["15", "18", "0", "8", "9", "3", "4", "5", "3", "8", "10", "26", "29", "26", "10", "2", "7", "7", "2", "28", "24", "31", "30", "26", "27", "26", "0"], "time": [1112, 1162, 2593, 2692, 3342, 3408, 3476, 5310, 5358, 5391, 5424, 5773, 6139, 7218, 7984, 8034, 9893, 9981, 10031, 10498, 11845, 11878, 12244, 12345, 13030, 13082, 23897]}, "edge": {"target": [], "time": []}}}, "displayed_time": "21.86", "trialTime": 24387, "trial_type": "mouselab-mdp", "trial_index": 29, "time_elapsed": 747969, "internal_node_id": "0.0-4.0-1.0-20.0"}}, {"uniqueid": "w90625846:a62461417", "current_trial": 30, "dateTime": 1691077499322, "trialdata": {"revealed_states": [], "clicked_states": ["32"], "num_clicks_accrued": [0, 0, 0, 0, 0, 0, 0, 0, 0, 0, 0, 0, 0], "stateRewards": ["", -2, -2, -7, -13, -10, 49, -68, -1, 84, 70, 88, 1, 4, 4, 12, -57, 25, 30, 8, -1, -77, 57, 2, 3, 2, 3, -18, -80, 23, -15, -41, 70, 11], "withholdReward": false, "trial_id": "mdp_trial_22", "block": "test", "trialIndex": 23, "score": 60.6, "costs": -1.4, "simulationMode": [null, null, null, null, null], "rewards": [2, 3, 2, -15, 70], "path": ["0", "0", "23", "24", "25", "30", "32"], "rt": [4824, 184, 661, 34, 288], "actions": ["left", "left", "left", "down", "down"], "actionTimes": [6046, 6742, 7919, 8477, 9276], "queries": {"click": {"state": {"target": ["32"], "time": [3175]}, "edge": {"target": [], "time": []}}, "mouseover": {"state": {"target": ["30", "32", "31"], "time": [2012, 2927, 3960]}, "edge": {"target": [], "time": []}}, "mouseout": {"state": {"target": ["0", "30", "32"], "time": [1964, 2028, 3576]}, "edge": {"target": [], "time": []}}}, "displayed_time": "15.22", "trialTime": 18157, "trial_type": "mouselab-mdp", "trial_index": 30, "time_elapsed": 766581, "internal_node_id": "0.0-4.0-1.0-21.0"}}, {"uniqueid": "w90625846:a62461417", "current_trial": 31, "dateTime": 1691077519988, "trialdata": {"revealed_states": [], "clicked_states": ["21", "16", "7", "10"], "num_clicks_accrued": [0, 0, 0, 0, 0, 0, 0, 0, 0, 0, 0, 0, 0], "stateRewards": ["", 2, 4, 4, -8, -36, -33, 38, 16, -51, 57, 57, 1, 3, 4, -6, 45, 68, 87, 1, 63, 24, -55, -2, 2, -6, -13, -63, -50, 8, 2, 80, 6, 60], "withholdReward": false, "trial_id": "mdp_trial_23", "block": "test", "trialIndex": 24, "score": 77.4, "costs": -5.6, "simulationMode": [null, null, null, null, null], "rewards": [2, 4, 4, 16, 57], "path": ["0", "0", "1", "2", "3", "8", "10"], "rt": [12960, 199, 23, 361, 712], "actions": ["up", "up", "up", "left", "down"], "actionTimes": [14671, 15391, 15929, 16816, 18050], "queries": {"click": {"state": {"target": ["21", "16", "7", "10"], "time": [2730, 4933, 8989, 11036]}, "edge": {"target": [], "time": []}}, "mouseover": {"state": {"target": ["12", "21", "19", "14", "15", "16", "15", "14", "15", "6", "5", "6", "5", "4", "7", "2", "10"], "time": [2157, 2556, 3157, 3534, 3581, 3941, 5273, 5337, 5553, 6002, 6234, 7250, 7948, 8397, 8779, 9431, 9496]}, "edge": {"target": [], "time": []}}, "mouseout": {"state": {"target": ["31", "12", "21", "19", "14", "15", "16", "15", "14", "15", "6", "5", "6", "5", "4", "7", "2", "10"], "time": [942, 2190, 3124, 3530, 3564, 3906, 5237, 5304, 5503, 5642, 6038, 7216, 7267, 8365, 8664, 9398, 9451, 11460]}, "edge": {"target": [], "time": []}}}, "displayed_time": "18.57", "trialTime": 20198, "trial_type": "mouselab-mdp", "trial_index": 31, "time_elapsed": 787247, "internal_node_id": "0.0-4.0-1.0-22.0"}}, {"uniqueid": "w90625846:a62461417", "current_trial": 32, "dateTime": 1691077536691, "trialdata": {"revealed_states": [], "clicked_states": ["28", "31"], "num_clicks_accrued": [0, 0, 0, 0, 0, 0, 0, 0, 0, 0, 0, 0, 0], "stateRewards": ["", -1, 1, 3, -8, -23, -15, -14, -11, -23, 58, 68, 1, 3, 5, 12, -17, -41, -7, -10, -4, 82, 10, 1, 4, -4, 11, 73, 55, -55, -1, -86, -86, 54], "withholdReward": false, "trial_id": "mdp_trial_24", "block": "test", "trialIndex": 25, "score": 64.2, "costs": -2.8, "simulationMode": [null, null, null, null, null], "rewards": [1, 4, -4, 11, 55], "path": ["0", "0", "23", "24", "25", "26", "28"], "rt": [7239, 353, 160, 687, 86], "actions": ["left", "left", "left", "up", "right"], "actionTimes": [8630, 9504, 10177, 11386, 11984], "queries": {"click": {"state": {"target": ["28", "31"], "time": [2728, 5407]}, "edge": {"target": [], "time": []}}, "mouseover": {"state": {"target": ["28", "24", "31", "24"], "time": [2276, 3025, 3128, 6521]}, "edge": {"target": [], "time": []}}, "mouseout": {"state": {"target": ["1", "0", "0", "28", "24", "31"], "time": [528, 577, 1860, 2993, 3092, 6345]}, "edge": {"target": [], "time": []}}}, "displayed_time": "15.39", "trialTime": 16186, "trial_type": "mouselab-mdp", "trial_index": 32, "time_elapsed": 803950, "internal_node_id": "0.0-4.0-1.0-23.0"}}, {"uniqueid": "w90625846:a62461417", "current_trial": 33, "dateTime": 1691077557986, "trialdata": {"revealed_states": [], "clicked_states": ["32", "31", "22", "18", "28"], "num_clicks_accrued": [0, 0, 0, 0, 0, 0, 0, 0, 0, 0, 0, 0, 0], "stateRewards": ["", 1, 2, -6, -13, -51, 22, -4, -12, -44, -12, 6, -2, -2, -2, -14, -46, -4, -77, -2, 36, -79, 41, 2, -4, 2, -6, -55, 59, 70, -5, 39, -19, 24], "withholdReward": false, "trial_id": "mdp_trial_25", "block": "test", "trialIndex": 26, "score": 46, "costs": -7, "simulationMode": [null, null, null, null, null], "rewards": [2, -4, 2, -6, 59], "path": ["0", "0", "23", "24", "25", "26", "28"], "rt": [14111, 240, 598, 114, 496], "actions": ["left", "left", "left", "up", "right"], "actionTimes": [15540, 16297, 17402, 18033, 19048], "queries": {"click": {"state": {"target": ["32", "31", "22", "18", "28"], "time": [3434, 5730, 7980, 10542, 12540]}, "edge": {"target": [], "time": []}}, "mouseover": {"state": {"target": ["23", "24", "32", "31", "19", "22", "13", "18", "1", "28"], "time": [2324, 2441, 3056, 4607, 6368, 6501, 8434, 8501, 10929, 11261]}, "edge": {"target": [], "time": []}}, "mouseout": {"state": {"target": ["23", "12", "0", "23", "24", "32", "31", "19", "22", "13", "18", "1"], "time": [143, 459, 1488, 2390, 2722, 3825, 5950, 6451, 8398, 8465, 10894, 10948]}, "edge": {"target": [], "time": []}}}, "displayed_time": "19.57", "trialTime": 20789, "trial_type": "mouselab-mdp", "trial_index": 33, "time_elapsed": 825245, "internal_node_id": "0.0-4.0-1.0-24.0"}}, {"uniqueid": "w90625846:a62461417", "current_trial": 34, "dateTime": 1691077574814, "trialdata": {"revealed_states": [], "clicked_states": ["28", "18"], "num_clicks_accrued": [0, 0, 0, 0, 0, 0, 0, 0, 0, 0, 0, 0, 0], "stateRewards": ["", -2, -3, -6, -7, 9, 16, 65, 5, -41, 20, -25, -1, -4, 1, -11, -49, -4, 71, 1, 39, -62, 52, -2, -3, 7, -9, -28, -70, 84, 8, 24, -58, 82], "withholdReward": false, "trial_id": "mdp_trial_26", "block": "test", "trialIndex": 27, "score": 53.2, "costs": -2.8, "simulationMode": [null, null, null, null, null], "rewards": [-1, -4, 1, -11, 71], "path": ["0", "0", "12", "13", "14", "15", "18"], "rt": [6497, 41, 154, 63, 287], "actions": ["right", "right", "right", "up", "left"], "actionTimes": [8005, 8577, 9257, 9832, 10642], "queries": {"click": {"state": {"target": ["28", "18"], "time": [2592, 4918]}, "edge": {"target": [], "time": []}}, "mouseover": {"state": {"target": ["28", "1", "18", "18", "13", "22"], "time": [2355, 3070, 4190, 4774, 5277, 5685]}, "edge": {"target": [], "time": []}}, "mouseout": {"state": {"target": ["28", "28", "1", "18", "18", "18", "13", "22", "14", "18"], "time": [812, 2994, 4111, 4290, 5107, 5260, 5324, 11728, 11846, 12362]}, "edge": {"target": [], "time": []}}}, "displayed_time": "15.51", "trialTime": 16353, "trial_type": "mouselab-mdp", "trial_index": 34, "time_elapsed": 842072, "internal_node_id": "0.0-4.0-1.0-25.0"}}, {"uniqueid": "w90625846:a62461417", "current_trial": 35, "dateTime": 1691077601887, "trialdata": {"revealed_states": [], "clicked_states": ["10", "7", "11", "9"], "num_clicks_accrued": [0, 0, 0, 0, 0, 0, 0, 0, 0, 0, 0, 0, 0], "stateRewards": ["", -2, 3, 8, -9, 59, 41, -50, -1, 82, 66, 33, 2, -2, 7, 8, 1, -38, 12, -16, 24, -37, 67, 1, 4, -2, 5, 35, -83, 28, 8, -27, 69, -64], "withholdReward": false, "trial_id": "mdp_trial_27", "block": "test", "trialIndex": 28, "score": 84.4, "costs": -5.6, "simulationMode": [null, null, null, null, null], "rewards": [-2, 3, 8, -1, 82], "path": ["0", "0", "1", "2", "3", "8", "9"], "rt": [12242, 195, 364, 518, 122], "actions": ["up", "up", "up", "left", "up"], "actionTimes": [13571, 14288, 15170, 16208, 16847], "queries": {"click": {"state": {"target": ["10", "7", "11", "9"], "time": [3314, 5506, 8394, 11083]}, "edge": {"target": [], "time": []}}, "mouseover": {"state": {"target": ["23", "24", "28", "10", "2", "7", "7", "2", "8", "11", "8", "3", "9", "3"], "time": [1957, 2057, 2473, 3055, 3692, 3739, 4090, 7648, 7748, 8030, 8847, 8913, 10826, 11462]}, "edge": {"target": [], "time": []}}, "mouseout": {"state": {"target": ["18", "0", "23", "24", "28", "10", "2", "7", "7", "2", "8", "11", "8", "3", "9", "3"], "time": [592, 974, 2008, 2373, 2973, 3689, 3723, 3776, 7632, 7698, 7798, 8830, 8879, 10677, 11409, 11479]}, "edge": {"target": [], "time": []}}}, "displayed_time": "17.37", "trialTime": 26599, "trial_type": "mouselab-mdp", "trial_index": 35, "time_elapsed": 869145, "internal_node_id": "0.0-4.0-1.0-26.0"}}, {"uniqueid": "w90625846:a62461417", "current_trial": 36, "dateTime": 1691077630552, "trialdata": {"revealed_states": [], "clicked_states": ["5", "6", "7", "16", "17", "18", "20", "21", "22"], "num_clicks_accrued": [0, 0, 0, 0, 0, 0, 0, 0, 0, 0, 0, 0, 0], "stateRewards": ["", 1, -2, -2, 10, -31, -77, 35, 9, -47, 8, 48, -2, 1, -4, -3, -26, -50, 43, -11, 76, -38, 17, 1, -1, 6, 10, 15, -9, 12, -8, 85, 11, -55], "withholdReward": false, "trial_id": "mdp_trial_28", "block": "test", "trialIndex": 29, "score": 47.4, "costs": -12.600000000000001, "simulationMode": [null, null, null, null, null], "rewards": [-2, 1, -4, -11, 76], "path": ["0", "0", "12", "13", "14", "19", "20"], "rt": [22215, 82, 424, 111, 106], "actions": ["right", "right", "right", "down", "right"], "actionTimes": [23757, 24372, 25312, 25959, 26576], "queries": {"click": {"state": {"target": ["5", "6", "7", "16", "17", "18", "20", "21", "22"], "time": [3492, 5502, 7670, 9729, 11946, 13807, 15891, 17865, 20008]}, "edge": {"target": [], "time": []}}, "mouseover": {"state": {"target": ["23", "26", "27", "11", "9", "5", "6", "6", "7", "7", "15", "17", "16", "17", "15", "18", "14", "20", "21", "22"], "time": [1970, 2003, 2354, 2452, 2535, 3273, 4005, 4185, 5732, 6024, 7995, 8062, 8329, 10108, 12222, 12589, 14185, 14268, 16348, 18229]}, "edge": {"target": [], "time": []}}, "mouseout": {"state": {"target": ["2", "1", "23", "26", "27", "11", "9", "5", "6", "6", "7", "7", "15", "17", "16", "16", "17", "15", "18", "14", "20", "21", "22"], "time": [654, 887, 1992, 2037, 2388, 2487, 2602, 3536, 4058, 5682, 5799, 7912, 8019, 8131, 9863, 9900, 12172, 12402, 14136, 14219, 16182, 18021, 20251]}, "edge": {"target": [], "time": []}}}, "displayed_time": "27.09", "trialTime": 28121, "trial_type": "mouselab-mdp", "trial_index": 36, "time_elapsed": 897811, "internal_node_id": "0.0-4.0-1.0-27.0"}}, {"uniqueid": "w90625846:a62461417", "current_trial": 37, "dateTime": 1691077678081, "trialdata": {"revealed_states": [], "clicked_states": ["28", "31", "22", "18", "7", "10", "27", "29", "33", "32", "21", "20", "17", "16", "6", "5", "9", "11"], "num_clicks_accrued": [0, 0, 0, 0, 0, 0, 0, 0, 0, 0, 0, 0, 0], "stateRewards": ["", 1, 2, -3, -5, 66, -50, -47, -5, 1, 28, -27, 1, 1, -1, -6, 37, -25, 56, 1, -82, -66, -40, -1, -4, -7, 15, -61, -23, 26, 10, 14, -56, 29], "withholdReward": false, "trial_id": "mdp_trial_29", "block": "test", "trialIndex": 30, "score": 35.80000000000001, "costs": -25.199999999999992, "simulationMode": [null, null, null, null, null], "rewards": [1, 2, -3, -5, 66], "path": ["0", "0", "1", "2", "3", "4", "5"], "rt": [39706, 146, 232, 23, 40], "actions": ["up", "up", "up", "right", "up"], "actionTimes": [42904, 43571, 44323, 44866, 45429], "queries": {"click": {"state": {"target": ["28", "31", "22", "18", "7", "10", "27", "29", "33", "32", "21", "20", "17", "16", "6", "5", "9", "11"], "time": [4872, 6955, 9062, 11047, 13105, 15039, 17304, 19277, 21346, 23379, 25389, 27348, 29321, 31110, 33290, 35385, 37636, 39633]}, "edge": {"target": [], "time": []}}, "mouseover": {"state": {"target": ["0", "23", "31", "24", "28", "24", "31", "32", "22", "13", "18", "7", "2", "10", "27", "29", "33", "32", "21", "20", "20", "17", "16", "6", "5", "9", "11", "8"], "time": [3718, 3784, 4117, 4516, 4568, 5267, 5715, 7463, 8228, 9460, 9513, 11590, 13387, 13687, 15816, 17631, 19861, 22107, 23855, 25851, 26185, 28048, 29696, 31808, 33654, 35885, 38019, 41409]}, "edge": {"target": [], "time": []}}, "mouseout": {"state": {"target": ["0", "0", "23", "31", "24", "28", "24", "31", "32", "22", "13", "18", "7", "7", "2", "10", "27", "29", "33", "32", "21", "20", "20", "17", "16", "6", "5", "9", "11", "8"], "time": [1555, 3751, 3800, 4500, 4550, 5249, 5349, 7432, 7782, 9228, 9495, 11456, 13278, 13354, 13470, 15401, 17582, 19465, 21766, 23671, 25801, 25884, 27617, 29595, 31508, 33484, 35640, 37933, 39854, 41508]}, "edge": {"target": [], "time": []}}}, "displayed_time": "45.94", "trialTime": 47011, "trial_type": "mouselab-mdp", "trial_index": 37, "time_elapsed": 945339, "internal_node_id": "0.0-4.0-1.0-28.0"}}, {"uniqueid": "w90625846:a62461417", "current_trial": 38, "dateTime": 1691077695985, "trialdata": {"revealed_states": [], "clicked_states": ["9", "10", "21", "16"], "num_clicks_accrued": [0, 0, 0, 0, 0, 0, 0, 0, 0, 0, 0, 0, 0], "stateRewards": ["", 2, 3, 8, 14, 69, -27, 17, 2, -71, -65, -10, 2, -3, 7, 8, 65, -10, 65, -12, 73, -12, 13, -2, -2, 6, 10, -79, -69, -18, 10, -85, 67, 74], "withholdReward": false, "trial_id": "mdp_trial_30", "block": "test", "trialIndex": 31, "score": 73.4, "costs": -5.6, "simulationMode": [null, null, null, null, null], "rewards": [2, -3, 7, 8, 65], "path": ["0", "0", "12", "13", "14", "15", "16"], "rt": [11450, 107, 296, 10, 198], "actions": ["right", "right", "right", "up", "up"], "actionTimes": [12928, 13551, 14368, 14899, 15618], "queries": {"click": {"state": {"target": ["9", "10", "21", "16"], "time": [2758, 4682, 7251, 9979]}, "edge": {"target": [], "time": []}}, "mouseover": {"state": {"target": ["1", "2", "9", "8", "10", "10", "0", "21", "19", "14", "15", "16", "15", "14", "19"], "time": [1957, 1992, 2388, 3124, 3171, 3620, 6003, 7114, 9161, 9512, 9565, 9828, 10361, 10410, 10783]}, "edge": {"target": [], "time": []}}, "mouseout": {"state": {"target": ["2", "1", "0", "1", "2", "9", "8", "10", "10", "0", "21", "19", "14", "15", "16", "15", "14", "19"], "time": [540, 791, 1005, 1989, 2022, 3108, 3155, 3204, 4921, 6648, 7333, 9211, 9543, 9643, 10343, 10393, 10460, 11740]}, "edge": {"target": [], "time": []}}}, "displayed_time": "16.14", "trialTime": 17391, "trial_type": "mouselab-mdp", "trial_index": 38, "time_elapsed": 963243, "internal_node_id": "0.0-4.0-1.0-29.0"}}, {"uniqueid": "w90625846:a62461417", "current_trial": 39, "dateTime": 1691077717669, "trialdata": {"revealed_states": [], "clicked_states": ["21", "32", "27", "16", "5"], "num_clicks_accrued": [0, 0, 0, 0, 0, 0, 0, 0, 0, 0, 0, 0, 0], "stateRewards": ["", 1, 1, 7, -11, 80, -20, -53, -14, 3, 31, 27, 2, -1, -8, -10, 33, 41, 86, 9, 78, -37, -13, -1, -2, -6, -8, -80, 75, 4, -16, -49, -74, 24], "withholdReward": false, "trial_id": "mdp_trial_31", "block": "test", "trialIndex": 32, "score": 71, "costs": -7, "simulationMode": [null, null, null, null, null], "rewards": [1, 1, 7, -11, 80], "path": ["0", "0", "1", "2", "3", "4", "5"], "rt": [13656, 250, 537, 30, 89], "actions": ["up", "up", "up", "right", "up"], "actionTimes": [16552, 17314, 18366, 18922, 19559], "queries": {"click": {"state": {"target": ["21", "32", "27", "16", "5"], "time": [4598, 6558, 8775, 10786, 13063]}, "edge": {"target": [], "time": []}}, "mouseover": {"state": {"target": ["12", "13", "14", "19", "21", "32", "33", "29", "27", "10", "7", "16", "16", "6", "5", "5", "9", "2"], "time": [3430, 3549, 3813, 3997, 4329, 5103, 6962, 7310, 7447, 9129, 9164, 9224, 9589, 11054, 11107, 11536, 13317, 15329]}, "edge": {"target": [], "time": []}}, "mouseout": {"state": {"target": ["19", "22", "0", "0", "12", "13", "14", "19", "21", "32", "33", "29", "27", "10", "7", "16", "16", "6", "5", "5", "9"], "time": [1234, 1268, 1550, 3353, 3498, 3599, 3963, 4062, 4964, 6910, 6981, 7361, 9075, 9145, 9182, 9273, 10952, 11095, 11126, 13210, 15263]}, "edge": {"target": [], "time": []}}}, "displayed_time": "20.08", "trialTime": 21182, "trial_type": "mouselab-mdp", "trial_index": 39, "time_elapsed": 984927, "internal_node_id": "0.0-4.0-1.0-30.0"}}, {"uniqueid": "w90625846:a62461417", "current_trial": 40, "dateTime": 1691077741177, "trialdata": {"revealed_states": [], "clicked_states": ["10", "7", "18", "22", "31", "28", "29"], "num_clicks_accrued": [0, 0, 0, 0, 0, 0, 0, 0, 0, 0, 0, 0, 0], "stateRewards": ["", -2, -4, 6, 14, -34, 49, 36, -8, -3, 32, -4, 1, -2, 1, -8, -20, -71, -57, -7, -86, -62, -16, -2, -3, -5, 11, 23, -21, 53, 5, -5, 85, 73], "withholdReward": false, "trial_id": "mdp_trial_32", "block": "test", "trialIndex": 33, "score": 44.2, "costs": -9.8, "simulationMode": [null, null, null, null, null], "rewards": [-2, -3, -5, 11, 53], "path": ["0", "0", "23", "24", "25", "26", "29"], "rt": [17357, 158, 76, 164, 31], "actions": ["left", "left", "left", "up", "left"], "actionTimes": [18943, 19623, 20223, 20909, 21460], "queries": {"click": {"state": {"target": ["10", "7", "18", "22", "31", "28", "29"], "time": [3040, 5084, 7202, 9187, 11318, 13229, 15800]}, "edge": {"target": [], "time": []}}, "mouseover": {"state": {"target": ["1", "2", "10", "10", "2", "7", "18", "13", "22", "31", "24", "28", "26", "29", "27"], "time": [2218, 2269, 2570, 2916, 3435, 3501, 5718, 7566, 7838, 9612, 11622, 11671, 15381, 15484, 16213]}, "edge": {"target": [], "time": []}}, "mouseout": {"state": {"target": ["2", "1", "0", "1", "2", "10", "10", "2", "7", "18", "13", "22", "31", "24", "28", "26", "29"], "time": [804, 870, 2120, 2251, 2521, 2634, 3401, 3451, 5398, 7528, 7680, 9344, 11486, 11655, 15348, 15432, 16181]}, "edge": {"target": [], "time": []}}}, "displayed_time": "21.98", "trialTime": 23026, "trial_type": "mouselab-mdp", "trial_index": 40, "time_elapsed": 1008435, "internal_node_id": "0.0-4.0-1.0-31.0"}}, {"uniqueid": "w90625846:a62461417", "current_trial": 41, "dateTime": 1691077757978, "trialdata": {"revealed_states": [], "clicked_states": ["32", "21"], "num_clicks_accrued": [0, 0, 0, 0, 0, 0, 0, 0, 0, 0, 0, 0, 0], "stateRewards": ["", -2, -4, 4, -11, -63, -60, -7, 2, -14, 81, -43, -1, -1, -5, 7, 10, 69, 40, 8, -83, 52, 60, 1, 2, 5, -5, 16, 64, 14, -3, 29, 7, -51], "withholdReward": false, "trial_id": "mdp_trial_33", "block": "test", "trialIndex": 34, "score": 50.2, "costs": -2.8, "simulationMode": [null, null, null, null, null], "rewards": [-1, -1, -5, 8, 52], "path": ["0", "0", "12", "13", "14", "19", "21"], "rt": [7179, 41, 535, 481, 206], "actions": ["right", "right", "right", "down", "down"], "actionTimes": [8722, 9286, 10348, 11340, 12068], "queries": {"click": {"state": {"target": ["32", "21"], "time": [3741, 5776]}, "edge": {"target": [], "time": []}}, "mouseover": {"state": {"target": ["10", "8", "9", "26", "32", "32", "32", "21", "20", "17"], "time": [1771, 2152, 2252, 2784, 3001, 3351, 3638, 4982, 6315, 6965]}, "edge": {"target": [], "time": []}}, "mouseout": {"state": {"target": ["27", "26", "10", "8", "9", "26", "32", "32", "32", "21", "20", "17"], "time": [671, 721, 1853, 2202, 2701, 2802, 3034, 3384, 4167, 6247, 6348, 7627]}, "edge": {"target": [], "time": []}}}, "displayed_time": "15.54", "trialTime": 16149, "trial_type": "mouselab-mdp", "trial_index": 41, "time_elapsed": 1025236, "internal_node_id": "0.0-4.0-1.0-32.0"}}, {"uniqueid": "w90625846:a62461417", "current_trial": 42, "dateTime": 1691077807738, "trialdata": {"revealed_states": [], "clicked_states": ["9", "5", "21", "32", "29", "17", "16", "7", "2", "10", "11", "6", "27", "28", "31", "33", "22", "18", "20"], "num_clicks_accrued": [0, 0, 0, 0, 0, 0, 0, 0, 0, 0, 0, 0, 0], "stateRewards": ["", 2, 4, -3, 16, -58, 30, -35, 11, -60, 47, 27, -2, -1, -7, -16, 23, -70, 68, -10, -65, -43, -34, -2, 1, 7, 9, -63, 34, -31, -8, -12, -86, 59], "withholdReward": false, "trial_id": "mdp_trial_34", "block": "test", "trialIndex": 35, "score": 15.400000000000006, "costs": -26.59999999999999, "simulationMode": [null, null, null, null, null], "rewards": [-2, -1, -7, -16, 68], "path": ["0", "0", "12", "13", "14", "15", "18"], "rt": [43453, 10, 344, 179, 168], "actions": ["right", "right", "right", "up", "left"], "actionTimes": [44777, 45303, 46185, 46884, 47573], "queries": {"click": {"state": {"target": ["9", "5", "21", "32", "29", "17", "16", "7", "2", "10", "11", "6", "27", "28", "31", "33", "22", "18", "20"], "time": [2817, 5145, 7092, 9046, 11281, 13669, 15748, 18317, 20375, 22347, 24356, 26341, 28811, 30782, 33135, 35116, 37916, 39877, 42193]}, "edge": {"target": [], "time": []}}, "mouseover": {"state": {"target": ["1", "2", "9", "4", "5", "4", "18", "19", "21", "32", "29", "26", "1", "18", "15", "17", "15", "18", "16", "7", "2", "7", "7", "2", "10", "11", "8", "4", "6", "4", "3", "10", "27", "28", "24", "31", "30", "33", "30", "22", "13", "18", "14", "20"], "time": [2057, 2107, 2506, 3326, 4154, 5505, 5917, 6262, 6770, 8183, 9611, 11742, 11841, 12191, 12260, 13199, 14054, 14705, 14820, 16251, 17881, 17932, 18199, 18964, 20678, 22809, 24708, 24758, 24826, 26706, 26744, 28298, 28647, 29148, 31396, 32443, 33675, 34007, 35546, 37801, 38282, 38352, 41411, 41777]}, "edge": {"target": [], "time": []}}, "mouseout": {"state": {"target": ["15", "1", "2", "9", "4", "5", "4", "18", "19", "21", "32", "29", "26", "1", "18", "15", "17", "15", "18", "16", "7", "2", "7", "7", "7", "2", "10", "11", "8", "4", "6", "6", "4", "3", "10", "27", "28", "24", "31", "30", "33", "30", "22", "13", "18", "14", "20"], "time": [590, 2090, 2373, 3275, 3671, 5471, 5521, 5937, 6283, 7257, 9256, 11726, 11762, 12126, 12225, 12324, 13683, 14093, 14724, 16180, 16271, 17914, 17997, 18496, 18914, 20612, 22675, 24690, 24725, 24778, 26549, 26702, 26740, 26765, 28316, 29065, 31328, 31947, 33322, 33758, 35318, 35578, 38232, 38316, 41362, 41446, 42780]}, "edge": {"target": [], "time": []}}}, "displayed_time": "48.09", "trialTime": 49238, "trial_type": "mouselab-mdp", "trial_index": 42, "time_elapsed": 1074996, "internal_node_id": "0.0-4.0-1.0-33.0"}}, {"uniqueid": "w90625846:a62461417", "current_trial": 43, "dateTime": 1691077824259, "trialdata": {"revealed_states": [], "clicked_states": ["23", "10", "7"], "num_clicks_accrued": [0, 0, 0, 0, 0, 0, 0, 0, 0, 0, 0, 0, 0], "stateRewards": ["", 2, -1, 5, 6, 10, 86, 55, 10, -45, 63, -71, 1, -2, 5, -8, -50, -72, 36, 15, 61, 12, 33, -1, -4, 6, 5, 79, -56, -21, -16, -87, 60, -81], "withholdReward": false, "trial_id": "mdp_trial_35", "block": "test", "trialIndex": 36, "score": 74.8, "costs": -4.199999999999999, "simulationMode": [null, null, null, null, null], "rewards": [2, -1, 5, 10, 63], "path": ["0", "0", "1", "2", "3", "8", "10"], "rt": [7190, 223, 546, 501, 119], "actions": ["up", "up", "up", "left", "down"], "actionTimes": [8518, 9261, 10315, 11335, 11975], "queries": {"click": {"state": {"target": ["23", "10", "7"], "time": [2285, 4307, 6461]}, "edge": {"target": [], "time": []}}, "mouseover": {"state": {"target": ["23", "10", "2", "7"], "time": [1929, 2977, 4776, 4875]}, "edge": {"target": [], "time": []}}, "mouseout": {"state": {"target": ["20", "0", "23", "10", "2"], "time": [529, 878, 2598, 4742, 4792]}, "edge": {"target": [], "time": []}}}, "displayed_time": "15.33", "trialTime": 16026, "trial_type": "mouselab-mdp", "trial_index": 43, "time_elapsed": 1091518, "internal_node_id": "0.0-4.0-1.0-34.0"}}, {"uniqueid": "w90625846:a62461417", "current_trial": 44, "dateTime": 1691077865502, "trialdata": {"revealed_states": [], "clicked_states": ["29", "27", "28", "32", "31", "33", "21", "20", "22", "17", "18", "16", "7"], "num_clicks_accrued": [0, 0, 0, 0, 0, 0, 0, 0, 0, 0, 0, 0, 0], "stateRewards": ["", 2, -1, -1, -9, -81, -30, 55, -6, 78, 25, 62, 2, 4, -1, 9, -85, 1, -19, 1, -60, 12, -34, 1, 4, -1, -13, -24, -16, -83, -8, 16, 43, 9], "withholdReward": false, "trial_id": "mdp_trial_36", "block": "test", "trialIndex": 37, "score": 27.8, "costs": -18.2, "simulationMode": [null, null, null, null, null], "rewards": [2, -1, -1, -9, 55], "path": ["0", "0", "1", "2", "3", "4", "7"], "rt": [34340, 6, 588, 577, 124], "actions": ["up", "up", "up", "right", "down"], "actionTimes": [35868, 36386, 37504, 38605, 39250], "queries": {"click": {"state": {"target": ["29", "27", "28", "32", "31", "33", "21", "20", "22", "17", "18", "16", "7"], "time": [3770, 5886, 8176, 11147, 13912, 15946, 18394, 21258, 23265, 25641, 28270, 30474, 32582]}, "edge": {"target": [], "time": []}}, "mouseover": {"state": {"target": ["23", "24", "25", "26", "29", "26", "27", "12", "22", "19", "20", "23", "28", "0", "33", "32", "31", "30", "33", "33", "21", "20", "15", "16", "20", "19", "22", "17", "16", "18", "16", "16", "7", "2", "10"], "time": [2429, 2480, 2763, 3128, 3478, 4204, 4677, 6325, 6640, 6675, 6940, 7454, 7887, 8587, 10267, 10871, 13761, 14329, 14396, 14963, 16878, 18585, 19190, 19258, 20866, 21800, 22101, 25210, 25993, 27773, 28691, 29124, 30938, 32933, 33167]}, "edge": {"target": [], "time": []}}, "mouseout": {"state": {"target": ["7", "0", "23", "24", "25", "26", "29", "26", "27", "12", "22", "19", "20", "23", "28", "0", "33", "32", "31", "31", "30", "33", "33", "31", "21", "20", "15", "16", "20", "19", "22", "17", "16", "18", "16", "16", "16", "7", "2"], "time": [618, 2379, 2462, 2511, 3111, 3427, 3939, 4235, 6242, 6360, 6657, 6691, 7321, 7820, 8538, 8606, 10733, 11498, 13926, 14312, 14361, 14529, 16324, 16395, 18474, 18791, 19207, 20733, 21300, 21849, 23440, 25679, 27723, 28438, 28755, 30663, 30854, 32902, 32967]}, "edge": {"target": [], "time": []}}}, "displayed_time": "39.79", "trialTime": 40730, "trial_type": "mouselab-mdp", "trial_index": 44, "time_elapsed": 1132760, "internal_node_id": "0.0-4.0-1.0-35.0"}}, {"uniqueid": "w90625846:a62461417", "current_trial": 45, "dateTime": 1691077882616, "trialdata": {"revealed_states": [], "clicked_states": ["28", "10", "7", "22"], "num_clicks_accrued": [0, 0, 0, 0, 0, 0, 0, 0, 0, 0, 0, 0, 0], "stateRewards": ["", 2, -2, -3, 10, -4, -1, -11, -8, -9, -36, -78, 2, 1, 7, -7, 44, -1, -31, -1, 26, 47, 83, 2, -4, -4, -6, -52, -76, -81, -1, -59, 45, 67], "withholdReward": false, "trial_id": "mdp_trial_37", "block": "test", "trialIndex": 38, "score": 86.4, "costs": -5.6, "simulationMode": [null, null, null, null, null], "rewards": [2, 1, 7, -1, 83], "path": ["0", "0", "12", "13", "14", "19", "22"], "rt": [10165, 727, 192, 60, 482], "actions": ["right", "right", "right", "down", "left"], "actionTimes": [11498, 12740, 13453, 14035, 15040], "queries": {"click": {"state": {"target": ["28", "10", "7", "22"], "time": [2392, 4425, 6472, 8457]}, "edge": {"target": [], "time": []}}, "mouseover": {"state": {"target": ["23", "24", "28", "10", "2", "7", "12", "22", "31"], "time": [1841, 1908, 2156, 2992, 4676, 4771, 7218, 7784, 9148]}, "edge": {"target": [], "time": []}}, "mouseout": {"state": {"target": ["10", "23", "23", "24", "28", "10", "2", "7", "12", "22"], "time": [259, 627, 1860, 2108, 2807, 4641, 4695, 6701, 7484, 8650]}, "edge": {"target": [], "time": []}}}, "displayed_time": "15.56", "trialTime": 16604, "trial_type": "mouselab-mdp", "trial_index": 45, "time_elapsed": 1149874, "internal_node_id": "0.0-4.0-1.0-36.0"}}, {"uniqueid": "w90625846:a62461417", "current_trial": 46, "dateTime": 1691077903570, "trialdata": {"revealed_states": [], "clicked_states": ["28", "18", "31"], "num_clicks_accrued": [0, 0, 0, 0, 0, 0, 0, 0, 0, 0, 0, 0, 0], "stateRewards": ["", 1, 2, -5, 14, 54, -14, -25, 16, -5, -87, 78, -1, 1, 3, -3, 52, 53, 53, -10, 73, -69, -48, 2, 3, 1, 8, -62, -7, 85, 7, 82, 52, -28], "withholdReward": false, "trial_id": "mdp_trial_38", "block": "test", "trialIndex": 39, "score": 90.8, "costs": -4.199999999999999, "simulationMode": [null, null, null, null, null], "rewards": [2, 3, 1, 7, 82], "path": ["0", "0", "23", "24", "25", "30", "31"], "rt": [7943, 298, 826, 134, 705], "actions": ["left", "left", "left", "down", "right"], "actionTimes": [11466, 12278, 13616, 14272, 15495], "queries": {"click": {"state": {"target": ["28", "18", "31"], "time": [4291, 6277, 8579]}, "edge": {"target": [], "time": []}}, "mouseover": {"state": {"target": ["23", "28", "18", "12", "31", "22"], "time": [3586, 4034, 5106, 6665, 7216, 9729]}, "edge": {"target": [], "time": []}}, "mouseout": {"state": {"target": ["31", "23", "23", "28", "18", "12", "31", "22"], "time": [2370, 2434, 3603, 4688, 6630, 6684, 9130, 18111]}, "edge": {"target": [], "time": []}}}, "displayed_time": "17.52", "trialTime": 20345, "trial_type": "mouselab-mdp", "trial_index": 46, "time_elapsed": 1170828, "internal_node_id": "0.0-4.0-1.0-37.0"}}, {"uniqueid": "w90625846:a62461417", "current_trial": 47, "dateTime": 1691077921107, "trialdata": {"revealed_states": [], "clicked_states": ["28", "10", "7"], "num_clicks_accrued": [0, 0, 0, 0, 0, 0, 0, 0, 0, 0, 0, 0, 0], "stateRewards": ["", -1, -3, -7, -7, -76, 30, -49, 11, -70, 56, 2, 1, 4, -3, -14, -59, -83, -25, -9, -21, -67, -73, -2, 4, 4, -9, -11, -32, 60, 9, -87, 22, -64], "withholdReward": false, "trial_id": "mdp_trial_39", "block": "test", "trialIndex": 40, "score": 51.8, "costs": -4.199999999999999, "simulationMode": [null, null, null, null, null], "rewards": [-1, -3, -7, 11, 56], "path": ["0", "0", "1", "2", "3", "8", "10"], "rt": [8689, 110, 482, 103, 682], "actions": ["up", "up", "up", "left", "down"], "actionTimes": [9857, 10480, 11483, 12106, 13298], "queries": {"click": {"state": {"target": ["28", "10", "7"], "time": [2533, 4469, 6772]}, "edge": {"target": [], "time": []}}, "mouseover": {"state": {"target": ["0", "24", "28", "10", "2", "7"], "time": [1812, 1994, 2179, 3095, 4806, 4907]}, "edge": {"target": [], "time": []}}, "mouseout": {"state": {"target": ["0", "0", "24", "28", "10", "2"], "time": [764, 1845, 2128, 2922, 4799, 4871]}, "edge": {"target": [], "time": []}}}, "displayed_time": "15.17", "trialTime": 16892, "trial_type": "mouselab-mdp", "trial_index": 47, "time_elapsed": 1188365, "internal_node_id": "0.0-4.0-1.0-38.0"}}, {"uniqueid": "w90625846:a62461417", "current_trial": 48, "dateTime": 1691077937803, "trialdata": {"revealed_states": [], "clicked_states": ["29", "27", "21"], "num_clicks_accrued": [0, 0, 0, 0, 0, 0, 0, 0, 0, 0, 0, 0, 0], "stateRewards": ["", -1, 2, 7, 8, 75, 67, -11, 6, 52, -17, 38, -1, 4, -8, 14, 74, -37, -17, -12, 52, 55, 71, -2, -1, -5, 2, 21, 6, -88, -14, 64, -61, -47], "withholdReward": false, "trial_id": "mdp_trial_40", "block": "test", "trialIndex": 41, "score": 33.8, "costs": -4.199999999999999, "simulationMode": [null, null, null, null, null], "rewards": [-1, 4, -8, -12, 55], "path": ["0", "0", "12", "13", "14", "19", "21"], "rt": [8100, 98, 368, 255, 210], "actions": ["right", "right", "right", "down", "down"], "actionTimes": [9530, 10149, 11033, 11819, 12540], "queries": {"click": {"state": {"target": ["29", "27", "21"], "time": [2356, 4329, 6471]}, "edge": {"target": [], "time": []}}, "mouseover": {"state": {"target": ["23", "29", "29", "27", "33", "21", "32"], "time": [1761, 1826, 2192, 2745, 4622, 5672, 7285]}, "edge": {"target": [], "time": []}}, "mouseout": {"state": {"target": ["7", "0", "23", "29", "29", "27", "33", "21"], "time": [527, 1729, 1780, 1845, 2485, 4517, 4952, 6823]}, "edge": {"target": [], "time": []}}}, "displayed_time": "15.43", "trialTime": 16164, "trial_type": "mouselab-mdp", "trial_index": 48, "time_elapsed": 1205062, "internal_node_id": "0.0-4.0-1.0-39.0"}}, {"uniqueid": "w90625846:a62461417", "current_trial": 49, "dateTime": 1691077983593, "trialdata": {"rt": 45784, "response": {"Q0": "$-2 to $2", "Q1": "$-16 to $16", "Q2": "$-88 to $88", "Q3": "The cost was always $1.4.", "Q4": "Very motivated"}, "question_order": [0, 1, 2, 3, 4], "trial_id": "final_quiz_control", "trial_type": "survey-multi-choice", "trial_index": 49, "time_elapsed": 1250852, "internal_node_id": "0.0-4.0-2.0"}}, {"uniqueid": "w90625846:a62461417", "current_trial": 50, "dateTime": 1691078097797, "trialdata": {"rt": 114193, "response": {"Q0": "I was clicking the inner and outer circles, trying to find a value over 50, once I did that I would go fit and gamble that I would not lose too much on the way, and hopefully gain some extra points", "Q1": "Yes I click less and less nodes as to not waste points and gambled more", "Q2": "The randomness of the location of the big worthwhile points made it harder to improve my performance"}, "trial_id": "self_report_control", "trial_type": "survey-text", "trial_index": 50, "time_elapsed": 1365056, "internal_node_id": "0.0-4.0-3.0"}}, {"uniqueid": "w90625846:a62461417", "current_trial": 51, "dateTime": 1691078117876, "trialdata": {"rt": 20075, "response": {"gender": "male", "age": "53", "colorblind": "0", "effort": "0"}, "trial_type": "survey-html-form", "trial_index": 51, "time_elapsed": 1385135, "internal_node_id": "0.0-4.0-4.0"}}, {"uniqueid": "w90625846:a62461417", "current_trial": 52, "dateTime": 1691078170400, "trialdata": {"rt": 52516, "response": {"Q0": "Not at all", "Q1": "I have not participated in this before and was really enjoyable", "Q2": "Excellent and had a lot of fun with this, thank you!"}, "trial_type": "survey-text", "trial_index": 52, "time_elapsed": 1437659, "internal_node_id": "0.0-4.0-5.0"}}, {"uniqueid": "w90625846:a62461417", "current_trial": 53, "dateTime": 1691078172337, "trialdata": {"rt": 1930, "stimulus": "Press 'Finish HIT' in order to reach the completion code. Once the data has been saved, you will receive the code either in this window or in the original browser window where you started the experiment.\n", "response": 0, "trial_type": "html-button-response", "trial_index": 53, "time_elapsed": 1439596, "internal_node_id": "0.0-5.0"}}, {"uniqueid": "w90625846:a62461417", "current_trial": 54, "dateTime": 1691078173344, "trialdata": {"success": true, "trial_type": "fullscreen", "trial_index": 54, "time_elapsed": 1440602, "internal_node_id": "0.0-6.0"}}], "questiondata": {"params": {"CODE": "C6DMOQA6", "MIN_TIME": 14, "inspectCost": 1, "startTime": "Thu Aug 03 2023 16:32:12 GMT+0100 (British Summer Time)", "bonusRate": 0.002, "variance": "1_2_4_8_44", "branching": "31123"}, "final_score": 2033.8}, "eventdata": [{"eventtype": "initialized", "value": null, "timestamp": 1691076731593, "interval": 0}, {"eventtype": "window_resize", "value": [1024, 694], "timestamp": 1691076731593, "interval": 0}, {"eventtype": "window_resize", "value": [1024, 694], "timestamp": 1691076731913, "interval": 320}, {"eventtype": "window_resize", "value": [1366, 768], "timestamp": 1691076734870, "interval": 2957}, {"eventtype": "window_resize", "value": [1024, 694], "timestamp": 1691078172587, "interval": 1437717}], "useragent": "Mozilla/5.0 (Windows NT 10.0; Win64; x64) AppleWebKit/537.36 (KHTML, like Gecko) Chrome/115.0.0.0 Safari/537.36", "mode": "live", "id": "w90625846:a62461417", "status": "user data saved", "Beginhit": "2023-08-03 15:32:10.37551", "Beginexp": "2023-08-03 15:32:15.763888", "Endhit": "2023-08-03 15:56:13.909046", "psiturkStatus": 3, "browser": "<redacted>", "platform": "windows", "language": "en-GB"}