{"condition": 1, "counterbalance": 0, "assignmentId": "a89385975", "workerId": "w77710774", "hitId": "h80209555", "currenttrial": 56, "bonus": 0, "data": [{"uniqueid": "w77710774:a89385975", "current_trial": 0, "dateTime": 1691141825416, "trialdata": {"success": true, "trial_type": "fullscreen", "trial_index": 0, "time_elapsed": 8193, "internal_node_id": "0.0-0.0"}}, {"uniqueid": "w77710774:a89385975", "current_trial": 1, "dateTime": 1691141853756, "trialdata": {"view_history": [{"page_index": 0, "viewing_time": 28326}], "rt": 28331, "trial_id": "exp_instructions_misaligned", "trial_type": "instructions", "trial_index": 1, "time_elapsed": 36533, "internal_node_id": "0.0-1.0"}}, {"uniqueid": "w77710774:a89385975", "current_trial": 2, "dateTime": 1691141858886, "trialdata": {"success": true, "trial_type": "fullscreen", "trial_index": 2, "time_elapsed": 41663, "internal_node_id": "0.0-2.0-0.0"}}, {"uniqueid": "w77710774:a89385975", "current_trial": 3, "dateTime": 1691142158213, "trialdata": {"view_history": [{"page_index": 0, "viewing_time": 93191}, {"page_index": 1, "viewing_time": 114052}, {"page_index": 2, "viewing_time": 39218}, {"page_index": 3, "viewing_time": 52850}], "rt": 299313, "trial_id": "mouselab_instructions_1_misaligned", "trial_type": "instructions", "trial_index": 3, "time_elapsed": 340989, "internal_node_id": "0.0-2.0-1.0"}}, {"uniqueid": "w77710774:a89385975", "current_trial": 4, "dateTime": 1691142181230, "trialdata": {"revealed_states": [], "clicked_states": ["29", "14", "12"], "num_clicks_accrued": [0, 0, 0, 0, 0, 0, 0, 0, 0, 0, 0, 0, 0], "stateRewards": ["", 10, -10, -10, 10, 10, -10, 10, -10, -10, 10, -10, 10, -10, 10, -10, 10, 10, -10, 10, 10, 10, -10, 10, 10, -10, -10, -10, 10, -10, -10, 10, 10, -10], "withholdReward": false, "trial_id": "practice_1", "block": "test", "trialIndex": 0, "score": 12, "costs": -1.5, "simulationMode": [null, null, null, null, null], "rewards": [10, -10, 10, -10, 10], "path": ["0", "0", "12", "13", "14", "15", "17"], "rt": [9229, 1066, 697, 498, 2097], "actions": ["right", "right", "right", "up", "right"], "actionTimes": [12564, 14138, 15350, 16381, 18999], "queries": {"click": {"state": {"target": ["29", "14", "12"], "time": [5842, 8392, 11114]}, "edge": {"target": [], "time": []}}, "mouseover": {"state": {"target": ["23", "26", "29", "26", "28", "12", "13", "14", "13", "12", "12"], "time": [4891, 5160, 5490, 6608, 6905, 7430, 7519, 7955, 9244, 9787, 10245]}, "edge": {"target": [], "time": []}}, "mouseout": {"state": {"target": ["0", "23", "26", "29", "26", "28", "12", "13", "14", "13", "12"], "time": [1284, 4925, 5274, 6443, 6825, 6955, 7481, 7530, 9160, 9703, 9993]}, "edge": {"target": [], "time": []}}}, "displayed_time": "19.52", "trialTime": 21546, "trial_type": "mouselab-mdp", "trial_index": 4, "time_elapsed": 364005, "internal_node_id": "0.0-2.0-2.0-0.0"}}, {"uniqueid": "w77710774:a89385975", "current_trial": 5, "dateTime": 1691142206393, "trialdata": {"revealed_states": [], "clicked_states": ["9", "4", "19"], "num_clicks_accrued": [0, 0, 0, 0, 0, 0, 0, 0, 0, 0, 0, 0, 0], "stateRewards": ["", 10, 10, -10, -10, -10, -10, -10, -10, -10, 10, -10, 10, -10, 10, -10, -10, 10, 10, -10, 10, -10, -10, 10, 10, -10, -10, -10, 10, -10, -10, 10, -10, 10], "withholdReward": false, "trial_id": "practice_2", "block": "test", "trialIndex": 1, "score": -8, "costs": -1.5, "simulationMode": [null, null, null, null, null], "rewards": [10, 10, -10, -10, -10], "path": ["0", "0", "23", "24", "25", "26", "27"], "rt": [9911, 529, 3, 1782, 168], "actions": ["left", "left", "left", "up", "up"], "actionTimes": [16449, 17505, 18025, 20337, 21020], "queries": {"click": {"state": {"target": ["9", "4", "19"], "time": [9191, 10892, 13360]}, "edge": {"target": [], "time": []}}, "mouseover": {"state": {"target": ["1", "8", "9", "8", "3", "4", "18", "14", "19", "22"], "time": [8264, 8552, 8818, 9975, 10162, 10374, 11912, 12301, 12953, 14570]}, "edge": {"target": [], "time": []}}, "mouseout": {"state": {"target": ["12", "0", "1", "8", "9", "8", "3", "4", "18", "14", "19"], "time": [5105, 5718, 8294, 8579, 9946, 10071, 10274, 11659, 11973, 12852, 14408]}, "edge": {"target": [], "time": []}}}, "displayed_time": "21.53", "trialTime": 24517, "trial_type": "mouselab-mdp", "trial_index": 5, "time_elapsed": 389169, "internal_node_id": "0.0-2.0-2.0-1.0"}}, {"uniqueid": "w77710774:a89385975", "current_trial": 6, "dateTime": 1691142240389, "trialdata": {"view_history": [{"page_index": 0, "viewing_time": 25751}, {"page_index": 1, "viewing_time": 8232}], "rt": 33984, "trial_id": "mouselab_instructions_2_misaligned", "trial_type": "instructions", "trial_index": 6, "time_elapsed": 423167, "internal_node_id": "0.0-2.0-3.0"}}, {"uniqueid": "w77710774:a89385975", "current_trial": 7, "dateTime": 1691142295892, "trialdata": {"rt": 55486, "response": {"Q0": "The cost for clicking on nodes may vary between nodes.", "Q1": "The better I perform the higher my bonus will be.", "Q2": "No, the amount of cash at each node of the web may be different each time.", "Q3": "To get the highest total score.", "Q4": "Only before moving the spider.", "Q5": "3 seconds"}, "question_order": [0, 1, 2, 3, 4, 5], "correct": {"Q0": "The cost for clicking on nodes may vary between nodes.", "Q1": "The better I perform the higher my bonus will be.", "Q2": "No, the amount of cash at each node of the web may be different each time.", "Q3": "To get the highest total score.", "Q4": "Only before moving the spider.", "Q5": "3 seconds"}, "trial_id": "mouselab_quiz_misaligned", "trial_type": "survey-multi-choice", "trial_index": 7, "time_elapsed": 478670, "internal_node_id": "0.0-2.0-4.0"}}, {"uniqueid": "w77710774:a89385975", "current_trial": 8, "dateTime": 1691142318659, "trialdata": {"rt": 22734, "stimulus": "\n<h1> Get ready to start the game! </h1>\n\nThank you for reading the instructions. Get ready start with the 40 rounds of this game.\n<br><br>\nIf you need to take a break, feel free to take one after the end of a round, before continuing to the next one.\n<br><br>\nRemember, the more money the spider gets, the bigger your bonus will be!\n<br><br>\n<div style='text-align: center;'>Press <code>space</code> to begin.</div>\n\n<br><br>\n(If, at any point, the <code>space</code> key does not take you to the next page, click once on the text and try again.)", "response": " ", "trial_id": "mdp_ready", "trial_type": "html-keyboard-response", "trial_index": 8, "time_elapsed": 501437, "internal_node_id": "0.0-4.0-0.0"}}, {"uniqueid": "w77710774:a89385975", "current_trial": 9, "dateTime": 1691142342793, "trialdata": {"revealed_states": [], "clicked_states": ["11", "32", "20"], "num_clicks_accrued": [0, 0, 0, 0, 0, 0, 0, 0, 0, 0, 0, 0, 0], "stateRewards": ["", 2, -1, 4, -9, -43, 7, 54, -13, 38, -40, -83, -1, 2, -8, -10, 34, -33, 11, -14, -79, 65, 26, 1, 2, 4, 10, 21, 1, 86, 4, -53, 28, -29], "withholdReward": false, "trial_id": "mdp_trial_1", "block": "test", "trialIndex": 2, "score": 10.55, "costs": -6.449999999999999, "simulationMode": [null, null, null, null, null], "rewards": [-1, 2, -8, -10, 34], "path": ["0", "0", "12", "13", "14", "15", "16"], "rt": [13975, 328, 548, 1107, 110], "actions": ["right", "right", "right", "up", "up"], "actionTimes": [16493, 17342, 18410, 20038, 20669], "queries": {"click": {"state": {"target": ["11", "32", "20"], "time": [4440, 9406, 13147]}, "edge": {"target": [], "time": []}}, "mouseover": {"state": {"target": ["1", "2", "3", "8", "11", "2", "1", "31", "30", "32", "32", "31", "20", "15", "23", "23"], "time": [3471, 3522, 3604, 3738, 4050, 5538, 5605, 5971, 6104, 6470, 8799, 10403, 10795, 15096, 15312, 15711]}, "edge": {"target": [], "time": []}}, "mouseout": {"state": {"target": ["2", "1", "0", "1", "2", "3", "8", "11", "2", "1", "31", "30", "32", "32", "31", "20", "15", "23", "23"], "time": [1064, 1121, 3357, 3504, 3554, 3637, 3887, 5379, 5557, 5621, 6020, 6120, 8463, 10369, 10424, 14397, 15163, 15479, 15829]}, "edge": {"target": [], "time": []}}}, "displayed_time": "21.19", "trialTime": 23374, "trial_type": "mouselab-mdp", "trial_index": 9, "time_elapsed": 525568, "internal_node_id": "0.0-4.0-1.0-0.0"}}, {"uniqueid": "w77710774:a89385975", "current_trial": 10, "dateTime": 1691142369803, "trialdata": {"revealed_states": [], "clicked_states": ["9", "29"], "num_clicks_accrued": [0, 0, 0, 0, 0, 0, 0, 0, 0, 0, 0, 0, 0], "stateRewards": ["", -2, -1, -6, -14, -55, 78, -13, 11, 14, -71, 59, 2, 2, 6, -6, 9, 38, 14, 7, 85, 11, 68, 1, -4, -1, -3, -63, -85, 9, -2, 63, -86, -10], "withholdReward": false, "trial_id": "mdp_trial_2", "block": "test", "trialIndex": 3, "score": 56.7, "costs": -4.3, "simulationMode": [null, null, null, null, null], "rewards": [-2, -1, -6, 11, 59], "path": ["0", "0", "1", "2", "3", "8", "11"], "rt": [11504, 56, 545, 943, 63], "actions": ["up", "up", "up", "left", "left"], "actionTimes": [19719, 20306, 21391, 22853, 23437], "queries": {"click": {"state": {"target": ["9", "29"], "time": [9800, 12976]}, "edge": {"target": [], "time": []}}, "mouseover": {"state": {"target": ["1", "2", "3", "9", "8", "28", "24", "31", "21", "22", "29", "26", "28"], "time": [8922, 8982, 9082, 9391, 10615, 10966, 11033, 11208, 11748, 12016, 12498, 14450, 14779]}, "edge": {"target": [], "time": []}}, "mouseout": {"state": {"target": ["0", "0", "1", "2", "3", "9", "8", "28", "24", "31", "21", "22", "29", "26", "28"], "time": [7122, 8883, 8965, 9032, 9099, 10567, 10655, 10983, 11133, 11314, 11949, 12050, 14115, 14663, 15014]}, "edge": {"target": [], "time": []}}}, "displayed_time": "23.97", "trialTime": 26239, "trial_type": "mouselab-mdp", "trial_index": 10, "time_elapsed": 552579, "internal_node_id": "0.0-4.0-1.0-1.0"}}, {"uniqueid": "w77710774:a89385975", "current_trial": 11, "dateTime": 1691142394669, "trialdata": {"revealed_states": [], "clicked_states": [], "num_clicks_accrued": [0, 0, 0, 0, 0, 0, 0, 0, 0, 0, 0, 0, 0], "stateRewards": ["", 1, -4, -6, -1, -21, 17, -72, 10, 77, 67, -46, -1, 4, -2, 14, -66, -49, -45, -15, -52, 23, -67, 2, -2, -2, 15, -3, 45, -64, 5, -44, 83, 61], "withholdReward": false, "trial_id": "mdp_trial_3", "block": "test", "trialIndex": 4, "score": 86, "costs": 0, "simulationMode": [null, null, null, null, null], "rewards": [2, -2, -2, 5, 83], "path": ["0", "0", "23", "24", "25", "30", "32"], "rt": [3890, 3, 400, 416, 233], "actions": ["left", "left", "left", "down", "down"], "actionTimes": [9582, 10136, 11075, 12004, 12754], "queries": {"click": {"state": {"target": [], "time": []}, "edge": {"target": [], "time": []}}, "mouseover": {"state": {"target": [], "time": []}, "edge": {"target": [], "time": []}}, "mouseout": {"state": {"target": ["1", "2", "1", "31", "12", "14", "14", "13", "12"], "time": [1359, 1736, 1892, 21436, 21537, 21580, 22724, 22790, 22957]}, "edge": {"target": [], "time": []}}}, "displayed_time": "19.69", "trialTime": 24137, "trial_type": "mouselab-mdp", "trial_index": 11, "time_elapsed": 577445, "internal_node_id": "0.0-4.0-1.0-2.0"}}, {"uniqueid": "w77710774:a89385975", "current_trial": 12, "dateTime": 1691142415971, "trialdata": {"revealed_states": [], "clicked_states": [], "num_clicks_accrued": [0, 0, 0, 0, 0, 0, 0, 0, 0, 0, 0, 0, 0], "stateRewards": ["", 1, 1, -6, -2, 7, 77, 3, 16, -16, 66, 31, -1, 3, -8, -6, 33, -50, -48, 7, -60, -66, 36, 2, -3, 3, -7, -12, -61, -79, -4, 8, 74, -70], "withholdReward": false, "trial_id": "mdp_trial_4", "block": "test", "trialIndex": 5, "score": 71, "costs": 0, "simulationMode": [null, null, null, null, null], "rewards": [1, 1, -6, -2, 77], "path": ["0", "0", "1", "2", "3", "4", "6"], "rt": [2276, 481, 1166, 178, 1466], "actions": ["up", "up", "up", "right", "right"], "actionTimes": [5593, 6609, 8296, 8991, 10978], "queries": {"click": {"state": {"target": [], "time": []}, "edge": {"target": [], "time": []}}, "mouseover": {"state": {"target": [], "time": []}, "edge": {"target": [], "time": []}}, "mouseout": {"state": {"target": ["1", "12", "0", "18"], "time": [1113, 1497, 2086, 13167]}, "edge": {"target": [], "time": []}}}, "displayed_time": "17.32", "trialTime": 20570, "trial_type": "mouselab-mdp", "trial_index": 12, "time_elapsed": 598748, "internal_node_id": "0.0-4.0-1.0-3.0"}}, {"uniqueid": "w77710774:a89385975", "current_trial": 13, "dateTime": 1691142436452, "trialdata": {"revealed_states": [], "clicked_states": ["21"], "num_clicks_accrued": [0, 0, 0, 0, 0, 0, 0, 0, 0, 0, 0, 0, 0], "stateRewards": ["", 2, -3, -5, 5, 11, -9, -33, 6, 67, 6, -30, -1, -2, -6, 13, 55, 13, 72, -14, 75, 21, -66, -2, -4, 6, 15, -1, -35, 60, 2, 51, -73, 12], "withholdReward": false, "trial_id": "mdp_trial_5", "block": "test", "trialIndex": 6, "score": 49.85, "costs": -2.15, "simulationMode": [null, null, null, null, null], "rewards": [-1, -2, -6, -14, 75], "path": ["0", "0", "12", "13", "14", "19", "20"], "rt": [10895, 280, 15, 226, 610], "actions": ["right", "right", "right", "down", "right"], "actionTimes": [13762, 14583, 15152, 15921, 17053], "queries": {"click": {"state": {"target": ["21"], "time": [4350]}, "edge": {"target": [], "time": []}}, "mouseover": {"state": {"target": ["0", "22", "21", "21", "19", "13", "12"], "time": [3513, 3562, 3645, 3988, 5681, 8522, 9154]}, "edge": {"target": [], "time": []}}, "mouseout": {"state": {"target": ["15", "18", "0", "22", "21", "21", "19", "13"], "time": [1123, 1165, 3535, 3595, 3796, 5431, 5764, 8636]}, "edge": {"target": [], "time": []}}}, "displayed_time": "17.57", "trialTime": 19552, "trial_type": "mouselab-mdp", "trial_index": 13, "time_elapsed": 619228, "internal_node_id": "0.0-4.0-1.0-4.0"}}, {"uniqueid": "w77710774:a89385975", "current_trial": 14, "dateTime": 1691142458460, "trialdata": {"revealed_states": [], "clicked_states": [], "num_clicks_accrued": [0, 0, 0, 0, 0, 0, 0, 0, 0, 0, 0, 0, 0], "stateRewards": ["", -1, -3, -7, -7, -76, 30, -49, 11, -70, 56, 2, 1, 4, -3, -14, -59, -83, -25, -9, -21, -67, -73, -2, 4, 4, -9, -11, -32, 60, 9, -87, 22, -64], "withholdReward": false, "trial_id": "mdp_trial_6", "block": "test", "trialIndex": 7, "score": -71, "costs": 0, "simulationMode": [null, null, null, null, null], "rewards": [1, 4, -3, -14, -59], "path": ["0", "0", "12", "13", "14", "15", "16"], "rt": [5451, 235, 455, 1074, 1163], "actions": ["right", "right", "right", "up", "up"], "actionTimes": [9034, 9790, 10780, 12376, 14063], "queries": {"click": {"state": {"target": [], "time": []}, "edge": {"target": [], "time": []}}, "mouseover": {"state": {"target": [], "time": []}, "edge": {"target": [], "time": []}}, "mouseout": {"state": {"target": ["12", "0", "22", "19", "20"], "time": [2297, 2397, 20281, 20365, 20498]}, "edge": {"target": [], "time": []}}}, "displayed_time": "17.59", "trialTime": 21167, "trial_type": "mouselab-mdp", "trial_index": 14, "time_elapsed": 641236, "internal_node_id": "0.0-4.0-1.0-5.0"}}, {"uniqueid": "w77710774:a89385975", "current_trial": 15, "dateTime": 1691142491043, "trialdata": {"revealed_states": [], "clicked_states": ["32", "9", "17"], "num_clicks_accrued": [0, 0, 0, 0, 0, 0, 0, 0, 0, 0, 0, 0, 0], "stateRewards": ["", -1, -2, 4, 9, 10, -75, 39, 16, -43, 88, -19, -1, 1, 2, 4, -31, 10, 73, 12, 41, -64, -81, -2, 2, -6, 1, -81, -1, -26, 3, -59, -3, -20], "withholdReward": false, "trial_id": "mdp_trial_7", "block": "test", "trialIndex": 8, "score": -92.45, "costs": -6.449999999999999, "simulationMode": [null, null, null, null, null], "rewards": [-2, 2, -6, 1, -81], "path": ["0", "0", "23", "24", "25", "26", "27"], "rt": [18627, 244, 181, 1133, 853], "actions": ["left", "left", "left", "up", "up"], "actionTimes": [20982, 21752, 22463, 24123, 25488], "queries": {"click": {"state": {"target": ["32", "9", "17"], "time": [5204, 10212, 15815]}, "edge": {"target": [], "time": []}}, "mouseover": {"state": {"target": ["23", "24", "25", "33", "32", "30", "24", "28", "10", "8", "9", "5", "6", "16", "17"], "time": [3450, 3480, 3518, 4049, 4643, 7996, 8208, 8330, 8754, 9263, 9624, 13467, 13807, 13941, 14141]}, "edge": {"target": [], "time": []}}, "mouseout": {"state": {"target": ["12", "0", "23", "24", "25", "33", "32", "30", "24", "28", "10", "8", "9", "5", "6", "16"], "time": [597, 3402, 3475, 3500, 3584, 4434, 7798, 8013, 8263, 8506, 8813, 9352, 11640, 13642, 13858, 14024]}, "edge": {"target": [], "time": []}}}, "displayed_time": "26.00", "trialTime": 31783, "trial_type": "mouselab-mdp", "trial_index": 15, "time_elapsed": 673819, "internal_node_id": "0.0-4.0-1.0-6.0"}}, {"uniqueid": "w77710774:a89385975", "current_trial": 16, "dateTime": 1691142513367, "trialdata": {"revealed_states": [], "clicked_states": [], "num_clicks_accrued": [0, 0, 0, 0, 0, 0, 0, 0, 0, 0, 0, 0, 0], "stateRewards": ["", -1, 2, -7, -12, -62, 12, -13, 5, 77, -71, 83, 1, -4, 7, 15, -42, -87, -4, 5, -25, 44, 88, -1, 4, -5, -8, 14, 51, 8, -5, 83, -24, -19], "withholdReward": false, "trial_id": "mdp_trial_8", "block": "test", "trialIndex": 9, "score": -31, "costs": 0, "simulationMode": [null, null, null, null, null], "rewards": [-1, 2, -7, -12, -13], "path": ["0", "0", "1", "2", "3", "4", "7"], "rt": [1987, 186, 361, 292, 1097], "actions": ["up", "up", "up", "right", "down"], "actionTimes": [5514, 6230, 7139, 7948, 9572], "queries": {"click": {"state": {"target": [], "time": []}, "edge": {"target": [], "time": []}}, "mouseover": {"state": {"target": [], "time": []}, "edge": {"target": [], "time": []}}, "mouseout": {"state": {"target": ["17", "15", "0"], "time": [1032, 1329, 20554]}, "edge": {"target": [], "time": []}}}, "displayed_time": "17.54", "trialTime": 21490, "trial_type": "mouselab-mdp", "trial_index": 16, "time_elapsed": 696143, "internal_node_id": "0.0-4.0-1.0-7.0"}}, {"uniqueid": "w77710774:a89385975", "current_trial": 17, "dateTime": 1691142546209, "trialdata": {"revealed_states": [], "clicked_states": ["30"], "num_clicks_accrued": [0, 0, 0, 0, 0, 0, 0, 0, 0, 0, 0, 0, 0], "stateRewards": ["", -2, -1, 3, -3, 71, -58, -21, 7, -10, -75, -37, 2, 4, -1, -12, -79, -29, -48, 3, -41, -10, -30, -1, -2, 1, -15, 13, 66, 22, -1, -42, -86, -55], "withholdReward": false, "trial_id": "mdp_trial_9", "block": "test", "trialIndex": 10, "score": -3.55, "costs": -1.55, "simulationMode": [null, null, null, null, null], "rewards": [2, 4, -1, 3, -10], "path": ["0", "0", "12", "13", "14", "19", "21"], "rt": [20408, 380, 373, 432, 565], "actions": ["right", "right", "right", "down", "down"], "actionTimes": [22936, 23834, 24725, 25683, 26767], "queries": {"click": {"state": {"target": ["30"], "time": [5160]}, "edge": {"target": [], "time": []}}, "mouseover": {"state": {"target": ["1", "10", "28", "25", "30", "24", "1", "7", "4", "4", "5", "5", "2"], "time": [3221, 3409, 3970, 4333, 4746, 6068, 6411, 6531, 7449, 10121, 10793, 19128, 20183]}, "edge": {"target": [], "time": []}}, "mouseout": {"state": {"target": ["1", "1", "10", "28", "25", "30", "24", "1", "7", "4", "4", "5", "5", "2"], "time": [1298, 3254, 3880, 4083, 4416, 5901, 6189, 6446, 7344, 7563, 10624, 18904, 20118, 20220]}, "edge": {"target": [], "time": []}}}, "displayed_time": "27.28", "trialTime": 31848, "trial_type": "mouselab-mdp", "trial_index": 17, "time_elapsed": 728985, "internal_node_id": "0.0-4.0-1.0-8.0"}}, {"uniqueid": "w77710774:a89385975", "current_trial": 18, "dateTime": 1691142570201, "trialdata": {"revealed_states": [], "clicked_states": [], "num_clicks_accrued": [0, 0, 0, 0, 0, 0, 0, 0, 0, 0, 0, 0, 0], "stateRewards": ["", 2, 3, -1, 16, -78, -11, 46, 2, -20, 79, -67, 2, 3, 2, 11, -83, -42, -58, -11, -67, -22, 55, 2, -1, -1, -16, -83, -82, 23, -11, -29, 13, 13], "withholdReward": false, "trial_id": "mdp_trial_10", "block": "test", "trialIndex": 11, "score": -58, "costs": 0, "simulationMode": [null, null, null, null, null], "rewards": [2, 3, -1, 16, -78], "path": ["0", "0", "1", "2", "3", "4", "5"], "rt": [10236, 555, 856, 1186, 348], "actions": ["up", "up", "up", "right", "up"], "actionTimes": [15581, 16654, 18020, 19732, 20592], "queries": {"click": {"state": {"target": [], "time": []}, "edge": {"target": [], "time": []}}, "mouseover": {"state": {"target": ["1", "2", "3", "2", "31", "31", "19", "21", "19", "21", "21"], "time": [6038, 6104, 6383, 6888, 7402, 7695, 8143, 8480, 11193, 11298, 14110]}, "edge": {"target": [], "time": []}}, "mouseout": {"state": {"target": ["0", "1", "2", "3", "2", "31", "31", "19", "21", "19", "21"], "time": [4245, 6069, 6120, 6544, 6992, 7502, 7733, 8210, 10480, 11229, 13794]}, "edge": {"target": [], "time": []}}}, "displayed_time": "21.11", "trialTime": 22866, "trial_type": "mouselab-mdp", "trial_index": 18, "time_elapsed": 752977, "internal_node_id": "0.0-4.0-1.0-9.0"}}, {"uniqueid": "w77710774:a89385975", "current_trial": 19, "dateTime": 1691142593954, "trialdata": {"revealed_states": [], "clicked_states": ["32", "20"], "num_clicks_accrued": [0, 0, 0, 0, 0, 0, 0, 0, 0, 0, 0, 0, 0], "stateRewards": ["", 1, 1, -3, 7, 49, 78, 26, -5, 26, 48, -43, -1, -3, 2, -5, 4, -1, -60, 10, -35, 51, 81, -2, 1, -7, -5, -39, -86, -54, 4, -3, 74, 77], "withholdReward": false, "trial_id": "mdp_trial_11", "block": "test", "trialIndex": 12, "score": -56.3, "costs": -4.3, "simulationMode": [null, null, null, null, null], "rewards": [-2, 1, -7, -5, -39], "path": ["0", "0", "23", "24", "25", "26", "27"], "rt": [12175, 278, 471, 590, 673], "actions": ["left", "left", "left", "up", "up"], "actionTimes": [14687, 15492, 16482, 17587, 18782], "queries": {"click": {"state": {"target": ["32", "20"], "time": [3808, 8443]}, "edge": {"target": [], "time": []}}, "mouseover": {"state": {"target": ["31", "32", "22", "19", "21", "20", "19", "22"], "time": [3248, 3316, 4836, 4947, 5089, 7597, 11129, 11276]}, "edge": {"target": [], "time": []}}, "mouseout": {"state": {"target": ["21", "22", "12", "0", "31", "32", "22", "19", "21", "20", "20", "19", "22"], "time": [1097, 1168, 1318, 3207, 3267, 4621, 4886, 4971, 7477, 9766, 10970, 11224, 11377]}, "edge": {"target": [], "time": []}}}, "displayed_time": "19.31", "trialTime": 22786, "trial_type": "mouselab-mdp", "trial_index": 19, "time_elapsed": 776731, "internal_node_id": "0.0-4.0-1.0-10.0"}}, {"uniqueid": "w77710774:a89385975", "current_trial": 20, "dateTime": 1691142613795, "trialdata": {"revealed_states": [], "clicked_states": [], "num_clicks_accrued": [0, 0, 0, 0, 0, 0, 0, 0, 0, 0, 0, 0, 0], "stateRewards": ["", 1, 3, 1, -13, 52, -28, 67, -14, 3, 63, -70, -1, -4, 7, -11, -10, 47, -18, 6, 69, -9, -61, 2, 3, -6, 10, 63, -34, 40, -6, -79, -35, -32], "withholdReward": false, "trial_id": "mdp_trial_12", "block": "test", "trialIndex": 13, "score": -79, "costs": 0, "simulationMode": [null, null, null, null, null], "rewards": [1, 3, 1, -14, -70], "path": ["0", "0", "1", "2", "3", "8", "11"], "rt": [2386, 501, 226, 940, 95], "actions": ["up", "up", "up", "left", "left"], "actionTimes": [4591, 5628, 6376, 7852, 8459], "queries": {"click": {"state": {"target": [], "time": []}, "edge": {"target": [], "time": []}}, "mouseover": {"state": {"target": [], "time": []}, "edge": {"target": [], "time": []}}, "mouseout": {"state": {"target": ["0", "0", "22"], "time": [1421, 15603, 18112]}, "edge": {"target": [], "time": []}}}, "displayed_time": "16.21", "trialTime": 18863, "trial_type": "mouselab-mdp", "trial_index": 20, "time_elapsed": 796572, "internal_node_id": "0.0-4.0-1.0-11.0"}}, {"uniqueid": "w77710774:a89385975", "current_trial": 21, "dateTime": 1691142634434, "trialdata": {"revealed_states": [], "clicked_states": ["31"], "num_clicks_accrued": [0, 0, 0, 0, 0, 0, 0, 0, 0, 0, 0, 0, 0], "stateRewards": ["", -2, 1, 6, -2, -10, -78, -69, 14, -15, 7, -1, 1, -1, -2, 13, 77, 32, 87, 5, -74, 30, -26, 1, 3, 4, 12, 39, 54, -43, 2, 10, 23, 13], "withholdReward": false, "trial_id": "mdp_trial_13", "block": "test", "trialIndex": 14, "score": 17.85, "costs": -2.15, "simulationMode": [null, null, null, null, null], "rewards": [1, 3, 4, 2, 10], "path": ["0", "0", "23", "24", "25", "30", "31"], "rt": [6352, 269, 474, 415, 489], "actions": ["left", "left", "left", "down", "right"], "actionTimes": [8537, 9322, 10308, 11249, 12257], "queries": {"click": {"state": {"target": ["31"], "time": [3777]}, "edge": {"target": [], "time": []}}, "mouseover": {"state": {"target": ["0", "31"], "time": [3001, 3069]}, "edge": {"target": [], "time": []}}, "mouseout": {"state": {"target": ["0", "1", "0", "0", "31"], "time": [171, 477, 1120, 3042, 5146]}, "edge": {"target": [], "time": []}}}, "displayed_time": "16.20", "trialTime": 19635, "trial_type": "mouselab-mdp", "trial_index": 21, "time_elapsed": 817210, "internal_node_id": "0.0-4.0-1.0-12.0"}}, {"uniqueid": "w77710774:a89385975", "current_trial": 22, "dateTime": 1691142657325, "trialdata": {"revealed_states": [], "clicked_states": ["21"], "num_clicks_accrued": [0, 0, 0, 0, 0, 0, 0, 0, 0, 0, 0, 0, 0], "stateRewards": ["", -2, 3, 3, -14, 62, 36, 49, 16, 11, 17, -84, 2, -1, 6, 2, -82, -73, 49, -6, -87, 48, 50, -1, -2, -1, -16, -11, 37, -44, 4, 55, 73, -10], "withholdReward": false, "trial_id": "mdp_trial_14", "block": "test", "trialIndex": 15, "score": 46.85, "costs": -2.15, "simulationMode": [null, null, null, null, null], "rewards": [2, -1, 6, -6, 48], "path": ["0", "0", "12", "13", "14", "19", "21"], "rt": [12880, 61, 206, 626, 278], "actions": ["right", "right", "right", "down", "down"], "actionTimes": [15093, 15675, 16422, 17573, 18376], "queries": {"click": {"state": {"target": ["21"], "time": [4112]}, "edge": {"target": [], "time": []}}, "mouseover": {"state": {"target": ["12", "13", "19", "21", "17", "14", "15", "16", "6", "5", "5"], "time": [2903, 2987, 3088, 3303, 7783, 8256, 9164, 9475, 9935, 10206, 10528]}, "edge": {"target": [], "time": []}}, "mouseout": {"state": {"target": ["23", "0", "12", "13", "19", "21", "17", "14", "15", "16", "6", "5", "5"], "time": [1040, 2850, 2970, 3053, 3170, 4828, 7799, 9079, 9198, 9531, 9980, 10455, 14345]}, "edge": {"target": [], "time": []}}}, "displayed_time": "18.94", "trialTime": 21877, "trial_type": "mouselab-mdp", "trial_index": 22, "time_elapsed": 840101, "internal_node_id": "0.0-4.0-1.0-13.0"}}, {"uniqueid": "w77710774:a89385975", "current_trial": 23, "dateTime": 1691142687349, "trialdata": {"revealed_states": [], "clicked_states": ["11", "33"], "num_clicks_accrued": [0, 0, 0, 0, 0, 0, 0, 0, 0, 0, 0, 0, 0], "stateRewards": ["", -2, -3, -3, 9, 79, 67, 22, -15, -56, 27, -85, -2, 4, -4, -15, -20, -32, 60, 15, 71, 57, 17, 1, 2, -8, 15, -37, -81, 82, 15, 21, -3, 2], "withholdReward": false, "trial_id": "mdp_trial_15", "block": "test", "trialIndex": 16, "score": -53.3, "costs": -4.3, "simulationMode": [null, null, null, null, null], "rewards": [-2, 4, -4, -15, -32], "path": ["0", "0", "12", "13", "14", "15", "17"], "rt": [17645, 26, 503, 805, 597], "actions": ["right", "right", "right", "up", "right"], "actionTimes": [20035, 20585, 21634, 22981, 24128], "queries": {"click": {"state": {"target": ["11", "33"], "time": [4399, 9804]}, "edge": {"target": [], "time": []}}, "mouseover": {"state": {"target": ["10", "8", "11", "10", "23", "24", "30", "33", "30", "31", "0", "15", "17", "17"], "time": [3362, 3473, 3945, 6904, 8114, 8250, 8617, 9150, 10986, 11135, 13793, 14654, 14711, 15205]}, "edge": {"target": [], "time": []}}, "mouseout": {"state": {"target": ["7", "1", "10", "8", "11", "10", "23", "24", "30", "33", "30", "31", "0", "15", "17", "17", "16", "18"], "time": [1050, 1106, 3425, 3571, 5807, 6967, 8187, 8300, 8892, 10858, 11084, 11172, 13845, 14667, 14820, 27911, 28162, 28262]}, "edge": {"target": [], "time": []}}}, "displayed_time": "24.64", "trialTime": 28909, "trial_type": "mouselab-mdp", "trial_index": 23, "time_elapsed": 870125, "internal_node_id": "0.0-4.0-1.0-14.0"}}, {"uniqueid": "w77710774:a89385975", "current_trial": 24, "dateTime": 1691142707471, "trialdata": {"revealed_states": [], "clicked_states": ["9", "32"], "num_clicks_accrued": [0, 0, 0, 0, 0, 0, 0, 0, 0, 0, 0, 0, 0], "stateRewards": ["", 1, 2, -8, 9, 18, -83, -11, 6, -64, -48, 17, -2, -2, -5, -3, -24, -3, -86, -2, 48, -41, -22, -2, 4, 7, 8, 81, 13, -48, 10, 61, 19, 57], "withholdReward": false, "trial_id": "mdp_trial_16", "block": "test", "trialIndex": 17, "score": 33.7, "costs": -4.3, "simulationMode": [null, null, null, null, null], "rewards": [-2, 4, 7, 10, 19], "path": ["0", "0", "23", "24", "25", "30", "32"], "rt": [12787, 206, 27, 320, 23], "actions": ["left", "left", "left", "down", "down"], "actionTimes": [15038, 15770, 16320, 17165, 17703], "queries": {"click": {"state": {"target": ["9", "32"], "time": [4164, 9478]}, "edge": {"target": [], "time": []}}, "mouseover": {"state": {"target": ["1", "2", "3", "9", "3", "12", "31", "32", "31"], "time": [2883, 3173, 3351, 3552, 7811, 7997, 8536, 8956, 10670]}, "edge": {"target": [], "time": []}}, "mouseout": {"state": {"target": ["1", "2", "3", "9", "9", "3", "12", "31", "32"], "time": [3131, 3244, 3385, 4360, 5286, 7833, 8106, 8630, 10415]}, "edge": {"target": [], "time": []}}}, "displayed_time": "18.23", "trialTime": 19190, "trial_type": "mouselab-mdp", "trial_index": 24, "time_elapsed": 890247, "internal_node_id": "0.0-4.0-1.0-15.0"}}, {"uniqueid": "w77710774:a89385975", "current_trial": 25, "dateTime": 1691142733615, "trialdata": {"revealed_states": [], "clicked_states": ["20", "29"], "num_clicks_accrued": [0, 0, 0, 0, 0, 0, 0, 0, 0, 0, 0, 0, 0], "stateRewards": ["", 2, -2, 7, -11, -76, -65, -23, 16, -58, 30, 81, 1, 2, 7, 14, 9, 55, -2, 6, 11, -15, 31, -1, -1, -3, 2, 15, 2, 46, 15, 18, 45, -34], "withholdReward": false, "trial_id": "mdp_trial_17", "block": "test", "trialIndex": 18, "score": 38.7, "costs": -4.3, "simulationMode": [null, null, null, null, null], "rewards": [-1, -1, -3, 2, 46], "path": ["0", "0", "23", "24", "25", "26", "29"], "rt": [12154, 123, 165, 918, 2760], "actions": ["left", "left", "left", "up", "left"], "actionTimes": [14370, 15036, 15728, 17188, 20472], "queries": {"click": {"state": {"target": ["20", "29"], "time": [4659, 9581]}, "edge": {"target": [], "time": []}}, "mouseover": {"state": {"target": ["1", "2", "3", "4", "6", "16", "15", "20", "14", "15", "0", "23", "26", "29", "26", "24"], "time": [2969, 3085, 3253, 3602, 3686, 3752, 3786, 4077, 5887, 6137, 8354, 8738, 8792, 9120, 10447, 10888]}, "edge": {"target": [], "time": []}}, "mouseout": {"state": {"target": ["31", "24", "1", "1", "2", "3", "4", "6", "16", "15", "20", "14", "15", "0", "23", "26", "29", "26", "24", "1", "16", "15", "18"], "time": [404, 520, 969, 3036, 3153, 3469, 3652, 3703, 3770, 3803, 5804, 5957, 8312, 8381, 8776, 8808, 10399, 10513, 11033, 22352, 22801, 24886, 24932]}, "edge": {"target": [], "time": []}}}, "displayed_time": "20.99", "trialTime": 25253, "trial_type": "mouselab-mdp", "trial_index": 25, "time_elapsed": 916391, "internal_node_id": "0.0-4.0-1.0-16.0"}}, {"uniqueid": "w77710774:a89385975", "current_trial": 26, "dateTime": 1691142757500, "trialdata": {"revealed_states": [], "clicked_states": [], "num_clicks_accrued": [0, 0, 0, 0, 0, 0, 0, 0, 0, 0, 0, 0, 0], "stateRewards": ["", 1, -3, 4, 13, -72, 52, 5, 5, -58, 5, 14, 2, 1, 3, -14, -86, -4, 73, 6, -58, -50, 49, 2, -3, -4, 2, 33, -41, 42, -11, 81, 45, 53], "withholdReward": false, "trial_id": "mdp_trial_18", "block": "test", "trialIndex": 19, "score": -38, "costs": 0, "simulationMode": [null, null, null, null, null], "rewards": [2, 1, 3, 6, -50], "path": ["0", "0", "12", "13", "14", "19", "21"], "rt": [14021, 449, 516, 173, 333], "actions": ["right", "right", "right", "down", "down"], "actionTimes": [17168, 18137, 19167, 19866, 20755], "queries": {"click": {"state": {"target": [], "time": []}, "edge": {"target": [], "time": []}}, "mouseover": {"state": {"target": ["1", "2", "4", "5", "4", "5"], "time": [3859, 3900, 4219, 4909, 6062, 8741]}, "edge": {"target": [], "time": []}}, "mouseout": {"state": {"target": ["7", "4", "7", "1", "2", "4", "5", "4"], "time": [1162, 1910, 1960, 3883, 3944, 4826, 5591, 8135]}, "edge": {"target": [], "time": []}}}, "displayed_time": "21.30", "trialTime": 22857, "trial_type": "mouselab-mdp", "trial_index": 26, "time_elapsed": 940276, "internal_node_id": "0.0-4.0-1.0-17.0"}}, {"uniqueid": "w77710774:a89385975", "current_trial": 27, "dateTime": 1691142778022, "trialdata": {"revealed_states": [], "clicked_states": ["25", "8", "6"], "num_clicks_accrued": [0, 0, 0, 0, 0, 0, 0, 0, 0, 0, 0, 0, 0], "stateRewards": ["", 2, 3, -6, -5, -3, 55, 40, 11, 61, 11, 51, 2, -4, -6, 9, -25, 29, -15, -6, 7, -77, -2, -2, -4, 1, 14, -43, -1, 56, -12, -54, 41, -74], "withholdReward": false, "trial_id": "mdp_trial_19", "block": "test", "trialIndex": 20, "score": 44.35, "costs": -4.65, "simulationMode": [null, null, null, null, null], "rewards": [2, 3, -6, -5, 55], "path": ["0", "0", "1", "2", "3", "4", "6"], "rt": [10402, 216, 48, 529, 86], "actions": ["up", "up", "up", "right", "right"], "actionTimes": [13092, 13847, 14405, 15469, 16130], "queries": {"click": {"state": {"target": ["25", "8", "6"], "time": [4034, 6040, 8317]}, "edge": {"target": [], "time": []}}, "mouseover": {"state": {"target": ["25", "26", "27", "11", "8", "6", "4"], "time": [3675, 5114, 5362, 5479, 5662, 7962, 9578]}, "edge": {"target": [], "time": []}}, "mouseout": {"state": {"target": ["5", "4", "7", "25", "26", "27", "11", "8", "6", "4"], "time": [1176, 1331, 1364, 4947, 5228, 5445, 5512, 6231, 9520, 12188]}, "edge": {"target": [], "time": []}}}, "displayed_time": "16.70", "trialTime": 19504, "trial_type": "mouselab-mdp", "trial_index": 27, "time_elapsed": 960798, "internal_node_id": "0.0-4.0-1.0-18.0"}}, {"uniqueid": "w77710774:a89385975", "current_trial": 28, "dateTime": 1691142805088, "trialdata": {"revealed_states": [], "clicked_states": ["29"], "num_clicks_accrued": [0, 0, 0, 0, 0, 0, 0, 0, 0, 0, 0, 0, 0], "stateRewards": ["", 2, -3, -8, 14, -7, -51, 73, 2, 36, 36, -43, -1, 3, -4, 1, 6, 87, -65, 15, 61, -42, -83, -1, 3, -2, -7, 30, -48, 35, 13, 26, 60, 78], "withholdReward": false, "trial_id": "mdp_trial_20", "block": "test", "trialIndex": 21, "score": 25.85, "costs": -2.15, "simulationMode": [null, null, null, null, null], "rewards": [-1, 3, -2, -7, 35], "path": ["0", "0", "23", "24", "25", "26", "29"], "rt": [6333, 219, 306, 1032, 267], "actions": ["left", "left", "left", "up", "left"], "actionTimes": [15251, 15993, 16812, 18355, 19162], "queries": {"click": {"state": {"target": ["29"], "time": [10862]}, "edge": {"target": [], "time": []}}, "mouseover": {"state": {"target": ["28", "29", "10", "2", "7"], "time": [10155, 10322, 12038, 12097, 12239]}, "edge": {"target": [], "time": []}}, "mouseout": {"state": {"target": ["16", "18", "28", "29", "10", "2", "7"], "time": [6027, 6148, 10173, 11822, 12075, 12196, 12326]}, "edge": {"target": [], "time": []}}}, "displayed_time": "22.92", "trialTime": 25925, "trial_type": "mouselab-mdp", "trial_index": 28, "time_elapsed": 987866, "internal_node_id": "0.0-4.0-1.0-19.0"}}, {"uniqueid": "w77710774:a89385975", "current_trial": 29, "dateTime": 1691142828364, "trialdata": {"revealed_states": [], "clicked_states": ["21"], "num_clicks_accrued": [0, 0, 0, 0, 0, 0, 0, 0, 0, 0, 0, 0, 0], "stateRewards": ["", 2, 4, 4, -8, -36, -33, 38, 16, -51, 57, 57, 1, 3, 4, -6, 45, 68, 87, 1, 63, 24, -55, -2, 2, -6, -13, -63, -50, 8, 2, 80, 6, 60], "withholdReward": false, "trial_id": "mdp_trial_21", "block": "test", "trialIndex": 22, "score": 30.85, "costs": -2.15, "simulationMode": [null, null, null, null, null], "rewards": [1, 3, 4, 1, 24], "path": ["0", "0", "12", "13", "14", "19", "21"], "rt": [6724, 99, 358, 537, 130], "actions": ["right", "right", "right", "down", "down"], "actionTimes": [10335, 10963, 11854, 12915, 13559], "queries": {"click": {"state": {"target": ["21"], "time": [5834]}, "edge": {"target": [], "time": []}}, "mouseover": {"state": {"target": ["1", "18", "19", "21", "17"], "time": [4404, 4689, 4889, 5179, 9493]}, "edge": {"target": [], "time": []}}, "mouseout": {"state": {"target": ["7", "1", "1", "18", "19", "21"], "time": [2141, 2264, 4430, 4727, 4980, 6027]}, "edge": {"target": [], "time": []}}}, "displayed_time": "17.61", "trialTime": 22207, "trial_type": "mouselab-mdp", "trial_index": 29, "time_elapsed": 1011141, "internal_node_id": "0.0-4.0-1.0-20.0"}}, {"uniqueid": "w77710774:a89385975", "current_trial": 30, "dateTime": 1691142847937, "trialdata": {"revealed_states": [], "clicked_states": [], "num_clicks_accrued": [0, 0, 0, 0, 0, 0, 0, 0, 0, 0, 0, 0, 0], "stateRewards": ["", 1, 2, -6, -13, -51, 22, -4, -12, -44, -12, 6, -2, -2, -2, -14, -46, -4, -77, -2, 36, -79, 41, 2, -4, 2, -6, -55, 59, 70, -5, 39, -19, 24], "withholdReward": false, "trial_id": "mdp_trial_22", "block": "test", "trialIndex": 23, "score": -27, "costs": 0, "simulationMode": [null, null, null, null, null], "rewards": [1, 2, -6, -12, -12], "path": ["0", "0", "1", "2", "3", "8", "10"], "rt": [7778, 172, 424, 392, 475], "actions": ["up", "up", "up", "left", "down"], "actionTimes": [10347, 11044, 11993, 12911, 13909], "queries": {"click": {"state": {"target": [], "time": []}, "edge": {"target": [], "time": []}}, "mouseover": {"state": {"target": ["8", "9", "11", "8", "10", "2", "10"], "time": [3372, 3555, 4999, 5270, 5453, 7285, 8917]}, "edge": {"target": [], "time": []}}, "mouseout": {"state": {"target": ["17", "13", "0", "8", "9", "11", "8", "10", "2"], "time": [1049, 1115, 1660, 3456, 4622, 5015, 5336, 7010, 8848]}, "edge": {"target": [], "time": []}}}, "displayed_time": "16.57", "trialTime": 18408, "trial_type": "mouselab-mdp", "trial_index": 30, "time_elapsed": 1030714, "internal_node_id": "0.0-4.0-1.0-21.0"}}, {"uniqueid": "w77710774:a89385975", "current_trial": 31, "dateTime": 1691142869666, "trialdata": {"revealed_states": [], "clicked_states": ["14", "5"], "num_clicks_accrued": [0, 0, 0, 0, 0, 0, 0, 0, 0, 0, 0, 0, 0], "stateRewards": ["", 2, 3, 8, 14, 69, -27, 17, 2, -71, -65, -10, 2, -3, 7, 8, 65, -10, 65, -12, 73, -12, 13, -2, -2, 6, 10, -79, -69, -18, 10, -85, 67, 74], "withholdReward": false, "trial_id": "mdp_trial_23", "block": "test", "trialIndex": 24, "score": 92.9, "costs": -3.0999999999999996, "simulationMode": [null, null, null, null, null], "rewards": [2, 3, 8, 14, 69], "path": ["0", "0", "1", "2", "3", "4", "5"], "rt": [8594, 30, 7, 672, 1260], "actions": ["up", "up", "up", "right", "up"], "actionTimes": [12546, 13104, 13631, 14830, 16615], "queries": {"click": {"state": {"target": ["14", "5"], "time": [5385, 7732]}, "edge": {"target": [], "time": []}}, "mouseover": {"state": {"target": ["12", "13", "14", "6", "5", "9", "3", "2"], "time": [4568, 4623, 4680, 6975, 7292, 9975, 11221, 11306]}, "edge": {"target": [], "time": []}}, "mouseout": {"state": {"target": ["10", "0", "12", "13", "14", "6", "5", "9", "3", "2"], "time": [2477, 2835, 4603, 4666, 6660, 7026, 8819, 11188, 11288, 11324]}, "edge": {"target": [], "time": []}}}, "displayed_time": "17.95", "trialTime": 20466, "trial_type": "mouselab-mdp", "trial_index": 31, "time_elapsed": 1052442, "internal_node_id": "0.0-4.0-1.0-22.0"}}, {"uniqueid": "w77710774:a89385975", "current_trial": 32, "dateTime": 1691142893449, "trialdata": {"revealed_states": [], "clicked_states": ["32", "9", "17"], "num_clicks_accrued": [0, 0, 0, 0, 0, 0, 0, 0, 0, 0, 0, 0, 0], "stateRewards": ["", 1, -3, -4, -11, -56, 61, -47, -16, -28, -9, 69, -2, -3, -4, -8, 40, -86, 59, -4, 80, 27, 54, -1, 3, -1, 8, 67, 23, 50, 6, 83, -43, -29], "withholdReward": false, "trial_id": "mdp_trial_24", "block": "test", "trialIndex": 25, "score": 7.550000000000001, "costs": -6.449999999999999, "simulationMode": [null, null, null, null, null, null], "rewards": [-2, -3, -4, -4, 27], "path": ["0", "0", "12", "13", "14", "19", "21"], "rt": [13519, 1334, 182, 239, 323, 260], "actions": ["right", "right", "right", "right", "down", "down"], "actionTimes": [15717, 17062, 17771, 18524, 19375, 20161], "queries": {"click": {"state": {"target": ["32", "9", "17"], "time": [4279, 8787, 13849]}, "edge": {"target": [], "time": []}}, "mouseover": {"state": {"target": ["23", "31", "32", "30", "25", "11", "9", "3", "2", "17"], "time": [3512, 3609, 3783, 5261, 5421, 5886, 6294, 10449, 11219, 13482]}, "edge": {"target": [], "time": []}}, "mouseout": {"state": {"target": ["0", "0", "23", "31", "32", "30", "25", "11", "9", "3", "2"], "time": [911, 3428, 3559, 3643, 4465, 5352, 5458, 5913, 9991, 10932, 11308]}, "edge": {"target": [], "time": []}}}, "displayed_time": "20.68", "trialTime": 22497, "trial_type": "mouselab-mdp", "trial_index": 32, "time_elapsed": 1076225, "internal_node_id": "0.0-4.0-1.0-23.0"}}, {"uniqueid": "w77710774:a89385975", "current_trial": 33, "dateTime": 1691142912171, "trialdata": {"revealed_states": [], "clicked_states": ["29"], "num_clicks_accrued": [0, 0, 0, 0, 0, 0, 0, 0, 0, 0, 0, 0, 0], "stateRewards": ["", -1, 3, 1, -11, -22, -36, 19, -5, -70, -52, 50, -2, -4, 4, -2, -41, -83, 29, -2, 22, 10, -6, -2, 3, -2, 14, 54, 44, 77, -9, -65, -37, -40], "withholdReward": false, "trial_id": "mdp_trial_25", "block": "test", "trialIndex": 26, "score": 87.85, "costs": -2.15, "simulationMode": [null, null, null, null, null], "rewards": [-2, 3, -2, 14, 77], "path": ["0", "0", "23", "24", "25", "26", "29"], "rt": [6088, 245, 244, 836, 285], "actions": ["left", "left", "left", "up", "left"], "actionTimes": [8543, 9302, 10074, 11430, 12240], "queries": {"click": {"state": {"target": ["29"], "time": [4044]}, "edge": {"target": [], "time": []}}, "mouseover": {"state": {"target": ["28", "26", "29", "26", "16"], "time": [3223, 3313, 3631, 5122, 7129]}, "edge": {"target": [], "time": []}}, "mouseout": {"state": {"target": ["17", "16", "28", "26", "29", "26", "16"], "time": [803, 904, 3304, 3474, 5015, 5212, 7387]}, "edge": {"target": [], "time": []}}}, "displayed_time": "16.46", "trialTime": 17607, "trial_type": "mouselab-mdp", "trial_index": 33, "time_elapsed": 1094948, "internal_node_id": "0.0-4.0-1.0-24.0"}}, {"uniqueid": "w77710774:a89385975", "current_trial": 34, "dateTime": 1691142931290, "trialdata": {"revealed_states": [], "clicked_states": [], "num_clicks_accrued": [0, 0, 0, 0, 0, 0, 0, 0, 0, 0, 0, 0, 0], "stateRewards": ["", 2, -1, -3, 16, -3, -16, -62, -1, 13, -26, 43, -1, 4, 3, -9, -54, -37, -3, -12, -71, -68, -57, 1, -3, 2, -9, 2, -2, -9, -11, 84, -52, 55], "withholdReward": false, "trial_id": "mdp_trial_26", "block": "test", "trialIndex": 27, "score": -57, "costs": 0, "simulationMode": [null, null, null, null, null], "rewards": [-1, 4, 3, -9, -54], "path": ["0", "0", "12", "13", "14", "15", "16"], "rt": [7759, 115, 72, 983, 17], "actions": ["right", "right", "right", "up", "up"], "actionTimes": [10065, 10736, 11333, 12840, 13371], "queries": {"click": {"state": {"target": [], "time": []}, "edge": {"target": [], "time": []}}, "mouseover": {"state": {"target": ["1", "2", "4", "5", "6", "16", "15", "14", "19", "22", "14", "15", "17", "15", "18"], "time": [2964, 3343, 3876, 4326, 4793, 4846, 4882, 4915, 5057, 5584, 6174, 6257, 6357, 6974, 7108]}, "edge": {"target": [], "time": []}}, "mouseout": {"state": {"target": ["16", "18", "12", "1", "2", "4", "5", "6", "16", "15", "14", "19", "22", "14", "15", "17", "15"], "time": [15, 735, 910, 3134, 3771, 4026, 4722, 4822, 4862, 4898, 4941, 5258, 5783, 6206, 6275, 6889, 7040]}, "edge": {"target": [], "time": []}}}, "displayed_time": "16.31", "trialTime": 17661, "trial_type": "mouselab-mdp", "trial_index": 34, "time_elapsed": 1114066, "internal_node_id": "0.0-4.0-1.0-25.0"}}, {"uniqueid": "w77710774:a89385975", "current_trial": 35, "dateTime": 1691142956035, "trialdata": {"revealed_states": [], "clicked_states": ["9", "17", "22"], "num_clicks_accrued": [0, 0, 0, 0, 0, 0, 0, 0, 0, 0, 0, 0, 0], "stateRewards": ["", 1, 1, 1, -3, -7, -1, -41, -10, 20, -72, -63, 1, -4, -2, 2, -66, 30, -84, -2, 49, 23, 71, -1, -4, 4, -12, 67, 5, 18, -16, 88, 56, -5], "withholdReward": false, "trial_id": "mdp_trial_27", "block": "test", "trialIndex": 28, "score": 9.55, "costs": -6.449999999999999, "simulationMode": [null, null, null, null, null], "rewards": [1, -4, -2, -2, 23], "path": ["0", "0", "12", "13", "14", "19", "21"], "rt": [13206, 133, 484, 468, 46], "actions": ["right", "right", "right", "down", "down"], "actionTimes": [15265, 15916, 16918, 17901, 18461], "queries": {"click": {"state": {"target": ["9", "17", "22"], "time": [4026, 6837, 10513]}, "edge": {"target": [], "time": []}}, "mouseover": {"state": {"target": ["1", "2", "3", "9", "4", "6", "16", "17", "17", "14", "22", "12"], "time": [3040, 3134, 3229, 3675, 5065, 5124, 5445, 5632, 6430, 8506, 8823, 11672]}, "edge": {"target": [], "time": []}}, "mouseout": {"state": {"target": ["18", "1", "2", "3", "9", "4", "6", "16", "17", "17", "17", "14", "22"], "time": [648, 3081, 3177, 3375, 5025, 5096, 5149, 5483, 5693, 7063, 8287, 8565, 11470]}, "edge": {"target": [], "time": []}}}, "displayed_time": "19.00", "trialTime": 23171, "trial_type": "mouselab-mdp", "trial_index": 35, "time_elapsed": 1138811, "internal_node_id": "0.0-4.0-1.0-26.0"}}, {"uniqueid": "w77710774:a89385975", "current_trial": 36, "dateTime": 1691142981464, "trialdata": {"revealed_states": [], "clicked_states": ["9", "21", "29"], "num_clicks_accrued": [0, 0, 0, 0, 0, 0, 0, 0, 0, 0, 0, 0, 0], "stateRewards": ["", -1, 1, 8, -3, -24, 11, -65, -6, -77, 48, 44, -2, 1, -2, -7, -55, -35, 33, 8, -28, 19, -53, -1, -1, -5, -5, -70, 10, 44, 8, -58, -70, 51], "withholdReward": false, "trial_id": "mdp_trial_28", "block": "test", "trialIndex": 29, "score": 25.55, "costs": -6.449999999999999, "simulationMode": [null, null, null, null, null], "rewards": [-1, -1, -5, -5, 44], "path": ["0", "0", "23", "24", "25", "26", "29"], "rt": [13655, 7, 6, 764, 780], "actions": ["left", "left", "left", "up", "left"], "actionTimes": [18255, 18775, 19321, 20614, 21912], "queries": {"click": {"state": {"target": ["9", "21", "29"], "time": [6320, 10765, 14097]}, "edge": {"target": [], "time": []}}, "mouseover": {"state": {"target": ["10", "8", "9", "4", "20", "21", "25", "29", "26", "28"], "time": [5481, 5549, 5915, 6975, 7749, 8235, 11746, 12495, 15343, 15574]}, "edge": {"target": [], "time": []}}, "mouseout": {"state": {"target": ["12", "0", "10", "8", "9", "4", "20", "21", "25", "29", "26", "28"], "time": [3265, 5380, 5531, 5631, 6917, 7017, 7986, 11630, 11771, 15294, 15476, 15898]}, "edge": {"target": [], "time": []}}}, "displayed_time": "22.43", "trialTime": 24299, "trial_type": "mouselab-mdp", "trial_index": 36, "time_elapsed": 1164240, "internal_node_id": "0.0-4.0-1.0-27.0"}}, {"uniqueid": "w77710774:a89385975", "current_trial": 37, "dateTime": 1691143006043, "trialdata": {"revealed_states": [], "clicked_states": ["5", "32", "17"], "num_clicks_accrued": [0, 0, 0, 0, 0, 0, 0, 0, 0, 0, 0, 0, 0], "stateRewards": ["", -1, -3, -6, -2, -7, 80, -45, -3, -38, -72, 76, 2, 1, 7, 4, -62, 14, -74, 14, -87, -21, -88, -2, 1, -7, -10, 66, 56, -76, 10, -29, -72, -70], "withholdReward": false, "trial_id": "mdp_trial_29", "block": "test", "trialIndex": 30, "score": 41.55, "costs": -6.449999999999999, "simulationMode": [null, null, null, null, null], "rewards": [-2, 1, -7, -10, 66], "path": ["0", "0", "23", "24", "25", "26", "27"], "rt": [15703, 84, 324, 979, 82], "actions": ["left", "left", "left", "up", "up"], "actionTimes": [17933, 18549, 19407, 20926, 21526], "queries": {"click": {"state": {"target": ["5", "32", "17"], "time": [3826, 8602, 13152]}, "edge": {"target": [], "time": []}}, "mouseover": {"state": {"target": ["7", "5", "8", "28", "30", "32", "21", "17"], "time": [3073, 3406, 7468, 7719, 7969, 8135, 12015, 12715]}, "edge": {"target": [], "time": []}}, "mouseout": {"state": {"target": ["0", "7", "5", "8", "28", "30", "32", "21", "17"], "time": [3016, 3157, 5480, 7553, 7770, 8086, 11418, 12331, 16347]}, "edge": {"target": [], "time": []}}}, "displayed_time": "22.06", "trialTime": 23499, "trial_type": "mouselab-mdp", "trial_index": 37, "time_elapsed": 1188819, "internal_node_id": "0.0-4.0-1.0-28.0"}}, {"uniqueid": "w77710774:a89385975", "current_trial": 38, "dateTime": 1691143031782, "trialdata": {"revealed_states": [], "clicked_states": ["6", "33", "20"], "num_clicks_accrued": [0, 0, 0, 0, 0, 0, 0, 0, 0, 0, 0, 0, 0], "stateRewards": ["", -1, -3, -5, -14, -13, -47, 79, 8, -60, -64, 41, -1, 2, 3, 13, -46, 61, -79, -11, -64, -65, 23, 1, -2, 6, -14, 46, 32, 21, 7, 75, -66, 15], "withholdReward": false, "trial_id": "mdp_trial_30", "block": "test", "trialIndex": 31, "score": -68.45, "costs": -6.449999999999999, "simulationMode": [null, null, null, null, null, null], "rewards": [-1, 2, 3, 13, -79], "path": ["0", "0", "12", "13", "14", "15", "18"], "rt": [13740, 1907, 201, 338, 751, 734], "actions": ["right", "right", "right", "right", "up", "left"], "actionTimes": [16355, 18273, 18999, 19965, 21232, 22513], "queries": {"click": {"state": {"target": ["6", "33", "20"], "time": [4709, 9049, 14099]}, "edge": {"target": [], "time": []}}, "mouseover": {"state": {"target": ["7", "4", "5", "6", "4", "3", "8", "11", "27", "29", "33", "33", "30", "31", "22", "19", "20"], "time": [3571, 3639, 3758, 4275, 5501, 5568, 5634, 5894, 6062, 6319, 8237, 8669, 10143, 10314, 11882, 12681, 13672]}, "edge": {"target": [], "time": []}}, "mouseout": {"state": {"target": ["14", "12", "0", "7", "4", "5", "6", "4", "3", "8", "11", "27", "29", "33", "33", "30", "31", "22", "19", "20"], "time": [1198, 1316, 1758, 3619, 3690, 4029, 5478, 5528, 5591, 5750, 5996, 6103, 8174, 8275, 10048, 10237, 10572, 12458, 13400, 14298]}, "edge": {"target": [], "time": []}}}, "displayed_time": "23.03", "trialTime": 24659, "trial_type": "mouselab-mdp", "trial_index": 38, "time_elapsed": 1214556, "internal_node_id": "0.0-4.0-1.0-29.0"}}, {"uniqueid": "w77710774:a89385975", "current_trial": 39, "dateTime": 1691143055923, "trialdata": {"revealed_states": [], "clicked_states": ["9", "32", "20"], "num_clicks_accrued": [0, 0, 0, 0, 0, 0, 0, 0, 0, 0, 0, 0, 0], "stateRewards": ["", -2, -3, 7, -13, 60, 9, 37, -6, 37, 20, 1, 2, -2, -8, 6, -80, -31, -10, -7, 70, -65, -44, -1, 1, 7, 6, -11, 73, -85, 16, -21, 47, 34], "withholdReward": false, "trial_id": "mdp_trial_31", "block": "test", "trialIndex": 32, "score": 48.55, "costs": -6.449999999999999, "simulationMode": [null, null, null, null, null], "rewards": [2, -2, -8, -7, 70], "path": ["0", "0", "12", "13", "14", "19", "20"], "rt": [15236, 251, 238, 34, 496], "actions": ["right", "right", "right", "down", "right"], "actionTimes": [18178, 18958, 19765, 20320, 21341], "queries": {"click": {"state": {"target": ["9", "32", "20"], "time": [4900, 9092, 13756]}, "edge": {"target": [], "time": []}}, "mouseover": {"state": {"target": ["1", "9", "11", "28", "24", "30", "32", "31", "19", "20"], "time": [3543, 3879, 5935, 7203, 7386, 7640, 8657, 9849, 13104, 13253]}, "edge": {"target": [], "time": []}}, "mouseout": {"state": {"target": ["20", "14", "13", "12", "1", "9", "11", "28", "24", "30", "32", "31", "19", "20"], "time": [1376, 1445, 1562, 1696, 3579, 5837, 6185, 7308, 7503, 8008, 9290, 9893, 13153, 13952]}, "edge": {"target": [], "time": []}}}, "displayed_time": "21.86", "trialTime": 22995, "trial_type": "mouselab-mdp", "trial_index": 39, "time_elapsed": 1238699, "internal_node_id": "0.0-4.0-1.0-30.0"}}, {"uniqueid": "w77710774:a89385975", "current_trial": 40, "dateTime": 1691143075220, "trialdata": {"revealed_states": [], "clicked_states": [], "num_clicks_accrued": [0, 0, 0, 0, 0, 0, 0, 0, 0, 0, 0, 0, 0], "stateRewards": ["", -2, -3, 1, -14, 48, -49, 67, -1, -35, -48, 3, -2, 1, -4, -5, 86, -84, 39, 1, 48, 41, -42, -1, -4, 2, -7, 18, -86, 17, 7, -9, 57, -69], "withholdReward": false, "trial_id": "mdp_trial_32", "block": "test", "trialIndex": 33, "score": 49, "costs": 0, "simulationMode": [null, null, null, null, null], "rewards": [-2, -3, 1, -14, 67], "path": ["0", "0", "1", "2", "3", "4", "7"], "rt": [2530, 437, 336, 166, 895], "actions": ["up", "up", "up", "right", "down"], "actionTimes": [5006, 5971, 6829, 7577, 8988], "queries": {"click": {"state": {"target": [], "time": []}, "edge": {"target": [], "time": []}}, "mouseover": {"state": {"target": ["1", "2", "3"], "time": [3126, 3591, 3808]}, "edge": {"target": [], "time": []}}, "mouseout": {"state": {"target": ["1", "1", "2", "3"], "time": [882, 3526, 3691, 4061]}, "edge": {"target": [], "time": []}}}, "displayed_time": "16.48", "trialTime": 18196, "trial_type": "mouselab-mdp", "trial_index": 40, "time_elapsed": 1257996, "internal_node_id": "0.0-4.0-1.0-31.0"}}, {"uniqueid": "w77710774:a89385975", "current_trial": 41, "dateTime": 1691143096984, "trialdata": {"revealed_states": [], "clicked_states": ["29"], "num_clicks_accrued": [0, 0, 0, 0, 0, 0, 0, 0, 0, 0, 0, 0, 0], "stateRewards": ["", -2, 1, -7, -8, -37, -76, -87, 11, 30, -63, 80, -1, 4, 2, -1, 42, 17, 52, -3, -75, -80, -68, 2, -3, -5, -15, -48, 82, 24, -7, 5, -22, -71], "withholdReward": false, "trial_id": "mdp_trial_33", "block": "test", "trialIndex": 34, "score": 0.8500000000000014, "costs": -2.15, "simulationMode": [null, null, null, null, null], "rewards": [2, -3, -5, -15, 24], "path": ["0", "0", "23", "24", "25", "26", "29"], "rt": [6320, 182, 416, 900, 912], "actions": ["left", "left", "left", "up", "left"], "actionTimes": [9297, 9990, 10923, 12452, 13884], "queries": {"click": {"state": {"target": ["29"], "time": [4733]}, "edge": {"target": [], "time": []}}, "mouseover": {"state": {"target": ["28", "26", "29", "2", "7", "16"], "time": [3975, 4048, 4192, 5557, 5605, 5747]}, "edge": {"target": [], "time": []}}, "mouseout": {"state": {"target": ["2", "1", "28", "26", "29", "2", "7", "16"], "time": [1460, 1642, 4028, 4109, 4924, 5581, 5630, 5831]}, "edge": {"target": [], "time": []}}}, "displayed_time": "16.98", "trialTime": 20478, "trial_type": "mouselab-mdp", "trial_index": 41, "time_elapsed": 1279760, "internal_node_id": "0.0-4.0-1.0-32.0"}}, {"uniqueid": "w77710774:a89385975", "current_trial": 42, "dateTime": 1691143119556, "trialdata": {"revealed_states": [], "clicked_states": ["17", "11", "31"], "num_clicks_accrued": [0, 0, 0, 0, 0, 0, 0, 0, 0, 0, 0, 0, 0], "stateRewards": ["", -1, -3, -3, 1, -38, 2, -53, -2, -1, -81, 70, -1, 1, -5, -9, 46, 15, 35, -1, -22, 38, 59, -2, 4, -8, 13, 1, -83, -43, 4, 76, 13, 48], "withholdReward": false, "trial_id": "mdp_trial_34", "block": "test", "trialIndex": 35, "score": 67.55, "costs": -6.449999999999999, "simulationMode": [null, null, null, null, null], "rewards": [-2, 4, -8, 4, 76], "path": ["0", "0", "23", "24", "25", "30", "31"], "rt": [12924, 52, 686, 316, 443], "actions": ["left", "left", "left", "down", "right"], "actionTimes": [15719, 16300, 17517, 18345, 19307], "queries": {"click": {"state": {"target": ["17", "11", "31"], "time": [4555, 8207, 11079]}, "edge": {"target": [], "time": []}}, "mouseover": {"state": {"target": ["12", "14", "17", "17", "16", "6", "9", "11", "10", "1", "12", "22", "21", "31", "30", "30", "31"], "time": [3401, 3520, 3770, 4105, 5366, 5434, 5788, 6131, 8906, 8956, 9005, 9053, 9432, 9854, 9884, 10239, 10340]}, "edge": {"target": [], "time": []}}, "mouseout": {"state": {"target": ["15", "18", "12", "0", "12", "14", "17", "17", "16", "6", "9", "11", "11", "10", "1", "12", "22", "21", "31", "30", "30", "31"], "time": [1053, 1108, 1188, 1530, 3443, 3587, 3821, 5304, 5409, 5477, 5813, 8400, 8843, 8932, 8981, 9029, 9077, 9730, 9879, 9972, 10282, 11265]}, "edge": {"target": [], "time": []}}}, "displayed_time": "19.83", "trialTime": 21291, "trial_type": "mouselab-mdp", "trial_index": 42, "time_elapsed": 1302331, "internal_node_id": "0.0-4.0-1.0-33.0"}}, {"uniqueid": "w77710774:a89385975", "current_trial": 43, "dateTime": 1691143142529, "trialdata": {"revealed_states": [], "clicked_states": ["29", "17", "5"], "num_clicks_accrued": [0, 0, 0, 0, 0, 0, 0, 0, 0, 0, 0, 0, 0], "stateRewards": ["", 1, 4, 5, 8, -55, -11, 8, 16, -37, 77, -22, -2, 3, -8, -10, 45, 87, -67, 4, 17, -33, -22, -1, -3, 7, 6, -39, -85, 75, -1, 7, -48, 45], "withholdReward": false, "trial_id": "mdp_trial_35", "block": "test", "trialIndex": 36, "score": 63.55, "costs": -6.449999999999999, "simulationMode": [null, null, null, null, null], "rewards": [-2, 3, -8, -10, 87], "path": ["0", "0", "12", "13", "14", "15", "17"], "rt": [12412, 7, 779, 392, 821], "actions": ["right", "right", "right", "up", "right"], "actionTimes": [14555, 15104, 16413, 17324, 18671], "queries": {"click": {"state": {"target": ["29", "17", "5"], "time": [3727, 7189, 10742]}, "edge": {"target": [], "time": []}}, "mouseover": {"state": {"target": ["28", "26", "29", "26", "28", "1", "18", "15", "17", "16", "6", "5", "5", "6", "16"], "time": [3055, 3123, 3323, 4238, 4286, 4355, 4460, 4546, 4910, 8290, 8399, 8448, 9215, 11800, 12100]}, "edge": {"target": [], "time": []}}, "mouseout": {"state": {"target": ["28", "26", "29", "26", "28", "1", "18", "15", "17", "16", "6", "5", "5", "6", "16"], "time": [3082, 3273, 4192, 4261, 4310, 4379, 4504, 4847, 7385, 8317, 8423, 8513, 11656, 11824, 12266]}, "edge": {"target": [], "time": []}}}, "displayed_time": "19.22", "trialTime": 21657, "trial_type": "mouselab-mdp", "trial_index": 43, "time_elapsed": 1325306, "internal_node_id": "0.0-4.0-1.0-34.0"}}, {"uniqueid": "w77710774:a89385975", "current_trial": 44, "dateTime": 1691143166269, "trialdata": {"revealed_states": [], "clicked_states": ["32", "18", "29"], "num_clicks_accrued": [0, 0, 0, 0, 0, 0, 0, 0, 0, 0, 0, 0, 0], "stateRewards": ["", 2, -4, 7, 3, 23, -42, 4, 7, -81, -33, 7, -2, -4, 5, -1, 50, -57, -14, -13, -14, 44, 55, -2, -2, 5, -2, 33, 1, 57, -13, -7, 58, 87], "withholdReward": false, "trial_id": "mdp_trial_36", "block": "test", "trialIndex": 37, "score": 39.55, "costs": -6.449999999999999, "simulationMode": [null, null, null, null, null], "rewards": [-2, -2, 5, -13, 58], "path": ["0", "0", "23", "24", "25", "30", "32"], "rt": [13673, 284, 904, 636, 402], "actions": ["left", "left", "left", "down", "down"], "actionTimes": [15982, 16784, 18204, 19368, 20286], "queries": {"click": {"state": {"target": ["32", "18", "29"], "time": [3933, 7555, 11954]}, "edge": {"target": [], "time": []}}, "mouseover": {"state": {"target": ["31", "32", "31", "23", "7", "6", "16", "17", "15", "18", "1", "28", "26", "29", "26", "28", "23", "0"], "time": [3161, 3573, 4631, 4702, 4845, 5080, 5285, 5588, 5794, 6022, 9210, 9520, 11285, 11566, 12776, 12861, 13135, 13633]}, "edge": {"target": [], "time": []}}, "mouseout": {"state": {"target": ["17", "0", "31", "32", "31", "23", "7", "6", "16", "17", "15", "18", "1", "28", "26", "29", "26", "28", "23"], "time": [761, 3122, 3223, 4123, 4677, 4727, 4879, 5184, 5425, 5745, 5871, 9119, 9277, 9852, 11366, 12751, 12838, 12905, 13197]}, "edge": {"target": [], "time": []}}}, "displayed_time": "20.85", "trialTime": 22452, "trial_type": "mouselab-mdp", "trial_index": 44, "time_elapsed": 1349045, "internal_node_id": "0.0-4.0-1.0-35.0"}}, {"uniqueid": "w77710774:a89385975", "current_trial": 45, "dateTime": 1691143188989, "trialdata": {"revealed_states": [], "clicked_states": ["5", "29", "17"], "num_clicks_accrued": [0, 0, 0, 0, 0, 0, 0, 0, 0, 0, 0, 0, 0], "stateRewards": ["", 1, 4, 5, -5, 58, -80, 75, 6, 25, -39, 46, 2, -2, 4, 2, 59, 31, -22, -12, -61, 15, 72, 1, -2, -7, 8, 77, 76, -23, -7, 71, -15, -3], "withholdReward": false, "trial_id": "mdp_trial_37", "block": "test", "trialIndex": 38, "score": 56.55, "costs": -6.449999999999999, "simulationMode": [null, null, null, null, null], "rewards": [1, 4, 5, -5, 58], "path": ["0", "0", "1", "2", "3", "4", "5"], "rt": [13751, 260, 9, 257, 327], "actions": ["up", "up", "up", "right", "up"], "actionTimes": [16120, 16905, 17426, 18236, 19077], "queries": {"click": {"state": {"target": ["5", "29", "17"], "time": [4076, 9151, 12877]}, "edge": {"target": [], "time": []}}, "mouseover": {"state": {"target": ["1", "2", "3", "5", "20", "19", "12", "1", "23", "24", "25", "29", "26", "1", "18", "15", "17"], "time": [3011, 3084, 3228, 3380, 5432, 6691, 6835, 6909, 7421, 7687, 8004, 8487, 9844, 10057, 10264, 10390, 10634]}, "edge": {"target": [], "time": []}}, "mouseout": {"state": {"target": ["1", "0", "1", "2", "3", "5", "20", "19", "12", "1", "23", "24", "25", "29", "26", "1", "18", "15"], "time": [564, 1284, 3053, 3215, 3270, 4861, 6200, 6778, 6884, 6954, 7590, 7838, 8320, 9360, 9901, 10143, 10327, 10554]}, "edge": {"target": [], "time": []}}}, "displayed_time": "19.60", "trialTime": 21162, "trial_type": "mouselab-mdp", "trial_index": 45, "time_elapsed": 1371765, "internal_node_id": "0.0-4.0-1.0-36.0"}}, {"uniqueid": "w77710774:a89385975", "current_trial": 46, "dateTime": 1691143215919, "trialdata": {"revealed_states": [], "clicked_states": ["32", "5", "21"], "num_clicks_accrued": [0, 0, 0, 0, 0, 0, 0, 0, 0, 0, 0, 0, 0], "stateRewards": ["", 2, -3, 5, -14, -63, -9, -24, -11, -54, -43, 68, 2, -2, -4, 7, -64, 30, 47, 12, -74, 11, 86, 1, -3, 3, 10, -71, -42, -52, -1, -29, -16, 69], "withholdReward": false, "trial_id": "mdp_trial_38", "block": "test", "trialIndex": 39, "score": 12.55, "costs": -6.449999999999999, "simulationMode": [null, null, null, null, null], "rewards": [2, -2, -4, 12, 11], "path": ["0", "0", "12", "13", "14", "19", "21"], "rt": [15793, 391, 691, 358, 977], "actions": ["right", "right", "right", "down", "down"], "actionTimes": [18043, 18951, 20214, 21100, 22601], "queries": {"click": {"state": {"target": ["32", "5", "21"], "time": [4031, 8173, 12324]}, "edge": {"target": [], "time": []}}, "mouseover": {"state": {"target": ["31", "30", "32", "24", "4", "6", "5", "6", "15", "14", "19", "21", "21"], "time": [3219, 3271, 3624, 4940, 5070, 5151, 7828, 8831, 8923, 8963, 9076, 9219, 9591]}, "edge": {"target": [], "time": []}}, "mouseout": {"state": {"target": ["17", "12", "0", "31", "30", "32", "24", "4", "6", "5", "6", "15", "14", "19", "21"], "time": [828, 1120, 3148, 3250, 3292, 4246, 4968, 5096, 5196, 8804, 8868, 8956, 8993, 9164, 9352]}, "edge": {"target": [], "time": []}}}, "displayed_time": "23.12", "trialTime": 25689, "trial_type": "mouselab-mdp", "trial_index": 46, "time_elapsed": 1398695, "internal_node_id": "0.0-4.0-1.0-37.0"}}, {"uniqueid": "w77710774:a89385975", "current_trial": 47, "dateTime": 1691143239302, "trialdata": {"revealed_states": [], "clicked_states": ["9", "17", "33"], "num_clicks_accrued": [0, 0, 0, 0, 0, 0, 0, 0, 0, 0, 0, 0, 0], "stateRewards": ["", -1, -4, 8, 8, -68, 47, 24, -7, -61, 49, -69, -1, -1, 8, -7, 42, 1, -45, -11, 10, -63, -6, 1, 4, 6, -16, 79, -37, -58, -12, 81, 18, -53], "withholdReward": false, "trial_id": "mdp_trial_39", "block": "test", "trialIndex": 40, "score": 67.55, "costs": -6.449999999999999, "simulationMode": [null, null, null, null, null], "rewards": [1, 4, 6, -16, 79], "path": ["0", "0", "23", "24", "25", "26", "27"], "rt": [12569, 272, 327, 614, 465], "actions": ["left", "left", "left", "up", "up"], "actionTimes": [15436, 16224, 17145, 18279, 19262], "queries": {"click": {"state": {"target": ["9", "17", "33"], "time": [4180, 7706, 11114]}, "edge": {"target": [], "time": []}}, "mouseover": {"state": {"target": ["1", "9", "4", "6", "16", "17", "15", "18", "1", "28", "26", "29", "33"], "time": [3397, 3756, 4770, 4800, 4869, 5000, 8350, 8382, 8431, 8501, 8579, 8729, 9092]}, "edge": {"target": [], "time": []}}, "mouseout": {"state": {"target": ["21", "0", "1", "9", "4", "6", "16", "17", "15", "18", "1", "28", "26", "29", "33", "30", "31"], "time": [1087, 1489, 3422, 4683, 4794, 4824, 4937, 8325, 8376, 8406, 8456, 8546, 8616, 8853, 20919, 20963, 21006]}, "edge": {"target": [], "time": []}}}, "displayed_time": "19.78", "trialTime": 22106, "trial_type": "mouselab-mdp", "trial_index": 47, "time_elapsed": 1422078, "internal_node_id": "0.0-4.0-1.0-38.0"}}, {"uniqueid": "w77710774:a89385975", "current_trial": 48, "dateTime": 1691143262967, "trialdata": {"revealed_states": [], "clicked_states": ["5", "22", "27"], "num_clicks_accrued": [0, 0, 0, 0, 0, 0, 0, 0, 0, 0, 0, 0, 0], "stateRewards": ["", -2, 3, 8, -9, 59, 41, -50, -1, 82, 66, 33, 2, -2, 7, 8, 1, -38, 12, -16, 24, -37, 67, 1, 4, -2, 5, 35, -83, 28, 8, -27, 69, -64], "withholdReward": false, "trial_id": "mdp_trial_40", "block": "test", "trialIndex": 41, "score": 51.55, "costs": -6.449999999999999, "simulationMode": [null, null, null, null, null], "rewards": [2, -2, 7, -16, 67], "path": ["0", "0", "12", "13", "14", "19", "22"], "rt": [14206, 437, 784, 108, 456], "actions": ["right", "right", "right", "down", "left"], "actionTimes": [16300, 17250, 18552, 19185, 20177], "queries": {"click": {"state": {"target": ["5", "22", "27"], "time": [4033, 8188, 11684]}, "edge": {"target": [], "time": []}}, "mouseover": {"state": {"target": ["5", "5", "6", "16", "15", "14", "19", "22", "12", "27", "28"], "time": [3379, 3593, 4853, 4985, 5055, 5323, 5503, 7666, 9071, 9829, 15325]}, "edge": {"target": [], "time": []}}, "mouseout": {"state": {"target": ["0", "5", "5", "6", "16", "15", "14", "19", "22", "12", "27", "27"], "time": [1053, 3510, 4726, 4878, 5011, 5080, 5347, 5856, 8986, 9119, 11878, 15190]}, "edge": {"target": [], "time": []}}}, "displayed_time": "20.69", "trialTime": 22522, "trial_type": "mouselab-mdp", "trial_index": 48, "time_elapsed": 1445743, "internal_node_id": "0.0-4.0-1.0-39.0"}}, {"uniqueid": "w77710774:a89385975", "current_trial": 49, "dateTime": 1691143332557, "trialdata": {"rt": 69529, "response": {"Q0": "$-16 to 16", "Q1": "$-32 to $32", "Q2": "$-88 to $88", "Q3": "The cost for clicking on nodes varied between nodes.", "Q4": "Very motivated"}, "question_order": [0, 1, 2, 3, 4], "trial_id": "final_quiz_control", "trial_type": "survey-multi-choice", "trial_index": 49, "time_elapsed": 1515334, "internal_node_id": "0.0-4.0-2.0"}}, {"uniqueid": "w77710774:a89385975", "current_trial": 50, "dateTime": 1691143529750, "trialdata": {"rt": 197115, "response": {"Q0": "I just relied on my instincts. I think this was mostly a game of chance and it was therefore slightly hard to develop a strategy.", "Q1": "I don't think I did. I relied on probabilities and considered likelihoods more actively as the game progressed.  ", "Q2": "I think I got lost in enjoying the game at certain points and didn't really focus on my performance/score."}, "trial_id": "self_report_control", "trial_type": "survey-text", "trial_index": 50, "time_elapsed": 1712528, "internal_node_id": "0.0-4.0-3.0"}}, {"uniqueid": "w77710774:a89385975", "current_trial": 51, "dateTime": 1691143598324, "trialdata": {"rt": 68542, "response": {"Q0": "Disagree", "Q1": "Disagree", "Q2": "Disagree", "Q3": "Agree", "Q4": "Disagree", "Q5": "Agree", "Q6": "Neither disagree nor agree"}, "question_order": [0, 1, 2, 3, 4, 5, 6], "trial_id": "self_report_2", "trial_type": "survey-multi-choice", "trial_index": 51, "time_elapsed": 1781102, "internal_node_id": "0.0-4.0-4.0"}}, {"uniqueid": "w77710774:a89385975", "current_trial": 52, "dateTime": 1691143638026, "trialdata": {"rt": 39671, "response": {"gender": "female", "age": "26", "colorblind": "0", "effort": "0"}, "trial_type": "survey-html-form", "trial_index": 52, "time_elapsed": 1820804, "internal_node_id": "0.0-4.0-5.0"}}, {"uniqueid": "w77710774:a89385975", "current_trial": 53, "dateTime": 1691143666338, "trialdata": {"rt": 28268, "response": {"Q0": "No", "Q1": "No", "Q2": ""}, "trial_type": "survey-text", "trial_index": 53, "time_elapsed": 1849115, "internal_node_id": "0.0-4.0-6.0"}}, {"uniqueid": "w77710774:a89385975", "current_trial": 54, "dateTime": 1691143668499, "trialdata": {"rt": 2130, "stimulus": "Press 'Finish HIT' in order to reach the completion code. Once the data has been saved, you will receive the code either in this window or in the original browser window where you started the experiment.\n", "response": 0, "trial_type": "html-button-response", "trial_index": 54, "time_elapsed": 1851277, "internal_node_id": "0.0-5.0"}}, {"uniqueid": "w77710774:a89385975", "current_trial": 55, "dateTime": 1691143669522, "trialdata": {"success": true, "trial_type": "fullscreen", "trial_index": 55, "time_elapsed": 1852300, "internal_node_id": "0.0-6.0"}}], "questiondata": {"params": {"CODE": "C6DMOQA6", "MIN_TIME": 14, "inspectCost": 1, "startTime": "Fri Aug 04 2023 11:36:55 GMT+0200 (South Africa Standard Time)", "bonusRate": 0.002, "variance": "1_2_4_8_44", "branching": "31123"}, "final_score": 599.4}, "eventdata": [{"eventtype": "initialized", "value": null, "timestamp": 1691141814383, "interval": 0}, {"eventtype": "window_resize", "value": [1280, 614], "timestamp": 1691141814383, "interval": 0}, {"eventtype": "window_resize", "value": [1280, 614], "timestamp": 1691141815013, "interval": 630}, {"eventtype": "window_resize", "value": [1280, 720], "timestamp": 1691141824668, "interval": 9655}, {"eventtype": "window_resize", "value": [1280, 614], "timestamp": 1691143668935, "interval": 1844267}], "useragent": "Mozilla/5.0 (Windows NT 10.0; Win64; x64) AppleWebKit/537.36 (KHTML, like Gecko) Chrome/115.0.0.0 Safari/537.36", "mode": "live", "id": "w77710774:a89385975", "status": "user data saved", "Beginhit": "2023-08-04 09:36:50.88874", "Beginexp": "2023-08-04 09:37:05.429949", "Endhit": "2023-08-04 10:07:50.793608", "psiturkStatus": 3, "browser": "<redacted>", "platform": "windows", "language": "en-US"}