{"condition": 0, "counterbalance": 0, "assignmentId": "a84339218", "workerId": "w54696798", "hitId": "h64525460", "currenttrial": 8, "bonus": 0, "data": [{"uniqueid": "w54696798:a84339218", "current_trial": 0, "dateTime": 1693564841572, "trialdata": {"success": true, "trial_type": "fullscreen", "trial_index": 0, "time_elapsed": 4893, "internal_node_id": "0.0-0.0"}}, {"uniqueid": "w54696798:a84339218", "current_trial": 1, "dateTime": 1693564858396, "trialdata": {"view_history": [{"page_index": 0, "viewing_time": 16819}], "rt": 16820, "trial_id": "exp_instructions_control", "trial_type": "instructions", "trial_index": 1, "time_elapsed": 21717, "internal_node_id": "0.0-1.0"}}, {"uniqueid": "w54696798:a84339218", "current_trial": 2, "dateTime": 1693564899008, "trialdata": {"view_history": [{"page_index": 0, "viewing_time": 31423}, {"page_index": 1, "viewing_time": 4973}, {"page_index": 2, "viewing_time": 2336}, {"page_index": 3, "viewing_time": 1877}], "rt": 40609, "trial_id": "mouselab_instructions_1_control", "trial_type": "instructions", "trial_index": 2, "time_elapsed": 62329, "internal_node_id": "0.0-2.0-1.0"}}, {"uniqueid": "w54696798:a84339218", "current_trial": 3, "dateTime": 1693564926761, "trialdata": {"revealed_states": [], "clicked_states": ["1", "2", "3", "4", "7", "6", "5"], "num_clicks_accrued": [0, 0, 0, 0, 0, 0, 0, 0, 0, 0, 0, 0, 0], "stateRewards": ["", -10, 10, -10, 10, 10, 10, 10, -10, -10, 10, -10, 10, 10, 10, 10, -10, -10, 10, 10, -10, -10, 10, 10, 10, -10, -10, -10, 10, -10, 10, 10, 10, -10], "withholdReward": false, "trial_id": "practice_1", "block": "test", "trialIndex": 0, "score": 10, "costs": -3.5, "simulationMode": [null, null, null, null, null], "rewards": [10, 10, -10, 10, -10], "path": ["0", "0", "23", "24", "25", "30", "33"], "rt": [16434, 2462, 660, 484, 51], "actions": ["left", "left", "left", "down", "left"], "actionTimes": [18772, 21737, 22901, 23883, 24442], "queries": {"click": {"state": {"target": ["1", "2", "3", "4", "7", "6", "5"], "time": [3967, 7381, 9645, 11248, 12915, 14141, 15447]}, "edge": {"target": [], "time": []}}, "mouseover": {"state": {"target": ["1", "2", "7", "3", "4", "7", "6", "5", "8", "9", "9"], "time": [3767, 7221, 8290, 9381, 10798, 12450, 13816, 14815, 16208, 17325, 18367]}, "edge": {"target": [], "time": []}}, "mouseout": {"state": {"target": ["12", "0", "1", "2", "2", "7", "3", "4", "7", "6", "5", "8", "9", "9"], "time": [1445, 3217, 6927, 7504, 8141, 9043, 10748, 12332, 13582, 14633, 15915, 17159, 17543, 18409]}, "edge": {"target": [], "time": []}}}, "displayed_time": "24.95", "trialTime": 27483, "trial_type": "mouselab-mdp", "trial_index": 3, "time_elapsed": 90080, "internal_node_id": "0.0-2.0-2.0-0.0"}}, {"uniqueid": "w54696798:a84339218", "current_trial": 4, "dateTime": 1693564949286, "trialdata": {"revealed_states": [], "clicked_states": [], "num_clicks_accrued": [0, 0, 0, 0, 0, 0, 0, 0, 0, 0, 0, 0, 0], "stateRewards": ["", 10, 10, -10, 10, -10, -10, 10, -10, 10, 10, -10, 10, 10, -10, -10, -10, -10, 10, 10, -10, 10, 10, -10, -10, 10, 10, -10, 10, 10, 10, -10, 10, -10], "withholdReward": false, "trial_id": "practice_2", "block": "test", "trialIndex": 1, "score": -6.5, "costs": 0, "simulationMode": [null, null, null, null, null], "rewards": [-10, -10, 10, 10, -10], "path": ["0", "0", "23", "24", "25", "30", "33"], "rt": [5009, 1370, 2869, 426, 214], "actions": ["left", "left", "left", "down", "left"], "actionTimes": [13063, 14939, 18320, 19244, 19966], "queries": {"click": {"state": {"target": [], "time": []}, "edge": {"target": [], "time": []}}, "mouseover": {"state": {"target": [], "time": []}, "edge": {"target": [], "time": []}}, "mouseout": {"state": {"target": ["4", "18", "19", "21", "0"], "time": [1750, 1818, 1860, 1876, 14021]}, "edge": {"target": [], "time": []}}}, "displayed_time": "20.48", "trialTime": 22393, "trial_type": "mouselab-mdp", "trial_index": 4, "time_elapsed": 112605, "internal_node_id": "0.0-2.0-2.0-1.0"}}, {"uniqueid": "w54696798:a84339218", "current_trial": 5, "dateTime": 1693564967313, "trialdata": {"view_history": [{"page_index": 0, "viewing_time": 14762}, {"page_index": 1, "viewing_time": 3261}], "rt": 18024, "trial_id": "mouselab_instructions_2_control", "trial_type": "instructions", "trial_index": 5, "time_elapsed": 130634, "internal_node_id": "0.0-2.0-3.0"}}, {"uniqueid": "w54696798:a84339218", "current_trial": 6, "dateTime": 1693565001822, "trialdata": {"rt": 34503, "response": {"Q0": "The cost for clicking on nodes may vary between nodes.", "Q1": "The better I perform the higher my bonus will be.", "Q2": "No, the amount of cash at each node of the web may be different each time.", "Q3": "To get the highest total score.", "Q4": "Only before moving the spider.", "Q5": "10 seconds"}, "question_order": [0, 1, 2, 3, 4, 5], "correct": {"Q0": "The cost for clicking on nodes may vary between nodes.", "Q1": "The better I perform the higher my bonus will be.", "Q2": "No, the amount of cash at each node of the web may be different each time.", "Q3": "To get the highest total score.", "Q4": "Only before moving the spider.", "Q5": "3 seconds"}, "trial_id": "mouselab_quiz_control", "trial_type": "survey-multi-choice", "trial_index": 6, "time_elapsed": 165143, "internal_node_id": "0.0-2.0-4.0"}}, {"uniqueid": "w54696798:a84339218", "current_trial": 7, "dateTime": 1693565006740, "trialdata": {"success": true, "trial_type": "fullscreen", "trial_index": 7, "time_elapsed": 170061, "internal_node_id": "0.0-2.1-0.1-0.1"}}], "questiondata": {"params": {"CODE": "C6DMOQA6", "MIN_TIME": 14, "inspectCost": 1, "startTime": "Fri Sep 01 2023 11:40:36 GMT+0100 (British Summer Time)", "bonusRate": 0.002, "variance": "1_2_4_8_44", "branching": "31123"}}, "eventdata": [{"eventtype": "initialized", "value": null, "timestamp": 1693564835562, "interval": 0}, {"eventtype": "window_resize", "value": [1512, 860], "timestamp": 1693564835562, "interval": 0}, {"eventtype": "window_resize", "value": [1512, 860], "timestamp": 1693564835867, "interval": 305}, {"eventtype": "window_resize", "value": [1512, 945], "timestamp": 1693564840769, "interval": 4902}, {"eventtype": "focus", "value": "off", "timestamp": 1693565004375, "interval": 163606}, {"eventtype": "focus", "value": "on", "timestamp": 1693565004551, "interval": 176}, {"eventtype": "window_resize", "value": [1512, 860], "timestamp": 1693565004584, "interval": 33}, {"eventtype": "window_resize", "value": [1512, 945], "timestamp": 1693565005950, "interval": 1366}, {"eventtype": "window_resize", "value": [1512, 860], "timestamp": 1693565007740, "interval": 1790}], "useragent": "Mozilla/5.0 (Macintosh; Intel Mac OS X 10_15_7) AppleWebKit/537.36 (KHTML, like Gecko) Chrome/116.0.0.0 Safari/537.36", "mode": "live", "id": "w54696798:a84339218", "status": "user data saved", "Beginhit": "2023-09-01 10:40:34.690245", "Beginexp": "2023-09-01 10:40:41.68235", "Endhit": null, "psiturkStatus": 6, "browser": "<redacted>", "platform": "macos", "language": "en-GB", "excludeReason": "quizfail"}