{"condition": 0, "counterbalance": 0, "assignmentId": "a40749664", "workerId": "w21896350", "hitId": "h63533091", "currenttrial": 9, "bonus": 0, "data": [{"uniqueid": "w21896350:a40749664", "current_trial": 0, "dateTime": 1691142746294, "trialdata": {"success": true, "trial_type": "fullscreen", "trial_index": 0, "time_elapsed": 3248, "internal_node_id": "0.0-0.0"}}, {"uniqueid": "w21896350:a40749664", "current_trial": 1, "dateTime": 1691142753935, "trialdata": {"view_history": [{"page_index": 0, "viewing_time": 7635}], "rt": 7635, "trial_id": "exp_instructions_control", "trial_type": "instructions", "trial_index": 1, "time_elapsed": 10889, "internal_node_id": "0.0-1.0"}}, {"uniqueid": "w21896350:a40749664", "current_trial": 2, "dateTime": 1691142758267, "trialdata": {"success": true, "trial_type": "fullscreen", "trial_index": 2, "time_elapsed": 15221, "internal_node_id": "0.0-2.0-0.0"}}, {"uniqueid": "w21896350:a40749664", "current_trial": 3, "dateTime": 1691142885216, "trialdata": {"view_history": [{"page_index": 0, "viewing_time": 53035}, {"page_index": 1, "viewing_time": 45040}, {"page_index": 2, "viewing_time": 12416}, {"page_index": 3, "viewing_time": 16416}], "rt": 126907, "trial_id": "mouselab_instructions_1_control", "trial_type": "instructions", "trial_index": 3, "time_elapsed": 142170, "internal_node_id": "0.0-2.0-1.0"}}, {"uniqueid": "w21896350:a40749664", "current_trial": 4, "dateTime": 1691143019193, "trialdata": {"revealed_states": [], "clicked_states": ["23", "25", "30", "26", "29", "1", "10", "7", "3", "8", "12", "13", "14", "19", "21", "2", "4", "6", "24", "32", "5", "15", "20", "22", "18", "11", "31", "27", "9", "16", "17"], "num_clicks_accrued": [0, 0, 0, 0, 0, 0, 0, 0, 0, 0, 0, 0, 0], "stateRewards": ["", -10, -10, 10, 10, -10, -10, 10, 10, -10, -10, -10, 10, 10, 10, 10, -10, 10, 10, 10, 10, 10, -10, 10, 10, 10, 10, -10, 10, 10, 10, 10, -10, -10], "withholdReward": false, "trial_id": "practice_1", "block": "test", "trialIndex": 0, "score": 38, "costs": -15.5, "simulationMode": [null, null, null, null, null], "rewards": [10, 10, 10, 10, 10], "path": ["0", "0", "12", "13", "14", "19", "20"], "rt": [118416, 1695, 540, 3040, 480], "actions": ["right", "right", "right", "down", "right"], "actionTimes": [120873, 123112, 124200, 127786, 128794], "queries": {"click": {"state": {"target": ["23", "25", "30", "26", "29", "1", "10", "7", "3", "8", "12", "13", "14", "19", "21", "2", "4", "6", "24", "32", "5", "15", "20", "22", "18", "11", "31", "27", "9", "16", "17"], "time": [6042, 8034, 9159, 13443, 15749, 19629, 21478, 22645, 24926, 25953, 28768, 30070, 31703, 33145, 34881, 37890, 41076, 42238, 51215, 56688, 64482, 66452, 69748, 73446, 76950, 82471, 88884, 90531, 92363, 94459, 104717]}, "edge": {"target": [], "time": []}}, "mouseover": {"state": {"target": ["12", "0", "23", "24", "25", "30", "32", "25", "26", "27", "29", "25", "0", "12", "1", "2", "10", "2", "7", "8", "3", "8", "10", "0", "12", "13", "14", "19", "21", "0", "1", "2", "3", "3", "4", "6", "4", "6", "8", "1", "1", "10", "10", "2", "7", "1", "0", "23", "24", "26", "26", "25", "30", "32", "30", "33", "25", "24", "0", "0", "1", "1", "2", "3", "4", "6", "5", "7", "15", "17", "14", "19", "20", "19", "22", "21", "19", "22", "13", "14", "15", "18", "12", "0", "1", "2", "3", "3", "8", "11", "26", "25", "31", "23", "0", "23", "24", "25", "30", "32", "30", "31", "30", "33", "27", "29", "8", "9", "5", "6", "16", "16", "17", "20", "19", "22", "0", "0", "12", "13", "2", "3", "4", "7", "18", "15", "17", "16", "16", "15", "14", "19", "21", "21", "20", "19", "22", "13", "12", "0", "0", "22", "19"], "time": [4476, 5560, 5778, 6376, 7646, 8947, 9523, 12135, 12686, 14223, 15490, 16383, 18411, 18994, 19362, 20235, 20930, 21970, 22067, 23441, 24702, 25271, 26630, 28190, 28541, 29074, 30760, 32262, 33800, 37436, 37552, 37635, 38521, 39736, 40449, 40556, 40923, 41575, 43711, 46547, 47766, 48199, 48634, 49001, 49402, 49787, 50372, 50627, 51076, 52490, 55308, 55660, 56077, 56544, 57202, 57465, 58914, 58939, 59026, 59547, 60933, 61326, 61901, 62518, 63235, 63753, 64337, 64832, 66328, 66994, 67691, 68910, 69544, 70161, 70250, 71496, 72231, 73248, 74063, 75147, 76186, 76771, 78089, 78772, 79524, 79958, 81176, 81760, 81893, 82334, 83062, 83360, 83645, 83795, 84830, 85381, 86517, 87017, 87718, 88201, 88620, 88735, 89388, 89537, 90438, 91240, 91889, 92190, 93328, 93760, 93925, 94311, 94883, 96082, 96696, 97201, 97480, 97964, 99374, 100033, 101194, 101986, 102487, 102972, 103589, 104222, 104612, 105049, 105434, 106141, 106259, 106760, 107661, 108695, 109413, 110088, 110230, 110664, 111019, 112302, 114007, 119176, 119204]}, "edge": {"target": [], "time": []}}, "mouseout": {"state": {"target": ["12", "0", "12", "0", "23", "24", "25", "30", "32", "30", "25", "26", "27", "26", "29", "25", "0", "12", "1", "2", "10", "2", "7", "8", "3", "8", "10", "0", "12", "13", "14", "19", "21", "0", "1", "2", "3", "3", "4", "6", "4", "6", "4", "8", "1", "1", "10", "10", "2", "7", "1", "0", "23", "24", "26", "26", "25", "30", "32", "30", "33", "25", "24", "0", "0", "1", "1", "2", "3", "4", "6", "5", "7", "15", "17", "14", "19", "20", "19", "22", "21", "19", "22", "13", "14", "15", "18", "18", "12", "0", "1", "2", "3", "3", "8", "11", "11", "26", "25", "31", "23", "0", "23", "24", "25", "30", "32", "30", "31", "31", "30", "33", "27", "29", "8", "9", "5", "6", "16", "16", "17", "20", "19", "22", "0", "0", "12", "13", "2", "3", "4", "7", "18", "15", "17", "16", "16", "15", "14", "19", "21", "21", "20", "19", "22", "13", "12", "0", "0", "22", "19"], "time": [1155, 4245, 5527, 5596, 6343, 7397, 8905, 9485, 11985, 12052, 12536, 14035, 15122, 15274, 16248, 16474, 18435, 19186, 20138, 20881, 21969, 22012, 23095, 24585, 25270, 26538, 26844, 28256, 28975, 30628, 32221, 33576, 35352, 37503, 37575, 38385, 39204, 40424, 40523, 40790, 41233, 42832, 42926, 46431, 47098, 48082, 48282, 48917, 49027, 49752, 49825, 50603, 51053, 51584, 54477, 55581, 55976, 56110, 57109, 57294, 58847, 58938, 58978, 59066, 60198, 60959, 61711, 62367, 63119, 63719, 64154, 64723, 65928, 66816, 67579, 68809, 69511, 70068, 70202, 70946, 72138, 72314, 73539, 74157, 76119, 76286, 77613, 77755, 78656, 78956, 79546, 80024, 81359, 81826, 82311, 82627, 82885, 83317, 83411, 83668, 84781, 85348, 86449, 86983, 87618, 88152, 88571, 88650, 88958, 89343, 89439, 90170, 90983, 91735, 91911, 92858, 93691, 93809, 93977, 94786, 95778, 96629, 97179, 97249, 97630, 99350, 99917, 100534, 101653, 102419, 102920, 103455, 104089, 104590, 104954, 105091, 105907, 106209, 106693, 107545, 108078, 109195, 110014, 110133, 110597, 110998, 111059, 113398, 114118, 119202, 119266]}, "edge": {"target": [], "time": []}}}, "displayed_time": "129.32", "trialTime": 133467, "trial_type": "mouselab-mdp", "trial_index": 4, "time_elapsed": 276146, "internal_node_id": "0.0-2.0-2.0-0.0"}}, {"uniqueid": "w21896350:a40749664", "current_trial": 5, "dateTime": 1691143037211, "trialdata": {"revealed_states": [], "clicked_states": [], "num_clicks_accrued": [0, 0, 0, 0, 0, 0, 0, 0, 0, 0, 0, 0, 0], "stateRewards": ["", 10, 10, 10, -10, -10, 10, -10, -10, 10, 10, -10, 10, -10, -10, -10, 10, 10, 10, 10, -10, -10, 10, 10, 10, 10, -10, 10, 10, 10, -10, 10, -10, -10], "withholdReward": false, "trial_id": "practice_2", "block": "test", "trialIndex": 1, "score": 13.5, "costs": 0, "simulationMode": [null, null, null, null, null], "rewards": [10, 10, 10, -10, -10], "path": ["0", "0", "1", "2", "3", "8", "11"], "rt": [2638, 881, 427, 1121, 217], "actions": ["up", "up", "up", "left", "left"], "actionTimes": [8381, 9789, 10734, 12382, 13134], "queries": {"click": {"state": {"target": [], "time": []}, "edge": {"target": [], "time": []}}, "mouseover": {"state": {"target": ["12", "18"], "time": [7162, 7216]}, "edge": {"target": [], "time": []}}, "mouseout": {"state": {"target": ["16", "6", "3", "2", "1", "0", "12", "18"], "time": [4992, 5011, 5176, 5192, 5242, 6393, 7194, 7253]}, "edge": {"target": [], "time": []}}}, "displayed_time": "13.67", "trialTime": 17694, "trial_type": "mouselab-mdp", "trial_index": 5, "time_elapsed": 294165, "internal_node_id": "0.0-2.0-2.0-1.0"}}, {"uniqueid": "w21896350:a40749664", "current_trial": 6, "dateTime": 1691143066383, "trialdata": {"view_history": [{"page_index": 0, "viewing_time": 12214}, {"page_index": 1, "viewing_time": 16952}], "rt": 29166, "trial_id": "mouselab_instructions_2_control", "trial_type": "instructions", "trial_index": 6, "time_elapsed": 323337, "internal_node_id": "0.0-2.0-3.0"}}, {"uniqueid": "w21896350:a40749664", "current_trial": 7, "dateTime": 1691143107612, "trialdata": {"rt": 41221, "response": {"Q0": "There is no cost for clicking on nodes.", "Q1": "The better I perform the higher my bonus will be.", "Q2": "No, the amount of cash at each node of the web may be different each time.", "Q3": "To get the highest total score.", "Q4": "Only before moving the spider.", "Q5": "3 seconds"}, "question_order": [0, 1, 2, 3, 4, 5], "correct": {"Q0": "The cost for clicking on nodes may vary between nodes.", "Q1": "The better I perform the higher my bonus will be.", "Q2": "No, the amount of cash at each node of the web may be different each time.", "Q3": "To get the highest total score.", "Q4": "Only before moving the spider.", "Q5": "3 seconds"}, "trial_id": "mouselab_quiz_control", "trial_type": "survey-multi-choice", "trial_index": 7, "time_elapsed": 364566, "internal_node_id": "0.0-2.0-4.0"}}, {"uniqueid": "w21896350:a40749664", "current_trial": 8, "dateTime": 1691143119682, "trialdata": {"success": true, "trial_type": "fullscreen", "trial_index": 8, "time_elapsed": 376636, "internal_node_id": "0.0-2.1-0.1"}}], "questiondata": {"params": {"CODE": "C6DMOQA6", "MIN_TIME": 14, "inspectCost": 1, "startTime": "Fri Aug 04 2023 11:52:21 GMT+0200 (South Africa Standard Time)", "bonusRate": 0.002, "variance": "1_2_4_8_44", "branching": "31123"}}, "eventdata": [{"eventtype": "initialized", "value": null, "timestamp": 1691142741248, "interval": 0}, {"eventtype": "window_resize", "value": [1024, 768], "timestamp": 1691142741248, "interval": 0}, {"eventtype": "focus", "value": "on", "timestamp": 1691142741477, "interval": 229}, {"eventtype": "window_resize", "value": [1024, 768], "timestamp": 1691142741685, "interval": 208}, {"eventtype": "window_resize", "value": [1920, 1080], "timestamp": 1691142745717, "interval": 4032}, {"eventtype": "focus", "value": "off", "timestamp": 1691143111521, "interval": 365804}, {"eventtype": "focus", "value": "on", "timestamp": 1691143111521, "interval": 0}], "useragent": "Mozilla/5.0 (Windows NT 10.0; Win64; x64; rv:109.0) Gecko/20100101 Firefox/116.0", "mode": "live", "id": "w21896350:a40749664", "status": "user data saved", "Beginhit": "2023-08-04 09:52:18.913099", "Beginexp": "2023-08-04 09:52:26.821052", "Endhit": null, "psiturkStatus": 2, "browser": "<redacted>", "platform": "windows", "language": "en-US", "excludeReason": "quizfail"}