{"condition": 0, "counterbalance": 0, "assignmentId": "a91129410", "workerId": "w28059086", "hitId": "h62565874", "currenttrial": 73, "bonus": 0, "data": [{"uniqueid": "w28059086:a91129410", "current_trial": 0, "dateTime": 1691142034756, "trialdata": {"success": true, "trial_type": "fullscreen", "trial_index": 0, "time_elapsed": 9034, "internal_node_id": "0.0-0.0"}}, {"uniqueid": "w28059086:a91129410", "current_trial": 1, "dateTime": 1691142047248, "trialdata": {"view_history": [{"page_index": 0, "viewing_time": 12486}], "rt": 12487, "trial_id": "exp_instructions_control", "trial_type": "instructions", "trial_index": 1, "time_elapsed": 21527, "internal_node_id": "0.0-1.0"}}, {"uniqueid": "w28059086:a91129410", "current_trial": 2, "dateTime": 1691142049785, "trialdata": {"success": true, "trial_type": "fullscreen", "trial_index": 2, "time_elapsed": 24064, "internal_node_id": "0.0-2.0-0.0"}}, {"uniqueid": "w28059086:a91129410", "current_trial": 3, "dateTime": 1691142437716, "trialdata": {"view_history": [{"page_index": 0, "viewing_time": 40969}, {"page_index": 1, "viewing_time": 37508}, {"page_index": 2, "viewing_time": 11813}, {"page_index": 3, "viewing_time": 297639}], "rt": 387929, "trial_id": "mouselab_instructions_1_control", "trial_type": "instructions", "trial_index": 3, "time_elapsed": 411994, "internal_node_id": "0.0-2.0-1.0"}}, {"uniqueid": "w28059086:a91129410", "current_trial": 4, "dateTime": 1691142459175, "trialdata": {"revealed_states": [], "clicked_states": [], "num_clicks_accrued": [0, 0, 0, 0, 0, 0, 0, 0, 0, 0, 0, 0, 0], "stateRewards": ["", 10, -10, 10, 10, 10, -10, 10, 10, 10, 10, 10, -10, 10, -10, -10, 10, -10, 10, -10, 10, 10, 10, -10, 10, -10, 10, 10, 10, -10, -10, 10, 10, 10], "withholdReward": false, "trial_id": "practice_1", "block": "test", "trialIndex": 0, "score": 33.5, "costs": 0, "simulationMode": [null, null, null, null, null], "rewards": [10, -10, 10, 10, 10], "path": ["0", "0", "1", "2", "3", "4", "5"], "rt": [1205, 572, 336, 584, 129], "actions": ["up", "up", "up", "right", "up"], "actionTimes": [1841, 2913, 3744, 4824, 5454], "queries": {"click": {"state": {"target": [], "time": []}, "edge": {"target": [], "time": []}}, "mouseover": {"state": {"target": ["1"], "time": [1224]}, "edge": {"target": [], "time": []}}, "mouseout": {"state": {"target": ["22", "0", "1", "12", "21", "1", "1", "0", "1", "12"], "time": [null, 527, 8795, 13195, 14845, 15045, 15064, 15070, 15178, 15346]}, "edge": {"target": [], "time": []}}}, "displayed_time": "5.94", "trialTime": 17072, "trial_type": "mouselab-mdp", "trial_index": 4, "time_elapsed": 433453, "internal_node_id": "0.0-2.0-2.0-0.0"}}, {"uniqueid": "w28059086:a91129410", "current_trial": 5, "dateTime": 1691142497828, "trialdata": {"revealed_states": [], "clicked_states": [], "num_clicks_accrued": [0, 0, 0, 0, 0, 0, 0, 0, 0, 0, 0, 0, 0], "stateRewards": ["", -10, -10, 10, 10, -10, 10, -10, -10, 10, 10, 10, 10, 10, 10, -10, -10, 10, -10, 10, -10, -10, -10, 10, -10, -10, 10, 10, 10, -10, -10, 10, -10, -10], "withholdReward": false, "trial_id": "practice_2", "block": "test", "trialIndex": 1, "score": 13.5, "costs": 0, "simulationMode": [null, null, null, null, null], "rewards": [10, -10, -10, 10, 10], "path": ["0", "0", "23", "24", "25", "26", "27"], "rt": [585, 372, 252, 237, 62], "actions": ["left", "left", "left", "up", "up"], "actionTimes": [2649, 3536, 4281, 5033, 5610], "queries": {"click": {"state": {"target": [], "time": []}, "edge": {"target": [], "time": []}}, "mouseover": {"state": {"target": [], "time": []}, "edge": {"target": [], "time": []}}, "mouseout": {"state": {"target": ["0", "31", "32"], "time": [6616, 7015, 37413]}, "edge": {"target": [], "time": []}}}, "displayed_time": "6.13", "trialTime": 38546, "trial_type": "mouselab-mdp", "trial_index": 5, "time_elapsed": 472106, "internal_node_id": "0.0-2.0-2.0-1.0"}}, {"uniqueid": "w28059086:a91129410", "current_trial": 6, "dateTime": 1691142515098, "trialdata": {"view_history": [{"page_index": 0, "viewing_time": 9908}, {"page_index": 1, "viewing_time": 7357}], "rt": 17266, "trial_id": "mouselab_instructions_2_control", "trial_type": "instructions", "trial_index": 6, "time_elapsed": 489377, "internal_node_id": "0.0-2.0-3.0"}}, {"uniqueid": "w28059086:a91129410", "current_trial": 7, "dateTime": 1691142546128, "trialdata": {"rt": 31023, "response": {"Q0": "The cost for clicking on nodes may vary between nodes.", "Q1": "The better I perform the higher my bonus will be.", "Q2": "No, the amount of cash at each node of the web may be different each time.", "Q3": "To get the highest total score.", "Q4": "Only after moving the spider.", "Q5": "3 seconds"}, "question_order": [0, 1, 2, 3, 4, 5], "correct": {"Q0": "The cost for clicking on nodes may vary between nodes.", "Q1": "The better I perform the higher my bonus will be.", "Q2": "No, the amount of cash at each node of the web may be different each time.", "Q3": "To get the highest total score.", "Q4": "Only before moving the spider.", "Q5": "3 seconds"}, "trial_id": "mouselab_quiz_control", "trial_type": "survey-multi-choice", "trial_index": 7, "time_elapsed": 520406, "internal_node_id": "0.0-2.0-4.0"}}, {"uniqueid": "w28059086:a91129410", "current_trial": 8, "dateTime": 1691142551833, "trialdata": {"success": true, "trial_type": "fullscreen", "trial_index": 8, "time_elapsed": 526112, "internal_node_id": "0.0-2.1-0.1"}}, {"uniqueid": "w28059086:a91129410", "current_trial": 9, "dateTime": 1691142597199, "trialdata": {"view_history": [{"page_index": 0, "viewing_time": 20136}, {"page_index": 1, "viewing_time": 22236}, {"page_index": 2, "viewing_time": 2058}, {"page_index": 3, "viewing_time": 936}], "rt": 45365, "trial_id": "mouselab_instructions_1_control", "trial_type": "instructions", "trial_index": 9, "time_elapsed": 571478, "internal_node_id": "0.0-2.1-1.1"}}, {"uniqueid": "w28059086:a91129410", "current_trial": 10, "dateTime": 1691142604344, "trialdata": {"revealed_states": [], "clicked_states": [], "num_clicks_accrued": [0, 0, 0, 0, 0, 0, 0, 0, 0, 0, 0, 0, 0], "stateRewards": ["", 10, -10, 10, 10, 10, -10, 10, 10, 10, 10, 10, -10, 10, -10, -10, 10, -10, 10, -10, 10, 10, 10, -10, 10, -10, 10, 10, 10, -10, -10, 10, 10, 10], "withholdReward": false, "trial_id": "practice_1", "block": "test", "trialIndex": 2, "score": 33.5, "costs": 0, "simulationMode": [null, null, null, null, null], "rewards": [10, -10, 10, 10, 10], "path": ["0", "0", "1", "2", "3", "8", "9"], "rt": [1054, 34, 67, 56, 28], "actions": ["up", "up", "up", "left", "up"], "actionTimes": [2957, 3489, 4088, 4661, 5183], "queries": {"click": {"state": {"target": [], "time": []}, "edge": {"target": [], "time": []}}, "mouseover": {"state": {"target": [], "time": []}, "edge": {"target": [], "time": []}}, "mouseout": {"state": {"target": ["0", "0", "13"], "time": [1373, 6095, 6308]}, "edge": {"target": [], "time": []}}}, "displayed_time": "5.67", "trialTime": 7055, "trial_type": "mouselab-mdp", "trial_index": 10, "time_elapsed": 578622, "internal_node_id": "0.0-2.1-2.1-0.1"}}, {"uniqueid": "w28059086:a91129410", "current_trial": 11, "dateTime": 1691142611694, "trialdata": {"revealed_states": [], "clicked_states": [], "num_clicks_accrued": [0, 0, 0, 0, 0, 0, 0, 0, 0, 0, 0, 0, 0], "stateRewards": ["", -10, -10, 10, 10, -10, 10, -10, -10, 10, 10, 10, 10, 10, 10, -10, -10, 10, -10, 10, -10, -10, -10, 10, -10, -10, 10, 10, 10, -10, -10, 10, -10, -10], "withholdReward": false, "trial_id": "practice_2", "block": "test", "trialIndex": 3, "score": -26.5, "costs": 0, "simulationMode": [null, null, null, null, null], "rewards": [10, -10, -10, -10, -10], "path": ["0", "0", "23", "24", "25", "30", "32"], "rt": [651, 1195, 739, 58, 122], "actions": ["left", "left", "left", "down", "down"], "actionTimes": [1734, 3422, 4666, 5218, 5848], "queries": {"click": {"state": {"target": [], "time": []}, "edge": {"target": [], "time": []}}, "mouseover": {"state": {"target": [], "time": []}, "edge": {"target": [], "time": []}}, "mouseout": {"state": {"target": ["13", "12"], "time": [678, 725]}, "edge": {"target": [], "time": []}}}, "displayed_time": "6.34", "trialTime": 7260, "trial_type": "mouselab-mdp", "trial_index": 11, "time_elapsed": 585973, "internal_node_id": "0.0-2.1-2.1-1.1"}}, {"uniqueid": "w28059086:a91129410", "current_trial": 12, "dateTime": 1691142624840, "trialdata": {"view_history": [{"page_index": 0, "viewing_time": 11911}, {"page_index": 1, "viewing_time": 1231}], "rt": 13143, "trial_id": "mouselab_instructions_2_control", "trial_type": "instructions", "trial_index": 12, "time_elapsed": 599119, "internal_node_id": "0.0-2.1-3.1"}}, {"uniqueid": "w28059086:a91129410", "current_trial": 13, "dateTime": 1691142647023, "trialdata": {"rt": 22178, "response": {"Q0": "There is no cost for clicking on nodes.", "Q1": "The better I perform the higher my bonus will be.", "Q2": "No, the amount of cash at each node of the web may be different each time.", "Q3": "To get the highest total score.", "Q4": "Only before moving the spider.", "Q5": "3 seconds"}, "question_order": [0, 1, 2, 3, 4, 5], "correct": {"Q0": "The cost for clicking on nodes may vary between nodes.", "Q1": "The better I perform the higher my bonus will be.", "Q2": "No, the amount of cash at each node of the web may be different each time.", "Q3": "To get the highest total score.", "Q4": "Only before moving the spider.", "Q5": "3 seconds"}, "trial_id": "mouselab_quiz_control", "trial_type": "survey-multi-choice", "trial_index": 13, "time_elapsed": 621302, "internal_node_id": "0.0-2.1-4.1"}}, {"uniqueid": "w28059086:a91129410", "current_trial": 14, "dateTime": 1691142653419, "trialdata": {"success": true, "trial_type": "fullscreen", "trial_index": 14, "time_elapsed": 627698, "internal_node_id": "0.0-2.2-0.2"}}, {"uniqueid": "w28059086:a91129410", "current_trial": 15, "dateTime": 1691142741917, "trialdata": {"view_history": [{"page_index": 0, "viewing_time": 30201}, {"page_index": 1, "viewing_time": 42300}, {"page_index": 2, "viewing_time": 4329}, {"page_index": 3, "viewing_time": 11663}], "rt": 88494, "trial_id": "mouselab_instructions_1_control", "trial_type": "instructions", "trial_index": 15, "time_elapsed": 716196, "internal_node_id": "0.0-2.2-1.2"}}, {"uniqueid": "w28059086:a91129410", "current_trial": 16, "dateTime": 1691142753353, "trialdata": {"revealed_states": [], "clicked_states": ["12"], "num_clicks_accrued": [0, 0, 0, 0, 0, 0, 0, 0, 0, 0, 0, 0, 0], "stateRewards": ["", 10, -10, 10, 10, 10, -10, 10, 10, 10, 10, 10, -10, 10, -10, -10, 10, -10, 10, -10, 10, 10, 10, -10, 10, -10, 10, 10, 10, -10, -10, 10, 10, 10], "withholdReward": false, "trial_id": "practice_1", "block": "test", "trialIndex": 4, "score": -7, "costs": -0.5, "simulationMode": [null, null, null, null, null], "rewards": [-10, 10, -10, -10, 10], "path": ["0", "0", "12", "13", "14", "15", "16"], "rt": [3264, 883, 1779, 289, 55], "actions": ["right", "right", "right", "up", "up"], "actionTimes": [4774, 6168, 8463, 9257, 9823], "queries": {"click": {"state": {"target": ["12"], "time": [2306]}, "edge": {"target": [], "time": []}}, "mouseover": {"state": {"target": ["12", "13", "14", "13"], "time": [1887, 2600, 3134, 3300]}, "edge": {"target": [], "time": []}}, "mouseout": {"state": {"target": ["0", "12", "13", "14", "13", "12", "13", "14", "27"], "time": [1221, 2312, 3018, 3251, 3335, 6921, 7468, 10843, 11104]}, "edge": {"target": [], "time": []}}}, "displayed_time": "10.33", "trialTime": 11312, "trial_type": "mouselab-mdp", "trial_index": 16, "time_elapsed": 727631, "internal_node_id": "0.0-2.2-2.2-0.2"}}, {"uniqueid": "w28059086:a91129410", "current_trial": 17, "dateTime": 1691142761834, "trialdata": {"revealed_states": [], "clicked_states": ["1"], "num_clicks_accrued": [0, 0, 0, 0, 0, 0, 0, 0, 0, 0, 0, 0, 0], "stateRewards": ["", -10, -10, 10, 10, -10, 10, -10, -10, 10, 10, 10, 10, 10, 10, -10, -10, 10, -10, 10, -10, -10, -10, 10, -10, -10, 10, 10, 10, -10, -10, 10, -10, -10], "withholdReward": false, "trial_id": "practice_2", "block": "test", "trialIndex": 5, "score": -7, "costs": -0.5, "simulationMode": [null, null, null, null, null, null], "rewards": [-10, -10, 10, -10, 10], "path": ["0", "0", "1", "2", "3", "8", "9"], "rt": [1659, 625, 23, 632, 364, 17], "actions": ["up", "up", "up", "up", "left", "up"], "actionTimes": [3047, 3675, 4217, 5360, 6242, 6746], "queries": {"click": {"state": {"target": ["1"], "time": [2204]}, "edge": {"target": [], "time": []}}, "mouseover": {"state": {"target": ["1"], "time": [2010]}, "edge": {"target": [], "time": []}}, "mouseout": {"state": {"target": ["27", "0", "1", "8", "9", "3", "7", "18", "15", "17"], "time": [631, 1847, 2961, 6993, 7481, 7613, 7681, 7714, 7764, 8248]}, "edge": {"target": [], "time": []}}}, "displayed_time": "7.26", "trialTime": 8371, "trial_type": "mouselab-mdp", "trial_index": 17, "time_elapsed": 736112, "internal_node_id": "0.0-2.2-2.2-1.2"}}, {"uniqueid": "w28059086:a91129410", "current_trial": 18, "dateTime": 1691142771849, "trialdata": {"view_history": [{"page_index": 0, "viewing_time": 8700}, {"page_index": 1, "viewing_time": 1312}], "rt": 10012, "trial_id": "mouselab_instructions_2_control", "trial_type": "instructions", "trial_index": 18, "time_elapsed": 746128, "internal_node_id": "0.0-2.2-3.2"}}, {"uniqueid": "w28059086:a91129410", "current_trial": 19, "dateTime": 1691142816099, "trialdata": {"rt": 44245, "response": {"Q0": "There is no cost for clicking on nodes.", "Q1": "The better I perform the higher my bonus will be.", "Q2": "No, the amount of cash at each node of the web may be different each time.", "Q3": "To get the highest total score.", "Q4": "Only before moving the spider.", "Q5": "3 seconds"}, "question_order": [0, 1, 2, 3, 4, 5], "correct": {"Q0": "The cost for clicking on nodes may vary between nodes.", "Q1": "The better I perform the higher my bonus will be.", "Q2": "No, the amount of cash at each node of the web may be different each time.", "Q3": "To get the highest total score.", "Q4": "Only before moving the spider.", "Q5": "3 seconds"}, "trial_id": "mouselab_quiz_control", "trial_type": "survey-multi-choice", "trial_index": 19, "time_elapsed": 790378, "internal_node_id": "0.0-2.2-4.2"}}, {"uniqueid": "w28059086:a91129410", "current_trial": 20, "dateTime": 1691142821061, "trialdata": {"success": true, "trial_type": "fullscreen", "trial_index": 20, "time_elapsed": 795339, "internal_node_id": "0.0-2.3-0.3"}}, {"uniqueid": "w28059086:a91129410", "current_trial": 21, "dateTime": 1691142990747, "trialdata": {"view_history": [{"page_index": 0, "viewing_time": 65916}, {"page_index": 1, "viewing_time": 102280}, {"page_index": 2, "viewing_time": 524}, {"page_index": 3, "viewing_time": 960}], "rt": 169681, "trial_id": "mouselab_instructions_1_control", "trial_type": "instructions", "trial_index": 21, "time_elapsed": 965026, "internal_node_id": "0.0-2.3-1.3"}}, {"uniqueid": "w28059086:a91129410", "current_trial": 22, "dateTime": 1691142999986, "trialdata": {"revealed_states": [], "clicked_states": ["23", "1"], "num_clicks_accrued": [0, 0, 0, 0, 0, 0, 0, 0, 0, 0, 0, 0, 0], "stateRewards": ["", 10, -10, 10, 10, 10, -10, 10, 10, 10, 10, 10, -10, 10, -10, -10, 10, -10, 10, -10, 10, 10, 10, -10, 10, -10, 10, 10, 10, -10, -10, 10, 10, 10], "withholdReward": false, "trial_id": "practice_1", "block": "test", "trialIndex": 6, "score": 32.5, "costs": -1, "simulationMode": [null, null, null, null, null], "rewards": [10, -10, 10, 10, 10], "path": ["0", "0", "1", "2", "3", "8", "9"], "rt": [3435, 887, 68, 195, 153], "actions": ["up", "up", "up", "left", "up"], "actionTimes": [4855, 6236, 6816, 7527, 8184], "queries": {"click": {"state": {"target": ["23", "1"], "time": [2237, 3305]}, "edge": {"target": [], "time": []}}, "mouseover": {"state": {"target": ["23", "1", "1", "2", "2"], "time": [2186, 2880, 3196, 3713, 4387]}, "edge": {"target": [], "time": []}}, "mouseout": {"state": {"target": ["23", "1", "1", "2", "2", "3", "8"], "time": [2763, 2996, 3330, 4246, 6034, 8730, 8967]}, "edge": {"target": [], "time": []}}}, "displayed_time": "8.70", "trialTime": 9108, "trial_type": "mouselab-mdp", "trial_index": 22, "time_elapsed": 974265, "internal_node_id": "0.0-2.3-2.3-0.3"}}, {"uniqueid": "w28059086:a91129410", "current_trial": 23, "dateTime": 1691143009346, "trialdata": {"revealed_states": [], "clicked_states": ["1", "2", "3", "8"], "num_clicks_accrued": [0, 0, 0, 0, 0, 0, 0, 0, 0, 0, 0, 0, 0], "stateRewards": ["", -10, -10, 10, 10, -10, 10, -10, -10, 10, 10, 10, 10, 10, 10, -10, -10, 10, -10, 10, -10, -10, -10, 10, -10, -10, 10, 10, 10, -10, -10, 10, -10, -10], "withholdReward": false, "trial_id": "practice_2", "block": "test", "trialIndex": 7, "score": -8.5, "costs": -2, "simulationMode": [null, null, null, null, null, null], "rewards": [-10, -10, 10, -10, 10], "path": ["0", "0", "1", "2", "3", "8", "9"], "rt": [723, 2305, 120, 881, 707, 452], "actions": ["up", "up", "up", "up", "left", "up"], "actionTimes": [1913, 4220, 4851, 6262, 7470, 8432], "queries": {"click": {"state": {"target": ["1", "2", "3", "8"], "time": [1639, 2334, 3054, 3551]}, "edge": {"target": [], "time": []}}, "mouseover": {"state": {"target": ["1", "2", "3", "8", "9"], "time": [1400, 2213, 2779, 3429, 3779]}, "edge": {"target": [], "time": []}}, "mouseout": {"state": {"target": ["8", "2", "1", "1", "2", "3", "8", "9"], "time": [45, 179, 697, 2062, 2646, 3296, 3729, 4563]}, "edge": {"target": [], "time": []}}}, "displayed_time": "8.95", "trialTime": 9236, "trial_type": "mouselab-mdp", "trial_index": 23, "time_elapsed": 983625, "internal_node_id": "0.0-2.3-2.3-1.3"}}, {"uniqueid": "w28059086:a91129410", "current_trial": 24, "dateTime": 1691143013435, "trialdata": {"view_history": [{"page_index": 0, "viewing_time": 2734}, {"page_index": 1, "viewing_time": 1350}], "rt": 4085, "trial_id": "mouselab_instructions_2_control", "trial_type": "instructions", "trial_index": 24, "time_elapsed": 987714, "internal_node_id": "0.0-2.3-3.3"}}, {"uniqueid": "w28059086:a91129410", "current_trial": 25, "dateTime": 1691143030799, "trialdata": {"rt": 17359, "response": {"Q0": "The cost for clicking on nodes may vary between nodes.", "Q1": "The better I perform the higher my bonus will be.", "Q2": "No, the amount of cash at each node of the web may be different each time.", "Q3": "To get the highest total score.", "Q4": "Only before moving the spider.", "Q5": "3 seconds"}, "question_order": [0, 1, 2, 3, 4, 5], "correct": {"Q0": "The cost for clicking on nodes may vary between nodes.", "Q1": "The better I perform the higher my bonus will be.", "Q2": "No, the amount of cash at each node of the web may be different each time.", "Q3": "To get the highest total score.", "Q4": "Only before moving the spider.", "Q5": "3 seconds"}, "trial_id": "mouselab_quiz_control", "trial_type": "survey-multi-choice", "trial_index": 25, "time_elapsed": 1005078, "internal_node_id": "0.0-2.3-4.3"}}, {"uniqueid": "w28059086:a91129410", "current_trial": 26, "dateTime": 1691143048484, "trialdata": {"rt": 17679, "stimulus": "\n<h1> Get ready to start the game! </h1>\n\nThank you for reading the instructions. Get ready start with the 40 rounds of this game.\n<br><br>\nIf you need to take a break, feel free to take one after the end of a round, before continuing to the next one.\n<br><br>\nRemember, the more money the spider gets, the bigger your bonus will be!\n<br><br>\n<div style='text-align: center;'>Press <code>space</code> to begin.</div>\n\n<br><br>\n(If, at any point, the <code>space</code> key does not take you to the next page, click once on the text and try again.)", "response": " ", "trial_id": "mdp_ready", "trial_type": "html-keyboard-response", "trial_index": 26, "time_elapsed": 1022763, "internal_node_id": "0.0-4.0-0.0"}}, {"uniqueid": "w28059086:a91129410", "current_trial": 27, "dateTime": 1691143065542, "trialdata": {"revealed_states": [], "clicked_states": ["1", "2", "3", "8", "9"], "num_clicks_accrued": [0, 0, 0, 0, 0, 0, 0, 0, 0, 0, 0, 0, 0], "stateRewards": ["", 2, -2, -8, 9, -20, 55, -58, 14, 42, 2, 36, 1, -3, -5, 5, -58, 57, 60, 16, 57, 30, -70, -2, 1, 3, 10, 59, 23, 77, -13, -26, 88, -72], "withholdReward": false, "trial_id": "mdp_trial_1", "block": "test", "trialIndex": 8, "score": 41, "costs": -7, "simulationMode": [null, null, null, null, null, null, null], "rewards": [2, -2, -8, 14, 42], "path": ["0", "0", "1", "2", "3", "8", "9"], "rt": [1815, 3288, 372, 173, 236, 26, 555], "actions": ["up", "up", "up", "up", "up", "left", "up"], "actionTimes": [3280, 6570, 6943, 7626, 8371, 8911, 9973], "queries": {"click": {"state": {"target": ["1", "2", "3", "8", "9"], "time": [2082, 3571, 4464, 5514, 6143]}, "edge": {"target": [], "time": []}}, "mouseover": {"state": {"target": ["1", "2", "3", "8", "8", "9"], "time": [1840, 2818, 4018, 4734, 5368, 5934]}, "edge": {"target": [], "time": []}}, "mouseout": {"state": {"target": ["12", "0", "1", "2", "3", "8", "8", "9", "6", "21", "22", "22", "22"], "time": [734, 1271, 2518, 3603, 4684, 5218, 5801, 7234, 11022, 12089, 13956, 16423, 16473]}, "edge": {"target": [], "time": []}}}, "displayed_time": "15.47", "trialTime": 16920, "trial_type": "mouselab-mdp", "trial_index": 27, "time_elapsed": 1039820, "internal_node_id": "0.0-4.0-1.0-0.0"}}, {"uniqueid": "w28059086:a91129410", "current_trial": 28, "dateTime": 1691143082234, "trialdata": {"revealed_states": [], "clicked_states": ["1", "2", "3", "4", "5"], "num_clicks_accrued": [0, 0, 0, 0, 0, 0, 0, 0, 0, 0, 0, 0, 0], "stateRewards": ["", -2, 3, -1, -9, 44, 48, -37, -3, 71, -39, 87, -1, 3, -4, 4, -21, 59, -15, -8, -1, 28, -38, 2, 4, 4, 8, -85, -72, -63, 14, 58, 63, -46], "withholdReward": false, "trial_id": "mdp_trial_2", "block": "test", "trialIndex": 9, "score": 28, "costs": -7, "simulationMode": [null, null, null, null, null, null], "rewards": [-2, 3, -1, -9, 44], "path": ["0", "0", "1", "2", "3", "4", "5"], "rt": [9829, 195, 126, 39, 11, 241], "actions": ["up", "up", "up", "up", "right", "up"], "actionTimes": [10915, 11112, 11750, 12298, 12819, 13565], "queries": {"click": {"state": {"target": ["1", "2", "3", "4", "5"], "time": [1977, 4053, 5995, 7685, 9775]}, "edge": {"target": [], "time": []}}, "mouseover": {"state": {"target": ["1", "1", "2", "2", "3", "4", "3", "4", "5", "7"], "time": [1560, 1793, 2374, 3995, 4556, 5006, 5408, 6275, 8090, 10307]}, "edge": {"target": [], "time": []}}, "mouseout": {"state": {"target": ["12", "0", "1", "1", "2", "2", "2", "3", "4", "3", "4", "5", "4", "7", "21", "21"], "time": [744, 1357, 1594, 2307, 3678, 4060, 4456, 4973, 5390, 6256, 7890, 10273, 10306, 10323, 15745, 16294]}, "edge": {"target": [], "time": []}}}, "displayed_time": "15.10", "trialTime": 16569, "trial_type": "mouselab-mdp", "trial_index": 28, "time_elapsed": 1056513, "internal_node_id": "0.0-4.0-1.0-1.0"}}, {"uniqueid": "w28059086:a91129410", "current_trial": 29, "dateTime": 1691143099616, "trialdata": {"revealed_states": [], "clicked_states": [], "num_clicks_accrued": [0, 0, 0, 0, 0, 0, 0, 0, 0, 0, 0, 0, 0], "stateRewards": ["", 1, 3, -2, 15, 51, 15, -19, 11, 67, -45, -73, 2, 4, -2, -13, 36, 9, -28, 10, -30, 31, 16, 1, 2, -1, -16, 14, -22, 36, -1, 88, -5, 45], "withholdReward": false, "trial_id": "mdp_trial_3", "block": "test", "trialIndex": 10, "score": 27, "costs": 0, "simulationMode": [null, null, null, null, null], "rewards": [2, 4, -2, -13, 36], "path": ["0", "0", "12", "13", "14", "15", "16"], "rt": [7729, 29, 420, 207, 140], "actions": ["right", "right", "right", "up", "up"], "actionTimes": [9646, 10186, 11108, 11815, 12447], "queries": {"click": {"state": {"target": [], "time": []}, "edge": {"target": [], "time": []}}, "mouseover": {"state": {"target": ["1", "1", "7", "1", "1", "12", "13", "12", "1", "12"], "time": [2260, 2610, 4808, 5241, 5690, 6759, 7278, 7625, 8472, 8959]}, "edge": {"target": [], "time": []}}, "mouseout": {"state": {"target": ["16", "4", "0", "1", "1", "7", "1", "1", "12", "13", "12", "1", "12", "15", "18", "13", "18", "18", "0", "23"], "time": [542, 676, 2215, 2357, 4793, 4889, 5321, 6343, 7276, 7560, 8423, 8910, 13421, 13709, 14094, 14510, 14964, 15277, 16477, 16672]}, "edge": {"target": [], "time": []}}}, "displayed_time": "15.92", "trialTime": 17265, "trial_type": "mouselab-mdp", "trial_index": 29, "time_elapsed": 1073895, "internal_node_id": "0.0-4.0-1.0-2.0"}}, {"uniqueid": "w28059086:a91129410", "current_trial": 30, "dateTime": 1691143123459, "trialdata": {"revealed_states": [], "clicked_states": [], "num_clicks_accrued": [0, 0, 0, 0, 0, 0, 0, 0, 0, 0, 0, 0, 0], "stateRewards": ["", -2, 3, 8, -9, 59, 41, -50, -1, 82, 66, 33, 2, -2, 7, 8, 1, -38, 12, -16, 24, -37, 67, 1, 4, -2, 5, 35, -83, 28, 8, -27, 69, -64], "withholdReward": false, "trial_id": "mdp_trial_4", "block": "test", "trialIndex": 11, "score": 43, "costs": 0, "simulationMode": [null, null, null, null, null], "rewards": [1, 4, -2, 5, 35], "path": ["0", "0", "23", "24", "25", "26", "27"], "rt": [1258, 626, 148, 72, 41], "actions": ["left", "left", "left", "up", "up"], "actionTimes": [2437, 3576, 4231, 4821, 5374], "queries": {"click": {"state": {"target": [], "time": []}, "edge": {"target": [], "time": []}}, "mouseover": {"state": {"target": [], "time": []}, "edge": {"target": [], "time": []}}, "mouseout": {"state": {"target": ["23", "23", "0", "0", "1", "15", "17", "22", "19", "17", "13", "12"], "time": [436, 569, 600, 6278, 6283, 7586, 18599, 19133, 19417, 22367, 22383, 22416]}, "edge": {"target": [], "time": []}}}, "displayed_time": "15.18", "trialTime": 23719, "trial_type": "mouselab-mdp", "trial_index": 30, "time_elapsed": 1097737, "internal_node_id": "0.0-4.0-1.0-3.0"}}, {"uniqueid": "w28059086:a91129410", "current_trial": 31, "dateTime": 1691143143921, "trialdata": {"revealed_states": [], "clicked_states": ["1"], "num_clicks_accrued": [0, 0, 0, 0, 0, 0, 0, 0, 0, 0, 0, 0, 0], "stateRewards": ["", -1, 2, -7, -12, -62, 12, -13, 5, 77, -71, 83, 1, -4, 7, 15, -42, -87, -4, 5, -25, 44, 88, -1, 4, -5, -8, 14, 51, 8, -5, 83, -24, -19], "withholdReward": false, "trial_id": "mdp_trial_5", "block": "test", "trialIndex": 12, "score": -81.4, "costs": -1.4, "simulationMode": [null, null, null, null, null, null], "rewards": [-1, 2, -7, -12, -62], "path": ["0", "0", "1", "2", "3", "4", "5"], "rt": [2114, 192, 93, 54, 545, 444], "actions": ["up", "up", "up", "up", "right", "up"], "actionTimes": [3847, 4040, 4624, 5167, 6224, 7176], "queries": {"click": {"state": {"target": ["1"], "time": [2423]}, "edge": {"target": [], "time": []}}, "mouseover": {"state": {"target": ["1", "1", "2"], "time": [1896, 2266, 2778]}, "edge": {"target": [], "time": []}}, "mouseout": {"state": {"target": ["1", "1", "1", "2", "1", "0", "16", "17", "15", "12", "12", "21"], "time": [1141, 2032, 2562, 5694, 7611, 7644, 17411, 17445, 17700, 17849, 18050, 19700]}, "edge": {"target": [], "time": []}}}, "displayed_time": "15.74", "trialTime": 20328, "trial_type": "mouselab-mdp", "trial_index": 31, "time_elapsed": 1118200, "internal_node_id": "0.0-4.0-1.0-4.0"}}, {"uniqueid": "w28059086:a91129410", "current_trial": 32, "dateTime": 1691143170247, "trialdata": {"revealed_states": [], "clicked_states": [], "num_clicks_accrued": [0, 0, 0, 0, 0, 0, 0, 0, 0, 0, 0, 0, 0], "stateRewards": ["", -2, 2, 8, -6, -25, 3, 87, 2, -62, -2, 74, -2, -1, 2, -1, 79, 49, -37, -14, 5, 67, -9, -1, 2, -2, 5, 15, 38, 32, -14, -38, -38, 30], "withholdReward": false, "trial_id": "mdp_trial_6", "block": "test", "trialIndex": 13, "score": -53, "costs": 0, "simulationMode": [null, null, null, null, null], "rewards": [-1, 2, -2, -14, -38], "path": ["0", "0", "23", "24", "25", "30", "32"], "rt": [529, 92, 303, 403, 103], "actions": ["left", "left", "left", "down", "down"], "actionTimes": [3943, 4541, 5352, 6252, 6868], "queries": {"click": {"state": {"target": [], "time": []}, "edge": {"target": [], "time": []}}, "mouseover": {"state": {"target": [], "time": []}, "edge": {"target": [], "time": []}}, "mouseout": {"state": {"target": ["31", "23", "0", "15"], "time": [2449, 2784, 7853, 25052]}, "edge": {"target": [], "time": []}}}, "displayed_time": "17.42", "trialTime": 26188, "trial_type": "mouselab-mdp", "trial_index": 32, "time_elapsed": 1144525, "internal_node_id": "0.0-4.0-1.0-5.0"}}, {"uniqueid": "w28059086:a91129410", "current_trial": 33, "dateTime": 1691143193241, "trialdata": {"revealed_states": [], "clicked_states": [], "num_clicks_accrued": [0, 0, 0, 0, 0, 0, 0, 0, 0, 0, 0, 0, 0], "stateRewards": ["", 1, -2, -8, -13, 4, 34, -84, -4, -49, 88, -70, -1, 3, -4, 10, -77, 13, -34, 15, -21, -16, 27, 1, -2, 8, -8, -6, 38, -26, 6, -15, 66, -3], "withholdReward": false, "trial_id": "mdp_trial_7", "block": "test", "trialIndex": 14, "score": -8, "costs": 0, "simulationMode": [null, null, null, null, null], "rewards": [-1, 3, -4, 15, -21], "path": ["0", "0", "12", "13", "14", "19", "20"], "rt": [950, 122, 155, 1887, 172], "actions": ["right", "right", "right", "down", "right"], "actionTimes": [4767, 5398, 6048, 8446, 9115], "queries": {"click": {"state": {"target": [], "time": []}, "edge": {"target": [], "time": []}}, "mouseover": {"state": {"target": ["12"], "time": [4280]}, "edge": {"target": [], "time": []}}, "mouseout": {"state": {"target": ["22", "14", "18", "2", "10", "23", "13", "7", "12", "12", "12", "14", "23"], "time": [562, 2359, 2426, 2493, 2526, 2593, 2709, 2826, 3129, 5092, 10237, 21665, 21846]}, "edge": {"target": [], "time": []}}}, "displayed_time": "17.82", "trialTime": 22828, "trial_type": "mouselab-mdp", "trial_index": 33, "time_elapsed": 1167519, "internal_node_id": "0.0-4.0-1.0-6.0"}}, {"uniqueid": "w28059086:a91129410", "current_trial": 34, "dateTime": 1691143210839, "trialdata": {"revealed_states": [], "clicked_states": [], "num_clicks_accrued": [0, 0, 0, 0, 0, 0, 0, 0, 0, 0, 0, 0, 0], "stateRewards": ["", 1, 2, -3, 6, -88, 74, -45, 7, -46, 40, -77, 1, -4, 4, 3, 22, -25, -59, 8, -83, 19, -60, -1, -1, -1, -8, 26, -29, 64, -7, -88, -51, -55], "withholdReward": false, "trial_id": "mdp_trial_8", "block": "test", "trialIndex": 15, "score": 80, "costs": 0, "simulationMode": [null, null, null, null, null], "rewards": [1, 2, -3, 6, 74], "path": ["0", "0", "1", "2", "3", "4", "6"], "rt": [472, 144, 941, 287, 101], "actions": ["up", "up", "up", "right", "right"], "actionTimes": [1778, 2449, 3896, 4691, 5304], "queries": {"click": {"state": {"target": [], "time": []}, "edge": {"target": [], "time": []}}, "mouseover": {"state": {"target": [], "time": []}, "edge": {"target": [], "time": []}}, "mouseout": {"state": {"target": ["0", "1", "0", "12"], "time": [1541, 6174, 6286, 16037]}, "edge": {"target": [], "time": []}}}, "displayed_time": "15.31", "trialTime": 17454, "trial_type": "mouselab-mdp", "trial_index": 34, "time_elapsed": 1185118, "internal_node_id": "0.0-4.0-1.0-7.0"}}, {"uniqueid": "w28059086:a91129410", "current_trial": 35, "dateTime": 1691143231228, "trialdata": {"revealed_states": [], "clicked_states": [], "num_clicks_accrued": [0, 0, 0, 0, 0, 0, 0, 0, 0, 0, 0, 0, 0], "stateRewards": ["", -1, 2, -6, 6, 43, 78, 78, -2, 55, -29, -17, -2, -4, 1, -15, 13, 7, -79, 8, -28, -68, 36, -1, -3, 3, -16, 84, -18, 87, 10, 32, 13, -81], "withholdReward": false, "trial_id": "mdp_trial_9", "block": "test", "trialIndex": 16, "score": 48, "costs": 0, "simulationMode": [null, null, null, null, null], "rewards": [-1, 2, -6, -2, 55], "path": ["0", "0", "1", "2", "3", "8", "9"], "rt": [366, 523, 172, 1294, 138], "actions": ["up", "up", "up", "left", "up"], "actionTimes": [2269, 3310, 3993, 5799, 6442], "queries": {"click": {"state": {"target": [], "time": []}, "edge": {"target": [], "time": []}}, "mouseover": {"state": {"target": ["0"], "time": [2140]}, "edge": {"target": [], "time": []}}, "mouseout": {"state": {"target": ["0", "0", "0", "0", "8", "3", "4", "4", "15"], "time": [2074, 7899, 7904, 7952, 12387, 12741, 12771, 12788, 12986]}, "edge": {"target": [], "time": []}}}, "displayed_time": "15.90", "trialTime": 20243, "trial_type": "mouselab-mdp", "trial_index": 35, "time_elapsed": 1205507, "internal_node_id": "0.0-4.0-1.0-8.0"}}, {"uniqueid": "w28059086:a91129410", "current_trial": 36, "dateTime": 1691143248046, "trialdata": {"revealed_states": [], "clicked_states": [], "num_clicks_accrued": [0, 0, 0, 0, 0, 0, 0, 0, 0, 0, 0, 0, 0], "stateRewards": ["", -2, 2, 3, -7, -31, -33, 29, -8, -57, 50, -83, -1, -1, 5, 13, -23, -62, 25, 5, -66, -85, 14, 1, -2, -1, 16, 71, 33, -19, -14, 5, -43, 79], "withholdReward": false, "trial_id": "mdp_trial_10", "block": "test", "trialIndex": 17, "score": -37, "costs": 0, "simulationMode": [null, null, null, null, null], "rewards": [-2, 2, 3, -7, -33], "path": ["0", "0", "1", "2", "3", "4", "6"], "rt": [259, 5, 208, 155, 22], "actions": ["up", "up", "up", "right", "right"], "actionTimes": [1532, 2043, 2762, 3426, 3959], "queries": {"click": {"state": {"target": [], "time": []}, "edge": {"target": [], "time": []}}, "mouseover": {"state": {"target": [], "time": []}, "edge": {"target": [], "time": []}}, "mouseout": {"state": {"target": ["0", "0", "22", "19", "3", "10", "23", "0", "12", "0", "31", "32"], "time": [737, 5372, 5424, 5439, 14773, 14790, 14902, 14936, 15086, 15102, 15186, 15306]}, "edge": {"target": [], "time": []}}}, "displayed_time": "15.27", "trialTime": 16662, "trial_type": "mouselab-mdp", "trial_index": 36, "time_elapsed": 1222325, "internal_node_id": "0.0-4.0-1.0-9.0"}}, {"uniqueid": "w28059086:a91129410", "current_trial": 37, "dateTime": 1691143265574, "trialdata": {"revealed_states": [], "clicked_states": [], "num_clicks_accrued": [0, 0, 0, 0, 0, 0, 0, 0, 0, 0, 0, 0, 0], "stateRewards": ["", 1, 2, 3, 16, 63, -25, 16, -4, -14, 82, -66, -1, -3, -3, -11, -14, 19, 46, 3, -34, -82, 66, -2, -3, 4, -5, -63, 77, -37, -1, -45, -41, 84], "withholdReward": false, "trial_id": "mdp_trial_11", "block": "test", "trialIndex": 18, "score": -12, "costs": 0, "simulationMode": [null, null, null, null, null], "rewards": [1, 2, 3, -4, -14], "path": ["0", "0", "1", "2", "3", "8", "9"], "rt": [656, 16, 109, 605, 84], "actions": ["up", "up", "up", "left", "up"], "actionTimes": [1581, 2092, 2718, 3832, 4411], "queries": {"click": {"state": {"target": [], "time": []}, "edge": {"target": [], "time": []}}, "mouseover": {"state": {"target": [], "time": []}, "edge": {"target": [], "time": []}}, "mouseout": {"state": {"target": ["0", "0", "0"], "time": [495, 5459, 15779]}, "edge": {"target": [], "time": []}}}, "displayed_time": "14.93", "trialTime": 17378, "trial_type": "mouselab-mdp", "trial_index": 37, "time_elapsed": 1239852, "internal_node_id": "0.0-4.0-1.0-10.0"}}, {"uniqueid": "w28059086:a91129410", "current_trial": 38, "dateTime": 1691143284176, "trialdata": {"revealed_states": [], "clicked_states": [], "num_clicks_accrued": [0, 0, 0, 0, 0, 0, 0, 0, 0, 0, 0, 0, 0], "stateRewards": ["", 1, -1, 8, -3, 38, 85, -20, -4, 8, 23, 73, 2, -4, 6, -13, 44, 7, -28, -11, -77, 45, -69, 1, -1, -7, -11, 75, -51, -87, 7, 36, -53, -26], "withholdReward": false, "trial_id": "mdp_trial_12", "block": "test", "trialIndex": 19, "score": 57, "costs": 0, "simulationMode": [null, null, null, null, null], "rewards": [1, -1, -7, -11, 75], "path": ["0", "0", "23", "24", "25", "26", "27"], "rt": [793, 27, 423, 29, 46], "actions": ["left", "left", "left", "up", "up"], "actionTimes": [2201, 2746, 3659, 4197, 4747], "queries": {"click": {"state": {"target": [], "time": []}, "edge": {"target": [], "time": []}}, "mouseover": {"state": {"target": [], "time": []}, "edge": {"target": [], "time": []}}, "mouseout": {"state": {"target": ["12", "0", "12", "13", "14", "17", "24", "31", "12", "12"], "time": [771, 6188, 6218, 6233, 6251, 17106, 17222, 17289, 17439, 17655]}, "edge": {"target": [], "time": []}}}, "displayed_time": "15.41", "trialTime": 18437, "trial_type": "mouselab-mdp", "trial_index": 38, "time_elapsed": 1258454, "internal_node_id": "0.0-4.0-1.0-11.0"}}, {"uniqueid": "w28059086:a91129410", "current_trial": 39, "dateTime": 1691143301631, "trialdata": {"revealed_states": [], "clicked_states": [], "num_clicks_accrued": [0, 0, 0, 0, 0, 0, 0, 0, 0, 0, 0, 0, 0], "stateRewards": ["", 2, -1, -4, -13, 74, 77, 3, 2, -43, -2, -11, 2, 3, 7, 11, -26, -29, -33, -3, -3, -13, -3, 1, 3, -7, 14, -59, 33, 9, -5, 34, 79, 68], "withholdReward": false, "trial_id": "mdp_trial_13", "block": "test", "trialIndex": 20, "score": 44, "costs": 0, "simulationMode": [null, null, null, null, null], "rewards": [1, 3, -7, 14, 33], "path": ["0", "0", "23", "24", "25", "26", "28"], "rt": [647, 35, 462, 154, 256], "actions": ["left", "left", "left", "up", "right"], "actionTimes": [1458, 2010, 3004, 3670, 4432], "queries": {"click": {"state": {"target": [], "time": []}, "edge": {"target": [], "time": []}}, "mouseover": {"state": {"target": [], "time": []}, "edge": {"target": [], "time": []}}, "mouseout": {"state": {"target": ["0", "0", "7", "2", "24", "31"], "time": [5329, 6014, 16125, 16141, 16225, 16258]}, "edge": {"target": [], "time": []}}}, "displayed_time": "14.81", "trialTime": 17266, "trial_type": "mouselab-mdp", "trial_index": 39, "time_elapsed": 1275909, "internal_node_id": "0.0-4.0-1.0-12.0"}}, {"uniqueid": "w28059086:a91129410", "current_trial": 40, "dateTime": 1691143318645, "trialdata": {"revealed_states": [], "clicked_states": [], "num_clicks_accrued": [0, 0, 0, 0, 0, 0, 0, 0, 0, 0, 0, 0, 0], "stateRewards": ["", 2, 3, -2, -8, -8, -41, 74, 15, -23, -80, 1, 1, 3, 3, -15, -63, -78, 67, 13, 75, -41, 86, 2, -2, 6, -3, -8, -49, 50, -6, 83, 74, 80], "withholdReward": false, "trial_id": "mdp_trial_14", "block": "test", "trialIndex": 21, "score": 69, "costs": 0, "simulationMode": [null, null, null, null, null], "rewards": [2, 3, -2, -8, 74], "path": ["0", "0", "1", "2", "3", "4", "7"], "rt": [131, 209, 28, 61, 1231], "actions": ["up", "up", "up", "right", "down"], "actionTimes": [1367, 2101, 2638, 3204, 4941], "queries": {"click": {"state": {"target": [], "time": []}, "edge": {"target": [], "time": []}}, "mouseover": {"state": {"target": [], "time": []}, "edge": {"target": [], "time": []}}, "mouseout": {"state": {"target": ["0", "1", "0", "12", "0"], "time": [1095, 9013, 9028, 9296, 15158]}, "edge": {"target": [], "time": []}}}, "displayed_time": "15.24", "trialTime": 16849, "trial_type": "mouselab-mdp", "trial_index": 40, "time_elapsed": 1292923, "internal_node_id": "0.0-4.0-1.0-13.0"}}, {"uniqueid": "w28059086:a91129410", "current_trial": 41, "dateTime": 1691143338224, "trialdata": {"revealed_states": [], "clicked_states": [], "num_clicks_accrued": [0, 0, 0, 0, 0, 0, 0, 0, 0, 0, 0, 0, 0], "stateRewards": ["", 2, 1, -3, 7, 46, 11, -36, 16, 71, 5, 1, 2, -2, -8, -3, -4, 6, 55, 7, 68, -54, 2, 1, 1, 6, -6, 42, -4, -84, -11, -65, 63, 25], "withholdReward": false, "trial_id": "mdp_trial_15", "block": "test", "trialIndex": 22, "score": 17, "costs": 0, "simulationMode": [null, null, null, null, null], "rewards": [2, 1, -3, 16, 1], "path": ["0", "0", "1", "2", "3", "8", "11"], "rt": [502, 142, 146, 273, 11], "actions": ["up", "up", "up", "left", "left"], "actionTimes": [1203, 1850, 2506, 3283, 3805], "queries": {"click": {"state": {"target": [], "time": []}, "edge": {"target": [], "time": []}}, "mouseover": {"state": {"target": [], "time": []}, "edge": {"target": [], "time": []}}, "mouseout": {"state": {"target": ["0", "6", "12", "0"], "time": [461, 18443, 18710, 18759]}, "edge": {"target": [], "time": []}}}, "displayed_time": "14.70", "trialTime": 19426, "trial_type": "mouselab-mdp", "trial_index": 41, "time_elapsed": 1312502, "internal_node_id": "0.0-4.0-1.0-14.0"}}, {"uniqueid": "w28059086:a91129410", "current_trial": 42, "dateTime": 1691143354996, "trialdata": {"revealed_states": [], "clicked_states": [], "num_clicks_accrued": [0, 0, 0, 0, 0, 0, 0, 0, 0, 0, 0, 0, 0], "stateRewards": ["", 2, -2, 7, -11, -76, -65, -23, 16, -58, 30, 81, 1, 2, 7, 14, 9, 55, -2, 6, 11, -15, 31, -1, -1, -3, 2, 15, 2, 46, 15, 18, 45, -34], "withholdReward": false, "trial_id": "mdp_trial_16", "block": "test", "trialIndex": 23, "score": -80, "costs": 0, "simulationMode": [null, null, null, null, null], "rewards": [2, -2, 7, -11, -76], "path": ["0", "0", "1", "2", "3", "4", "5"], "rt": [598, 99, 7, 395, 18], "actions": ["up", "up", "up", "right", "up"], "actionTimes": [1558, 2176, 2684, 3588, 4096], "queries": {"click": {"state": {"target": [], "time": []}, "edge": {"target": [], "time": []}}, "mouseover": {"state": {"target": ["1"], "time": [1346]}, "edge": {"target": [], "time": []}}, "mouseout": {"state": {"target": ["0", "1", "15", "22", "19", "22", "19", "17", "15", "1", "28", "28", "24"], "time": [829, 5108, 14911, 14976, 15159, 15297, 15364, 15442, 15476, 15543, 15593, 15626, 15810]}, "edge": {"target": [], "time": []}}}, "displayed_time": "14.96", "trialTime": 16600, "trial_type": "mouselab-mdp", "trial_index": 42, "time_elapsed": 1329274, "internal_node_id": "0.0-4.0-1.0-15.0"}}, {"uniqueid": "w28059086:a91129410", "current_trial": 43, "dateTime": 1691143370464, "trialdata": {"revealed_states": [], "clicked_states": ["1"], "num_clicks_accrued": [0, 0, 0, 0, 0, 0, 0, 0, 0, 0, 0, 0, 0], "stateRewards": ["", -2, 2, -4, -4, -59, 88, 62, -3, 69, -15, -34, 1, -2, -5, 7, -54, -20, 78, -16, -74, -53, -21, 2, -4, 2, 13, -8, -44, 26, 9, 72, 4, 17], "withholdReward": false, "trial_id": "mdp_trial_17", "block": "test", "trialIndex": 24, "score": 60.6, "costs": -1.4, "simulationMode": [null, null, null, null, null, null], "rewards": [-2, 2, -4, -3, 69], "path": ["0", "0", "1", "2", "3", "8", "9"], "rt": [1196, 196, 3, 146, 53, 156], "actions": ["up", "up", "up", "up", "left", "up"], "actionTimes": [2075, 2272, 2808, 3482, 4071, 4741], "queries": {"click": {"state": {"target": ["1"], "time": [1391]}, "edge": {"target": [], "time": []}}, "mouseover": {"state": {"target": ["1"], "time": [1134]}, "edge": {"target": [], "time": []}}, "mouseout": {"state": {"target": ["0", "1", "2", "28", "1", "28", "31"], "time": [978, 2518, 6307, 11634, 11801, 12167, 12504]}, "edge": {"target": [], "time": []}}}, "displayed_time": "14.88", "trialTime": 15294, "trial_type": "mouselab-mdp", "trial_index": 43, "time_elapsed": 1344743, "internal_node_id": "0.0-4.0-1.0-16.0"}}, {"uniqueid": "w28059086:a91129410", "current_trial": 44, "dateTime": 1691143387821, "trialdata": {"revealed_states": [], "clicked_states": [], "num_clicks_accrued": [0, 0, 0, 0, 0, 0, 0, 0, 0, 0, 0, 0, 0], "stateRewards": ["", -1, 1, 8, -8, -49, 62, -78, 16, 28, -81, 78, -2, -3, -1, -4, 67, 49, -2, -13, -16, -39, 83, 1, -4, 4, -5, -20, 7, 84, 7, -32, -59, 19], "withholdReward": false, "trial_id": "mdp_trial_18", "block": "test", "trialIndex": 25, "score": 102, "costs": 0, "simulationMode": [null, null, null, null, null], "rewards": [-1, 1, 8, 16, 78], "path": ["0", "0", "1", "2", "3", "8", "11"], "rt": [423, 14, 730, 65, 51], "actions": ["up", "up", "up", "left", "left"], "actionTimes": [1635, 2163, 3413, 3980, 4533], "queries": {"click": {"state": {"target": [], "time": []}, "edge": {"target": [], "time": []}}, "mouseover": {"state": {"target": [], "time": []}, "edge": {"target": [], "time": []}}, "mouseout": {"state": {"target": ["23", "0", "4", "12", "1", "12"], "time": [764, 6369, 16049, 16284, 16415, 16786]}, "edge": {"target": [], "time": []}}}, "displayed_time": "15.22", "trialTime": 17165, "trial_type": "mouselab-mdp", "trial_index": 44, "time_elapsed": 1362100, "internal_node_id": "0.0-4.0-1.0-17.0"}}, {"uniqueid": "w28059086:a91129410", "current_trial": 45, "dateTime": 1691143404708, "trialdata": {"revealed_states": [], "clicked_states": [], "num_clicks_accrued": [0, 0, 0, 0, 0, 0, 0, 0, 0, 0, 0, 0, 0], "stateRewards": ["", 2, -1, 1, 10, -52, 86, -22, -2, -14, -63, 38, 1, 3, 7, -8, 11, -32, -27, 9, -71, 40, -87, -2, -1, 5, -7, 12, 31, -57, 13, 86, -58, 29], "withholdReward": false, "trial_id": "mdp_trial_19", "block": "test", "trialIndex": 26, "score": 98, "costs": 0, "simulationMode": [null, null, null, null, null], "rewards": [2, -1, 1, 10, 86], "path": ["0", "0", "1", "2", "3", "4", "6"], "rt": [129, 166, 346, 485, 26], "actions": ["up", "up", "up", "right", "right"], "actionTimes": [1253, 1934, 2796, 3786, 4310], "queries": {"click": {"state": {"target": [], "time": []}, "edge": {"target": [], "time": []}}, "mouseover": {"state": {"target": [], "time": []}, "edge": {"target": [], "time": []}}, "mouseout": {"state": {"target": ["0", "0", "12", "12", "16", "31", "31", "7", "7"], "time": [918, 5316, 6233, 6266, 15350, 15400, 15466, 15516, 15616]}, "edge": {"target": [], "time": []}}}, "displayed_time": "15.13", "trialTime": 16687, "trial_type": "mouselab-mdp", "trial_index": 45, "time_elapsed": 1378987, "internal_node_id": "0.0-4.0-1.0-18.0"}}, {"uniqueid": "w28059086:a91129410", "current_trial": 46, "dateTime": 1691143420813, "trialdata": {"revealed_states": [], "clicked_states": [], "num_clicks_accrued": [0, 0, 0, 0, 0, 0, 0, 0, 0, 0, 0, 0, 0], "stateRewards": ["", 1, -1, -7, -7, -22, 15, -13, 13, 26, -32, 38, -1, 1, -7, -4, 16, -62, 86, 12, -54, 56, 64, -2, -1, 6, 14, -57, 37, 62, -6, -25, 50, -70], "withholdReward": false, "trial_id": "mdp_trial_20", "block": "test", "trialIndex": 27, "score": 32, "costs": 0, "simulationMode": [null, null, null, null, null], "rewards": [1, -1, -7, 13, 26], "path": ["0", "0", "1", "2", "3", "8", "9"], "rt": [240, 64, 625, 101, 208], "actions": ["up", "up", "up", "left", "up"], "actionTimes": [1757, 2319, 3462, 4057, 4764], "queries": {"click": {"state": {"target": [], "time": []}, "edge": {"target": [], "time": []}}, "mouseover": {"state": {"target": [], "time": []}, "edge": {"target": [], "time": []}}, "mouseout": {"state": {"target": ["12", "12", "0", "0", "3", "2", "7", "2", "10", "23"], "time": [908, 1071, 1391, 5775, 12291, 12322, 12509, 12539, 12706, 13038]}, "edge": {"target": [], "time": []}}}, "displayed_time": "15.52", "trialTime": 15912, "trial_type": "mouselab-mdp", "trial_index": 46, "time_elapsed": 1395091, "internal_node_id": "0.0-4.0-1.0-19.0"}}, {"uniqueid": "w28059086:a91129410", "current_trial": 47, "dateTime": 1691143436454, "trialdata": {"revealed_states": [], "clicked_states": [], "num_clicks_accrued": [0, 0, 0, 0, 0, 0, 0, 0, 0, 0, 0, 0, 0], "stateRewards": ["", -1, -2, 4, 9, 10, -75, 39, 16, -43, 88, -19, -1, 1, 2, 4, -31, 10, 73, 12, 41, -64, -81, -2, 2, -6, 1, -81, -1, -26, 3, -59, -3, -20], "withholdReward": false, "trial_id": "mdp_trial_21", "block": "test", "trialIndex": 28, "score": -65, "costs": 0, "simulationMode": [null, null, null, null, null], "rewards": [-1, -2, 4, 9, -75], "path": ["0", "0", "1", "2", "3", "4", "6"], "rt": [296, 58, 534, 28, 184], "actions": ["up", "up", "up", "right", "right"], "actionTimes": [1298, 1863, 2905, 3433, 4123], "queries": {"click": {"state": {"target": [], "time": []}, "edge": {"target": [], "time": []}}, "mouseover": {"state": {"target": [], "time": []}, "edge": {"target": [], "time": []}}, "mouseout": {"state": {"target": ["14", "15", "14"], "time": [5872, 13439, 13476]}, "edge": {"target": [], "time": []}}}, "displayed_time": "15.00", "trialTime": 15470, "trial_type": "mouselab-mdp", "trial_index": 47, "time_elapsed": 1410732, "internal_node_id": "0.0-4.0-1.0-20.0"}}, {"uniqueid": "w28059086:a91129410", "current_trial": 48, "dateTime": 1691143456499, "trialdata": {"revealed_states": [], "clicked_states": [], "num_clicks_accrued": [0, 0, 0, 0, 0, 0, 0, 0, 0, 0, 0, 0, 0], "stateRewards": ["", -1, 1, 6, -6, 70, 66, 67, -16, -75, -35, 37, -1, 4, 4, -6, 47, -9, 63, 15, 21, -63, 13, 1, 3, -6, 10, 79, -29, 18, -15, 9, -67, -19], "withholdReward": false, "trial_id": "mdp_trial_22", "block": "test", "trialIndex": 29, "score": -84, "costs": 0, "simulationMode": [null, null, null, null, null], "rewards": [1, 3, -6, -15, -67], "path": ["0", "0", "23", "24", "25", "30", "32"], "rt": [872, 328, 578, 8, 31], "actions": ["left", "left", "left", "down", "down"], "actionTimes": [2043, 2861, 3946, 4458, 4998], "queries": {"click": {"state": {"target": [], "time": []}, "edge": {"target": [], "time": []}}, "mouseover": {"state": {"target": [], "time": []}, "edge": {"target": [], "time": []}}, "mouseout": {"state": {"target": ["0"], "time": [5928]}, "edge": {"target": [], "time": []}}}, "displayed_time": "15.17", "trialTime": 19844, "trial_type": "mouselab-mdp", "trial_index": 48, "time_elapsed": 1430778, "internal_node_id": "0.0-4.0-1.0-21.0"}}, {"uniqueid": "w28059086:a91129410", "current_trial": 49, "dateTime": 1691143472881, "trialdata": {"revealed_states": [], "clicked_states": [], "num_clicks_accrued": [0, 0, 0, 0, 0, 0, 0, 0, 0, 0, 0, 0, 0], "stateRewards": ["", -2, -3, -5, 8, 27, 11, 43, -6, -24, -87, 69, -2, 1, 1, 9, 19, 48, -37, 9, -14, 45, 62, 1, 2, 1, 16, -81, -41, 22, 4, -6, -63, 47], "withholdReward": false, "trial_id": "mdp_trial_23", "block": "test", "trialIndex": 30, "score": -40, "costs": 0, "simulationMode": [null, null, null, null, null], "rewards": [-2, -3, -5, -6, -24], "path": ["0", "0", "1", "2", "3", "8", "9"], "rt": [267, 120, 44, 1199, 30], "actions": ["up", "up", "up", "left", "up"], "actionTimes": [1683, 2311, 2866, 4577, 5121], "queries": {"click": {"state": {"target": [], "time": []}, "edge": {"target": [], "time": []}}, "mouseover": {"state": {"target": [], "time": []}, "edge": {"target": [], "time": []}}, "mouseout": {"state": {"target": ["0", "0"], "time": [1973, 6488]}, "edge": {"target": [], "time": []}}}, "displayed_time": "15.42", "trialTime": 16132, "trial_type": "mouselab-mdp", "trial_index": 49, "time_elapsed": 1447159, "internal_node_id": "0.0-4.0-1.0-22.0"}}, {"uniqueid": "w28059086:a91129410", "current_trial": 50, "dateTime": 1691143488787, "trialdata": {"revealed_states": [], "clicked_states": [], "num_clicks_accrued": [0, 0, 0, 0, 0, 0, 0, 0, 0, 0, 0, 0, 0], "stateRewards": ["", -2, -1, -3, -1, -78, -6, 2, -1, 22, -88, 32, 2, 2, -7, -8, -51, -17, 54, 2, -44, 54, 75, 2, -2, -8, -15, -29, 12, -67, 15, -1, -47, -47], "withholdReward": false, "trial_id": "mdp_trial_24", "block": "test", "trialIndex": 31, "score": -5, "costs": 0, "simulationMode": [null, null, null, null, null], "rewards": [-2, -1, -3, -1, 2], "path": ["0", "0", "1", "2", "3", "4", "7"], "rt": [250, 176, 135, 43, 257], "actions": ["up", "up", "up", "right", "down"], "actionTimes": [1597, 2273, 2901, 3441, 4205], "queries": {"click": {"state": {"target": [], "time": []}, "edge": {"target": [], "time": []}}, "mouseover": {"state": {"target": [], "time": []}, "edge": {"target": [], "time": []}}, "mouseout": {"state": {"target": ["0", "19"], "time": [5447, 13314]}, "edge": {"target": [], "time": []}}}, "displayed_time": "15.35", "trialTime": 15680, "trial_type": "mouselab-mdp", "trial_index": 50, "time_elapsed": 1463066, "internal_node_id": "0.0-4.0-1.0-23.0"}}, {"uniqueid": "w28059086:a91129410", "current_trial": 51, "dateTime": 1691143506884, "trialdata": {"revealed_states": [], "clicked_states": [], "num_clicks_accrued": [0, 0, 0, 0, 0, 0, 0, 0, 0, 0, 0, 0, 0], "stateRewards": ["", 2, -4, 4, 9, 69, 9, -75, 12, -86, 66, 25, -1, 3, 2, -13, -88, -3, 1, 4, -69, 49, -84, 2, -1, 4, 2, -18, -81, -52, -15, -69, -54, 25], "withholdReward": false, "trial_id": "mdp_trial_25", "block": "test", "trialIndex": 32, "score": -72, "costs": 0, "simulationMode": [null, null, null, null, null], "rewards": [2, -4, 4, 12, -86], "path": ["0", "0", "1", "2", "3", "8", "9"], "rt": [365, 282, 2, 676, 128], "actions": ["up", "up", "up", "left", "up"], "actionTimes": [1451, 2235, 2739, 3946, 4564], "queries": {"click": {"state": {"target": [], "time": []}, "edge": {"target": [], "time": []}}, "mouseover": {"state": {"target": [], "time": []}, "edge": {"target": [], "time": []}}, "mouseout": {"state": {"target": ["0", "1", "0", "1", "1", "0"], "time": [1617, 5903, 6337, 16520, 16538, 16552]}, "edge": {"target": [], "time": []}}}, "displayed_time": "15.09", "trialTime": 17847, "trial_type": "mouselab-mdp", "trial_index": 51, "time_elapsed": 1481162, "internal_node_id": "0.0-4.0-1.0-24.0"}}, {"uniqueid": "w28059086:a91129410", "current_trial": 52, "dateTime": 1691143523308, "trialdata": {"revealed_states": [], "clicked_states": ["23", "24", "25", "26", "27"], "num_clicks_accrued": [0, 0, 0, 0, 0, 0, 0, 0, 0, 0, 0, 0, 0], "stateRewards": ["", 2, -1, -2, -5, -47, -57, -33, -11, 31, -18, -72, -2, 1, -4, -8, -46, -53, -50, 15, -85, -9, 39, -2, -2, 1, 14, -1, -8, 53, -12, -41, -74, 62], "withholdReward": false, "trial_id": "mdp_trial_26", "block": "test", "trialIndex": 33, "score": 57, "costs": -7, "simulationMode": [null, null, null, null, null, null], "rewards": [-2, -2, 1, 14, 53], "path": ["0", "0", "23", "24", "25", "26", "29"], "rt": [9169, 250, 35, 337, 39, 192], "actions": ["left", "left", "left", "left", "up", "left"], "actionTimes": [10217, 10469, 10997, 11848, 12400, 13103], "queries": {"click": {"state": {"target": ["23", "24", "25", "26", "27"], "time": [1854, 3668, 5408, 7123, 8888]}, "edge": {"target": [], "time": []}}, "mouseover": {"state": {"target": ["12", "0", "23", "24", "24", "25", "26", "27", "28"], "time": [1328, 1497, 1770, 2127, 2810, 3977, 5796, 7528, 9661]}, "edge": {"target": [], "time": []}}, "mouseout": {"state": {"target": ["0", "12", "0", "23", "24", "24", "25", "26", "27", "28", "14", "12", "0", "23"], "time": [1295, 1481, 1543, 2077, 2577, 3943, 5713, 7462, 9610, 9710, 14877, 14910, 14943, 14977]}, "edge": {"target": [], "time": []}}}, "displayed_time": "15.05", "trialTime": 16197, "trial_type": "mouselab-mdp", "trial_index": 52, "time_elapsed": 1497587, "internal_node_id": "0.0-4.0-1.0-25.0"}}, {"uniqueid": "w28059086:a91129410", "current_trial": 53, "dateTime": 1691143539979, "trialdata": {"revealed_states": [], "clicked_states": ["12", "13", "14", "19", "20"], "num_clicks_accrued": [0, 0, 0, 0, 0, 0, 0, 0, 0, 0, 0, 0, 0], "stateRewards": ["", 2, -3, -2, 14, -4, 85, 46, 15, -28, 41, 31, -1, -1, -1, 5, 62, 79, 57, 12, -73, -64, 86, -1, 1, -3, -5, 68, 11, -32, 8, -80, -21, -56], "withholdReward": false, "trial_id": "mdp_trial_27", "block": "test", "trialIndex": 34, "score": -62, "costs": -7, "simulationMode": [null, null, null, null, null, null], "rewards": [-1, -1, -1, 12, -64], "path": ["0", "0", "12", "13", "14", "19", "21"], "rt": [8780, 220, 68, 538, 247, 115], "actions": ["right", "right", "right", "right", "down", "down"], "actionTimes": [9746, 9967, 10543, 11617, 12356, 12989], "queries": {"click": {"state": {"target": ["12", "13", "14", "19", "20"], "time": [1679, 3336, 5185, 6997, 8818]}, "edge": {"target": [], "time": []}}, "mouseover": {"state": {"target": ["12", "13", "14", "19", "20", "13", "12"], "time": [1494, 2090, 3706, 5589, 7308, 9374, 9524]}, "edge": {"target": [], "time": []}}, "mouseout": {"state": {"target": ["0", "12", "13", "14", "19", "20", "13", "12"], "time": [306, 1840, 3639, 5539, 7274, 9224, 9474, 13612]}, "edge": {"target": [], "time": []}}}, "displayed_time": "14.97", "trialTime": 16465, "trial_type": "mouselab-mdp", "trial_index": 53, "time_elapsed": 1514257, "internal_node_id": "0.0-4.0-1.0-26.0"}}, {"uniqueid": "w28059086:a91129410", "current_trial": 54, "dateTime": 1691143556705, "trialdata": {"revealed_states": [], "clicked_states": ["23", "24", "25", "26", "27"], "num_clicks_accrued": [0, 0, 0, 0, 0, 0, 0, 0, 0, 0, 0, 0, 0], "stateRewards": ["", 1, 2, 7, 13, 88, -71, 27, 3, 60, 5, -53, -2, 2, -6, -1, -30, 79, 47, -4, -14, 46, 68, 1, 1, 8, 10, -14, 86, 48, -11, -67, -44, 5], "withholdReward": false, "trial_id": "mdp_trial_28", "block": "test", "trialIndex": 35, "score": 99, "costs": -7, "simulationMode": [null, null, null, null, null], "rewards": [1, 1, 8, 10, 86], "path": ["0", "0", "23", "24", "25", "26", "28"], "rt": [9988, 138, 387, 619, 246], "actions": ["left", "left", "left", "up", "right"], "actionTimes": [11152, 11794, 12694, 13809, 14551], "queries": {"click": {"state": {"target": ["23", "24", "25", "26", "27"], "time": [2147, 3908, 5687, 7629, 9338]}, "edge": {"target": [], "time": []}}, "mouseover": {"state": {"target": ["23", "24", "25", "26", "27"], "time": [1738, 2438, 4454, 6087, 9188]}, "edge": {"target": [], "time": []}}, "mouseout": {"state": {"target": ["12", "0", "23", "24", "25", "26", "27", "2", "7"], "time": [854, 1505, 2423, 4287, 5921, 8988, 15055, 15089, 15222]}, "edge": {"target": [], "time": []}}}, "displayed_time": "15.17", "trialTime": 16488, "trial_type": "mouselab-mdp", "trial_index": 54, "time_elapsed": 1530983, "internal_node_id": "0.0-4.0-1.0-27.0"}}, {"uniqueid": "w28059086:a91129410", "current_trial": 55, "dateTime": 1691143576173, "trialdata": {"revealed_states": [], "clicked_states": ["23", "24", "25", "26", "29"], "num_clicks_accrued": [0, 0, 0, 0, 0, 0, 0, 0, 0, 0, 0, 0, 0], "stateRewards": ["", -1, -3, -6, -2, -7, 80, -45, -3, -38, -72, 76, 2, 1, 7, 4, -62, 14, -74, 14, -87, -21, -88, -2, 1, -7, -10, 66, 56, -76, 10, -29, -72, -70], "withholdReward": false, "trial_id": "mdp_trial_29", "block": "test", "trialIndex": 36, "score": -77, "costs": -7, "simulationMode": [null, null, null, null, null], "rewards": [-2, 1, -7, 10, -72], "path": ["0", "0", "23", "24", "25", "30", "32"], "rt": [10212, 47, 586, 73, 54], "actions": ["left", "left", "left", "down", "down"], "actionTimes": [12096, 12657, 13747, 14336, 14916], "queries": {"click": {"state": {"target": ["23", "24", "25", "26", "29"], "time": [2630, 4316, 6441, 8263, 10204]}, "edge": {"target": [], "time": []}}, "mouseover": {"state": {"target": ["23", "24", "24", "25", "26", "28", "29", "23"], "time": [2494, 2926, 4193, 4660, 7295, 9277, 9777, 11843]}, "edge": {"target": [], "time": []}}, "mouseout": {"state": {"target": ["23", "1", "23", "24", "24", "25", "26", "28", "26", "29", "23", "22"], "time": [1193, 1410, 2910, 3910, 4593, 7110, 9226, 9560, 9727, 10843, 15503, 16798]}, "edge": {"target": [], "time": []}}}, "displayed_time": "15.88", "trialTime": 19277, "trial_type": "mouselab-mdp", "trial_index": 55, "time_elapsed": 1550451, "internal_node_id": "0.0-4.0-1.0-28.0"}}, {"uniqueid": "w28059086:a91129410", "current_trial": 56, "dateTime": 1691143595247, "trialdata": {"revealed_states": [], "clicked_states": ["1", "2", "3", "4", "6"], "num_clicks_accrued": [0, 0, 0, 0, 0, 0, 0, 0, 0, 0, 0, 0, 0], "stateRewards": ["", -2, -4, 4, -11, -63, -60, -7, 2, -14, 81, -43, -1, -1, -5, 7, 10, 69, 40, 8, -83, 52, 60, 1, 2, 5, -5, 16, 64, 14, -3, 29, 7, -51], "withholdReward": false, "trial_id": "mdp_trial_30", "block": "test", "trialIndex": 37, "score": -83, "costs": -7, "simulationMode": [null, null, null, null, null], "rewards": [-2, -4, 4, -11, -63], "path": ["0", "0", "1", "2", "3", "4", "5"], "rt": [9470, 112, 128, 707, 201], "actions": ["up", "up", "up", "right", "up"], "actionTimes": [10620, 11263, 11896, 13108, 13820], "queries": {"click": {"state": {"target": ["1", "2", "3", "4", "6"], "time": [1662, 3234, 4960, 6635, 8389]}, "edge": {"target": [], "time": []}}, "mouseover": {"state": {"target": ["1", "2", "3", "4", "6", "3", "2"], "time": [1522, 2117, 3716, 5266, 6849, 9733, 10554]}, "edge": {"target": [], "time": []}}, "mouseout": {"state": {"target": ["1", "2", "3", "4", "6", "4", "3", "3", "2", "16", "10", "5", "8", "10", "13", "13", "22"], "time": [1916, 3239, 5233, 6800, 8650, 8783, 9117, 9916, 14384, 14399, 17390, 17616, 17650, 17733, 18101, 18118, 18166]}, "edge": {"target": [], "time": []}}}, "displayed_time": "15.15", "trialTime": 18876, "trial_type": "mouselab-mdp", "trial_index": 56, "time_elapsed": 1569526, "internal_node_id": "0.0-4.0-1.0-29.0"}}, {"uniqueid": "w28059086:a91129410", "current_trial": 57, "dateTime": 1691143610919, "trialdata": {"revealed_states": [], "clicked_states": [], "num_clicks_accrued": [0, 0, 0, 0, 0, 0, 0, 0, 0, 0, 0, 0, 0], "stateRewards": ["", 1, 4, 5, 8, -55, -11, 8, 16, -37, 77, -22, -2, 3, -8, -10, 45, 87, -67, 4, 17, -33, -22, -1, -3, 7, 6, -39, -85, 75, -1, 7, -48, 45], "withholdReward": false, "trial_id": "mdp_trial_31", "block": "test", "trialIndex": 38, "score": 4, "costs": 0, "simulationMode": [null, null, null, null, null], "rewards": [1, 4, 5, 16, -22], "path": ["0", "0", "1", "2", "3", "8", "11"], "rt": [543, 98, 495, 66, 42], "actions": ["up", "up", "up", "left", "left"], "actionTimes": [1370, 1984, 2982, 3537, 4095], "queries": {"click": {"state": {"target": [], "time": []}, "edge": {"target": [], "time": []}}, "mouseover": {"state": {"target": ["1"], "time": [1204]}, "edge": {"target": [], "time": []}}, "mouseout": {"state": {"target": ["0", "0", "1", "0", "15", "18", "12", "18"], "time": [405, 896, 4633, 4769, 10720, 11023, 11357, 13806]}, "edge": {"target": [], "time": []}}}, "displayed_time": "14.83", "trialTime": 15485, "trial_type": "mouselab-mdp", "trial_index": 57, "time_elapsed": 1585198, "internal_node_id": "0.0-4.0-1.0-30.0"}}, {"uniqueid": "w28059086:a91129410", "current_trial": 58, "dateTime": 1691143626576, "trialdata": {"revealed_states": [], "clicked_states": [], "num_clicks_accrued": [0, 0, 0, 0, 0, 0, 0, 0, 0, 0, 0, 0, 0], "stateRewards": ["", 2, 4, 7, -6, -76, -81, 2, 5, -66, -3, 36, -2, -4, 6, -2, -69, 4, -49, -6, 67, 38, -67, 2, 1, 1, 6, -68, -21, 52, -16, -16, 6, -70], "withholdReward": false, "trial_id": "mdp_trial_32", "block": "test", "trialIndex": 39, "score": -82, "costs": 0, "simulationMode": [null, null, null, null, null], "rewards": [2, 1, 1, -16, -70], "path": ["0", "0", "23", "24", "25", "30", "33"], "rt": [560, 190, 528, 64, 252], "actions": ["left", "left", "left", "down", "left"], "actionTimes": [1499, 2207, 3246, 3805, 4569], "queries": {"click": {"state": {"target": [], "time": []}, "edge": {"target": [], "time": []}}, "mouseover": {"state": {"target": [], "time": []}, "edge": {"target": [], "time": []}}, "mouseout": {"state": {"target": ["0"], "time": [833]}, "edge": {"target": [], "time": []}}}, "displayed_time": "14.94", "trialTime": 15486, "trial_type": "mouselab-mdp", "trial_index": 58, "time_elapsed": 1600854, "internal_node_id": "0.0-4.0-1.0-31.0"}}, {"uniqueid": "w28059086:a91129410", "current_trial": 59, "dateTime": 1691143643940, "trialdata": {"revealed_states": [], "clicked_states": ["1", "2", "3", "4", "6"], "num_clicks_accrued": [0, 0, 0, 0, 0, 0, 0, 0, 0, 0, 0, 0, 0], "stateRewards": ["", 2, -3, 5, 11, -79, 54, 11, -9, -78, 33, 22, -2, -1, 2, 14, 43, 34, 1, 10, 49, -65, 39, -1, 1, -1, 3, -16, -2, 11, 2, 12, 48, -65], "withholdReward": false, "trial_id": "mdp_trial_33", "block": "test", "trialIndex": 40, "score": 62, "costs": -7, "simulationMode": [null, null, null, null, null, null], "rewards": [2, -3, 5, 11, 54], "path": ["0", "0", "1", "2", "3", "4", "6"], "rt": [8691, 203, 20, 496, 121, 71], "actions": ["up", "up", "up", "up", "right", "right"], "actionTimes": [9860, 10065, 10606, 11614, 12241, 12810], "queries": {"click": {"state": {"target": ["1", "2", "3", "4", "6"], "time": [1730, 3745, 5324, 7016, 8839]}, "edge": {"target": [], "time": []}}, "mouseover": {"state": {"target": ["1", "7", "2", "3", "2", "3", "4", "6"], "time": [1438, 2234, 2500, 2800, 3517, 4134, 5817, 7553]}, "edge": {"target": [], "time": []}}, "mouseout": {"state": {"target": ["1", "7", "2", "3", "2", "3", "4", "6", "6", "4", "3", "0"], "time": [2134, 2434, 2784, 3438, 3900, 5700, 7370, 9036, 9268, 9334, 13981, 16485]}, "edge": {"target": [], "time": []}}}, "displayed_time": "15.17", "trialTime": 17136, "trial_type": "mouselab-mdp", "trial_index": 59, "time_elapsed": 1618218, "internal_node_id": "0.0-4.0-1.0-32.0"}}, {"uniqueid": "w28059086:a91129410", "current_trial": 60, "dateTime": 1691143663016, "trialdata": {"revealed_states": [], "clicked_states": ["1", "2", "3", "8", "11"], "num_clicks_accrued": [0, 0, 0, 0, 0, 0, 0, 0, 0, 0, 0, 0, 0], "stateRewards": ["", 2, 3, 3, 10, 19, -21, 6, 9, 54, 68, 16, 2, 2, -6, -8, 40, -2, -75, -2, -42, 55, 59, -1, 2, 4, -14, 11, -34, -30, -6, 61, -53, 13], "withholdReward": false, "trial_id": "mdp_trial_34", "block": "test", "trialIndex": 41, "score": 26, "costs": -7, "simulationMode": [null, null, null, null, null], "rewards": [2, 3, 3, 9, 16], "path": ["0", "0", "1", "2", "3", "8", "11"], "rt": [9570, 37, 12, 15, 102], "actions": ["up", "up", "up", "left", "left"], "actionTimes": [11051, 11584, 12108, 12628, 13248], "queries": {"click": {"state": {"target": ["1", "2", "3", "8", "11"], "time": [2008, 3536, 5246, 7133, 9039]}, "edge": {"target": [], "time": []}}, "mouseover": {"state": {"target": ["1", "2", "3", "8", "11"], "time": [1834, 2379, 3846, 5779, 7664]}, "edge": {"target": [], "time": []}}, "mouseout": {"state": {"target": ["0", "1", "2", "3", "8", "11", "0", "12"], "time": [731, 2212, 3729, 5662, 7629, 9997, 17500, 17900]}, "edge": {"target": [], "time": []}}}, "displayed_time": "15.48", "trialTime": 18857, "trial_type": "mouselab-mdp", "trial_index": 60, "time_elapsed": 1637294, "internal_node_id": "0.0-4.0-1.0-33.0"}}, {"uniqueid": "w28059086:a91129410", "current_trial": 61, "dateTime": 1691143683928, "trialdata": {"revealed_states": [], "clicked_states": ["1", "2", "3", "8", "9"], "num_clicks_accrued": [0, 0, 0, 0, 0, 0, 0, 0, 0, 0, 0, 0, 0], "stateRewards": ["", -1, 2, -2, 5, 80, -61, -27, 12, 44, -26, -75, -2, -4, 1, -16, 42, -49, -50, 4, -44, 2, 80, -2, -2, 5, -2, 59, 10, 24, 7, -48, -86, -44], "withholdReward": false, "trial_id": "mdp_trial_35", "block": "test", "trialIndex": 42, "score": 48, "costs": -7, "simulationMode": [null, null, null, null, null], "rewards": [-1, 2, -2, 12, 44], "path": ["0", "0", "1", "2", "3", "8", "9"], "rt": [8655, 78, 142, 234, 263], "actions": ["up", "up", "up", "left", "up"], "actionTimes": [12047, 12638, 13284, 14027, 14788], "queries": {"click": {"state": {"target": ["1", "2", "3", "8", "9"], "time": [3757, 5396, 6912, 8533, 10070]}, "edge": {"target": [], "time": []}}, "mouseover": {"state": {"target": ["1", "2", "2", "3", "8", "9"], "time": [3492, 4024, 4841, 5792, 7359, 9108]}, "edge": {"target": [], "time": []}}, "mouseout": {"state": {"target": ["1", "2", "1", "7", "1", "1", "1", "2", "2", "3", "8", "9", "3", "26", "25", "31", "0", "23"], "time": [494, 845, 978, 1176, 2011, 3063, 3941, 4491, 5659, 7308, 8891, 10842, 17578, 19128, 19259, 19311, 19644, 19692]}, "edge": {"target": [], "time": []}}}, "displayed_time": "17.39", "trialTime": 20697, "trial_type": "mouselab-mdp", "trial_index": 61, "time_elapsed": 1658206, "internal_node_id": "0.0-4.0-1.0-34.0"}}, {"uniqueid": "w28059086:a91129410", "current_trial": 62, "dateTime": 1691143699911, "trialdata": {"revealed_states": [], "clicked_states": ["1", "2", "3", "4", "5"], "num_clicks_accrued": [0, 0, 0, 0, 0, 0, 0, 0, 0, 0, 0, 0, 0], "stateRewards": ["", 1, 2, -5, 14, 54, -14, -25, 16, -5, -87, 78, -1, 1, 3, -3, 52, 53, 53, -10, 73, -69, -48, 2, 3, 1, 8, -62, -7, 85, 7, 82, 52, -28], "withholdReward": false, "trial_id": "mdp_trial_36", "block": "test", "trialIndex": 43, "score": 59, "costs": -7, "simulationMode": [null, null, null, null, null], "rewards": [1, 2, -5, 14, 54], "path": ["0", "0", "1", "2", "3", "4", "5"], "rt": [9353, 21, 94, 644, 67], "actions": ["up", "up", "up", "right", "up"], "actionTimes": [10492, 11028, 11633, 12783, 13357], "queries": {"click": {"state": {"target": ["1", "2", "3", "4", "5"], "time": [1754, 3602, 5210, 6899, 8825]}, "edge": {"target": [], "time": []}}, "mouseover": {"state": {"target": ["1", "2", "3", "4", "5", "7", "2"], "time": [1491, 2088, 3871, 5571, 7621, 9371, 10121]}, "edge": {"target": [], "time": []}}, "mouseout": {"state": {"target": ["1", "2", "3", "4", "5", "4", "7", "2", "1", "0"], "time": [1921, 3612, 5521, 7504, 9222, 9338, 9405, 13972, 14143, 14342]}, "edge": {"target": [], "time": []}}}, "displayed_time": "15.14", "trialTime": 15777, "trial_type": "mouselab-mdp", "trial_index": 62, "time_elapsed": 1674189, "internal_node_id": "0.0-4.0-1.0-35.0"}}, {"uniqueid": "w28059086:a91129410", "current_trial": 63, "dateTime": 1691143720872, "trialdata": {"revealed_states": [], "clicked_states": ["1", "2", "3", "8", "11"], "num_clicks_accrued": [0, 0, 0, 0, 0, 0, 0, 0, 0, 0, 0, 0, 0], "stateRewards": ["", -2, -1, -4, -15, -14, -67, 32, -3, -59, 63, 31, 2, -1, -7, -15, 71, -66, -27, -3, -54, -39, 72, 2, 1, 1, -13, 77, -40, 35, -9, 35, 75, 57], "withholdReward": false, "trial_id": "mdp_trial_37", "block": "test", "trialIndex": 44, "score": 14, "costs": -7, "simulationMode": [null, null, null, null, null], "rewards": [-2, -1, -4, -3, 31], "path": ["0", "0", "1", "2", "3", "8", "11"], "rt": [9284, 56, 155, 5, 72], "actions": ["up", "up", "up", "left", "left"], "actionTimes": [10238, 10792, 11473, 11975, 12574], "queries": {"click": {"state": {"target": ["1", "2", "3", "8", "11"], "time": [1551, 3154, 4830, 6392, 8073]}, "edge": {"target": [], "time": []}}, "mouseover": {"state": {"target": ["1", "2", "2", "3", "8", "9", "11"], "time": [1439, 1884, 2334, 3467, 5151, 6817, 7184]}, "edge": {"target": [], "time": []}}, "mouseout": {"state": {"target": ["0", "1", "2", "2", "3", "8", "9", "11", "8", "2", "18", "17", "16", "16", "0"], "time": [604, 1784, 2084, 3401, 5101, 6734, 7117, 8518, 9451, 13638, 13654, 13671, 18919, 19337, 19434]}, "edge": {"target": [], "time": []}}}, "displayed_time": "14.96", "trialTime": 20754, "trial_type": "mouselab-mdp", "trial_index": 63, "time_elapsed": 1695151, "internal_node_id": "0.0-4.0-1.0-36.0"}}, {"uniqueid": "w28059086:a91129410", "current_trial": 64, "dateTime": 1691143738555, "trialdata": {"revealed_states": [], "clicked_states": ["1", "2", "3", "4", "5"], "num_clicks_accrued": [0, 0, 0, 0, 0, 0, 0, 0, 0, 0, 0, 0, 0], "stateRewards": ["", 1, 1, 5, 6, -29, -7, 3, -16, 9, -46, 65, -1, 4, -1, -16, -63, -77, -87, 8, 80, -50, 43, -1, -1, -5, 5, -38, -71, -62, 9, 81, -50, -52], "withholdReward": false, "trial_id": "mdp_trial_38", "block": "test", "trialIndex": 45, "score": -1, "costs": -7, "simulationMode": [null, null, null, null, null, null], "rewards": [1, 1, 5, 6, -7], "path": ["0", "0", "1", "2", "3", "4", "6"], "rt": [8611, 163, 16, 42, 55, 139], "actions": ["up", "up", "up", "up", "right", "right"], "actionTimes": [9484, 9648, 10177, 10737, 11298, 11949], "queries": {"click": {"state": {"target": ["1", "2", "3", "4", "5"], "time": [1545, 3082, 4627, 6547, 8073]}, "edge": {"target": [], "time": []}}, "mouseover": {"state": {"target": ["1", "2", "3", "4", "6", "4", "5"], "time": [1414, 1943, 3469, 5510, 5610, 5859, 7243]}, "edge": {"target": [], "time": []}}, "mouseout": {"state": {"target": ["0", "1", "2", "3", "2", "1", "1", "2", "3", "4", "6", "4", "5", "3", "7", "1", "12", "11", "26", "2", "11", "26", "28", "24", "31"], "time": [42, 261, 329, 411, 442, 476, 1776, 3376, 5493, 5543, 5827, 7145, 8527, 12226, 12443, 12544, 12577, 15244, 15497, 15781, 15827, 15926, 15976, 16177, 16309]}, "edge": {"target": [], "time": []}}}, "displayed_time": "14.87", "trialTime": 17446, "trial_type": "mouselab-mdp", "trial_index": 64, "time_elapsed": 1712834, "internal_node_id": "0.0-4.0-1.0-37.0"}}, {"uniqueid": "w28059086:a91129410", "current_trial": 65, "dateTime": 1691143754583, "trialdata": {"revealed_states": [], "clicked_states": ["1", "3", "8"], "num_clicks_accrued": [0, 0, 0, 0, 0, 0, 0, 0, 0, 0, 0, 0, 0], "stateRewards": ["", -2, 2, -5, 1, 42, -63, -58, -6, 2, 16, 81, -2, 4, 7, -10, 33, 3, -33, -2, -52, -84, -27, 2, -3, -3, 15, -74, -14, -5, -5, -84, 79, -31], "withholdReward": false, "trial_id": "mdp_trial_39", "block": "test", "trialIndex": 46, "score": -2.1999999999999993, "costs": -4.199999999999999, "simulationMode": [null, null, null, null, null, null], "rewards": [-2, 4, 7, -10, 3], "path": ["0", "0", "12", "13", "14", "15", "17"], "rt": [5748, 178, 132, 32, 164, 32], "actions": ["right", "right", "right", "right", "up", "right"], "actionTimes": [6594, 6773, 7408, 7957, 8656, 9192], "queries": {"click": {"state": {"target": ["1", "3", "8"], "time": [1736, 3769, 5657]}, "edge": {"target": [], "time": []}}, "mouseover": {"state": {"target": ["1", "2", "3", "8", "9", "8"], "time": [1512, 2158, 3358, 4058, 4458, 4580]}, "edge": {"target": [], "time": []}}, "mouseout": {"state": {"target": ["0", "1", "2", "3", "8", "9", "8", "2", "28", "24", "0", "18", "21"], "time": [1242, 2124, 3311, 4008, 4109, 4491, 5891, 9924, 10025, 10930, 10944, 14859, 14908]}, "edge": {"target": [], "time": []}}}, "displayed_time": "14.85", "trialTime": 15804, "trial_type": "mouselab-mdp", "trial_index": 65, "time_elapsed": 1728861, "internal_node_id": "0.0-4.0-1.0-38.0"}}, {"uniqueid": "w28059086:a91129410", "current_trial": 66, "dateTime": 1691143773110, "trialdata": {"revealed_states": [], "clicked_states": [], "num_clicks_accrued": [0, 0, 0, 0, 0, 0, 0, 0, 0, 0, 0, 0, 0], "stateRewards": ["", -2, 1, -7, -8, -37, -76, -87, 11, 30, -63, 80, -1, 4, 2, -1, 42, 17, 52, -3, -75, -80, -68, 2, -3, -5, -15, -48, 82, 24, -7, 5, -22, -71], "withholdReward": false, "trial_id": "mdp_trial_40", "block": "test", "trialIndex": 47, "score": -84, "costs": 0, "simulationMode": [null, null, null, null, null], "rewards": [2, -3, -5, -7, -71], "path": ["0", "0", "23", "24", "25", "30", "33"], "rt": [1006, 56, 9, 289, 59], "actions": ["left", "left", "left", "down", "left"], "actionTimes": [2116, 2676, 3196, 3994, 4564], "queries": {"click": {"state": {"target": [], "time": []}, "edge": {"target": [], "time": []}}, "mouseover": {"state": {"target": [], "time": []}, "edge": {"target": [], "time": []}}, "mouseout": {"state": {"target": ["0", "0", "16", "15", "15"], "time": [1255, 5172, 17320, 17353, 17388]}, "edge": {"target": [], "time": []}}}, "displayed_time": "15.11", "trialTime": 18277, "trial_type": "mouselab-mdp", "trial_index": 66, "time_elapsed": 1747388, "internal_node_id": "0.0-4.0-1.0-39.0"}}, {"uniqueid": "w28059086:a91129410", "current_trial": 67, "dateTime": 1691143805554, "trialdata": {"rt": 32436, "response": {"Q0": "$-2 to $2", "Q1": "$-32 to $32", "Q2": "$-88 to $88", "Q3": "The cost for clicking on nodes varied between nodes.", "Q4": "Slightly motivated"}, "question_order": [0, 1, 2, 3, 4], "trial_id": "final_quiz_control", "trial_type": "survey-multi-choice", "trial_index": 67, "time_elapsed": 1779832, "internal_node_id": "0.0-4.0-2.0"}}, {"uniqueid": "w28059086:a91129410", "current_trial": 68, "dateTime": 1691143875188, "trialdata": {"rt": 69599, "response": {"Q0": "To get the highest score in 5 moves. You could use the node inspector to assist you with the process to get the highest score. The node inspector costed you to use.  ", "Q1": "No I didn't - for some reason my scores got worse when I used the inspector.  ", "Q2": "It was kind of difficult because there was no specific way of getting high scores consistently. It was unpredictable. "}, "trial_id": "self_report_control", "trial_type": "survey-text", "trial_index": 68, "time_elapsed": 1849467, "internal_node_id": "0.0-4.0-3.0"}}, {"uniqueid": "w28059086:a91129410", "current_trial": 69, "dateTime": 1691143889012, "trialdata": {"rt": 13813, "response": {"gender": "male", "age": "33", "colorblind": "0", "effort": "0"}, "trial_type": "survey-html-form", "trial_index": 69, "time_elapsed": 1863291, "internal_node_id": "0.0-4.0-4.0"}}, {"uniqueid": "w28059086:a91129410", "current_trial": 70, "dateTime": 1691143899059, "trialdata": {"rt": 10037, "response": {"Q0": "No. ", "Q1": "No. ", "Q2": "None. "}, "trial_type": "survey-text", "trial_index": 70, "time_elapsed": 1873338, "internal_node_id": "0.0-4.0-5.0"}}, {"uniqueid": "w28059086:a91129410", "current_trial": 71, "dateTime": 1691143901022, "trialdata": {"rt": 1946, "stimulus": "Press 'Finish HIT' in order to reach the completion code. Once the data has been saved, you will receive the code either in this window or in the original browser window where you started the experiment.\n", "response": 0, "trial_type": "html-button-response", "trial_index": 71, "time_elapsed": 1875301, "internal_node_id": "0.0-5.0"}}, {"uniqueid": "w28059086:a91129410", "current_trial": 72, "dateTime": 1691143902029, "trialdata": {"success": true, "trial_type": "fullscreen", "trial_index": 72, "time_elapsed": 1876307, "internal_node_id": "0.0-6.0"}}], "questiondata": {"params": {"CODE": "C6DMOQA6", "MIN_TIME": 14, "inspectCost": 1, "startTime": "Fri Aug 04 2023 11:40:22 GMT+0200 (South Africa Standard Time)", "bonusRate": 0.002, "variance": "1_2_4_8_44", "branching": "31123"}, "final_score": 187}, "eventdata": [{"eventtype": "initialized", "value": null, "timestamp": 1691142021410, "interval": 0}, {"eventtype": "window_resize", "value": [1028, 614], "timestamp": 1691142021410, "interval": 0}, {"eventtype": "window_resize", "value": [1028, 614], "timestamp": 1691142021888, "interval": 478}, {"eventtype": "focus", "value": "off", "timestamp": 1691142030743, "interval": 8855}, {"eventtype": "focus", "value": "on", "timestamp": 1691142033636, "interval": 2893}, {"eventtype": "window_resize", "value": [1280, 720], "timestamp": 1691142033970, "interval": 334}, {"eventtype": "focus", "value": "off", "timestamp": 1691142072490, "interval": 38520}, {"eventtype": "focus", "value": "on", "timestamp": 1691142078187, "interval": 5697}, {"eventtype": "focus", "value": "off", "timestamp": 1691142080081, "interval": 1894}, {"eventtype": "focus", "value": "on", "timestamp": 1691142081845, "interval": 1764}, {"eventtype": "focus", "value": "off", "timestamp": 1691142087319, "interval": 5474}, {"eventtype": "focus", "value": "on", "timestamp": 1691142090657, "interval": 3338}, {"eventtype": "focus", "value": "off", "timestamp": 1691142156896, "interval": 66239}, {"eventtype": "focus", "value": "on", "timestamp": 1691142413539, "interval": 256643}, {"eventtype": "focus", "value": "off", "timestamp": 1691142424974, "interval": 11435}, {"eventtype": "focus", "value": "on", "timestamp": 1691142437621, "interval": 12647}, {"eventtype": "focus", "value": "off", "timestamp": 1691142467297, "interval": 29676}, {"eventtype": "focus", "value": "on", "timestamp": 1691142495920, "interval": 28623}, {"eventtype": "focus", "value": "off", "timestamp": 1691142549544, "interval": 53624}, {"eventtype": "focus", "value": "on", "timestamp": 1691142549544, "interval": 0}, {"eventtype": "window_resize", "value": [1028, 614], "timestamp": 1691142549750, "interval": 206}, {"eventtype": "window_resize", "value": [1280, 720], "timestamp": 1691142551045, "interval": 1295}, {"eventtype": "focus", "value": "off", "timestamp": 1691142651241, "interval": 100196}, {"eventtype": "focus", "value": "on", "timestamp": 1691142651241, "interval": 0}, {"eventtype": "window_resize", "value": [1028, 614], "timestamp": 1691142651449, "interval": 208}, {"eventtype": "window_resize", "value": [1280, 720], "timestamp": 1691142652636, "interval": 1187}, {"eventtype": "focus", "value": "off", "timestamp": 1691142808852, "interval": 156216}, {"eventtype": "focus", "value": "on", "timestamp": 1691142816000, "interval": 7148}, {"eventtype": "focus", "value": "off", "timestamp": 1691142818825, "interval": 2825}, {"eventtype": "focus", "value": "on", "timestamp": 1691142818825, "interval": 0}, {"eventtype": "window_resize", "value": [1028, 614], "timestamp": 1691142819038, "interval": 213}, {"eventtype": "window_resize", "value": [1280, 720], "timestamp": 1691142820283, "interval": 1245}, {"eventtype": "focus", "value": "off", "timestamp": 1691142822237, "interval": 1954}, {"eventtype": "focus", "value": "on", "timestamp": 1691142886876, "interval": 64639}, {"eventtype": "focus", "value": "off", "timestamp": 1691142932394, "interval": 45518}, {"eventtype": "focus", "value": "on", "timestamp": 1691142989136, "interval": 56742}, {"eventtype": "focus", "value": "off", "timestamp": 1691143032468, "interval": 43332}, {"eventtype": "focus", "value": "on", "timestamp": 1691143033720, "interval": 1252}, {"eventtype": "focus", "value": "off", "timestamp": 1691143041362, "interval": 7642}, {"eventtype": "focus", "value": "on", "timestamp": 1691143046811, "interval": 5449}, {"eventtype": "focus", "value": "off", "timestamp": 1691143107797, "interval": 60986}, {"eventtype": "focus", "value": "on", "timestamp": 1691143122512, "interval": 14715}, {"eventtype": "focus", "value": "off", "timestamp": 1691143132610, "interval": 10098}, {"eventtype": "focus", "value": "on", "timestamp": 1691143143666, "interval": 11056}, {"eventtype": "focus", "value": "off", "timestamp": 1691143204109, "interval": 60443}, {"eventtype": "focus", "value": "on", "timestamp": 1691143210215, "interval": 6106}, {"eventtype": "focus", "value": "off", "timestamp": 1691143222295, "interval": 12080}, {"eventtype": "focus", "value": "on", "timestamp": 1691143229297, "interval": 7002}, {"eventtype": "focus", "value": "off", "timestamp": 1691143307641, "interval": 78344}, {"eventtype": "focus", "value": "on", "timestamp": 1691143318205, "interval": 10564}, {"eventtype": "focus", "value": "off", "timestamp": 1691143324089, "interval": 5884}, {"eventtype": "focus", "value": "on", "timestamp": 1691143337852, "interval": 13763}, {"eventtype": "focus", "value": "off", "timestamp": 1691143361864, "interval": 24012}, {"eventtype": "focus", "value": "on", "timestamp": 1691143369628, "interval": 7764}, {"eventtype": "focus", "value": "off", "timestamp": 1691143379467, "interval": 9839}, {"eventtype": "focus", "value": "on", "timestamp": 1691143387602, "interval": 8135}, {"eventtype": "focus", "value": "off", "timestamp": 1691143395238, "interval": 7636}, {"eventtype": "focus", "value": "on", "timestamp": 1691143404394, "interval": 9156}, {"eventtype": "focus", "value": "off", "timestamp": 1691143411712, "interval": 7318}, {"eventtype": "focus", "value": "on", "timestamp": 1691143418476, "interval": 6764}, {"eventtype": "focus", "value": "off", "timestamp": 1691143427316, "interval": 8840}, {"eventtype": "focus", "value": "on", "timestamp": 1691143435534, "interval": 8218}, {"eventtype": "focus", "value": "off", "timestamp": 1691143443841, "interval": 8307}, {"eventtype": "focus", "value": "on", "timestamp": 1691143455897, "interval": 12056}, {"eventtype": "focus", "value": "off", "timestamp": 1691143466397, "interval": 10500}, {"eventtype": "focus", "value": "on", "timestamp": 1691143471667, "interval": 5270}, {"eventtype": "focus", "value": "off", "timestamp": 1691143479051, "interval": 7384}, {"eventtype": "focus", "value": "on", "timestamp": 1691143486933, "interval": 7882}, {"eventtype": "focus", "value": "off", "timestamp": 1691143591311, "interval": 104378}, {"eventtype": "focus", "value": "on", "timestamp": 1691143595002, "interval": 3691}, {"eventtype": "focus", "value": "off", "timestamp": 1691143605051, "interval": 10049}, {"eventtype": "focus", "value": "on", "timestamp": 1691143610604, "interval": 5553}, {"eventtype": "focus", "value": "off", "timestamp": 1691143714252, "interval": 103648}, {"eventtype": "focus", "value": "on", "timestamp": 1691143720426, "interval": 6174}, {"eventtype": "focus", "value": "off", "timestamp": 1691143734629, "interval": 14203}, {"eventtype": "focus", "value": "on", "timestamp": 1691143737696, "interval": 3067}, {"eventtype": "focus", "value": "off", "timestamp": 1691143750160, "interval": 12464}, {"eventtype": "focus", "value": "on", "timestamp": 1691143754357, "interval": 4197}, {"eventtype": "focus", "value": "off", "timestamp": 1691143761025, "interval": 6668}, {"eventtype": "focus", "value": "on", "timestamp": 1691143772796, "interval": 11771}, {"eventtype": "focus", "value": "off", "timestamp": 1691143774608, "interval": 1812}, {"eventtype": "focus", "value": "on", "timestamp": 1691143788301, "interval": 13693}, {"eventtype": "window_resize", "value": [1028, 614], "timestamp": 1691143901278, "interval": 112977}], "useragent": "Mozilla/5.0 (Windows NT 10.0; Win64; x64) AppleWebKit/537.36 (KHTML, like Gecko) Chrome/114.0.0.0 Safari/537.36", "mode": "live", "id": "w28059086:a91129410", "status": "user data saved", "Beginhit": "2023-08-04 09:40:18.442819", "Beginexp": "2023-08-04 09:40:34.908895", "Endhit": "2023-08-04 10:11:43.97058", "psiturkStatus": 3, "browser": "<redacted>", "platform": "windows", "language": "en-US"}