{"condition": 1, "counterbalance": 0, "assignmentId": "a66803353", "workerId": "w54189874", "hitId": "h56258213", "currenttrial": 62, "bonus": 0, "data": [{"uniqueid": "w54189874:a66803353", "current_trial": 0, "dateTime": 1693660275900, "trialdata": {"success": true, "trial_type": "fullscreen", "trial_index": 0, "time_elapsed": 3988, "internal_node_id": "0.0-0.0"}}, {"uniqueid": "w54189874:a66803353", "current_trial": 1, "dateTime": 1693660308248, "trialdata": {"view_history": [{"page_index": 0, "viewing_time": 32349}], "rt": 32349, "trial_id": "exp_instructions_misaligned", "trial_type": "instructions", "trial_index": 1, "time_elapsed": 36336, "internal_node_id": "0.0-1.0"}}, {"uniqueid": "w54189874:a66803353", "current_trial": 2, "dateTime": 1693660597612, "trialdata": {"view_history": [{"page_index": 0, "viewing_time": 105870}, {"page_index": 1, "viewing_time": 102334}, {"page_index": 2, "viewing_time": 23729}, {"page_index": 3, "viewing_time": 57428}], "rt": 289360, "trial_id": "mouselab_instructions_1_misaligned", "trial_type": "instructions", "trial_index": 2, "time_elapsed": 325700, "internal_node_id": "0.0-2.0-1.0"}}, {"uniqueid": "w54189874:a66803353", "current_trial": 3, "dateTime": 1693660623945, "trialdata": {"revealed_states": [], "clicked_states": ["23", "24", "25", "26", "28"], "num_clicks_accrued": [0, 0, 0, 0, 0, 0, 0, 0, 0, 0, 0, 0, 0], "stateRewards": ["", 10, -10, 10, 10, -10, 10, -10, -10, 10, 10, 10, 10, -10, 10, -10, 10, -10, 10, -10, 10, 10, 10, 10, -10, 10, -10, 10, 10, 10, -10, 10, -10, -10], "withholdReward": false, "trial_id": "practice_1", "block": "test", "trialIndex": 0, "score": 11, "costs": -2.5, "simulationMode": [null, null, null, null, null], "rewards": [10, -10, 10, -10, 10], "path": ["0", "0", "23", "24", "25", "26", "28"], "rt": [16128, 907, 159, 101, 784], "actions": ["left", "left", "left", "up", "right"], "actionTimes": [17822, 19232, 19884, 20491, 21792], "queries": {"click": {"state": {"target": ["23", "24", "25", "26", "28"], "time": [2829, 4354, 8772, 10366, 11646]}, "edge": {"target": [], "time": []}}, "mouseover": {"state": {"target": ["1", "23", "24", "26", "25", "25", "24", "26", "28", "27", "10", "23"], "time": [2288, 2638, 3954, 4903, 7120, 8521, 9071, 9690, 11038, 12938, 14055, 16454]}, "edge": {"target": [], "time": []}}, "mouseout": {"state": {"target": ["12", "0", "1", "23", "24", "26", "25", "25", "24", "26", "28", "26", "26", "27", "10", "23"], "time": [null, 1821, 2404, 3188, 4738, 5121, 7787, 9038, 9390, 10739, 11938, 12154, 12621, 14004, 14338, 16870]}, "edge": {"target": [], "time": []}}}, "displayed_time": "22.29", "trialTime": 25890, "trial_type": "mouselab-mdp", "trial_index": 3, "time_elapsed": 352032, "internal_node_id": "0.0-2.0-2.0-0.0"}}, {"uniqueid": "w54189874:a66803353", "current_trial": 4, "dateTime": 1693660650006, "trialdata": {"revealed_states": [], "clicked_states": ["23"], "num_clicks_accrued": [0, 0, 0, 0, 0, 0, 0, 0, 0, 0, 0, 0, 0], "stateRewards": ["", 10, -10, 10, 10, -10, -10, 10, -10, 10, -10, 10, -10, 10, -10, -10, -10, -10, 10, -10, 10, 10, -10, -10, 10, -10, -10, -10, 10, 10, 10, -10, 10, 10], "withholdReward": false, "trial_id": "practice_2", "block": "test", "trialIndex": 1, "score": -27, "costs": -0.5, "simulationMode": [null, null, null, null, null], "rewards": [-10, 10, -10, -10, -10], "path": ["0", "0", "12", "13", "14", "19", "22"], "rt": [5969, 471, 7169, 444, 503], "actions": ["right", "right", "right", "down", "left"], "actionTimes": [10362, 11355, 19037, 19994, 21004], "queries": {"click": {"state": {"target": ["23"], "time": [5773]}, "edge": {"target": [], "time": []}}, "mouseover": {"state": {"target": ["23", "1", "12"], "time": [5147, 8331, 9799]}, "edge": {"target": [], "time": []}}, "mouseout": {"state": {"target": ["1", "23", "1", "12", "13", "13"], "time": [3764, 5869, 9464, 13739, 15432, 18280]}, "edge": {"target": [], "time": []}}}, "displayed_time": "21.50", "trialTime": 25812, "trial_type": "mouselab-mdp", "trial_index": 4, "time_elapsed": 378093, "internal_node_id": "0.0-2.0-2.0-1.0"}}, {"uniqueid": "w54189874:a66803353", "current_trial": 5, "dateTime": 1693660673805, "trialdata": {"view_history": [{"page_index": 0, "viewing_time": 20672}, {"page_index": 1, "viewing_time": 3124}], "rt": 23796, "trial_id": "mouselab_instructions_2_misaligned", "trial_type": "instructions", "trial_index": 5, "time_elapsed": 401893, "internal_node_id": "0.0-2.0-3.0"}}, {"uniqueid": "w54189874:a66803353", "current_trial": 6, "dateTime": 1693660706934, "trialdata": {"rt": 33124, "response": {"Q0": "The cost for clicking on nodes may vary between nodes.", "Q1": "The better I perform the higher my bonus will be.", "Q2": "No, the structure of the web will be different each time.", "Q3": "To get the highest total score.", "Q4": "Only before moving the spider.", "Q5": "3 seconds"}, "question_order": [0, 1, 2, 3, 4, 5], "correct": {"Q0": "The cost for clicking on nodes may vary between nodes.", "Q1": "The better I perform the higher my bonus will be.", "Q2": "No, the amount of cash at each node of the web may be different each time.", "Q3": "To get the highest total score.", "Q4": "Only before moving the spider.", "Q5": "3 seconds"}, "trial_id": "mouselab_quiz_misaligned", "trial_type": "survey-multi-choice", "trial_index": 6, "time_elapsed": 435022, "internal_node_id": "0.0-2.0-4.0"}}, {"uniqueid": "w54189874:a66803353", "current_trial": 7, "dateTime": 1693660713420, "trialdata": {"success": true, "trial_type": "fullscreen", "trial_index": 7, "time_elapsed": 441508, "internal_node_id": "0.0-2.1-0.1-0.1"}}, {"uniqueid": "w54189874:a66803353", "current_trial": 8, "dateTime": 1693660721925, "trialdata": {"view_history": [{"page_index": 0, "viewing_time": 2704}, {"page_index": 1, "viewing_time": 1900}, {"page_index": 2, "viewing_time": 2675}, {"page_index": 3, "viewing_time": 1221}], "rt": 8500, "trial_id": "mouselab_instructions_1_misaligned", "trial_type": "instructions", "trial_index": 8, "time_elapsed": 450013, "internal_node_id": "0.0-2.1-1.1"}}, {"uniqueid": "w54189874:a66803353", "current_trial": 9, "dateTime": 1693660739324, "trialdata": {"revealed_states": [], "clicked_states": [], "num_clicks_accrued": [0, 0, 0, 0, 0, 0, 0, 0, 0, 0, 0, 0, 0], "stateRewards": ["", 10, -10, 10, 10, -10, 10, -10, -10, 10, 10, 10, 10, -10, 10, -10, 10, -10, 10, -10, 10, 10, 10, 10, -10, 10, -10, 10, 10, 10, -10, 10, -10, -10], "withholdReward": false, "trial_id": "practice_1", "block": "test", "trialIndex": 2, "score": 13.5, "costs": 0, "simulationMode": [null, null, null, null, null], "rewards": [10, -10, 10, -10, 10], "path": ["0", "0", "23", "24", "25", "26", "27"], "rt": [1193, 340, 538, 1453, 8352], "actions": ["left", "left", "left", "up", "up"], "actionTimes": [2571, 3423, 4471, 6419, 15285], "queries": {"click": {"state": {"target": [], "time": []}, "edge": {"target": [], "time": []}}, "mouseover": {"state": {"target": [], "time": []}, "edge": {"target": [], "time": []}}, "mouseout": {"state": {"target": ["22", "13", "12", "0", "24", "24", "24", "24", "24", "26"], "time": [379, 496, 779, 3481, 3950, 5314, 8680, 10164, 11381, 12280]}, "edge": {"target": [], "time": []}}}, "displayed_time": "15.78", "trialTime": 17111, "trial_type": "mouselab-mdp", "trial_index": 9, "time_elapsed": 467412, "internal_node_id": "0.0-2.1-2.1-0.1"}}, {"uniqueid": "w54189874:a66803353", "current_trial": 10, "dateTime": 1693660758711, "trialdata": {"revealed_states": [], "clicked_states": ["23", "24", "25", "26", "28"], "num_clicks_accrued": [0, 0, 0, 0, 0, 0, 0, 0, 0, 0, 0, 0, 0], "stateRewards": ["", 10, -10, 10, 10, -10, -10, 10, -10, 10, -10, 10, -10, 10, -10, -10, -10, -10, 10, -10, 10, 10, -10, -10, 10, -10, -10, -10, 10, 10, 10, -10, 10, 10], "withholdReward": false, "trial_id": "practice_2", "block": "test", "trialIndex": 3, "score": -9, "costs": -2.5, "simulationMode": [null, null, null, null, null], "rewards": [-10, 10, -10, -10, 10], "path": ["0", "0", "23", "24", "25", "26", "28"], "rt": [8237, 110, 2432, 2, 339], "actions": ["left", "left", "left", "up", "right"], "actionTimes": [11518, 12126, 15065, 15567, 16438], "queries": {"click": {"state": {"target": ["23", "24", "25", "26", "28"], "time": [3898, 5252, 6567, 7842, 9294]}, "edge": {"target": [], "time": []}}, "mouseover": {"state": {"target": ["23", "24", "25", "26", "28"], "time": [3753, 4413, 6182, 7397, 8613]}, "edge": {"target": [], "time": []}}, "mouseout": {"state": {"target": ["28", "23", "23", "24", "25", "26", "28", "28"], "time": [1213, 1312, 4019, 5384, 7113, 8397, 10148, 12836]}, "edge": {"target": [], "time": []}}}, "displayed_time": "16.93", "trialTime": 19081, "trial_type": "mouselab-mdp", "trial_index": 10, "time_elapsed": 486799, "internal_node_id": "0.0-2.1-2.1-1.1"}}, {"uniqueid": "w54189874:a66803353", "current_trial": 11, "dateTime": 1693660763798, "trialdata": {"view_history": [{"page_index": 0, "viewing_time": 3897}, {"page_index": 1, "viewing_time": 1185}], "rt": 5082, "trial_id": "mouselab_instructions_2_misaligned", "trial_type": "instructions", "trial_index": 11, "time_elapsed": 491886, "internal_node_id": "0.0-2.1-3.1"}}, {"uniqueid": "w54189874:a66803353", "current_trial": 12, "dateTime": 1693660984710, "trialdata": {"rt": 220907, "response": {"Q0": "The cost for clicking on nodes may vary between nodes.", "Q1": "The better I perform the higher my bonus will be.", "Q2": "No, the amount of cash at each node of the web may be different each time.", "Q3": "To get the highest total score.", "Q4": "Only before moving the spider.", "Q5": "3 seconds"}, "question_order": [0, 1, 2, 3, 4, 5], "correct": {"Q0": "The cost for clicking on nodes may vary between nodes.", "Q1": "The better I perform the higher my bonus will be.", "Q2": "No, the amount of cash at each node of the web may be different each time.", "Q3": "To get the highest total score.", "Q4": "Only before moving the spider.", "Q5": "3 seconds"}, "trial_id": "mouselab_quiz_misaligned", "trial_type": "survey-multi-choice", "trial_index": 12, "time_elapsed": 712798, "internal_node_id": "0.0-2.1-4.1"}}, {"uniqueid": "w54189874:a66803353", "current_trial": 13, "dateTime": 1693660989037, "trialdata": {"rt": 4317, "response": {"Q0": "No"}, "question_order": [0], "trial_id": "repeat_check", "trial_type": "survey-multi-choice", "trial_index": 13, "time_elapsed": 717125, "internal_node_id": "0.0-4.0-0.0"}}, {"uniqueid": "w54189874:a66803353", "current_trial": 14, "dateTime": 1693661045946, "trialdata": {"rt": 56896, "stimulus": "\n<h1> Get ready to start the game! </h1>\n\nThank you for reading the instructions. Get ready start with the 40 rounds of this game.\n<br><br>\nIf you need to take a break, feel free to take one after the end of a round, before continuing to the next one.\n<br><br>\nRemember, the more money the spider gets, the bigger your bonus will be!\n<br><br>\n<div style='text-align: center;'>Press <code>space</code> to begin.</div>\n\n<br><br>\n(If, at any point, the <code>space</code> key does not take you to the next page, click once on the text and try again.)", "response": " ", "trial_id": "mdp_ready", "trial_type": "html-keyboard-response", "trial_index": 14, "time_elapsed": 774034, "internal_node_id": "0.0-6.0-0.0"}}, {"uniqueid": "w54189874:a66803353", "current_trial": 15, "dateTime": 1693661068787, "trialdata": {"revealed_states": [], "clicked_states": ["23", "24", "25", "26", "27"], "num_clicks_accrued": [0, 0, 0, 0, 0, 0, 0, 0, 0, 0, 0, 0, 0], "stateRewards": ["", -2, -3, 8, -4, -30, 31, 69, 9, 66, 87, 64, -2, 2, 8, 5, 47, 16, -39, -8, -54, 51, -19, 1, -2, -2, -11, -25, -26, 43, -9, 19, -84, 86], "withholdReward": false, "trial_id": "mdp_trial_1", "block": "test", "trialIndex": 4, "score": -30.75, "costs": -4.75, "simulationMode": [null, null, null, null, null, null], "rewards": [-2, 2, 8, 5, -39], "path": ["0", "0", "12", "13", "14", "15", "18"], "rt": [9857, 718, 357, 177, 1543, 1264], "actions": ["right", "right", "right", "right", "up", "left"], "actionTimes": [12980, 13701, 14570, 15243, 17307, 19062], "queries": {"click": {"state": {"target": ["23", "24", "25", "26", "27"], "time": [3826, 5140, 6912, 9285, 10833]}, "edge": {"target": [], "time": []}}, "mouseover": {"state": {"target": ["23", "24", "25", "26", "29", "27", "1"], "time": [3596, 4412, 5802, 8862, 9696, 10595, 12029]}, "edge": {"target": [], "time": []}}, "mouseout": {"state": {"target": ["7", "1", "0", "23", "23", "24", "25", "24", "26", "29", "27", "1"], "time": [695, 778, 3279, 3912, 4330, 5712, 7382, 8512, 9611, 10329, 11096, 12245]}, "edge": {"target": [], "time": []}}}, "displayed_time": "19.58", "trialTime": 22547, "trial_type": "mouselab-mdp", "trial_index": 15, "time_elapsed": 796874, "internal_node_id": "0.0-6.0-1.0-0.0"}}, {"uniqueid": "w54189874:a66803353", "current_trial": 16, "dateTime": 1693661086480, "trialdata": {"revealed_states": [], "clicked_states": ["23", "24", "25"], "num_clicks_accrued": [0, 0, 0, 0, 0, 0, 0, 0, 0, 0, 0, 0, 0], "stateRewards": ["", -1, 1, 8, -3, -24, 11, -65, -6, -77, 48, 44, -2, 1, -2, -7, -55, -35, 33, 8, -28, 19, -53, -1, -1, -5, -5, -70, 10, 44, 8, -58, -70, 51], "withholdReward": false, "trial_id": "mdp_trial_2", "block": "test", "trialIndex": 5, "score": -83.05, "costs": -1.0499999999999998, "simulationMode": [null, null, null, null, null], "rewards": [-1, -1, -5, -5, -70], "path": ["0", "0", "23", "24", "25", "26", "27"], "rt": [8636, 117, 85, 864, 41], "actions": ["left", "left", "left", "up", "up"], "actionTimes": [10759, 11379, 11964, 13343, 13903], "queries": {"click": {"state": {"target": ["23", "24", "25"], "time": [4100, 5261, 6984]}, "edge": {"target": [], "time": []}}, "mouseover": {"state": {"target": ["1", "12", "23", "24", "25", "26", "28"], "time": [2843, 3360, 3943, 4628, 6443, 8344, 9843]}, "edge": {"target": [], "time": []}}, "mouseout": {"state": {"target": ["0", "0", "0", "1", "12", "23", "24", "25", "24", "26", "28"], "time": [698, 826, 2410, 3110, 3465, 4210, 5793, 7477, 7911, 9801, 9911]}, "edge": {"target": [], "time": []}}}, "displayed_time": "16.13", "trialTime": 17338, "trial_type": "mouselab-mdp", "trial_index": 16, "time_elapsed": 814567, "internal_node_id": "0.0-6.0-1.0-1.0"}}, {"uniqueid": "w54189874:a66803353", "current_trial": 17, "dateTime": 1693661110852, "trialdata": {"revealed_states": [], "clicked_states": ["1", "2", "10", "7"], "num_clicks_accrued": [0, 0, 0, 0, 0, 0, 0, 0, 0, 0, 0, 0, 0], "stateRewards": ["", 2, -4, -8, -15, 71, -43, -41, 7, -17, 20, 67, -1, -1, -4, 6, 37, -24, -47, 9, 34, 57, 45, 1, 2, -4, -5, -23, 88, -5, 13, -40, 43, 44], "withholdReward": false, "trial_id": "mdp_trial_3", "block": "test", "trialIndex": 6, "score": 12.6, "costs": -4.4, "simulationMode": [null, null, null, null, null, null], "rewards": [2, -4, -8, 7, 20], "path": ["0", "0", "1", "2", "3", "8", "10"], "rt": [8293, 2035, 81, 6798, 36, 14], "actions": ["up", "up", "up", "up", "left", "down"], "actionTimes": [11131, 13170, 13753, 21051, 21605, 22149], "queries": {"click": {"state": {"target": ["1", "2", "10", "7"], "time": [4604, 5432, 6272, 9800]}, "edge": {"target": [], "time": []}}, "mouseover": {"state": {"target": ["1", "2", "10", "8", "3", "7", "3"], "time": [3421, 4971, 6170, 6738, 7522, 7839, 12487]}, "edge": {"target": [], "time": []}}, "mouseout": {"state": {"target": ["0", "1", "2", "10", "8", "3", "7", "3", "2", "1"], "time": [3104, 4920, 5987, 6671, 7271, 7756, 10820, 12719, 16686, 18720]}, "edge": {"target": [], "time": []}}}, "displayed_time": "22.65", "trialTime": 24020, "trial_type": "mouselab-mdp", "trial_index": 17, "time_elapsed": 838939, "internal_node_id": "0.0-6.0-1.0-2.0"}}, {"uniqueid": "w54189874:a66803353", "current_trial": 18, "dateTime": 1693661128168, "trialdata": {"revealed_states": [], "clicked_states": ["1", "2", "3", "4", "8"], "num_clicks_accrued": [0, 0, 0, 0, 0, 0, 0, 0, 0, 0, 0, 0, 0], "stateRewards": ["", -2, -1, 3, -3, 71, -58, -21, 7, -10, -75, -37, 2, 4, -1, -12, -79, -29, -48, 3, -41, -10, -30, -1, -2, 1, -15, 13, 66, 22, -1, -42, -86, -55], "withholdReward": false, "trial_id": "mdp_trial_4", "block": "test", "trialIndex": 7, "score": -34.15, "costs": -4.1499999999999995, "simulationMode": [null, null, null, null, null], "rewards": [-2, -1, 3, 7, -37], "path": ["0", "0", "1", "2", "3", "8", "11"], "rt": [7785, 87, 82, 32, 417], "actions": ["up", "up", "up", "left", "left"], "actionTimes": [10048, 10642, 11221, 11755, 12706], "queries": {"click": {"state": {"target": ["1", "2", "3", "4", "8"], "time": [3233, 4342, 6231, 7861, 9021]}, "edge": {"target": [], "time": []}}, "mouseover": {"state": {"target": ["1", "2", "10", "3", "4", "8"], "time": [2686, 3953, 5539, 6068, 7402, 8770]}, "edge": {"target": [], "time": []}}, "mouseout": {"state": {"target": ["8", "0", "1", "2", "10", "3", "4", "8", "2"], "time": [1369, 2469, 3686, 5186, 5687, 6769, 8521, 9702, 13820]}, "edge": {"target": [], "time": []}}}, "displayed_time": "16.27", "trialTime": 16972, "trial_type": "mouselab-mdp", "trial_index": 18, "time_elapsed": 856255, "internal_node_id": "0.0-6.0-1.0-3.0"}}, {"uniqueid": "w54189874:a66803353", "current_trial": 19, "dateTime": 1693661146397, "trialdata": {"revealed_states": [], "clicked_states": ["12", "13", "14", "1", "2", "10", "3"], "num_clicks_accrued": [0, 0, 0, 0, 0, 0, 0, 0, 0, 0, 0, 0, 0], "stateRewards": ["", 1, 4, -4, 14, 35, 51, 19, -13, 54, 78, -74, -2, -1, -3, 13, -11, -42, -73, -15, -24, -3, -69, 2, -1, 5, 16, -27, 73, 58, 9, -60, 5, -60], "withholdReward": false, "trial_id": "mdp_trial_5", "block": "test", "trialIndex": 8, "score": 61.75, "costs": -4.25, "simulationMode": [null, null, null, null, null], "rewards": [1, 4, -4, -13, 78], "path": ["0", "0", "1", "2", "3", "8", "10"], "rt": [9901, 50, 68, 504, 23], "actions": ["up", "up", "up", "left", "down"], "actionTimes": [11207, 11758, 12357, 13376, 13912], "queries": {"click": {"state": {"target": ["12", "13", "14", "1", "2", "10", "3"], "time": [2347, 3395, 4046, 5325, 6103, 6962, 10044]}, "edge": {"target": [], "time": []}}, "mouseover": {"state": {"target": ["12", "13", "14", "15", "18", "1", "2", "10", "3"], "time": [2036, 3289, 3836, 4637, 4954, 5087, 5904, 6754, 7720]}, "edge": {"target": [], "time": []}}, "mouseout": {"state": {"target": ["2", "1", "12", "13", "14", "15", "18", "1", "2", "10", "3", "7"], "time": [652, 752, 3039, 3753, 4163, 4921, 4970, 5470, 6553, 7353, 11620, 17237]}, "edge": {"target": [], "time": []}}}, "displayed_time": "15.31", "trialTime": 17886, "trial_type": "mouselab-mdp", "trial_index": 19, "time_elapsed": 874485, "internal_node_id": "0.0-6.0-1.0-4.0"}}, {"uniqueid": "w54189874:a66803353", "current_trial": 20, "dateTime": 1693661163828, "trialdata": {"revealed_states": [], "clicked_states": ["1", "2", "3", "8", "11"], "num_clicks_accrued": [0, 0, 0, 0, 0, 0, 0, 0, 0, 0, 0, 0, 0], "stateRewards": ["", 1, -1, 4, 5, -32, 18, 20, 6, -88, -74, 9, -2, 1, -2, -14, 34, -77, -38, -1, 80, -36, 73, 2, 3, -8, 10, -48, -73, -71, -11, -22, 20, 54], "withholdReward": false, "trial_id": "mdp_trial_6", "block": "test", "trialIndex": 9, "score": 14.25, "costs": -4.75, "simulationMode": [null, null, null, null, null], "rewards": [1, -1, 4, 6, 9], "path": ["0", "0", "1", "2", "3", "8", "11"], "rt": [8930, 95, 54, 32, 365], "actions": ["up", "up", "up", "left", "left"], "actionTimes": [11361, 11977, 12536, 13064, 13947], "queries": {"click": {"state": {"target": ["1", "2", "3", "8", "11"], "time": [3993, 4738, 5961, 6994, 8001]}, "edge": {"target": [], "time": []}}, "mouseover": {"state": {"target": ["1", "2", "3", "8", "11", "10"], "time": [3561, 4428, 5698, 6629, 7661, 9128]}, "edge": {"target": [], "time": []}}, "mouseout": {"state": {"target": ["0", "0", "1", "2", "3", "8", "11", "8", "10"], "time": [1679, 3229, 4379, 5348, 6480, 7479, 8379, 8695, 16162]}, "edge": {"target": [], "time": []}}}, "displayed_time": "16.43", "trialTime": 17109, "trial_type": "mouselab-mdp", "trial_index": 20, "time_elapsed": 891915, "internal_node_id": "0.0-6.0-1.0-5.0"}}, {"uniqueid": "w54189874:a66803353", "current_trial": 21, "dateTime": 1693661184699, "trialdata": {"revealed_states": [], "clicked_states": ["1", "2", "3", "12", "13", "14", "15", "19", "24", "26", "28"], "num_clicks_accrued": [0, 0, 0, 0, 0, 0, 0, 0, 0, 0, 0, 0, 0], "stateRewards": ["", -1, -4, -3, 1, -45, -67, -24, 14, 32, 22, 22, -1, 1, -5, -7, 72, 84, -79, -5, 19, -40, -2, -1, -2, 8, -3, 84, -25, -28, 11, 64, -66, 77], "withholdReward": false, "trial_id": "mdp_trial_7", "block": "test", "trialIndex": 10, "score": 83.75, "costs": -9.249999999999998, "simulationMode": [null, null, null, null, null], "rewards": [-1, -2, 8, 11, 77], "path": ["0", "0", "23", "24", "25", "30", "33"], "rt": [14139, 168, 148, 47, 131], "actions": ["left", "left", "left", "down", "left"], "actionTimes": [16072, 16740, 17403, 17969, 18620], "queries": {"click": {"state": {"target": ["1", "2", "3", "12", "13", "14", "15", "19", "24", "26", "28"], "time": [3194, 4062, 4995, 6027, 6873, 7615, 8639, 9405, 10684, 11823, 12701]}, "edge": {"target": [], "time": []}}, "mouseover": {"state": {"target": ["1", "2", "3", "12", "13", "14", "15", "19", "22", "23", "24", "26", "28"], "time": [2437, 3619, 4770, 5837, 6686, 7437, 8504, 9203, 9972, 10338, 10554, 11654, 12203]}, "edge": {"target": [], "time": []}}, "mouseout": {"state": {"target": ["10", "1", "1", "2", "3", "12", "13", "14", "15", "14", "19", "22", "23", "24", "26", "26", "28"], "time": [1315, 1381, 3603, 4194, 5402, 6619, 7286, 8104, 9039, 9120, 9947, 10055, 10372, 11061, 11936, 12152, 13170]}, "edge": {"target": [], "time": []}}}, "displayed_time": "19.14", "trialTime": 20533, "trial_type": "mouselab-mdp", "trial_index": 21, "time_elapsed": 912786, "internal_node_id": "0.0-6.0-1.0-6.0"}}, {"uniqueid": "w54189874:a66803353", "current_trial": 22, "dateTime": 1693661201540, "trialdata": {"revealed_states": [], "clicked_states": ["23", "24", "27"], "num_clicks_accrued": [0, 0, 0, 0, 0, 0, 0, 0, 0, 0, 0, 0, 0], "stateRewards": ["", 2, -1, 5, 6, 10, 86, 55, 10, -45, 63, -71, 1, -2, 5, -8, -50, -72, 36, 15, 61, 12, 33, -1, -4, 6, 5, 79, -56, -21, -16, -87, 60, -81], "withholdReward": false, "trial_id": "mdp_trial_8", "block": "test", "trialIndex": 11, "score": 82.75, "costs": -2.25, "simulationMode": [null, null, null, null, null], "rewards": [-1, -4, 6, 5, 79], "path": ["0", "0", "23", "24", "25", "26", "27"], "rt": [8151, 234, 112, 142, 43], "actions": ["left", "left", "left", "up", "up"], "actionTimes": [9967, 10703, 11331, 11978, 12528], "queries": {"click": {"state": {"target": ["23", "24", "27"], "time": [3712, 4573, 6387]}, "edge": {"target": [], "time": []}}, "mouseover": {"state": {"target": ["23", "24", "25", "1", "27", "28"], "time": [3600, 4452, 5150, 5567, 6132, 7184]}, "edge": {"target": [], "time": []}}, "mouseout": {"state": {"target": ["0", "23", "24", "25", "1", "27"], "time": [2083, 4153, 5066, 5434, 5916, 6722]}, "edge": {"target": [], "time": []}}}, "displayed_time": "15.82", "trialTime": 16504, "trial_type": "mouselab-mdp", "trial_index": 22, "time_elapsed": 929627, "internal_node_id": "0.0-6.0-1.0-7.0"}}, {"uniqueid": "w54189874:a66803353", "current_trial": 23, "dateTime": 1693661220046, "trialdata": {"revealed_states": [], "clicked_states": ["27", "28", "31"], "num_clicks_accrued": [0, 0, 0, 0, 0, 0, 0, 0, 0, 0, 0, 0, 0], "stateRewards": ["", -1, -3, -3, 1, -38, 2, -53, -2, -1, -81, 70, -1, 1, -5, -9, 46, 15, 35, -1, -22, 38, 59, -2, 4, -8, 13, 1, -83, -43, 4, 76, 13, 48], "withholdReward": false, "trial_id": "mdp_trial_9", "block": "test", "trialIndex": 12, "score": 67.55, "costs": -6.449999999999999, "simulationMode": [null, null, null, null, null], "rewards": [-2, 4, -8, 4, 76], "path": ["0", "0", "23", "24", "25", "30", "31"], "rt": [11584, 138, 95, 21, 75], "actions": ["left", "left", "left", "down", "right"], "actionTimes": [13778, 14421, 15010, 15535, 16106], "queries": {"click": {"state": {"target": ["27", "28", "31"], "time": [3114, 6381, 10644]}, "edge": {"target": [], "time": []}}, "mouseover": {"state": {"target": ["28", "26", "27", "28", "26", "29", "29", "25", "30", "31"], "time": [2433, 2645, 2859, 4011, 6778, 6978, 8596, 9845, 10379, 10561]}, "edge": {"target": [], "time": []}}, "mouseout": {"state": {"target": ["28", "28", "26", "27", "28", "26", "29", "29", "25", "30", "31", "31"], "time": [1432, 2479, 2662, 3512, 6762, 6879, 8079, 9795, 9945, 10413, 10751, 11345]}, "edge": {"target": [], "time": []}}}, "displayed_time": "16.61", "trialTime": 18173, "trial_type": "mouselab-mdp", "trial_index": 23, "time_elapsed": 948134, "internal_node_id": "0.0-6.0-1.0-8.0"}}, {"uniqueid": "w54189874:a66803353", "current_trial": 24, "dateTime": 1693661237618, "trialdata": {"revealed_states": [], "clicked_states": ["23", "24", "25", "31", "33"], "num_clicks_accrued": [0, 0, 0, 0, 0, 0, 0, 0, 0, 0, 0, 0, 0], "stateRewards": ["", -2, -4, 2, 10, -17, 18, 73, 11, -32, 23, -13, -2, -4, 7, 12, -25, 66, -23, 15, 40, -76, -9, 1, 2, -7, -5, -20, 24, 3, -5, 16, -73, 70], "withholdReward": false, "trial_id": "mdp_trial_10", "block": "test", "trialIndex": 13, "score": 55.65, "costs": -5.35, "simulationMode": [null, null, null, null, null], "rewards": [1, 2, -7, -5, 70], "path": ["0", "0", "23", "24", "25", "30", "33"], "rt": [10279, 483, 306, 88, 56], "actions": ["left", "left", "left", "down", "left"], "actionTimes": [12297, 13320, 14187, 14766, 15316], "queries": {"click": {"state": {"target": ["23", "24", "25", "31", "33"], "time": [3219, 3939, 4630, 5855, 9113]}, "edge": {"target": [], "time": []}}, "mouseover": {"state": {"target": ["23", "24", "25", "30", "31", "28", "23", "30", "33"], "time": [3013, 3647, 4531, 5417, 5667, 6827, 8027, 8724, 8824]}, "edge": {"target": [], "time": []}}, "mouseout": {"state": {"target": ["0", "23", "23", "24", "25", "30", "31", "24", "28", "23", "31", "30", "33"], "time": [2280, 3278, 3548, 4314, 5098, 5483, 5967, 6458, 6861, 8127, 8701, 8774, 9525]}, "edge": {"target": [], "time": []}}}, "displayed_time": "16.02", "trialTime": 17230, "trial_type": "mouselab-mdp", "trial_index": 24, "time_elapsed": 965706, "internal_node_id": "0.0-6.0-1.0-9.0"}}, {"uniqueid": "w54189874:a66803353", "current_trial": 25, "dateTime": 1693661254222, "trialdata": {"revealed_states": [], "clicked_states": ["27", "31"], "num_clicks_accrued": [0, 0, 0, 0, 0, 0, 0, 0, 0, 0, 0, 0, 0], "stateRewards": ["", 2, 4, 7, 7, -79, -2, -21, -5, -53, 47, -21, 1, -3, -1, 7, 83, 7, 84, -7, 80, -37, 69, 2, -4, 5, 2, 4, -20, -30, 7, 71, 44, -81], "withholdReward": false, "trial_id": "mdp_trial_11", "block": "test", "trialIndex": 14, "score": 76.7, "costs": -4.3, "simulationMode": [null, null, null, null, null], "rewards": [2, -4, 5, 7, 71], "path": ["0", "0", "23", "24", "25", "30", "31"], "rt": [7707, 31, 140, 50, 56], "actions": ["left", "left", "left", "down", "right"], "actionTimes": [9166, 9705, 10364, 10921, 11495], "queries": {"click": {"state": {"target": ["27", "31"], "time": [2823, 5771]}, "edge": {"target": [], "time": []}}, "mouseover": {"state": {"target": ["23", "28", "27", "28", "23", "31", "30", "33"], "time": [1854, 2235, 2602, 3119, 3453, 4152, 6869, 7169]}, "edge": {"target": [], "time": []}}, "mouseout": {"state": {"target": ["0", "0", "23", "28", "27", "28", "23", "31", "31", "30", "33", "32"], "time": [1035, 1769, 2085, 2369, 3052, 3186, 3619, 5913, 6269, 7002, 9768, 12903]}, "edge": {"target": [], "time": []}}}, "displayed_time": "15.48", "trialTime": 16177, "trial_type": "mouselab-mdp", "trial_index": 25, "time_elapsed": 982309, "internal_node_id": "0.0-6.0-1.0-10.0"}}, {"uniqueid": "w54189874:a66803353", "current_trial": 26, "dateTime": 1693661273643, "trialdata": {"revealed_states": [], "clicked_states": ["31", "28", "27"], "num_clicks_accrued": [0, 0, 0, 0, 0, 0, 0, 0, 0, 0, 0, 0, 0], "stateRewards": ["", -2, 4, -7, -3, -76, 39, -28, 10, 14, 12, 60, 2, -3, 6, -10, 88, -34, -41, -3, 72, -13, -56, 1, 3, 2, 8, -51, 23, -57, 1, 14, -46, -16], "withholdReward": false, "trial_id": "mdp_trial_12", "block": "test", "trialIndex": 15, "score": 30.55, "costs": -6.449999999999999, "simulationMode": [null, null, null, null, null], "rewards": [1, 3, 2, 8, 23], "path": ["0", "0", "23", "24", "25", "26", "28"], "rt": [12200, 211, 53, 24, 25], "actions": ["left", "left", "left", "up", "right"], "actionTimes": [14505, 15209, 15783, 16302, 16854], "queries": {"click": {"state": {"target": ["31", "28", "27"], "time": [3641, 7039, 10886]}, "edge": {"target": [], "time": []}}, "mouseover": {"state": {"target": ["0", "23", "24", "31", "28", "28", "10", "2", "10", "27", "26", "29"], "time": [2504, 2976, 3192, 3327, 4126, 4694, 7593, 7626, 8829, 10710, 11544, 13859]}, "edge": {"target": [], "time": []}}, "mouseout": {"state": {"target": ["0", "0", "23", "24", "31", "28", "28", "10", "2", "10", "27", "26", "29", "33"], "time": [1875, 2560, 3149, 3243, 3992, 4143, 7089, 7610, 7645, 10493, 11510, 13776, 13944, 18077]}, "edge": {"target": [], "time": []}}}, "displayed_time": "17.35", "trialTime": 19074, "trial_type": "mouselab-mdp", "trial_index": 26, "time_elapsed": 1001731, "internal_node_id": "0.0-6.0-1.0-11.0"}}, {"uniqueid": "w54189874:a66803353", "current_trial": 27, "dateTime": 1693661293044, "trialdata": {"revealed_states": [], "clicked_states": ["18", "7", "16"], "num_clicks_accrued": [0, 0, 0, 0, 0, 0, 0, 0, 0, 0, 0, 0, 0], "stateRewards": ["", 2, -4, -4, 13, -80, 62, 13, -11, 57, -13, -44, 1, 4, 3, -4, -29, -88, 15, 16, -58, 68, -45, -1, -3, -1, -9, -44, -86, -19, -7, -36, 59, 66], "withholdReward": false, "trial_id": "mdp_trial_13", "block": "test", "trialIndex": 16, "score": 12.55, "costs": -6.449999999999999, "simulationMode": [null, null, null, null, null], "rewards": [1, 4, 3, -4, 15], "path": ["0", "0", "12", "13", "14", "15", "18"], "rt": [12238, 89, 160, 48, 23], "actions": ["right", "right", "right", "up", "left"], "actionTimes": [14115, 14697, 15351, 15923, 16464], "queries": {"click": {"state": {"target": ["18", "7", "16"], "time": [3111, 6637, 10531]}, "edge": {"target": [], "time": []}}, "mouseover": {"state": {"target": ["18", "15", "18", "1", "1", "7", "16"], "time": [2540, 2706, 2873, 3723, 5222, 6005, 10390]}, "edge": {"target": [], "time": []}}, "mouseout": {"state": {"target": ["32", "31", "0", "18", "15", "18", "1", "1", "7", "16", "16", "12"], "time": [1039, 1072, 2472, 2574, 2856, 3423, 3776, 5758, 7123, 10634, 10856, 18022]}, "edge": {"target": [], "time": []}}}, "displayed_time": "16.96", "trialTime": 19037, "trial_type": "mouselab-mdp", "trial_index": 27, "time_elapsed": 1021131, "internal_node_id": "0.0-6.0-1.0-12.0"}}, {"uniqueid": "w54189874:a66803353", "current_trial": 28, "dateTime": 1693661316841, "trialdata": {"revealed_states": [], "clicked_states": ["23", "29", "33", "10", "9"], "num_clicks_accrued": [0, 0, 0, 0, 0, 0, 0, 0, 0, 0, 0, 0, 0], "stateRewards": ["", 1, -2, 7, -14, 88, -56, -44, -14, 64, -51, -57, -2, 3, -4, -9, -11, 19, -77, -1, 68, 75, -67, -1, 1, -2, 5, -37, 70, -34, -10, -72, 63, -41], "withholdReward": false, "trial_id": "mdp_trial_14", "block": "test", "trialIndex": 17, "score": 47.65, "costs": -8.35, "simulationMode": [null, null, null, null, null], "rewards": [1, -2, 7, -14, 64], "path": ["0", "0", "1", "2", "3", "8", "9"], "rt": [17229, 164, 87, 107, 32], "actions": ["up", "up", "up", "left", "up"], "actionTimes": [19249, 19920, 20525, 21146, 21671], "queries": {"click": {"state": {"target": ["23", "29", "33", "10", "9"], "time": [3354, 5026, 8791, 12159, 16049]}, "edge": {"target": [], "time": []}}, "mouseover": {"state": {"target": ["23", "24", "26", "29", "25", "33", "30", "31", "10", "2", "2", "11", "9", "3", "4"], "time": [3152, 3736, 4271, 4355, 6053, 8285, 9303, 9352, 11170, 12635, 13069, 15485, 15786, 16770, 17052]}, "edge": {"target": [], "time": []}}, "mouseout": {"state": {"target": ["0", "23", "24", "26", "29", "25", "33", "30", "31", "10", "2", "2", "10", "11", "9", "9", "3", "4", "4"], "time": [2537, 3460, 3804, 4288, 5652, 6186, 9286, 9336, 9419, 12607, 12703, 13202, 13385, 15586, 16149, 16420, 16969, 19202, 22818]}, "edge": {"target": [], "time": []}}}, "displayed_time": "22.19", "trialTime": 23464, "trial_type": "mouselab-mdp", "trial_index": 28, "time_elapsed": 1044928, "internal_node_id": "0.0-6.0-1.0-13.0"}}, {"uniqueid": "w54189874:a66803353", "current_trial": 29, "dateTime": 1693661338024, "trialdata": {"revealed_states": [], "clicked_states": ["10", "28", "27", "29"], "num_clicks_accrued": [0, 0, 0, 0, 0, 0, 0, 0, 0, 0, 0, 0, 0], "stateRewards": ["", 2, -1, 3, -12, -83, 6, -33, 9, 28, 24, -50, -2, -1, -2, -5, -87, 37, 82, 12, 80, -5, 10, -2, -3, -6, 9, 22, -1, 16, 9, 77, -62, 58], "withholdReward": false, "trial_id": "mdp_trial_15", "block": "test", "trialIndex": 18, "score": 11.399999999999999, "costs": -8.6, "simulationMode": [null, null, null, null, null], "rewards": [-2, -3, -6, 9, 22], "path": ["0", "0", "23", "24", "25", "26", "27"], "rt": [16222, 4, 87, 102, 118], "actions": ["left", "left", "left", "up", "up"], "actionTimes": [17265, 17770, 18384, 19000, 19631], "queries": {"click": {"state": {"target": ["10", "28", "27", "29"], "time": [2364, 5987, 9931, 13880]}, "edge": {"target": [], "time": []}}, "mouseover": {"state": {"target": ["1", "10", "28", "27", "29"], "time": [1702, 2161, 4318, 6779, 13795]}, "edge": {"target": [], "time": []}}, "mouseout": {"state": {"target": ["1", "10", "28", "27", "29"], "time": [1994, 2911, 6068, 10429, 14019]}, "edge": {"target": [], "time": []}}}, "displayed_time": "20.15", "trialTime": 20806, "trial_type": "mouselab-mdp", "trial_index": 29, "time_elapsed": 1066111, "internal_node_id": "0.0-6.0-1.0-14.0"}}, {"uniqueid": "w54189874:a66803353", "current_trial": 30, "dateTime": 1693661355436, "trialdata": {"revealed_states": [], "clicked_states": ["32", "31", "10"], "num_clicks_accrued": [0, 0, 0, 0, 0, 0, 0, 0, 0, 0, 0, 0, 0], "stateRewards": ["", -2, 1, -7, 9, 8, 25, 61, -7, -17, 69, -81, 1, 4, -4, -11, 16, 67, 44, 3, 6, -45, -54, -2, 3, 6, -11, -15, 32, -47, 3, -39, -6, -88], "withholdReward": false, "trial_id": "mdp_trial_16", "block": "test", "trialIndex": 19, "score": 47.55, "costs": -6.449999999999999, "simulationMode": [null, null, null, null, null], "rewards": [-2, 1, -7, -7, 69], "path": ["0", "0", "1", "2", "3", "8", "10"], "rt": [10635, 93, 197, 41, 4], "actions": ["up", "up", "up", "left", "down"], "actionTimes": [12566, 13167, 13900, 14444, 14957], "queries": {"click": {"state": {"target": ["32", "31", "10"], "time": [2961, 6075, 9283]}, "edge": {"target": [], "time": []}}, "mouseover": {"state": {"target": ["31", "32", "31", "23", "1", "10", "28", "24", "31", "24", "28", "8", "10", "11"], "time": [2493, 2793, 3294, 3460, 3544, 3728, 4177, 4527, 4626, 6578, 6644, 7310, 7676, 10502]}, "edge": {"target": [], "time": []}}, "mouseout": {"state": {"target": ["23", "0", "31", "32", "31", "23", "1", "10", "28", "24", "31", "24", "28", "8", "10", "11", "23"], "time": [1343, 2150, 2660, 3051, 3344, 3511, 3695, 3877, 4393, 4576, 6494, 6611, 6693, 7360, 9904, 12950, 16334]}, "edge": {"target": [], "time": []}}}, "displayed_time": "15.94", "trialTime": 17033, "trial_type": "mouselab-mdp", "trial_index": 30, "time_elapsed": 1083523, "internal_node_id": "0.0-6.0-1.0-15.0"}}, {"uniqueid": "w54189874:a66803353", "current_trial": 31, "dateTime": 1693661378325, "trialdata": {"revealed_states": [], "clicked_states": ["10", "5", "16", "22"], "num_clicks_accrued": [0, 0, 0, 0, 0, 0, 0, 0, 0, 0, 0, 0, 0], "stateRewards": ["", -1, 3, -5, -2, -13, -9, -34, -7, -81, 32, 35, -2, -2, 1, -14, -32, 81, 7, 4, 82, 56, -8, -1, 3, -8, 6, -24, -24, -53, 2, 38, 61, 54], "withholdReward": false, "trial_id": "mdp_trial_17", "block": "test", "trialIndex": 20, "score": 13.399999999999999, "costs": -8.6, "simulationMode": [null, null, null, null, null], "rewards": [-1, 3, -5, -7, 32], "path": ["0", "0", "1", "2", "3", "8", "10"], "rt": [16181, 165, 87, 281, 163], "actions": ["up", "up", "up", "left", "down"], "actionTimes": [18274, 18942, 19547, 20341, 21024], "queries": {"click": {"state": {"target": ["10", "5", "16", "22"], "time": [3095, 6669, 10168, 14261]}, "edge": {"target": [], "time": []}}, "mouseover": {"state": {"target": ["1", "2", "10", "2", "6", "5", "4", "6", "16", "18", "18", "13", "22", "12", "1", "2"], "time": [2524, 2656, 2856, 3541, 4161, 4708, 7390, 7674, 9990, 10590, 13490, 13840, 14107, 14708, 18090, 18190]}, "edge": {"target": [], "time": []}}, "mouseout": {"state": {"target": ["1", "2", "10", "2", "6", "5", "4", "6", "16", "18", "18", "13", "22", "12", "1", "2", "1", "0"], "time": [2623, 2674, 3180, 3574, 4574, 7307, 7540, 7691, 10524, 10640, 13807, 13973, 14624, 14741, 18124, 21863, 21891, 21940]}, "edge": {"target": [], "time": []}}}, "displayed_time": "21.54", "trialTime": 22512, "trial_type": "mouselab-mdp", "trial_index": 31, "time_elapsed": 1106413, "internal_node_id": "0.0-6.0-1.0-16.0"}}, {"uniqueid": "w54189874:a66803353", "current_trial": 32, "dateTime": 1693661396151, "trialdata": {"revealed_states": [], "clicked_states": ["29", "10", "7"], "num_clicks_accrued": [0, 0, 0, 0, 0, 0, 0, 0, 0, 0, 0, 0, 0], "stateRewards": ["", -2, -3, 7, -13, 60, 9, 37, -6, 37, 20, 1, 2, -2, -8, 6, -80, -31, -10, -7, 70, -65, -44, -1, 1, 7, 6, -11, 73, -85, 16, -21, 47, 34], "withholdReward": false, "trial_id": "mdp_trial_18", "block": "test", "trialIndex": 21, "score": 19.55, "costs": -6.449999999999999, "simulationMode": [null, null, null, null, null], "rewards": [-2, -3, 7, -13, 37], "path": ["0", "0", "1", "2", "3", "4", "7"], "rt": [11970, 111, 80, 329, 142], "actions": ["up", "up", "up", "right", "down"], "actionTimes": [13597, 14210, 14812, 15661, 16310], "queries": {"click": {"state": {"target": ["29", "10", "7"], "time": [3150, 6748, 10317]}, "edge": {"target": [], "time": []}}, "mouseover": {"state": {"target": ["1", "28", "26", "29", "26", "28", "1", "10", "2", "7", "18", "15", "18"], "time": [1997, 2513, 2829, 2929, 5230, 5829, 5947, 6545, 7547, 7862, 10830, 11000, 12329]}, "edge": {"target": [], "time": []}}, "mouseout": {"state": {"target": ["1", "28", "26", "29", "29", "26", "28", "1", "10", "2", "7", "18", "15"], "time": [2130, 2805, 2862, 3221, 5197, 5531, 5896, 5962, 7463, 7781, 10814, 10880, 11564]}, "edge": {"target": [], "time": []}}}, "displayed_time": "16.83", "trialTime": 17460, "trial_type": "mouselab-mdp", "trial_index": 32, "time_elapsed": 1124238, "internal_node_id": "0.0-6.0-1.0-17.0"}}, {"uniqueid": "w54189874:a66803353", "current_trial": 33, "dateTime": 1693661412995, "trialdata": {"revealed_states": [], "clicked_states": ["18", "10"], "num_clicks_accrued": [0, 0, 0, 0, 0, 0, 0, 0, 0, 0, 0, 0, 0], "stateRewards": ["", -1, -2, -1, -10, -57, 73, -72, -16, 75, -14, -46, -2, -3, -7, -1, -61, -60, 76, -4, 50, 4, 14, 2, 2, -7, 12, -65, -32, 15, -8, -76, -25, -61], "withholdReward": false, "trial_id": "mdp_trial_19", "block": "test", "trialIndex": 22, "score": 58.7, "costs": -4.3, "simulationMode": [null, null, null, null, null, null], "rewards": [-2, -3, -7, -1, 76], "path": ["0", "0", "12", "13", "14", "15", "18"], "rt": [5335, 2597, 33, 91, 45, 142], "actions": ["right", "right", "right", "right", "up", "left"], "actionTimes": [7198, 9795, 10408, 11029, 11598, 12278], "queries": {"click": {"state": {"target": ["18", "10"], "time": [3182, 6676]}, "edge": {"target": [], "time": []}}, "mouseover": {"state": {"target": ["12", "13", "18", "10"], "time": [2200, 2435, 3051, 4155]}, "edge": {"target": [], "time": []}}, "mouseout": {"state": {"target": ["18", "12", "0", "12", "13", "18", "10", "12"], "time": [837, 1351, 2198, 2302, 2852, 3690, 7288, 14383]}, "edge": {"target": [], "time": []}}}, "displayed_time": "15.87", "trialTime": 16493, "trial_type": "mouselab-mdp", "trial_index": 33, "time_elapsed": 1141083, "internal_node_id": "0.0-6.0-1.0-18.0"}}, {"uniqueid": "w54189874:a66803353", "current_trial": 34, "dateTime": 1693661430453, "trialdata": {"revealed_states": [], "clicked_states": ["18", "28", "11"], "num_clicks_accrued": [0, 0, 0, 0, 0, 0, 0, 0, 0, 0, 0, 0, 0], "stateRewards": ["", 1, -2, -8, -13, 4, 34, -84, -4, -49, 88, -70, -1, 3, -4, 10, -77, 13, -34, 15, -21, -16, 27, 1, -2, 8, -8, -6, 38, -26, 6, -15, 66, -3], "withholdReward": false, "trial_id": "mdp_trial_20", "block": "test", "trialIndex": 23, "score": 30.55, "costs": -6.449999999999999, "simulationMode": [null, null, null, null, null], "rewards": [1, -2, 8, -8, 38], "path": ["0", "0", "23", "24", "25", "26", "28"], "rt": [11841, 4, 32, 36, 4], "actions": ["left", "left", "left", "up", "right"], "actionTimes": [13385, 13890, 14452, 15004, 15522], "queries": {"click": {"state": {"target": ["18", "28", "11"], "time": [2450, 6431, 10047]}, "edge": {"target": [], "time": []}}, "mouseover": {"state": {"target": ["12", "18", "1", "28", "10", "11"], "time": [1800, 2333, 6083, 6232, 8783, 9199]}, "edge": {"target": [], "time": []}}, "mouseout": {"state": {"target": ["0", "12", "18", "1", "28", "10", "11"], "time": [1782, 1850, 2852, 6116, 8667, 8800, 10516]}, "edge": {"target": [], "time": []}}}, "displayed_time": "16.04", "trialTime": 17069, "trial_type": "mouselab-mdp", "trial_index": 34, "time_elapsed": 1158540, "internal_node_id": "0.0-6.0-1.0-19.0"}}, {"uniqueid": "w54189874:a66803353", "current_trial": 35, "dateTime": 1693661447284, "trialdata": {"revealed_states": [], "clicked_states": ["29", "31"], "num_clicks_accrued": [0, 0, 0, 0, 0, 0, 0, 0, 0, 0, 0, 0, 0], "stateRewards": ["", 2, 3, -3, 12, -43, 81, -82, -15, 58, -7, -75, -1, -1, 3, -5, 50, -25, -8, 4, 66, 65, -66, 2, -4, 2, -1, -10, 10, 37, 11, 88, -37, 8], "withholdReward": false, "trial_id": "mdp_trial_21", "block": "test", "trialIndex": 24, "score": 94.7, "costs": -4.3, "simulationMode": [null, null, null, null, null], "rewards": [2, -4, 2, 11, 88], "path": ["0", "0", "23", "24", "25", "30", "31"], "rt": [7875, 98, 76, 14, 61], "actions": ["left", "left", "left", "down", "right"], "actionTimes": [9659, 10256, 10851, 11371, 11952], "queries": {"click": {"state": {"target": ["29", "31"], "time": [2821, 6482]}, "edge": {"target": [], "time": []}}, "mouseover": {"state": {"target": ["23", "24", "29", "26", "24", "31"], "time": [1905, 2139, 2807, 3239, 3389, 4039]}, "edge": {"target": [], "time": []}}, "mouseout": {"state": {"target": ["23", "24", "29", "26", "24", "31"], "time": [2055, 2305, 3157, 3290, 3940, 6555]}, "edge": {"target": [], "time": []}}}, "displayed_time": "15.79", "trialTime": 16455, "trial_type": "mouselab-mdp", "trial_index": 35, "time_elapsed": 1175371, "internal_node_id": "0.0-6.0-1.0-20.0"}}, {"uniqueid": "w54189874:a66803353", "current_trial": 36, "dateTime": 1693661466861, "trialdata": {"revealed_states": [], "clicked_states": ["31", "28", "16"], "num_clicks_accrued": [0, 0, 0, 0, 0, 0, 0, 0, 0, 0, 0, 0, 0], "stateRewards": ["", -1, 2, 5, -6, 13, -64, -47, 8, -79, -80, -33, 1, 2, -2, -16, 56, -71, -10, 3, 29, 44, 85, -1, 4, 5, 4, -36, -56, 19, 8, 52, -13, -2], "withholdReward": false, "trial_id": "mdp_trial_22", "block": "test", "trialIndex": 25, "score": 34.55, "costs": -6.449999999999999, "simulationMode": [null, null, null, null, null], "rewards": [1, 2, -2, -16, 56], "path": ["0", "0", "12", "13", "14", "15", "16"], "rt": [12819, 198, 20, 26, 103], "actions": ["right", "right", "right", "up", "up"], "actionTimes": [14409, 15099, 15620, 16161, 16787], "queries": {"click": {"state": {"target": ["31", "28", "16"], "time": [2944, 6827, 10092]}, "edge": {"target": [], "time": []}}, "mouseover": {"state": {"target": ["23", "24", "31", "23", "28", "1", "16", "18"], "time": [2265, 2448, 2731, 3434, 6465, 7349, 8864, 10598]}, "edge": {"target": [], "time": []}}, "mouseout": {"state": {"target": ["0", "23", "24", "31", "23", "28", "1", "16", "18"], "time": [2214, 2398, 2665, 3024, 3547, 7184, 7482, 10566, 10631]}, "edge": {"target": [], "time": []}}}, "displayed_time": "17.29", "trialTime": 19190, "trial_type": "mouselab-mdp", "trial_index": 36, "time_elapsed": 1194948, "internal_node_id": "0.0-6.0-1.0-21.0"}}, {"uniqueid": "w54189874:a66803353", "current_trial": 37, "dateTime": 1693661484354, "trialdata": {"revealed_states": [], "clicked_states": ["18", "16"], "num_clicks_accrued": [0, 0, 0, 0, 0, 0, 0, 0, 0, 0, 0, 0, 0], "stateRewards": ["", 1, -2, -8, -3, 31, -84, -55, -14, 15, -58, 17, -2, -3, 7, 7, -12, 48, 67, 4, -44, -68, 46, 2, 3, -5, -7, 76, 27, 5, 11, 57, 52, 59], "withholdReward": false, "trial_id": "mdp_trial_23", "block": "test", "trialIndex": 26, "score": 71.7, "costs": -4.3, "simulationMode": [null, null, null, null, null], "rewards": [-2, -3, 7, 7, 67], "path": ["0", "0", "12", "13", "14", "15", "18"], "rt": [9713, 6, 65, 273, 22], "actions": ["right", "right", "right", "up", "left"], "actionTimes": [12158, 12679, 13255, 14046, 14561], "queries": {"click": {"state": {"target": ["18", "16"], "time": [4305, 8344]}, "edge": {"target": [], "time": []}}, "mouseover": {"state": {"target": ["1", "18", "7", "16"], "time": [2820, 4219, 5020, 8103]}, "edge": {"target": [], "time": []}}, "mouseout": {"state": {"target": ["0", "1", "18", "18", "7", "16"], "time": [2703, 2853, 4413, 4686, 7704, 8405]}, "edge": {"target": [], "time": []}}}, "displayed_time": "16.45", "trialTime": 17104, "trial_type": "mouselab-mdp", "trial_index": 37, "time_elapsed": 1212442, "internal_node_id": "0.0-6.0-1.0-22.0"}}, {"uniqueid": "w54189874:a66803353", "current_trial": 38, "dateTime": 1693661502184, "trialdata": {"revealed_states": [], "clicked_states": ["29", "11"], "num_clicks_accrued": [0, 0, 0, 0, 0, 0, 0, 0, 0, 0, 0, 0, 0], "stateRewards": ["", -1, 2, -7, -12, -62, 12, -13, 5, 77, -71, 83, 1, -4, 7, 15, -42, -87, -4, 5, -25, 44, 88, -1, 4, -5, -8, 14, 51, 8, -5, 83, -24, -19], "withholdReward": false, "trial_id": "mdp_trial_24", "block": "test", "trialIndex": 27, "score": 77.7, "costs": -4.3, "simulationMode": [null, null, null, null, null], "rewards": [-1, 2, -7, 5, 83], "path": ["0", "0", "1", "2", "3", "8", "11"], "rt": [8112, 35, 42, 126, 131], "actions": ["up", "up", "up", "left", "left"], "actionTimes": [10444, 10997, 11574, 12205, 12843], "queries": {"click": {"state": {"target": ["29", "11"], "time": [3486, 6960]}, "edge": {"target": [], "time": []}}, "mouseover": {"state": {"target": ["28", "26", "29", "26", "28", "11", "9", "6", "4"], "time": [2977, 3076, 3309, 3809, 4060, 5592, 7326, 8834, 10359]}, "edge": {"target": [], "time": []}}, "mouseout": {"state": {"target": ["0", "28", "26", "29", "26", "28", "11", "9", "6", "4", "5"], "time": [2401, 3009, 3209, 3605, 3909, 4318, 7031, 7359, 10316, 11526, 11660]}, "edge": {"target": [], "time": []}}}, "displayed_time": "16.33", "trialTime": 17440, "trial_type": "mouselab-mdp", "trial_index": 38, "time_elapsed": 1230272, "internal_node_id": "0.0-6.0-1.0-23.0"}}, {"uniqueid": "w54189874:a66803353", "current_trial": 39, "dateTime": 1693661549501, "trialdata": {"revealed_states": [], "clicked_states": ["16", "10", "29", "31", "22", "18", "7", "5", "6"], "num_clicks_accrued": [0, 0, 0, 0, 0, 0, 0, 0, 0, 0, 0, 0, 0], "stateRewards": ["", -2, 1, -8, 12, -65, -79, 16, 7, -80, -17, -45, -2, 2, -5, -2, -85, 23, -4, -7, 48, 27, -76, 2, 3, 5, 2, 43, 71, -13, 7, -49, 59, -31], "withholdReward": false, "trial_id": "mdp_trial_25", "block": "test", "trialIndex": 28, "score": -101.35, "costs": -19.349999999999998, "simulationMode": [null, null, null, null, null], "rewards": [-2, 1, -8, 7, -80], "path": ["0", "0", "1", "2", "3", "8", "9"], "rt": [39050, 187, 52, 82, 23], "actions": ["up", "up", "up", "left", "up"], "actionTimes": [41178, 41879, 42427, 43040, 43564], "queries": {"click": {"state": {"target": ["16", "10", "29", "31", "22", "18", "7", "5", "6"], "time": [3072, 7177, 11226, 14872, 19504, 24461, 29135, 34111, 37688]}, "edge": {"target": [], "time": []}}, "mouseover": {"state": {"target": ["12", "18", "16", "7", "2", "8", "10", "28", "26", "29", "25", "31", "19", "22", "14", "18", "7", "2", "4", "4", "4", "5", "6"], "time": [2191, 2655, 2789, 6606, 6639, 6689, 6956, 10772, 10855, 11088, 14455, 14721, 19172, 19288, 23688, 24006, 29052, 32739, 32806, 32989, 33106, 33473, 37523]}, "edge": {"target": [], "time": []}}, "mouseout": {"state": {"target": ["3", "2", "1", "0", "12", "18", "16", "7", "2", "8", "10", "28", "26", "29", "25", "31", "19", "22", "14", "18", "7", "7", "2", "4", "4", "4", "5", "5", "6", "6", "16"], "time": [1221, 1254, 1288, 2145, 2289, 2672, 3356, 6622, 6656, 6839, 10707, 10789, 10972, 14422, 14505, 18839, 19223, 23290, 23790, 28591, 29246, 32506, 32755, 32839, 33005, 33305, 34182, 34306, 37796, 37940, 46389]}, "edge": {"target": [], "time": []}}}, "displayed_time": "44.09", "trialTime": 46853, "trial_type": "mouselab-mdp", "trial_index": 39, "time_elapsed": 1277588, "internal_node_id": "0.0-6.0-1.0-24.0"}}, {"uniqueid": "w54189874:a66803353", "current_trial": 40, "dateTime": 1693661566483, "trialdata": {"revealed_states": [], "clicked_states": ["28", "11"], "num_clicks_accrued": [0, 0, 0, 0, 0, 0, 0, 0, 0, 0, 0, 0, 0], "stateRewards": ["", -2, 4, -5, -12, 85, -24, -18, -15, -78, -22, 26, -1, -1, 2, 14, -45, 52, -23, 7, -33, 24, -6, -2, -4, 5, -7, -16, 36, -39, 5, 71, -87, -23], "withholdReward": false, "trial_id": "mdp_trial_26", "block": "test", "trialIndex": 29, "score": 23.7, "costs": -4.3, "simulationMode": [null, null, null, null, null], "rewards": [-2, -4, 5, -7, 36], "path": ["0", "0", "23", "24", "25", "26", "28"], "rt": [8581, 7, 164, 171, 136], "actions": ["left", "left", "left", "up", "right"], "actionTimes": [10288, 10804, 11498, 12175, 12823], "queries": {"click": {"state": {"target": ["28", "11"], "time": [2648, 6720]}, "edge": {"target": [], "time": []}}, "mouseover": {"state": {"target": ["28", "28", "27", "11", "10"], "time": [2101, 2517, 4617, 6435, 6968]}, "edge": {"target": [], "time": []}}, "mouseout": {"state": {"target": ["28", "28", "28", "27", "11", "10", "10", "0"], "time": [2133, 2967, 4101, 4885, 6951, 6984, 13901, 14035]}, "edge": {"target": [], "time": []}}}, "displayed_time": "15.72", "trialTime": 16580, "trial_type": "mouselab-mdp", "trial_index": 40, "time_elapsed": 1294571, "internal_node_id": "0.0-6.0-1.0-25.0"}}, {"uniqueid": "w54189874:a66803353", "current_trial": 41, "dateTime": 1693661589167, "trialdata": {"revealed_states": [], "clicked_states": ["29", "31", "18", "7"], "num_clicks_accrued": [0, 0, 0, 0, 0, 0, 0, 0, 0, 0, 0, 0, 0], "stateRewards": ["", 2, -1, 5, 8, 75, -35, -77, 1, -9, -81, -58, 1, 2, -7, 5, 77, -16, 19, 16, -10, -18, 40, -2, 3, 7, -5, 64, 1, -62, 10, 27, 10, 65], "withholdReward": false, "trial_id": "mdp_trial_27", "block": "test", "trialIndex": 30, "score": 36.4, "costs": -8.6, "simulationMode": [null, null, null, null, null], "rewards": [-2, 3, 7, 10, 27], "path": ["0", "0", "23", "24", "25", "30", "31"], "rt": [15896, 86, 158, 471, 5], "actions": ["left", "left", "left", "down", "right"], "actionTimes": [17559, 18142, 18798, 19776, 20288], "queries": {"click": {"state": {"target": ["29", "31", "18", "7"], "time": [2718, 5973, 9354, 14275]}, "edge": {"target": [], "time": []}}, "mouseover": {"state": {"target": ["28", "26", "29", "26", "24", "31", "12", "18", "18", "7", "12"], "time": [1917, 2317, 2567, 2967, 5068, 5732, 8084, 8300, 8739, 14117, 14635]}, "edge": {"target": [], "time": []}}, "mouseout": {"state": {"target": ["12", "28", "26", "29", "26", "24", "31", "12", "18", "18", "7", "12", "12"], "time": [1182, 2266, 2483, 2950, 3001, 5183, 6059, 8117, 8317, 9617, 14484, 14851, 21581]}, "edge": {"target": [], "time": []}}}, "displayed_time": "20.80", "trialTime": 22247, "trial_type": "mouselab-mdp", "trial_index": 41, "time_elapsed": 1317254, "internal_node_id": "0.0-6.0-1.0-26.0"}}, {"uniqueid": "w54189874:a66803353", "current_trial": 42, "dateTime": 1693661605635, "trialdata": {"revealed_states": [], "clicked_states": ["31", "28"], "num_clicks_accrued": [0, 0, 0, 0, 0, 0, 0, 0, 0, 0, 0, 0, 0], "stateRewards": ["", 2, -1, -1, 7, 11, -40, -22, -2, 69, 37, 8, -2, 4, -8, -12, -2, -72, -3, -12, 17, 63, 12, 1, 3, -7, 6, 25, 61, 61, -9, 28, -17, 27], "withholdReward": false, "trial_id": "mdp_trial_28", "block": "test", "trialIndex": 31, "score": 59.7, "costs": -4.3, "simulationMode": [null, null, null, null, null], "rewards": [1, 3, -7, 6, 61], "path": ["0", "0", "23", "24", "25", "26", "28"], "rt": [8122, 128, 6, 299, 19], "actions": ["left", "left", "left", "up", "right"], "actionTimes": [9375, 10005, 10532, 11360, 11911], "queries": {"click": {"state": {"target": ["31", "28"], "time": [2208, 5541]}, "edge": {"target": [], "time": []}}, "mouseover": {"state": {"target": ["23", "24", "31", "23", "28", "1", "10", "10", "6"], "time": [1508, 1741, 2058, 4641, 5257, 5825, 6925, 7826, 8461]}, "edge": {"target": [], "time": []}}, "mouseout": {"state": {"target": ["0", "23", "24", "31", "23", "28", "1", "10", "10", "6", "12"], "time": [1457, 1673, 1941, 2424, 4674, 5743, 6792, 7008, 7908, 8923, 14908]}, "edge": {"target": [], "time": []}}}, "displayed_time": "15.26", "trialTime": 16057, "trial_type": "mouselab-mdp", "trial_index": 42, "time_elapsed": 1333722, "internal_node_id": "0.0-6.0-1.0-27.0"}}, {"uniqueid": "w54189874:a66803353", "current_trial": 43, "dateTime": 1693661626992, "trialdata": {"revealed_states": [], "clicked_states": ["28", "16", "18", "5"], "num_clicks_accrued": [0, 0, 0, 0, 0, 0, 0, 0, 0, 0, 0, 0, 0], "stateRewards": ["", 1, -3, -6, -5, 47, 80, -29, 11, -71, 10, -29, -2, 3, -6, 12, 2, -78, -6, 8, 34, -16, -5, -1, 3, 3, -13, 84, -36, -62, -3, -27, 66, 15], "withholdReward": false, "trial_id": "mdp_trial_29", "block": "test", "trialIndex": 32, "score": 25.4, "costs": -8.6, "simulationMode": [null, null, null, null, null], "rewards": [1, -3, -6, -5, 47], "path": ["0", "0", "1", "2", "3", "4", "5"], "rt": [15068, 101, 120, 303, 143], "actions": ["up", "up", "up", "right", "up"], "actionTimes": [16466, 17074, 17690, 18507, 19164], "queries": {"click": {"state": {"target": ["28", "16", "18", "5"], "time": [2313, 5498, 8866, 12585]}, "edge": {"target": [], "time": []}}, "mouseover": {"state": {"target": ["23", "24", "28", "1", "16", "16", "7", "18", "2", "6", "5", "4", "16", "16"], "time": [1535, 1985, 2134, 2685, 3122, 3804, 6335, 8801, 9186, 11371, 12317, 12901, 13987, 15371]}, "edge": {"target": [], "time": []}}, "mouseout": {"state": {"target": ["0", "23", "24", "28", "1", "16", "16", "16", "7", "18", "2", "6", "5", "4", "16", "16"], "time": [1511, 1918, 2068, 2552, 2752, 3453, 5578, 5935, 6869, 8953, 9219, 12200, 12885, 12918, 14454, 15451]}, "edge": {"target": [], "time": []}}}, "displayed_time": "19.67", "trialTime": 20893, "trial_type": "mouselab-mdp", "trial_index": 43, "time_elapsed": 1355080, "internal_node_id": "0.0-6.0-1.0-28.0"}}, {"uniqueid": "w54189874:a66803353", "current_trial": 44, "dateTime": 1693661644386, "trialdata": {"revealed_states": [], "clicked_states": ["9", "11", "10"], "num_clicks_accrued": [0, 0, 0, 0, 0, 0, 0, 0, 0, 0, 0, 0, 0], "stateRewards": ["", 1, 1, 7, -11, 80, -20, -53, -14, 3, 31, 27, 2, -1, -8, -10, 33, 41, 86, 9, 78, -37, -13, -1, -2, -6, -8, -80, 75, 4, -16, -49, -74, 24], "withholdReward": false, "trial_id": "mdp_trial_30", "block": "test", "trialIndex": 33, "score": 19.55, "costs": -6.449999999999999, "simulationMode": [null, null, null, null, null], "rewards": [1, 1, 7, -14, 31], "path": ["0", "0", "1", "2", "3", "8", "10"], "rt": [11463, 69, 45, 6, 4], "actions": ["up", "up", "up", "left", "down"], "actionTimes": [12888, 13459, 14015, 14527, 15059], "queries": {"click": {"state": {"target": ["9", "11", "10"], "time": [3227, 6444, 9804]}, "edge": {"target": [], "time": []}}, "mouseover": {"state": {"target": ["9", "11", "10", "2", "1"], "time": [3137, 4053, 7303, 10086, 10270]}, "edge": {"target": [], "time": []}}, "mouseout": {"state": {"target": ["1", "9", "11", "11", "10", "2", "1", "0"], "time": [968, 3636, 6515, 6753, 9913, 10120, 10320, 16738]}, "edge": {"target": [], "time": []}}}, "displayed_time": "15.59", "trialTime": 16953, "trial_type": "mouselab-mdp", "trial_index": 44, "time_elapsed": 1372473, "internal_node_id": "0.0-6.0-1.0-29.0"}}, {"uniqueid": "w54189874:a66803353", "current_trial": 45, "dateTime": 1693661670150, "trialdata": {"revealed_states": [], "clicked_states": ["31", "32", "27", "28"], "num_clicks_accrued": [0, 0, 0, 0, 0, 0, 0, 0, 0, 0, 0, 0, 0], "stateRewards": ["", -2, -3, 1, -7, 39, -67, 16, 5, -20, 73, 66, -1, 4, 5, -3, 23, -68, -87, -8, 3, -3, 17, 1, -4, -2, -13, -32, 34, 61, -5, -11, -18, 12], "withholdReward": false, "trial_id": "mdp_trial_31", "block": "test", "trialIndex": 34, "score": 7.399999999999999, "costs": -8.6, "simulationMode": [null, null, null, null, null], "rewards": [1, -4, -2, -13, 34], "path": ["0", "0", "23", "24", "25", "26", "28"], "rt": [17555, 133, 92, 47, 18], "actions": ["left", "left", "left", "up", "right"], "actionTimes": [19054, 19684, 20276, 20826, 21362], "queries": {"click": {"state": {"target": ["31", "32", "27", "28"], "time": [2448, 5977, 10382, 15450]}, "edge": {"target": [], "time": []}}, "mouseover": {"state": {"target": ["23", "24", "31", "32", "25", "26", "27", "27", "28", "28"], "time": [1521, 1911, 2342, 5825, 9526, 9576, 9726, 10247, 15011, 15326]}, "edge": {"target": [], "time": []}}, "mouseout": {"state": {"target": ["0", "1", "0", "23", "24", "31", "31", "32", "25", "26", "27", "27", "28", "28", "23"], "time": [519, 875, 1518, 1538, 2108, 2536, 5692, 9383, 9560, 9643, 9859, 14977, 15060, 15759, 23343]}, "edge": {"target": [], "time": []}}}, "displayed_time": "21.89", "trialTime": 25324, "trial_type": "mouselab-mdp", "trial_index": 45, "time_elapsed": 1398237, "internal_node_id": "0.0-6.0-1.0-30.0"}}, {"uniqueid": "w54189874:a66803353", "current_trial": 46, "dateTime": 1693661687634, "trialdata": {"revealed_states": [], "clicked_states": ["17", "18", "7"], "num_clicks_accrued": [0, 0, 0, 0, 0, 0, 0, 0, 0, 0, 0, 0, 0], "stateRewards": ["", -2, 4, -3, -13, 63, -36, 62, 11, 78, 34, -51, 2, -2, 8, -6, -40, -18, 31, 9, 64, 39, 79, 1, 4, -4, 15, -12, 76, 73, -10, -77, 86, -4], "withholdReward": false, "trial_id": "mdp_trial_32", "block": "test", "trialIndex": 35, "score": 41.55, "costs": -6.449999999999999, "simulationMode": [null, null, null, null, null], "rewards": [-2, 4, -3, -13, 62], "path": ["0", "0", "1", "2", "3", "4", "7"], "rt": [11150, 20, 180, 44, 70], "actions": ["up", "up", "up", "right", "down"], "actionTimes": [12960, 13483, 14178, 14739, 15300], "queries": {"click": {"state": {"target": ["17", "18", "7"], "time": [2873, 6399, 9777]}, "edge": {"target": [], "time": []}}, "mouseover": {"state": {"target": ["18", "17", "15", "18", "7", "18", "7", "6", "7"], "time": [2330, 2759, 3159, 3195, 5293, 6259, 8186, 8303, 9393]}, "edge": {"target": [], "time": []}}, "mouseout": {"state": {"target": ["0", "0", "0", "18", "17", "15", "18", "7", "18", "7", "6", "7"], "time": [599, 1275, 1869, 2409, 3143, 3193, 3227, 5359, 6502, 8219, 8385, 9985]}, "edge": {"target": [], "time": []}}}, "displayed_time": "15.81", "trialTime": 17009, "trial_type": "mouselab-mdp", "trial_index": 46, "time_elapsed": 1415722, "internal_node_id": "0.0-6.0-1.0-31.0"}}, {"uniqueid": "w54189874:a66803353", "current_trial": 47, "dateTime": 1693661703952, "trialdata": {"revealed_states": [], "clicked_states": ["27"], "num_clicks_accrued": [0, 0, 0, 0, 0, 0, 0, 0, 0, 0, 0, 0, 0], "stateRewards": ["", -1, -3, 1, 13, -64, -29, 12, -4, -33, 50, 56, 2, -3, 4, 11, -64, -58, -55, 12, 47, 38, -25, -2, 2, 5, -15, 85, 7, 84, 10, 8, 57, 26], "withholdReward": false, "trial_id": "mdp_trial_33", "block": "test", "trialIndex": 36, "score": 72.85, "costs": -2.15, "simulationMode": [null, null, null, null, null], "rewards": [-2, 2, 5, -15, 85], "path": ["0", "0", "23", "24", "25", "26", "27"], "rt": [5293, 110, 83, 190, 83], "actions": ["left", "left", "left", "up", "up"], "actionTimes": [6809, 7420, 8005, 8712, 9288], "queries": {"click": {"state": {"target": ["27"], "time": [2879]}, "edge": {"target": [], "time": []}}, "mouseover": {"state": {"target": ["28", "27"], "time": [2353, 2752]}, "edge": {"target": [], "time": []}}, "mouseout": {"state": {"target": ["28", "27"], "time": [2403, 3055]}, "edge": {"target": [], "time": []}}}, "displayed_time": "15.52", "trialTime": 15870, "trial_type": "mouselab-mdp", "trial_index": 47, "time_elapsed": 1432040, "internal_node_id": "0.0-6.0-1.0-32.0"}}, {"uniqueid": "w54189874:a66803353", "current_trial": 48, "dateTime": 1693661720494, "trialdata": {"revealed_states": [], "clicked_states": ["27", "28"], "num_clicks_accrued": [0, 0, 0, 0, 0, 0, 0, 0, 0, 0, 0, 0, 0], "stateRewards": ["", 2, 4, 4, 9, -88, -10, 44, 16, -54, 64, 78, 1, 2, 5, 16, 80, 36, 7, -4, 9, -47, -70, -1, -3, 6, -16, 11, 80, 28, 8, -1, 34, -17], "withholdReward": false, "trial_id": "mdp_trial_34", "block": "test", "trialIndex": 37, "score": 61.7, "costs": -4.3, "simulationMode": [null, null, null, null, null], "rewards": [-1, -3, 6, -16, 80], "path": ["0", "0", "23", "24", "25", "26", "28"], "rt": [8682, 21, 123, 83, 90], "actions": ["left", "left", "left", "up", "right"], "actionTimes": [10396, 10923, 11558, 12150, 12741], "queries": {"click": {"state": {"target": ["27", "28"], "time": [2932, 6624]}, "edge": {"target": [], "time": []}}, "mouseover": {"state": {"target": ["27", "28", "28", "1", "7", "16"], "time": [2564, 3198, 6447, 7514, 7681, 9581]}, "edge": {"target": [], "time": []}}, "mouseout": {"state": {"target": ["0", "27", "28", "28", "1", "7", "16", "18"], "time": [1859, 3165, 3216, 6831, 7532, 7730, 9864, 14068]}, "edge": {"target": [], "time": []}}}, "displayed_time": "15.73", "trialTime": 16018, "trial_type": "mouselab-mdp", "trial_index": 48, "time_elapsed": 1448581, "internal_node_id": "0.0-6.0-1.0-33.0"}}, {"uniqueid": "w54189874:a66803353", "current_trial": 49, "dateTime": 1693661737211, "trialdata": {"revealed_states": [], "clicked_states": ["27"], "num_clicks_accrued": [0, 0, 0, 0, 0, 0, 0, 0, 0, 0, 0, 0, 0], "stateRewards": ["", 2, 3, 8, 11, 25, -80, 6, -4, -56, 84, -23, -2, -4, -3, 4, -51, -9, -61, -15, -64, 67, -35, 1, -1, -7, -6, 83, 59, -15, 12, -79, 56, 41], "withholdReward": false, "trial_id": "mdp_trial_35", "block": "test", "trialIndex": 38, "score": 67.85, "costs": -2.15, "simulationMode": [null, null, null, null, null], "rewards": [1, -1, -7, -6, 83], "path": ["0", "0", "23", "24", "25", "26", "27"], "rt": [4672, 109, 100, 201, 121], "actions": ["left", "left", "left", "up", "up"], "actionTimes": [6526, 7151, 7759, 8477, 9080], "queries": {"click": {"state": {"target": ["27"], "time": [2698]}, "edge": {"target": [], "time": []}}, "mouseover": {"state": {"target": ["27", "28"], "time": [2557, 4608]}, "edge": {"target": [], "time": []}}, "mouseout": {"state": {"target": ["0", "0", "27", "28", "0", "1"], "time": [1339, 1491, 2924, 6158, 13524, 14090]}, "edge": {"target": [], "time": []}}}, "displayed_time": "15.86", "trialTime": 16260, "trial_type": "mouselab-mdp", "trial_index": 49, "time_elapsed": 1465298, "internal_node_id": "0.0-6.0-1.0-34.0"}}, {"uniqueid": "w54189874:a66803353", "current_trial": 50, "dateTime": 1693661777269, "trialdata": {"revealed_states": [], "clicked_states": ["27", "16", "28", "29", "31", "33", "9", "11", "10"], "num_clicks_accrued": [0, 0, 0, 0, 0, 0, 0, 0, 0, 0, 0, 0, 0], "stateRewards": ["", -1, -2, 4, 9, 10, -75, 39, 16, -43, 88, -19, -1, 1, 2, 4, -31, 10, 73, 12, 41, -64, -81, -2, 2, -6, 1, -81, -1, -26, 3, -59, -3, -20], "withholdReward": false, "trial_id": "mdp_trial_36", "block": "test", "trialIndex": 39, "score": 85.65, "costs": -19.349999999999998, "simulationMode": [null, null, null, null, null], "rewards": [-1, -2, 4, 16, 88], "path": ["0", "0", "1", "2", "3", "8", "10"], "rt": [33344, 43, 7, 8, 7], "actions": ["up", "up", "up", "left", "down"], "actionTimes": [35450, 36016, 36562, 37095, 37612], "queries": {"click": {"state": {"target": ["27", "16", "28", "29", "31", "33", "9", "11", "10"], "time": [2911, 7006, 10241, 13424, 16680, 20199, 24240, 27896, 31445]}, "edge": {"target": [], "time": []}}, "mouseover": {"state": {"target": ["28", "27", "10", "10", "2", "4", "6", "16", "7", "2", "28", "26", "29", "29", "33", "31", "33", "30", "23", "1", "2", "2", "9", "3", "4", "2", "7", "2", "11", "10", "1", "10", "2", "13"], "time": [2388, 2787, 3154, 4338, 6373, 6422, 6508, 6889, 7257, 8405, 9423, 10773, 11222, 11838, 13808, 14774, 20006, 20409, 20525, 20906, 20972, 21672, 23905, 24572, 24889, 25825, 26258, 27556, 27773, 28173, 28323, 31269, 31768, 34021]}, "edge": {"target": [], "time": []}}, "mouseout": {"state": {"target": ["1", "0", "28", "27", "10", "10", "2", "4", "6", "16", "7", "2", "28", "26", "29", "29", "33", "31", "33", "30", "23", "1", "2", "2", "9", "3", "4", "2", "7", "2", "11", "10", "1", "10", "2", "13"], "time": [1521, 1804, 2432, 3012, 3188, 4755, 6388, 6472, 6605, 7082, 8389, 8438, 10740, 10823, 11373, 13756, 14275, 16956, 20406, 20426, 20551, 20939, 21040, 21805, 24539, 24823, 25055, 26125, 26575, 27589, 28123, 28191, 28506, 31735, 31785, 34464]}, "edge": {"target": [], "time": []}}}, "displayed_time": "38.12", "trialTime": 39602, "trial_type": "mouselab-mdp", "trial_index": 50, "time_elapsed": 1505357, "internal_node_id": "0.0-6.0-1.0-35.0"}}, {"uniqueid": "w54189874:a66803353", "current_trial": 51, "dateTime": 1693661807112, "trialdata": {"revealed_states": [], "clicked_states": ["9", "10", "18", "16", "11", "27", "28"], "num_clicks_accrued": [0, 0, 0, 0, 0, 0, 0, 0, 0, 0, 0, 0, 0], "stateRewards": ["", 1, 2, -6, -13, -51, 22, -4, -12, -44, -12, 6, -2, -2, -2, -14, -46, -4, -77, -2, 36, -79, 41, 2, -4, 2, -6, -55, 59, 70, -5, 39, -19, 24], "withholdReward": false, "trial_id": "mdp_trial_37", "block": "test", "trialIndex": 40, "score": 37.95, "costs": -15.05, "simulationMode": [null, null, null, null, null], "rewards": [2, -4, 2, -6, 59], "path": ["0", "0", "23", "24", "25", "26", "28"], "rt": [24218, 126, 140, 6, 13], "actions": ["left", "left", "left", "up", "right"], "actionTimes": [25430, 26090, 26728, 27229, 27769], "queries": {"click": {"state": {"target": ["9", "10", "18", "16", "11", "27", "28"], "time": [2298, 5472, 8612, 11783, 14953, 18235, 21489]}, "edge": {"target": [], "time": []}}, "mouseover": {"state": {"target": ["1", "2", "2", "3", "8", "9", "4", "6", "7", "2", "10", "1", "18", "16", "4", "3", "8", "11", "10", "28", "26", "29", "27", "27", "28", "26", "29"], "time": [1452, 1520, 1780, 1820, 1869, 2103, 2637, 3102, 3386, 3854, 4686, 6321, 7020, 11004, 12070, 12089, 12553, 12987, 15503, 15553, 15603, 16172, 16837, 17420, 21075, 22504, 24053]}, "edge": {"target": [], "time": []}}, "mouseout": {"state": {"target": ["22", "12", "0", "1", "2", "2", "3", "8", "9", "4", "6", "7", "2", "10", "1", "18", "16", "4", "3", "8", "11", "11", "10", "28", "26", "29", "27", "27", "28", "28", "26", "29", "26", "28"], "time": [686, 785, 1403, 1503, 1553, 1792, 1835, 1886, 2537, 2669, 3153, 3453, 3919, 5804, 6353, 8700, 11846, 12087, 12128, 12571, 15019, 15303, 15519, 15570, 16103, 16387, 17187, 18554, 21788, 22437, 22953, 24737, 28620, 28670]}, "edge": {"target": [], "time": []}}}, "displayed_time": "28.30", "trialTime": 29279, "trial_type": "mouselab-mdp", "trial_index": 51, "time_elapsed": 1535199, "internal_node_id": "0.0-6.0-1.0-36.0"}}, {"uniqueid": "w54189874:a66803353", "current_trial": 52, "dateTime": 1693661823471, "trialdata": {"revealed_states": [], "clicked_states": ["28", "31"], "num_clicks_accrued": [0, 0, 0, 0, 0, 0, 0, 0, 0, 0, 0, 0, 0], "stateRewards": ["", -2, -1, -4, -15, -14, -67, 32, -3, -59, 63, 31, 2, -1, -7, -15, 71, -66, -27, -3, -54, -39, 72, 2, 1, 1, -13, 77, -40, 35, -9, 35, 75, 57], "withholdReward": false, "trial_id": "mdp_trial_38", "block": "test", "trialIndex": 41, "score": 25.7, "costs": -4.3, "simulationMode": [null, null, null, null, null], "rewards": [2, 1, 1, -9, 35], "path": ["0", "0", "23", "24", "25", "30", "31"], "rt": [7794, 64, 11, 633, 30], "actions": ["left", "left", "left", "down", "right"], "actionTimes": [9290, 9866, 10394, 11550, 12081], "queries": {"click": {"state": {"target": ["28", "31"], "time": [2189, 5428]}, "edge": {"target": [], "time": []}}, "mouseover": {"state": {"target": ["28", "24", "31", "22", "22"], "time": [2065, 4748, 5316, 7549, 8333]}, "edge": {"target": [], "time": []}}, "mouseout": {"state": {"target": ["0", "28", "28", "24", "31", "22", "22"], "time": [1684, 2264, 2499, 5116, 5616, 8016, 8815]}, "edge": {"target": [], "time": []}}}, "displayed_time": "15.51", "trialTime": 15831, "trial_type": "mouselab-mdp", "trial_index": 52, "time_elapsed": 1551558, "internal_node_id": "0.0-6.0-1.0-37.0"}}, {"uniqueid": "w54189874:a66803353", "current_trial": 53, "dateTime": 1693661841135, "trialdata": {"revealed_states": [], "clicked_states": ["31", "33", "32"], "num_clicks_accrued": [0, 0, 0, 0, 0, 0, 0, 0, 0, 0, 0, 0, 0], "stateRewards": ["", 2, -3, 5, 11, -79, 54, 11, -9, -78, 33, 22, -2, -1, 2, 14, 43, 34, 1, 10, 49, -65, 39, -1, 1, -1, 3, -16, -2, 11, 2, 12, 48, -65], "withholdReward": false, "trial_id": "mdp_trial_39", "block": "test", "trialIndex": 42, "score": 42.55, "costs": -6.449999999999999, "simulationMode": [null, null, null, null, null], "rewards": [-1, 1, -1, 2, 48], "path": ["0", "0", "23", "24", "25", "30", "32"], "rt": [11627, 177, 46, 9, 95], "actions": ["left", "left", "left", "down", "down"], "actionTimes": [13150, 13826, 14393, 14922, 15539], "queries": {"click": {"state": {"target": ["31", "33", "32"], "time": [2504, 5930, 9283]}, "edge": {"target": [], "time": []}}, "mouseover": {"state": {"target": ["23", "24", "31", "30", "33", "30", "24", "32", "24", "28"], "time": [1824, 2192, 2393, 5394, 5778, 6178, 6962, 9195, 10377, 10529]}, "edge": {"target": [], "time": []}}, "mouseout": {"state": {"target": ["0", "23", "24", "31", "31", "30", "33", "33", "30", "31", "24", "31", "32", "24", "28", "23"], "time": [1822, 2109, 2297, 2709, 5362, 5745, 6004, 6163, 6195, 6246, 7175, 8612, 9479, 10445, 10645, 16445]}, "edge": {"target": [], "time": []}}}, "displayed_time": "16.05", "trialTime": 17190, "trial_type": "mouselab-mdp", "trial_index": 53, "time_elapsed": 1569222, "internal_node_id": "0.0-6.0-1.0-38.0"}}, {"uniqueid": "w54189874:a66803353", "current_trial": 54, "dateTime": 1693661860753, "trialdata": {"revealed_states": [], "clicked_states": ["31"], "num_clicks_accrued": [0, 0, 0, 0, 0, 0, 0, 0, 0, 0, 0, 0, 0], "stateRewards": ["", 2, -1, 1, 10, -52, 86, -22, -2, -14, -63, 38, 1, 3, 7, -8, 11, -32, -27, 9, -71, 40, -87, -2, -1, 5, -7, 12, 31, -57, 13, 86, -58, 29], "withholdReward": false, "trial_id": "mdp_trial_40", "block": "test", "trialIndex": 43, "score": 98.85, "costs": -2.15, "simulationMode": [null, null, null, null, null], "rewards": [-2, -1, 5, 13, 86], "path": ["0", "0", "23", "24", "25", "30", "31"], "rt": [5354, 52, 41, 7, 7], "actions": ["left", "left", "left", "down", "right"], "actionTimes": [7078, 7624, 8196, 8712, 9246], "queries": {"click": {"state": {"target": ["31"], "time": [3202]}, "edge": {"target": [], "time": []}}, "mouseover": {"state": {"target": ["0", "31", "31", "30", "32"], "time": [2441, 2569, 2985, 3822, 5489]}, "edge": {"target": [], "time": []}}, "mouseout": {"state": {"target": ["0", "0", "31", "31", "30", "32"], "time": [964, 2486, 2653, 3739, 4205, 6520]}, "edge": {"target": [], "time": []}}}, "displayed_time": "15.73", "trialTime": 19115, "trial_type": "mouselab-mdp", "trial_index": 54, "time_elapsed": 1588840, "internal_node_id": "0.0-6.0-1.0-39.0"}}, {"uniqueid": "w54189874:a66803353", "current_trial": 55, "dateTime": 1693661906870, "trialdata": {"rt": 46110, "response": {"Q0": "$-2 to $2", "Q1": "$-32 to $32", "Q2": "$-88 to $88", "Q3": "The cost for clicking on nodes varied between nodes.", "Q4": "Very motivated"}, "question_order": [0, 1, 2, 3, 4], "trial_id": "final_quiz_control", "trial_type": "survey-multi-choice", "trial_index": 55, "time_elapsed": 1634957, "internal_node_id": "0.0-6.0-2.0"}}, {"uniqueid": "w54189874:a66803353", "current_trial": 56, "dateTime": 1693661997524, "trialdata": {"rt": 90644, "response": {"Q0": "i decided to only use the node inspector for the final, 5th step as that was where the most money was", "Q1": "yes, i began by using the node inspector for the first 3 steps, but this didnt help me win the larger sums which was reliant on knowing the final, fifth step", "Q2": "i found it relatively easy"}, "trial_id": "self_report_control", "trial_type": "survey-text", "trial_index": 56, "time_elapsed": 1725612, "internal_node_id": "0.0-6.0-3.0"}}, {"uniqueid": "w54189874:a66803353", "current_trial": 57, "dateTime": 1693662062831, "trialdata": {"rt": 65305, "response": {"Q0": "Disagree", "Q1": "Strongly disagree", "Q2": "Strongly disagree", "Q3": "Strongly agree", "Q4": "Strongly disagree", "Q5": "Neither disagree nor agree", "Q6": "Strongly disagree"}, "question_order": [0, 1, 2, 3, 4, 5, 6], "trial_id": "self_report_2", "trial_type": "survey-multi-choice", "trial_index": 57, "time_elapsed": 1790918, "internal_node_id": "0.0-6.0-4.0"}}, {"uniqueid": "w54189874:a66803353", "current_trial": 58, "dateTime": 1693662075280, "trialdata": {"rt": 12440, "response": {"gender": "male", "age": "22", "colorblind": "0", "effort": "0"}, "trial_type": "survey-html-form", "trial_index": 58, "time_elapsed": 1803368, "internal_node_id": "0.0-6.0-5.0"}}, {"uniqueid": "w54189874:a66803353", "current_trial": 59, "dateTime": 1693662082914, "trialdata": {"rt": 7626, "response": {"Q0": "no", "Q1": "no", "Q2": ""}, "trial_type": "survey-text", "trial_index": 59, "time_elapsed": 1811002, "internal_node_id": "0.0-6.0-6.0"}}, {"uniqueid": "w54189874:a66803353", "current_trial": 60, "dateTime": 1693662119505, "trialdata": {"rt": 36583, "stimulus": "<h1>Completion Code Instructions (1/2)</h1>\n<br><br><br><br>\nYou have reached the end of the experiment! The completion code consists of two parts: (1) a code with 2 characters (2) a code with 6 characters. On this page, you will receive the second part of the code. The first part of the completion code will be on the next page.\n<br><br>\nThe second part of your completion code is: <b>EWEK22</b>\n<br><br>\nPlease note this down. Then, press 'Next' in order to find the first part of your completion code. Once the data has been saved, you will receive this code either in this window or in the original browser window where you started the experiment.\n <br><br>\n<h2 style='color: red;'>Note: this is <strong>NOT</strong> the full completion code. Copy this down and click 'Next' to get the full completion code on the next page.</h2>", "response": 0, "trial_type": "html-button-response", "trial_index": 60, "time_elapsed": 1847593, "internal_node_id": "0.0-6.0-7.0"}}, {"uniqueid": "w54189874:a66803353", "current_trial": 61, "dateTime": 1693662120512, "trialdata": {"success": true, "trial_type": "fullscreen", "trial_index": 61, "time_elapsed": 1848600, "internal_node_id": "0.0-7.0"}}], "questiondata": {"params": {"CODE": "C6DMOQA6", "MIN_TIME": 14, "inspectCost": 1, "startTime": "Sat Sep 02 2023 14:11:11 GMT+0100 (British Summer Time)", "bonusRate": 0.002, "variance": "1_2_4_8_44", "branching": "31123"}, "final_score": 1463.05}, "eventdata": [{"eventtype": "initialized", "value": null, "timestamp": 1693660270780, "interval": 0}, {"eventtype": "window_resize", "value": [1032, 600], "timestamp": 1693660270780, "interval": 0}, {"eventtype": "window_resize", "value": [1032, 600], "timestamp": 1693660271101, "interval": 321}, {"eventtype": "window_resize", "value": [1280, 720], "timestamp": 1693660275150, "interval": 4049}, {"eventtype": "focus", "value": "off", "timestamp": 1693660709651, "interval": 434501}, {"eventtype": "focus", "value": "on", "timestamp": 1693660709651, "interval": 0}, {"eventtype": "window_resize", "value": [1032, 600], "timestamp": 1693660709864, "interval": 213}, {"eventtype": "window_resize", "value": [1280, 614], "timestamp": 1693660711886, "interval": 2022}, {"eventtype": "window_resize", "value": [1280, 720], "timestamp": 1693660712645, "interval": 759}, {"eventtype": "window_resize", "value": [1280, 614], "timestamp": 1693662119754, "interval": 1407109}], "useragent": "Mozilla/5.0 (Windows NT 10.0; Win64; x64) AppleWebKit/537.36 (KHTML, like Gecko) Chrome/116.0.0.0 Safari/537.36", "mode": "live", "id": "w54189874:a66803353", "status": "user data saved", "Beginhit": "2023-09-02 13:11:06.072267", "Beginexp": "2023-09-02 13:11:13.180382", "Endhit": "2023-09-02 13:41:58.366185", "psiturkStatus": 3, "browser": "<redacted>", "platform": "windows", "language": "en-GB"}