{"condition": 0, "counterbalance": 0, "assignmentId": "a29438719", "workerId": "w80892394", "hitId": "h61364338", "currenttrial": 11, "bonus": 0, "data": [{"uniqueid": "w80892394:a29438719", "current_trial": 0, "dateTime": 1691140805313, "trialdata": {"success": true, "trial_type": "fullscreen", "trial_index": 0, "time_elapsed": 1877, "internal_node_id": "0.0-0.0"}}, {"uniqueid": "w80892394:a29438719", "current_trial": 1, "dateTime": 1691140807319, "trialdata": {"view_history": [{"page_index": 0, "viewing_time": 2002}], "rt": 2003, "trial_id": "exp_instructions_control", "trial_type": "instructions", "trial_index": 1, "time_elapsed": 3884, "internal_node_id": "0.0-1.0"}}, {"uniqueid": "w80892394:a29438719", "current_trial": 2, "dateTime": 1691140809509, "trialdata": {"success": true, "trial_type": "fullscreen", "trial_index": 2, "time_elapsed": 6074, "internal_node_id": "0.0-2.0-0.0"}}, {"uniqueid": "w80892394:a29438719", "current_trial": 3, "dateTime": 1691140813721, "trialdata": {"view_history": [{"page_index": 0, "viewing_time": 1567}, {"page_index": 1, "viewing_time": 874}, {"page_index": 2, "viewing_time": 624}, {"page_index": 3, "viewing_time": 1146}], "rt": 4211, "trial_id": "mouselab_instructions_1_control", "trial_type": "instructions", "trial_index": 3, "time_elapsed": 10286, "internal_node_id": "0.0-2.0-1.0"}}, {"uniqueid": "w80892394:a29438719", "current_trial": 4, "dateTime": 1691140819196, "trialdata": {"revealed_states": [], "clicked_states": [], "num_clicks_accrued": [0, 0, 0, 0, 0, 0, 0, 0, 0, 0, 0, 0, 0], "stateRewards": ["", 10, -10, -10, -10, -10, 10, -10, -10, -10, 10, 10, -10, -10, -10, 10, -10, -10, 10, -10, -10, -10, -10, 10, -10, 10, -10, -10, 10, 10, 10, -10, -10, -10], "withholdReward": false, "trial_id": "practice_1", "block": "test", "trialIndex": 0, "score": -46.5, "costs": 0, "simulationMode": [null, null, null, null, null], "rewards": [-10, -10, -10, -10, -10], "path": ["0", "0", "12", "13", "14", "19", "21"], "rt": [927, 264, 90, 96, 161], "actions": ["right", "right", "right", "down", "down"], "actionTimes": [1659, 2442, 3051, 3658, 4338], "queries": {"click": {"state": {"target": [], "time": []}, "edge": {"target": [], "time": []}}, "mouseover": {"state": {"target": [], "time": []}, "edge": {"target": [], "time": []}}, "mouseout": {"state": {"target": ["0"], "time": [810]}, "edge": {"target": [], "time": []}}}, "displayed_time": "4.86", "trialTime": 5050, "trial_type": "mouselab-mdp", "trial_index": 4, "time_elapsed": 15761, "internal_node_id": "0.0-2.0-2.0-0.0"}}, {"uniqueid": "w80892394:a29438719", "current_trial": 5, "dateTime": 1691140825083, "trialdata": {"revealed_states": [], "clicked_states": [], "num_clicks_accrued": [0, 0, 0, 0, 0, 0, 0, 0, 0, 0, 0, 0, 0], "stateRewards": ["", 10, -10, 10, 10, 10, 10, 10, -10, 10, -10, -10, -10, 10, -10, 10, 10, 10, 10, 10, -10, -10, 10, -10, 10, -10, -10, 10, 10, -10, 10, -10, -10, -10], "withholdReward": false, "trial_id": "practice_2", "block": "test", "trialIndex": 1, "score": 13.5, "costs": 0, "simulationMode": [null, null, null, null, null], "rewards": [-10, 10, -10, 10, 10], "path": ["0", "0", "12", "13", "14", "15", "16"], "rt": [589, 144, 2, 167, 31], "actions": ["right", "right", "right", "up", "up"], "actionTimes": [2403, 3067, 3578, 4275, 4818], "queries": {"click": {"state": {"target": [], "time": []}, "edge": {"target": [], "time": []}}, "mouseover": {"state": {"target": [], "time": []}, "edge": {"target": [], "time": []}}, "mouseout": {"state": {"target": [], "time": []}, "edge": {"target": [], "time": []}}}, "displayed_time": "5.34", "trialTime": 5538, "trial_type": "mouselab-mdp", "trial_index": 5, "time_elapsed": 21648, "internal_node_id": "0.0-2.0-2.0-1.0"}}, {"uniqueid": "w80892394:a29438719", "current_trial": 6, "dateTime": 1691140828558, "trialdata": {"view_history": [{"page_index": 0, "viewing_time": 2120}, {"page_index": 1, "viewing_time": 1353}], "rt": 3473, "trial_id": "mouselab_instructions_2_control", "trial_type": "instructions", "trial_index": 6, "time_elapsed": 25123, "internal_node_id": "0.0-2.0-3.0"}}, {"uniqueid": "w80892394:a29438719", "current_trial": 7, "dateTime": 1691140836789, "trialdata": {"rt": 8228, "response": {"Q0": "The cost for clicking on nodes may vary between nodes.", "Q1": "The better I perform the higher my bonus will be.", "Q2": "No, the amount of cash at each node of the web may be different each time.", "Q3": "To get the highest total score.", "Q4": "Only before moving the spider.", "Q5": "3 seconds"}, "question_order": [0, 1, 2, 3, 4, 5], "correct": {"Q0": "The cost for clicking on nodes may vary between nodes.", "Q1": "The better I perform the higher my bonus will be.", "Q2": "No, the amount of cash at each node of the web may be different each time.", "Q3": "To get the highest total score.", "Q4": "Only before moving the spider.", "Q5": "3 seconds"}, "trial_id": "mouselab_quiz_control", "trial_type": "survey-multi-choice", "trial_index": 7, "time_elapsed": 33354, "internal_node_id": "0.0-2.0-4.0"}}, {"uniqueid": "w80892394:a29438719", "current_trial": 8, "dateTime": 1691140838279, "trialdata": {"rt": 1481, "stimulus": "\n<h1> Get ready to start the game! </h1>\n\nThank you for reading the instructions. Get ready start with the 40 rounds of this game.\n<br><br>\nIf you need to take a break, feel free to take one after the end of a round, before continuing to the next one.\n<br><br>\nRemember, the more money the spider gets, the bigger your bonus will be!\n<br><br>\n<div style='text-align: center;'>Press <code>space</code> to begin.</div>\n\n<br><br>\n(If, at any point, the <code>space</code> key does not take you to the next page, click once on the text and try again.)", "response": " ", "trial_id": "mdp_ready", "trial_type": "html-keyboard-response", "trial_index": 8, "time_elapsed": 34844, "internal_node_id": "0.0-4.0-0.0"}}, {"uniqueid": "w80892394:a29438719", "current_trial": 9, "dateTime": 1691140855185, "trialdata": {"revealed_states": [], "clicked_states": [], "num_clicks_accrued": [0, 0, 0, 0, 0, 0, 0, 0, 0, 0, 0, 0, 0], "stateRewards": ["", 2, 4, 4, 9, -88, -10, 44, 16, -54, 64, 78, 1, 2, 5, 16, 80, 36, 7, -4, 9, -47, -70, -1, -3, 6, -16, 11, 80, 28, 8, -1, 34, -17], "withholdReward": false, "trial_id": "mdp_trial_1", "block": "test", "trialIndex": 2, "score": -3, "costs": 0, "simulationMode": [null, null, null, null, null], "rewards": [-1, -3, 6, -16, 11], "path": ["0", "0", "23", "24", "25", "26", "27"], "rt": [1172, 2, 82, 2642, 60], "actions": ["left", "left", "left", "up", "up"], "actionTimes": [1719, 2236, 2847, 6008, 6589], "queries": {"click": {"state": {"target": [], "time": []}, "edge": {"target": [], "time": []}}, "mouseover": {"state": {"target": [], "time": []}, "edge": {"target": [], "time": []}}, "mouseout": {"state": {"target": ["4", "2", "1", "0", "12"], "time": [96, 215, 296, 3830, 7877]}, "edge": {"target": [], "time": []}}}, "displayed_time": "14.55", "trialTime": 16623, "trial_type": "mouselab-mdp", "trial_index": 9, "time_elapsed": 51749, "internal_node_id": "0.0-4.0-1.0-0.0"}}, {"uniqueid": "w80892394:a29438719", "current_trial": 10, "dateTime": 1691140872667, "trialdata": {"revealed_states": [], "clicked_states": ["12", "13", "18"], "num_clicks_accrued": [0, 0, 0, 0, 0, 0, 0, 0, 0, 0, 0, 0, 0], "stateRewards": ["", -2, -1, -3, -1, -78, -6, 2, -1, 22, -88, 32, 2, 2, -7, -8, -51, -17, 54, 2, -44, 54, 75, 2, -2, -8, -15, -29, 12, -67, 15, -1, -47, -47], "withholdReward": false, "trial_id": "mdp_trial_2", "block": "test", "trialIndex": 3, "score": 38.8, "costs": -4.199999999999999, "simulationMode": [null, null, null, null, null], "rewards": [2, 2, -7, -8, 54], "path": ["0", "0", "12", "13", "14", "15", "18"], "rt": [8357, 50, 111, 145, 30], "actions": ["right", "right", "right", "up", "left"], "actionTimes": [9237, 9804, 10434, 11115, 11667], "queries": {"click": {"state": {"target": ["12", "13", "18"], "time": [3801, 5890, 7524]}, "edge": {"target": [], "time": []}}, "mouseover": {"state": {"target": ["12", "13", "18"], "time": [3692, 4473, 6608]}, "edge": {"target": [], "time": []}}, "mouseout": {"state": {"target": ["0", "12", "13", "18", "18"], "time": [3640, 4224, 6238, 13041, 13533]}, "edge": {"target": [], "time": []}}}, "displayed_time": "14.88", "trialTime": 17228, "trial_type": "mouselab-mdp", "trial_index": 10, "time_elapsed": 69231, "internal_node_id": "0.0-4.0-1.0-1.0"}}], "questiondata": {"params": {"CODE": "C6DMOQA6", "MIN_TIME": 14, "inspectCost": 1, "startTime": "Fri Aug 04 2023 11:20:02 GMT+0200 (Central European Summer Time)", "bonusRate": 0.002, "variance": "1_2_4_8_44", "branching": "31123"}}, "eventdata": [{"eventtype": "initialized", "value": null, "timestamp": 1691140802284, "interval": 0}, {"eventtype": "window_resize", "value": [1024, 736], "timestamp": 1691140802284, "interval": 0}, {"eventtype": "window_resize", "value": [1024, 736], "timestamp": 1691140802612, "interval": 328}, {"eventtype": "window_resize", "value": [1440, 900], "timestamp": 1691140804568, "interval": 1956}], "useragent": "Mozilla/5.0 (Macintosh; Intel Mac OS X 10_15_7) AppleWebKit/537.36 (KHTML, like Gecko) Chrome/115.0.0.0 Safari/537.36", "mode": "debug", "id": "w80892394:a29438719", "status": "user data saved", "Beginhit": "2023-08-04 09:20:01.19834", "Beginexp": "2023-08-04 09:20:05.399078", "Endhit": null, "psiturkStatus": 2, "browser": "<redacted>", "platform": "macos", "language": "en-US", "excludeReason": "dataincomplete"}