{"condition": 1, "counterbalance": 0, "assignmentId": "a72055186", "workerId": "w56211665", "hitId": "h46898325", "currenttrial": 28, "bonus": 0, "data": [{"uniqueid": "w56211665:a72055186", "current_trial": 0, "dateTime": 1693580197188, "trialdata": {"success": true, "trial_type": "fullscreen", "trial_index": 0, "time_elapsed": 4481, "internal_node_id": "0.0-0.0"}}, {"uniqueid": "w56211665:a72055186", "current_trial": 1, "dateTime": 1693580235584, "trialdata": {"view_history": [{"page_index": 0, "viewing_time": 38367}], "rt": 38369, "trial_id": "exp_instructions_misaligned", "trial_type": "instructions", "trial_index": 1, "time_elapsed": 42878, "internal_node_id": "0.0-1.0"}}, {"uniqueid": "w56211665:a72055186", "current_trial": 2, "dateTime": 1693580482655, "trialdata": {"view_history": [{"page_index": 0, "viewing_time": 111874}, {"page_index": 1, "viewing_time": 80126}, {"page_index": 2, "viewing_time": 43008}, {"page_index": 3, "viewing_time": 12057}], "rt": 247065, "trial_id": "mouselab_instructions_1_misaligned", "trial_type": "instructions", "trial_index": 2, "time_elapsed": 289949, "internal_node_id": "0.0-2.0-1.0"}}, {"uniqueid": "w56211665:a72055186", "current_trial": 3, "dateTime": 1693580505816, "trialdata": {"revealed_states": [], "clicked_states": [], "num_clicks_accrued": [0, 0, 0, 0, 0, 0, 0, 0, 0, 0, 0, 0, 0], "stateRewards": ["", -10, -10, 10, -10, 10, 10, 10, 10, 10, 10, -10, 10, -10, -10, 10, 10, -10, -10, 10, 10, -10, -10, 10, -10, 10, -10, 10, 10, 10, -10, 10, 10, 10], "withholdReward": false, "trial_id": "practice_1", "block": "test", "trialIndex": 0, "score": -6.5, "costs": 0, "simulationMode": [null, null, null, null, null], "rewards": [-10, -10, 10, -10, 10], "path": ["0", "0", "1", "2", "3", "4", "5"], "rt": [1714, 522, 1412, 1575, 96], "actions": ["up", "up", "up", "right", "up"], "actionTimes": [8554, 9590, 11536, 13654, 14295], "queries": {"click": {"state": {"target": [], "time": []}, "edge": {"target": [], "time": []}}, "mouseover": {"state": {"target": [], "time": []}, "edge": {"target": [], "time": []}}, "mouseout": {"state": {"target": [], "time": []}, "edge": {"target": [], "time": []}}}, "displayed_time": "14.84", "trialTime": 20848, "trial_type": "mouselab-mdp", "trial_index": 3, "time_elapsed": 313109, "internal_node_id": "0.0-2.0-2.0-0.0"}}, {"uniqueid": "w56211665:a72055186", "current_trial": 4, "dateTime": 1693580556236, "trialdata": {"revealed_states": [], "clicked_states": [], "num_clicks_accrued": [0, 0, 0, 0, 0, 0, 0, 0, 0, 0, 0, 0, 0], "stateRewards": ["", 10, 10, -10, -10, 10, 10, -10, 10, -10, 10, -10, -10, 10, 10, -10, 10, 10, -10, 10, -10, 10, 10, 10, 10, 10, -10, 10, 10, 10, 10, -10, 10, 10], "withholdReward": false, "trial_id": "practice_2", "block": "test", "trialIndex": 1, "score": 33.5, "costs": 0, "simulationMode": [null, null, null, null, null], "rewards": [10, 10, -10, 10, 10], "path": ["0", "0", "1", "2", "3", "8", "10"], "rt": [20563, 1763, 436, 1351, 1515], "actions": ["up", "up", "up", "left", "down"], "actionTimes": [28637, 30946, 31938, 33835, 35903], "queries": {"click": {"state": {"target": [], "time": []}, "edge": {"target": [], "time": []}}, "mouseover": {"state": {"target": [], "time": []}, "edge": {"target": [], "time": []}}, "mouseout": {"state": {"target": ["0", "0", "0", "0", "1", "10"], "time": [8151, 41501, 42357, 43402, 43460, 44988]}, "edge": {"target": [], "time": []}}}, "displayed_time": "36.45", "trialTime": 48381, "trial_type": "mouselab-mdp", "trial_index": 4, "time_elapsed": 363529, "internal_node_id": "0.0-2.0-2.0-1.0"}}, {"uniqueid": "w56211665:a72055186", "current_trial": 5, "dateTime": 1693580616080, "trialdata": {"view_history": [{"page_index": 0, "viewing_time": 46009}, {"page_index": 1, "viewing_time": 13823}], "rt": 59834, "trial_id": "mouselab_instructions_2_misaligned", "trial_type": "instructions", "trial_index": 5, "time_elapsed": 423374, "internal_node_id": "0.0-2.0-3.0"}}, {"uniqueid": "w56211665:a72055186", "current_trial": 6, "dateTime": 1693580723385, "trialdata": {"rt": 107290, "response": {"Q0": "The cost for clicking on nodes may vary between nodes.", "Q1": "The better I perform the higher my bonus will be.", "Q2": "No, the structure of the web will be different each time.", "Q3": "To get the highest total score.", "Q4": "Only before moving the spider.", "Q5": "3 seconds"}, "question_order": [0, 1, 2, 3, 4, 5], "correct": {"Q0": "The cost for clicking on nodes may vary between nodes.", "Q1": "The better I perform the higher my bonus will be.", "Q2": "No, the amount of cash at each node of the web may be different each time.", "Q3": "To get the highest total score.", "Q4": "Only before moving the spider.", "Q5": "3 seconds"}, "trial_id": "mouselab_quiz_misaligned", "trial_type": "survey-multi-choice", "trial_index": 6, "time_elapsed": 530679, "internal_node_id": "0.0-2.0-4.0"}}, {"uniqueid": "w56211665:a72055186", "current_trial": 7, "dateTime": 1693580732664, "trialdata": {"success": true, "trial_type": "fullscreen", "trial_index": 7, "time_elapsed": 539957, "internal_node_id": "0.0-2.1-0.1-0.1"}}, {"uniqueid": "w56211665:a72055186", "current_trial": 8, "dateTime": 1693580883839, "trialdata": {"view_history": [{"page_index": 0, "viewing_time": 41490}, {"page_index": 1, "viewing_time": 68504}, {"page_index": 2, "viewing_time": 17933}, {"page_index": 3, "viewing_time": 23236}], "rt": 151163, "trial_id": "mouselab_instructions_1_misaligned", "trial_type": "instructions", "trial_index": 8, "time_elapsed": 691133, "internal_node_id": "0.0-2.1-1.1"}}, {"uniqueid": "w56211665:a72055186", "current_trial": 9, "dateTime": 1693580914222, "trialdata": {"revealed_states": [], "clicked_states": ["23"], "num_clicks_accrued": [0, 0, 0, 0, 0, 0, 0, 0, 0, 0, 0, 0, 0], "stateRewards": ["", -10, -10, 10, -10, 10, 10, 10, 10, 10, 10, -10, 10, -10, -10, 10, 10, -10, -10, 10, 10, -10, -10, 10, -10, 10, -10, 10, 10, 10, -10, 10, 10, 10], "withholdReward": false, "trial_id": "practice_1", "block": "test", "trialIndex": 2, "score": 13, "costs": -0.5, "simulationMode": [null, null, null, null, null], "rewards": [10, -10, 10, -10, 10], "path": ["0", "0", "23", "24", "25", "30", "32"], "rt": [9534, 666, 655, 334, 455], "actions": ["left", "left", "left", "down", "down"], "actionTimes": [13600, 14820, 16017, 16901, 17904], "queries": {"click": {"state": {"target": ["23"], "time": [9590]}, "edge": {"target": [], "time": []}}, "mouseover": {"state": {"target": ["23", "1"], "time": [9461, 10870]}, "edge": {"target": [], "time": []}}, "mouseout": {"state": {"target": ["0", "23", "1", "0", "31"], "time": [7310, 10698, 23190, 23298, 23590]}, "edge": {"target": [], "time": []}}}, "displayed_time": "18.47", "trialTime": 28498, "trial_type": "mouselab-mdp", "trial_index": 9, "time_elapsed": 721515, "internal_node_id": "0.0-2.1-2.1-0.1"}}, {"uniqueid": "w56211665:a72055186", "current_trial": 10, "dateTime": 1693580943397, "trialdata": {"revealed_states": [], "clicked_states": ["1", "12", "23"], "num_clicks_accrued": [0, 0, 0, 0, 0, 0, 0, 0, 0, 0, 0, 0, 0], "stateRewards": ["", 10, 10, -10, -10, 10, 10, -10, 10, -10, 10, -10, -10, 10, 10, -10, 10, 10, -10, 10, -10, 10, 10, 10, 10, 10, -10, 10, 10, 10, 10, -10, 10, 10], "withholdReward": false, "trial_id": "practice_2", "block": "test", "trialIndex": 3, "score": 12, "costs": -1.5, "simulationMode": [null, null, null, null, null, null], "rewards": [10, 10, -10, 10, -10], "path": ["0", "0", "1", "2", "3", "8", "11"], "rt": [7759, 1387, 533, 611, 311, 766], "actions": ["up", "up", "up", "up", "left", "left"], "actionTimes": [15590, 16996, 18087, 19248, 20098, 21408], "queries": {"click": {"state": {"target": ["1", "12", "23"], "time": [11046, 12815, 14753]}, "edge": {"target": [], "time": []}}, "mouseover": {"state": {"target": ["0", "1", "12", "23"], "time": [7891, 9816, 12631, 14417]}, "edge": {"target": [], "time": []}}, "mouseout": {"state": {"target": ["25", "0", "1", "12", "23", "23", "21"], "time": [28, 9519, 11967, 12927, 14882, 23504, 24997]}, "edge": {"target": [], "time": []}}}, "displayed_time": "21.96", "trialTime": 27071, "trial_type": "mouselab-mdp", "trial_index": 10, "time_elapsed": 750688, "internal_node_id": "0.0-2.1-2.1-1.1"}}, {"uniqueid": "w56211665:a72055186", "current_trial": 11, "dateTime": 1693580956911, "trialdata": {"view_history": [{"page_index": 0, "viewing_time": 8781}, {"page_index": 1, "viewing_time": 4720}], "rt": 13502, "trial_id": "mouselab_instructions_2_misaligned", "trial_type": "instructions", "trial_index": 11, "time_elapsed": 764204, "internal_node_id": "0.0-2.1-3.1"}}, {"uniqueid": "w56211665:a72055186", "current_trial": 12, "dateTime": 1693581062475, "trialdata": {"rt": 105553, "response": {"Q0": "There is no cost for clicking on nodes.", "Q1": "The better I perform the higher my bonus will be.", "Q2": "No, the amount of cash at each node of the web may be different each time.", "Q3": "To get the highest total score.", "Q4": "Only before moving the spider.", "Q5": "3 seconds"}, "question_order": [0, 1, 2, 3, 4, 5], "correct": {"Q0": "The cost for clicking on nodes may vary between nodes.", "Q1": "The better I perform the higher my bonus will be.", "Q2": "No, the amount of cash at each node of the web may be different each time.", "Q3": "To get the highest total score.", "Q4": "Only before moving the spider.", "Q5": "3 seconds"}, "trial_id": "mouselab_quiz_misaligned", "trial_type": "survey-multi-choice", "trial_index": 12, "time_elapsed": 869768, "internal_node_id": "0.0-2.1-4.1"}}, {"uniqueid": "w56211665:a72055186", "current_trial": 13, "dateTime": 1693581071579, "trialdata": {"success": true, "trial_type": "fullscreen", "trial_index": 13, "time_elapsed": 878873, "internal_node_id": "0.0-2.2-0.2-0.2"}}, {"uniqueid": "w56211665:a72055186", "current_trial": 14, "dateTime": 1693581081918, "trialdata": {"view_history": [{"page_index": 0, "viewing_time": 6004}, {"page_index": 1, "viewing_time": 1024}, {"page_index": 2, "viewing_time": 1753}, {"page_index": 3, "viewing_time": 1551}], "rt": 10333, "trial_id": "mouselab_instructions_1_misaligned", "trial_type": "instructions", "trial_index": 14, "time_elapsed": 889212, "internal_node_id": "0.0-2.2-1.2"}}, {"uniqueid": "w56211665:a72055186", "current_trial": 15, "dateTime": 1693581101070, "trialdata": {"revealed_states": [], "clicked_states": [], "num_clicks_accrued": [0, 0, 0, 0, 0, 0, 0, 0, 0, 0, 0, 0, 0], "stateRewards": ["", -10, -10, 10, -10, 10, 10, 10, 10, 10, 10, -10, 10, -10, -10, 10, 10, -10, -10, 10, 10, -10, -10, 10, -10, 10, -10, 10, 10, 10, -10, 10, 10, 10], "withholdReward": false, "trial_id": "practice_1", "block": "test", "trialIndex": 4, "score": -6.5, "costs": 0, "simulationMode": [null, null, null, null, null], "rewards": [-10, -10, 10, -10, 10], "path": ["0", "0", "1", "2", "3", "4", "7"], "rt": [1729, 4246, 27, 415, 729], "actions": ["up", "up", "up", "right", "down"], "actionTimes": [4216, 9049, 9616, 10586, 11844], "queries": {"click": {"state": {"target": [], "time": []}, "edge": {"target": [], "time": []}}, "mouseover": {"state": {"target": [], "time": []}, "edge": {"target": [], "time": []}}, "mouseout": {"state": {"target": ["1", "1", "0", "0", "22"], "time": [434, 899, 2793, 13859, 14754]}, "edge": {"target": [], "time": []}}}, "displayed_time": "12.39", "trialTime": 17117, "trial_type": "mouselab-mdp", "trial_index": 15, "time_elapsed": 908363, "internal_node_id": "0.0-2.2-2.2-0.2"}}, {"uniqueid": "w56211665:a72055186", "current_trial": 16, "dateTime": 1693581119078, "trialdata": {"revealed_states": [], "clicked_states": [], "num_clicks_accrued": [0, 0, 0, 0, 0, 0, 0, 0, 0, 0, 0, 0, 0], "stateRewards": ["", 10, 10, -10, -10, 10, 10, -10, 10, -10, 10, -10, -10, 10, 10, -10, 10, 10, -10, 10, -10, 10, 10, 10, 10, 10, -10, 10, 10, 10, 10, -10, 10, 10], "withholdReward": false, "trial_id": "practice_2", "block": "test", "trialIndex": 5, "score": 33.5, "costs": 0, "simulationMode": [null, null, null, null, null], "rewards": [-10, 10, 10, 10, 10], "path": ["0", "0", "12", "13", "14", "19", "21"], "rt": [2181, 570, 101, 864, 518], "actions": ["right", "right", "right", "down", "down"], "actionTimes": [6674, 7792, 8427, 9847, 10919], "queries": {"click": {"state": {"target": [], "time": []}, "edge": {"target": [], "time": []}}, "mouseover": {"state": {"target": [], "time": []}, "edge": {"target": [], "time": []}}, "mouseout": {"state": {"target": ["17", "14", "13", "12", "0", "23", "0", "12"], "time": [2765, 2948, 3014, 3246, 12968, 13183, 13214, 13244]}, "edge": {"target": [], "time": []}}}, "displayed_time": "11.46", "trialTime": 15935, "trial_type": "mouselab-mdp", "trial_index": 16, "time_elapsed": 926371, "internal_node_id": "0.0-2.2-2.2-1.2"}}, {"uniqueid": "w56211665:a72055186", "current_trial": 17, "dateTime": 1693581129247, "trialdata": {"view_history": [{"page_index": 0, "viewing_time": 8675}, {"page_index": 1, "viewing_time": 1484}], "rt": 10160, "trial_id": "mouselab_instructions_2_misaligned", "trial_type": "instructions", "trial_index": 17, "time_elapsed": 936541, "internal_node_id": "0.0-2.2-3.2"}}, {"uniqueid": "w56211665:a72055186", "current_trial": 18, "dateTime": 1693581186826, "trialdata": {"rt": 57567, "response": {"Q0": "The cost for clicking on nodes may vary between nodes.", "Q1": "The better I perform the higher my bonus will be.", "Q2": "No, the amount of cash at each node of the web may be different each time.", "Q3": "To get the highest total score.", "Q4": "Any time during the round.", "Q5": "3 seconds"}, "question_order": [0, 1, 2, 3, 4, 5], "correct": {"Q0": "The cost for clicking on nodes may vary between nodes.", "Q1": "The better I perform the higher my bonus will be.", "Q2": "No, the amount of cash at each node of the web may be different each time.", "Q3": "To get the highest total score.", "Q4": "Only before moving the spider.", "Q5": "3 seconds"}, "trial_id": "mouselab_quiz_misaligned", "trial_type": "survey-multi-choice", "trial_index": 18, "time_elapsed": 994120, "internal_node_id": "0.0-2.2-4.2"}}, {"uniqueid": "w56211665:a72055186", "current_trial": 19, "dateTime": 1693581193336, "trialdata": {"success": true, "trial_type": "fullscreen", "trial_index": 19, "time_elapsed": 1000630, "internal_node_id": "0.0-2.3-0.3-0.3"}}, {"uniqueid": "w56211665:a72055186", "current_trial": 20, "dateTime": 1693581202662, "trialdata": {"view_history": [{"page_index": 0, "viewing_time": 5021}, {"page_index": 1, "viewing_time": 1288}, {"page_index": 2, "viewing_time": 1760}, {"page_index": 3, "viewing_time": 1249}], "rt": 9319, "trial_id": "mouselab_instructions_1_misaligned", "trial_type": "instructions", "trial_index": 20, "time_elapsed": 1009956, "internal_node_id": "0.0-2.3-1.3"}}, {"uniqueid": "w56211665:a72055186", "current_trial": 21, "dateTime": 1693581222947, "trialdata": {"revealed_states": [], "clicked_states": [], "num_clicks_accrued": [0, 0, 0, 0, 0, 0, 0, 0, 0, 0, 0, 0, 0], "stateRewards": ["", -10, -10, 10, -10, 10, 10, 10, 10, 10, 10, -10, 10, -10, -10, 10, 10, -10, -10, 10, 10, -10, -10, 10, -10, 10, -10, 10, 10, 10, -10, 10, 10, 10], "withholdReward": false, "trial_id": "practice_1", "block": "test", "trialIndex": 6, "score": 13.5, "costs": 0, "simulationMode": [null, null, null, null, null], "rewards": [10, -10, 10, -10, 10], "path": ["0", "0", "23", "24", "25", "26", "28"], "rt": [2822, 938, 278, 2077, 648], "actions": ["left", "left", "left", "up", "right"], "actionTimes": [5310, 6785, 7604, 10243, 11431], "queries": {"click": {"state": {"target": [], "time": []}, "edge": {"target": [], "time": []}}, "mouseover": {"state": {"target": [], "time": []}, "edge": {"target": [], "time": []}}, "mouseout": {"state": {"target": ["0", "22", "20"], "time": [13891, 14016, 14087]}, "edge": {"target": [], "time": []}}}, "displayed_time": "11.98", "trialTime": 18086, "trial_type": "mouselab-mdp", "trial_index": 21, "time_elapsed": 1030238, "internal_node_id": "0.0-2.3-2.3-0.3"}}, {"uniqueid": "w56211665:a72055186", "current_trial": 22, "dateTime": 1693581240525, "trialdata": {"revealed_states": [], "clicked_states": [], "num_clicks_accrued": [0, 0, 0, 0, 0, 0, 0, 0, 0, 0, 0, 0, 0], "stateRewards": ["", 10, 10, -10, -10, 10, 10, -10, 10, -10, 10, -10, -10, 10, 10, -10, 10, 10, -10, 10, -10, 10, 10, 10, 10, 10, -10, 10, 10, 10, 10, -10, 10, 10], "withholdReward": false, "trial_id": "practice_2", "block": "test", "trialIndex": 7, "score": 13.5, "costs": 0, "simulationMode": [null, null, null, null, null], "rewards": [-10, 10, 10, -10, 10], "path": ["0", "0", "12", "13", "14", "15", "16"], "rt": [949, 442, 227, 579, 201], "actions": ["right", "right", "right", "up", "up"], "actionTimes": [3450, 4447, 5211, 6341, 7078], "queries": {"click": {"state": {"target": [], "time": []}, "edge": {"target": [], "time": []}}, "mouseover": {"state": {"target": [], "time": []}, "edge": {"target": [], "time": []}}, "mouseout": {"state": {"target": ["0", "19", "20"], "time": [9974, 11404, 11444]}, "edge": {"target": [], "time": []}}}, "displayed_time": "7.62", "trialTime": 14822, "trial_type": "mouselab-mdp", "trial_index": 22, "time_elapsed": 1047815, "internal_node_id": "0.0-2.3-2.3-1.3"}}, {"uniqueid": "w56211665:a72055186", "current_trial": 23, "dateTime": 1693581249349, "trialdata": {"view_history": [{"page_index": 0, "viewing_time": 7296}, {"page_index": 1, "viewing_time": 1518}], "rt": 8815, "trial_id": "mouselab_instructions_2_misaligned", "trial_type": "instructions", "trial_index": 23, "time_elapsed": 1056643, "internal_node_id": "0.0-2.3-3.3"}}, {"uniqueid": "w56211665:a72055186", "current_trial": 24, "dateTime": 1693581299305, "trialdata": {"rt": 49942, "response": {"Q0": "It is less costly to inspect further nodes.", "Q1": "I will receive a $1 bonus if I perform well, otherwise I will receive no bonus.", "Q2": "No, the amount of cash at each node of the web may be different each time.", "Q3": "To click on the least number of nodes.", "Q4": "Only after moving the spider.", "Q5": "3 seconds"}, "question_order": [0, 1, 2, 3, 4, 5], "correct": {"Q0": "The cost for clicking on nodes may vary between nodes.", "Q1": "The better I perform the higher my bonus will be.", "Q2": "No, the amount of cash at each node of the web may be different each time.", "Q3": "To get the highest total score.", "Q4": "Only before moving the spider.", "Q5": "3 seconds"}, "trial_id": "mouselab_quiz_misaligned", "trial_type": "survey-multi-choice", "trial_index": 24, "time_elapsed": 1106599, "internal_node_id": "0.0-2.3-4.3"}}, {"uniqueid": "w56211665:a72055186", "current_trial": 25, "dateTime": 1693581358221, "trialdata": {"rt": 58869, "response": {"Q0": "yes, it was complicated", "Q1": "26", "Q2": "male", "Q3": "no", "Q4": ""}, "trial_id": "finish_fail", "trial_type": "survey-text", "trial_index": 25, "time_elapsed": 1165515, "internal_node_id": "0.0-3.0-0.0"}}, {"uniqueid": "w56211665:a72055186", "current_trial": 26, "dateTime": 1693581378426, "trialdata": {"rt": 20185, "stimulus": "<h1>Completion Code Instructions (1/2)</h1>\n<br><br><br><br>\nYou have reached the end of the experiment! The completion code consists of two parts: (1) a code with 2 characters (2) a code with 6 characters. On this page, you will receive the second part of the code. The first part of the completion code will be on the next page.\n<br><br>\nThe second part of your completion code is: <b>AYIWIP</b>\n<br><br>\nPlease note this down. Then, press 'Next' in order to find the first part of your completion code. Once the data has been saved, you will receive this code either in this window or in the original browser window where you started the experiment.\n <br><br>\n<h2 style='color: red;'>Note: this is <strong>NOT</strong> the full completion code. Copy this down and click 'Next' to get the full completion code on the next page.</h2>", "response": 0, "trial_type": "html-button-response", "trial_index": 26, "time_elapsed": 1185719, "internal_node_id": "0.0-3.0-1.0"}}, {"uniqueid": "w56211665:a72055186", "current_trial": 27, "dateTime": 1693581379484, "trialdata": {"success": true, "trial_type": "fullscreen", "trial_index": 27, "time_elapsed": 1186778, "internal_node_id": "0.0-7.0"}}], "questiondata": {"params": {"CODE": "C6DMOQA6", "MIN_TIME": 14, "inspectCost": 1, "startTime": "Fri Sep 01 2023 16:56:25 GMT+0200 (South Africa Standard Time)", "bonusRate": 0.002, "variance": "1_2_4_8_44", "branching": "31123"}, "final_score": 0}, "eventdata": [{"eventtype": "initialized", "value": null, "timestamp": 1693580184631, "interval": 0}, {"eventtype": "window_resize", "value": [1024, 654], "timestamp": 1693580184631, "interval": 0}, {"eventtype": "window_resize", "value": [1024, 654], "timestamp": 1693580185395, "interval": 764}, {"eventtype": "window_resize", "value": [1366, 768], "timestamp": 1693580196717, "interval": 11322}, {"eventtype": "focus", "value": "off", "timestamp": 1693580729258, "interval": 532541}, {"eventtype": "focus", "value": "on", "timestamp": 1693580729259, "interval": 1}, {"eventtype": "window_resize", "value": [1024, 654], "timestamp": 1693580729528, "interval": 269}, {"eventtype": "window_resize", "value": [1366, 768], "timestamp": 1693580732064, "interval": 2536}, {"eventtype": "focus", "value": "off", "timestamp": 1693581068967, "interval": 336903}, {"eventtype": "focus", "value": "on", "timestamp": 1693581068968, "interval": 1}, {"eventtype": "window_resize", "value": [1024, 654], "timestamp": 1693581069245, "interval": 277}, {"eventtype": "window_resize", "value": [1366, 768], "timestamp": 1693581070936, "interval": 1691}, {"eventtype": "focus", "value": "off", "timestamp": 1693581190650, "interval": 119714}, {"eventtype": "focus", "value": "on", "timestamp": 1693581190651, "interval": 1}, {"eventtype": "window_resize", "value": [1024, 654], "timestamp": 1693581190919, "interval": 268}, {"eventtype": "window_resize", "value": [1366, 768], "timestamp": 1693581192719, "interval": 1800}, {"eventtype": "window_resize", "value": [1024, 654], "timestamp": 1693581378801, "interval": 186082}], "useragent": "Mozilla/5.0 (Windows NT 10.0; Win64; x64) AppleWebKit/537.36 (KHTML, like Gecko) Chrome/116.0.0.0 Safari/537.36", "mode": "live", "id": "w56211665:a72055186", "status": "user data saved", "Beginhit": "2023-09-01 14:56:31.787421", "Beginexp": "2023-09-01 14:56:51.176636", "Endhit": "2023-09-01 15:16:35.861078", "psiturkStatus": 3, "browser": "<redacted>", "platform": "windows", "language": "en-US", "excludeReason": "quizfail"}