{"condition": 1, "counterbalance": 0, "assignmentId": "a34731546", "workerId": "w39489135", "hitId": "h59403063", "currenttrial": 56, "bonus": 0, "data": [{"uniqueid": "w39489135:a34731546", "current_trial": 0, "dateTime": 1691142031497, "trialdata": {"success": true, "trial_type": "fullscreen", "trial_index": 0, "time_elapsed": 3809, "internal_node_id": "0.0-0.0"}}, {"uniqueid": "w39489135:a34731546", "current_trial": 1, "dateTime": 1691142034789, "trialdata": {"view_history": [{"page_index": 0, "viewing_time": 3286}], "rt": 3287, "trial_id": "exp_instructions_misaligned", "trial_type": "instructions", "trial_index": 1, "time_elapsed": 7102, "internal_node_id": "0.0-1.0"}}, {"uniqueid": "w39489135:a34731546", "current_trial": 2, "dateTime": 1691142037702, "trialdata": {"success": true, "trial_type": "fullscreen", "trial_index": 2, "time_elapsed": 10015, "internal_node_id": "0.0-2.0-0.0"}}, {"uniqueid": "w39489135:a34731546", "current_trial": 3, "dateTime": 1691142167427, "trialdata": {"view_history": [{"page_index": 0, "viewing_time": 50401}, {"page_index": 1, "viewing_time": 37266}, {"page_index": 2, "viewing_time": 15032}, {"page_index": 3, "viewing_time": 27024}], "rt": 129723, "trial_id": "mouselab_instructions_1_misaligned", "trial_type": "instructions", "trial_index": 3, "time_elapsed": 139739, "internal_node_id": "0.0-2.0-1.0"}}, {"uniqueid": "w39489135:a34731546", "current_trial": 4, "dateTime": 1691142191273, "trialdata": {"revealed_states": [], "clicked_states": ["23", "24", "25", "26", "30", "31"], "num_clicks_accrued": [0, 0, 0, 0, 0, 0, 0, 0, 0, 0, 0, 0, 0], "stateRewards": ["", -10, -10, -10, 10, 10, 10, -10, -10, 10, -10, 10, -10, -10, -10, 10, -10, 10, -10, 10, 10, -10, -10, 10, 10, 10, -10, 10, 10, -10, 10, 10, -10, 10], "withholdReward": false, "trial_id": "practice_1", "block": "test", "trialIndex": 0, "score": 50.5, "costs": -3, "simulationMode": [null, null, null, null, null], "rewards": [10, 10, 10, 10, 10], "path": ["0", "0", "23", "24", "25", "30", "31"], "rt": [12862, 621, 192, 131, 506], "actions": ["left", "left", "left", "down", "right"], "actionTimes": [14512, 15648, 16355, 17004, 18028], "queries": {"click": {"state": {"target": ["23", "24", "25", "26", "30", "31"], "time": [4032, 5359, 6971, 8348, 10762, 12130]}, "edge": {"target": [], "time": []}}, "mouseover": {"state": {"target": ["0", "23", "24", "25", "26", "27", "28", "30", "31", "33"], "time": [1940, 3718, 4984, 6133, 7467, 9198, 10128, 10544, 11294, 13441]}, "edge": {"target": [], "time": []}}, "mouseout": {"state": {"target": ["0", "0", "23", "24", "25", "26", "27", "28", "25", "30", "31", "30", "33", "30", "24", "23", "18", "15", "20"], "time": [806, 2005, 4352, 5784, 7350, 8952, 9945, 10244, 10461, 11229, 12825, 13308, 14173, 20066, 20566, 20682, 21049, 21099, 22614]}, "edge": {"target": [], "time": []}}}, "displayed_time": "18.55", "trialTime": 23173, "trial_type": "mouselab-mdp", "trial_index": 4, "time_elapsed": 163585, "internal_node_id": "0.0-2.0-2.0-0.0"}}, {"uniqueid": "w39489135:a34731546", "current_trial": 5, "dateTime": 1691142202939, "trialdata": {"revealed_states": [], "clicked_states": [], "num_clicks_accrued": [0, 0, 0, 0, 0, 0, 0, 0, 0, 0, 0, 0, 0], "stateRewards": ["", 10, 10, 10, -10, -10, 10, -10, -10, -10, -10, -10, 10, 10, 10, -10, -10, -10, -10, -10, -10, 10, 10, -10, 10, 10, -10, 10, 10, 10, -10, -10, 10, -10], "withholdReward": false, "trial_id": "practice_2", "block": "test", "trialIndex": 1, "score": 13.5, "costs": 0, "simulationMode": [null, null, null, null, null], "rewards": [10, 10, 10, -10, -10], "path": ["0", "0", "12", "13", "14", "19", "20"], "rt": [1410, 230, 53, 55, 10], "actions": ["right", "right", "right", "down", "right"], "actionTimes": [6069, 6820, 7391, 7976, 8511], "queries": {"click": {"state": {"target": [], "time": []}, "edge": {"target": [], "time": []}}, "mouseover": {"state": {"target": [], "time": []}, "edge": {"target": [], "time": []}}, "mouseout": {"state": {"target": ["21", "20", "19", "0"], "time": [457, 3603, 3753, 4153]}, "edge": {"target": [], "time": []}}}, "displayed_time": "9.03", "trialTime": 11286, "trial_type": "mouselab-mdp", "trial_index": 5, "time_elapsed": 175252, "internal_node_id": "0.0-2.0-2.0-1.0"}}, {"uniqueid": "w39489135:a34731546", "current_trial": 6, "dateTime": 1691142235397, "trialdata": {"view_history": [{"page_index": 0, "viewing_time": 24117}, {"page_index": 1, "viewing_time": 8338}], "rt": 32455, "trial_id": "mouselab_instructions_2_misaligned", "trial_type": "instructions", "trial_index": 6, "time_elapsed": 207710, "internal_node_id": "0.0-2.0-3.0"}}, {"uniqueid": "w39489135:a34731546", "current_trial": 7, "dateTime": 1691142265016, "trialdata": {"rt": 29614, "response": {"Q0": "The cost for clicking on nodes may vary between nodes.", "Q1": "The better I perform the higher my bonus will be.", "Q2": "No, the amount of cash at each node of the web may be different each time.", "Q3": "To get the highest total score.", "Q4": "Only before moving the spider.", "Q5": "3 seconds"}, "question_order": [0, 1, 2, 3, 4, 5], "correct": {"Q0": "The cost for clicking on nodes may vary between nodes.", "Q1": "The better I perform the higher my bonus will be.", "Q2": "No, the amount of cash at each node of the web may be different each time.", "Q3": "To get the highest total score.", "Q4": "Only before moving the spider.", "Q5": "3 seconds"}, "trial_id": "mouselab_quiz_misaligned", "trial_type": "survey-multi-choice", "trial_index": 7, "time_elapsed": 237329, "internal_node_id": "0.0-2.0-4.0"}}, {"uniqueid": "w39489135:a34731546", "current_trial": 8, "dateTime": 1691142273026, "trialdata": {"rt": 8002, "stimulus": "\n<h1> Get ready to start the game! </h1>\n\nThank you for reading the instructions. Get ready start with the 40 rounds of this game.\n<br><br>\nIf you need to take a break, feel free to take one after the end of a round, before continuing to the next one.\n<br><br>\nRemember, the more money the spider gets, the bigger your bonus will be!\n<br><br>\n<div style='text-align: center;'>Press <code>space</code> to begin.</div>\n\n<br><br>\n(If, at any point, the <code>space</code> key does not take you to the next page, click once on the text and try again.)", "response": " ", "trial_id": "mdp_ready", "trial_type": "html-keyboard-response", "trial_index": 8, "time_elapsed": 245339, "internal_node_id": "0.0-4.0-0.0"}}, {"uniqueid": "w39489135:a34731546", "current_trial": 9, "dateTime": 1691142291151, "trialdata": {"revealed_states": [], "clicked_states": [], "num_clicks_accrued": [0, 0, 0, 0, 0, 0, 0, 0, 0, 0, 0, 0, 0], "stateRewards": ["", 1, 1, -5, 8, -6, 45, 16, -6, -7, -22, -38, -1, -4, 8, -11, -16, 21, -45, -15, -59, -32, 42, -1, 3, 6, 11, -7, 34, -27, -8, 85, 43, -9], "withholdReward": false, "trial_id": "mdp_trial_1", "block": "test", "trialIndex": 2, "score": 12, "costs": 0, "simulationMode": [null, null, null, null, null], "rewards": [-1, 3, 6, 11, -7], "path": ["0", "0", "23", "24", "25", "26", "27"], "rt": [2614, 291, 456, 1095, 488], "actions": ["left", "left", "left", "up", "up"], "actionTimes": [4236, 5041, 6006, 7610, 8618], "queries": {"click": {"state": {"target": [], "time": []}, "edge": {"target": [], "time": []}}, "mouseover": {"state": {"target": ["0", "0"], "time": [2150, 2634]}, "edge": {"target": [], "time": []}}, "mouseout": {"state": {"target": ["16", "18", "12", "0", "0", "0", "0"], "time": [435, 501, 601, 1217, 2217, 2816, 10723]}, "edge": {"target": [], "time": []}}}, "displayed_time": "15.62", "trialTime": 17718, "trial_type": "mouselab-mdp", "trial_index": 9, "time_elapsed": 263463, "internal_node_id": "0.0-4.0-1.0-0.0"}}, {"uniqueid": "w39489135:a34731546", "current_trial": 10, "dateTime": 1691142314499, "trialdata": {"revealed_states": [], "clicked_states": ["12", "13", "14", "15", "19", "20"], "num_clicks_accrued": [0, 0, 0, 0, 0, 0, 0, 0, 0, 0, 0, 0, 0], "stateRewards": ["", -2, 4, 3, 5, -61, 4, 30, 1, -47, 83, 10, 1, 4, 7, -14, 19, -74, -83, 6, -2, -2, -65, -1, -2, 4, -11, 12, -1, -68, 11, -38, -28, 66], "withholdReward": false, "trial_id": "mdp_trial_2", "block": "test", "trialIndex": 3, "score": -53.3, "costs": -6.299999999999999, "simulationMode": [null, null, null, null, null], "rewards": [1, 4, 7, 6, -65], "path": ["0", "0", "12", "13", "14", "19", "22"], "rt": [10186, 162, 128, 943, 1193], "actions": ["right", "right", "right", "down", "left"], "actionTimes": [11332, 12027, 12675, 14139, 15840], "queries": {"click": {"state": {"target": ["12", "13", "14", "15", "19", "20"], "time": [1647, 3406, 4399, 5162, 6389, 6996]}, "edge": {"target": [], "time": []}}, "mouseover": {"state": {"target": ["12", "0", "23", "23", "13", "14", "15", "17", "19", "20", "22"], "time": [1456, 2026, 2106, 2557, 3187, 4221, 4739, 5820, 6054, 6768, 8035]}, "edge": {"target": [], "time": []}}, "mouseout": {"state": {"target": ["12", "0", "12", "0", "23", "23", "13", "13", "14", "15", "17", "14", "19", "20", "20", "22", "20"], "time": [456, 1158, 1973, 2073, 2122, 2755, 3414, 3805, 4410, 5173, 5870, 5953, 6701, 7004, 7338, 9349, 10181]}, "edge": {"target": [], "time": []}}}, "displayed_time": "16.36", "trialTime": 22909, "trial_type": "mouselab-mdp", "trial_index": 10, "time_elapsed": 286812, "internal_node_id": "0.0-4.0-1.0-1.0"}}, {"uniqueid": "w39489135:a34731546", "current_trial": 11, "dateTime": 1691142333881, "trialdata": {"revealed_states": [], "clicked_states": [], "num_clicks_accrued": [0, 0, 0, 0, 0, 0, 0, 0, 0, 0, 0, 0, 0], "stateRewards": ["", 2, -1, 5, 8, 75, -35, -77, 1, -9, -81, -58, 1, 2, -7, 5, 77, -16, 19, 16, -10, -18, 40, -2, 3, 7, -5, 64, 1, -62, 10, 27, 10, 65], "withholdReward": false, "trial_id": "mdp_trial_3", "block": "test", "trialIndex": 4, "score": 89, "costs": 0, "simulationMode": [null, null, null, null, null], "rewards": [2, -1, 5, 8, 75], "path": ["0", "0", "1", "2", "3", "4", "5"], "rt": [1341, 1152, 86, 218, 565], "actions": ["up", "up", "up", "right", "up"], "actionTimes": [4382, 6048, 6647, 7379, 8457], "queries": {"click": {"state": {"target": [], "time": []}, "edge": {"target": [], "time": []}}, "mouseover": {"state": {"target": ["0"], "time": [3282]}, "edge": {"target": [], "time": []}}, "mouseout": {"state": {"target": ["17", "16", "6", "0", "0", "0", "12"], "time": [1896, 1912, 2245, 2662, 3878, 12118, 18610]}, "edge": {"target": [], "time": []}}}, "displayed_time": "17.04", "trialTime": 18991, "trial_type": "mouselab-mdp", "trial_index": 11, "time_elapsed": 306194, "internal_node_id": "0.0-4.0-1.0-2.0"}}, {"uniqueid": "w39489135:a34731546", "current_trial": 12, "dateTime": 1691142352707, "trialdata": {"revealed_states": [], "clicked_states": [], "num_clicks_accrued": [0, 0, 0, 0, 0, 0, 0, 0, 0, 0, 0, 0, 0], "stateRewards": ["", 1, -2, 7, -14, 88, -56, -44, -14, 64, -51, -57, -2, 3, -4, -9, -11, 19, -77, -1, 68, 75, -67, -1, 1, -2, 5, -37, 70, -34, -10, -72, 63, -41], "withholdReward": false, "trial_id": "mdp_trial_4", "block": "test", "trialIndex": 5, "score": -65, "costs": 0, "simulationMode": [null, null, null, null, null], "rewards": [1, -2, 7, -14, -57], "path": ["0", "0", "1", "2", "3", "8", "11"], "rt": [903, 320, 218, 615, 178], "actions": ["up", "up", "up", "left", "left"], "actionTimes": [2651, 3493, 4224, 5353, 6048], "queries": {"click": {"state": {"target": [], "time": []}, "edge": {"target": [], "time": []}}, "mouseover": {"state": {"target": ["0"], "time": [1922]}, "edge": {"target": [], "time": []}}, "mouseout": {"state": {"target": ["0", "0", "0", "0"], "time": [906, 1273, 2588, 2788]}, "edge": {"target": [], "time": []}}}, "displayed_time": "15.76", "trialTime": 18432, "trial_type": "mouselab-mdp", "trial_index": 12, "time_elapsed": 325020, "internal_node_id": "0.0-4.0-1.0-3.0"}}, {"uniqueid": "w39489135:a34731546", "current_trial": 13, "dateTime": 1691142374801, "trialdata": {"revealed_states": [], "clicked_states": [], "num_clicks_accrued": [0, 0, 0, 0, 0, 0, 0, 0, 0, 0, 0, 0, 0], "stateRewards": ["", 2, 4, 7, -6, -76, -81, 2, 5, -66, -3, 36, -2, -4, 6, -2, -69, 4, -49, -6, 67, 38, -67, 2, 1, 1, 6, -68, -21, 52, -16, -16, 6, -70], "withholdReward": false, "trial_id": "mdp_trial_5", "block": "test", "trialIndex": 6, "score": -58, "costs": 0, "simulationMode": [null, null, null, null, null], "rewards": [2, 1, 1, 6, -68], "path": ["0", "0", "23", "24", "25", "26", "27"], "rt": [1626, 273, 185, 137, 5672], "actions": ["left", "left", "left", "up", "up"], "actionTimes": [6697, 7483, 8177, 8831, 15013], "queries": {"click": {"state": {"target": [], "time": []}, "edge": {"target": [], "time": []}}, "mouseover": {"state": {"target": [], "time": []}, "edge": {"target": [], "time": []}}, "mouseout": {"state": {"target": ["0", "1"], "time": [13416, 20541]}, "edge": {"target": [], "time": []}}}, "displayed_time": "19.07", "trialTime": 21687, "trial_type": "mouselab-mdp", "trial_index": 13, "time_elapsed": 347114, "internal_node_id": "0.0-4.0-1.0-4.0"}}, {"uniqueid": "w39489135:a34731546", "current_trial": 14, "dateTime": 1691142393246, "trialdata": {"revealed_states": [], "clicked_states": ["12", "23", "1", "24", "25", "30", "31"], "num_clicks_accrued": [0, 0, 0, 0, 0, 0, 0, 0, 0, 0, 0, 0, 0], "stateRewards": ["", -2, 3, -1, 2, -72, 63, 20, -1, 62, -66, 39, -2, 3, -6, 14, 22, 47, 1, 8, -49, -1, -41, 2, 2, -6, -16, -64, -60, -34, 16, 54, 22, -7], "withholdReward": false, "trial_id": "mdp_trial_6", "block": "test", "trialIndex": 7, "score": 63.75, "costs": -4.25, "simulationMode": [null, null, null, null, null], "rewards": [2, 2, -6, 16, 54], "path": ["0", "0", "23", "24", "25", "30", "31"], "rt": [11836, 198, 104, 139, 15], "actions": ["left", "left", "left", "down", "right"], "actionTimes": [13298, 14016, 14638, 15291, 15832], "queries": {"click": {"state": {"target": ["12", "23", "1", "24", "25", "30", "31"], "time": [2307, 3395, 4387, 5342, 7025, 8067, 8919]}, "edge": {"target": [], "time": []}}, "mouseover": {"state": {"target": ["12", "23", "1", "31", "24", "25", "30", "31", "33", "23", "0"], "time": [2231, 3044, 3995, 4877, 5130, 5959, 7823, 8541, 10086, 12450, 12700]}, "edge": {"target": [], "time": []}}, "mouseout": {"state": {"target": ["0", "12", "23", "1", "23", "31", "24", "25", "30", "31", "30", "30", "33", "23", "0", "23", "0", "12"], "time": [629, 2611, 3779, 4744, 4845, 5045, 5693, 7640, 8472, 9270, 9753, 9870, 11917, 12500, 12766, 17082, 17446, 17529]}, "edge": {"target": [], "time": []}}}, "displayed_time": "16.37", "trialTime": 18023, "trial_type": "mouselab-mdp", "trial_index": 14, "time_elapsed": 365558, "internal_node_id": "0.0-4.0-1.0-5.0"}}, {"uniqueid": "w39489135:a34731546", "current_trial": 15, "dateTime": 1691142415093, "trialdata": {"revealed_states": [], "clicked_states": [], "num_clicks_accrued": [0, 0, 0, 0, 0, 0, 0, 0, 0, 0, 0, 0, 0], "stateRewards": ["", -2, -3, 7, -13, 60, 9, 37, -6, 37, 20, 1, 2, -2, -8, 6, -80, -31, -10, -7, 70, -65, -44, -1, 1, 7, 6, -11, 73, -85, 16, -21, 47, 34], "withholdReward": false, "trial_id": "mdp_trial_7", "block": "test", "trialIndex": 8, "score": -72, "costs": 0, "simulationMode": [null, null, null, null, null], "rewards": [-1, 1, 7, 6, -85], "path": ["0", "0", "23", "24", "25", "26", "29"], "rt": [1665, 1161, 267, 330, 35], "actions": ["left", "left", "left", "up", "left"], "actionTimes": [7549, 9225, 10014, 10859, 11413], "queries": {"click": {"state": {"target": [], "time": []}, "edge": {"target": [], "time": []}}, "mouseover": {"state": {"target": ["0", "12"], "time": [6198, 6880]}, "edge": {"target": [], "time": []}}, "mouseout": {"state": {"target": ["12", "12", "31", "0", "0", "12", "12", "12"], "time": [2984, 4269, 4569, 4982, 6647, 6964, 8712, 13100]}, "edge": {"target": [], "time": []}}}, "displayed_time": "19.89", "trialTime": 21399, "trial_type": "mouselab-mdp", "trial_index": 15, "time_elapsed": 387405, "internal_node_id": "0.0-4.0-1.0-6.0"}}, {"uniqueid": "w39489135:a34731546", "current_trial": 16, "dateTime": 1691142434672, "trialdata": {"revealed_states": [], "clicked_states": ["12", "23", "1"], "num_clicks_accrued": [0, 0, 0, 0, 0, 0, 0, 0, 0, 0, 0, 0, 0], "stateRewards": ["", -2, 2, 2, -6, 9, 37, 50, -13, -7, -18, -75, -2, -4, 4, 7, 23, -57, -66, -7, -81, -48, -76, 1, 1, -8, 1, 51, -2, 70, 14, 59, 71, -37], "withholdReward": false, "trial_id": "mdp_trial_8", "block": "test", "trialIndex": 9, "score": -28.25, "costs": 0.75, "simulationMode": [null, null, null, null, null], "rewards": [1, 1, -8, 14, -37], "path": ["0", "0", "23", "24", "25", "30", "33"], "rt": [3177, 167, 237, 152, 175], "actions": ["left", "left", "left", "down", "left"], "actionTimes": [5813, 6511, 7261, 7927, 8631], "queries": {"click": {"state": {"target": ["12", "23", "1"], "time": [3447, 4188, 4879]}, "edge": {"target": [], "time": []}}, "mouseover": {"state": {"target": ["12", "0", "23", "1", "0"], "time": [3292, 3727, 3893, 4677, 5343]}, "edge": {"target": [], "time": []}}, "mouseout": {"state": {"target": ["12", "0", "12", "0", "23", "1", "0", "13", "18", "18", "13"], "time": [1977, 3043, 3694, 3784, 4426, 5258, 5426, 15529, 15569, 17909, 17976]}, "edge": {"target": [], "time": []}}}, "displayed_time": "16.64", "trialTime": 19129, "trial_type": "mouselab-mdp", "trial_index": 16, "time_elapsed": 406984, "internal_node_id": "0.0-4.0-1.0-7.0"}}, {"uniqueid": "w39489135:a34731546", "current_trial": 17, "dateTime": 1691142451763, "trialdata": {"revealed_states": [], "clicked_states": ["1", "23", "12"], "num_clicks_accrued": [0, 0, 0, 0, 0, 0, 0, 0, 0, 0, 0, 0, 0], "stateRewards": ["", 1, 3, 3, -10, 52, 68, 59, 12, 7, 49, 21, -2, -3, -4, -2, -2, 63, 63, -4, 44, 43, -76, -2, -3, -6, 13, 48, 36, 12, -5, -36, -33, -11], "withholdReward": false, "trial_id": "mdp_trial_9", "block": "test", "trialIndex": 10, "score": 56.75, "costs": 0.75, "simulationMode": [null, null, null, null, null], "rewards": [1, 3, 3, -10, 59], "path": ["0", "0", "1", "2", "3", "4", "7"], "rt": [3312, 130, 2369, 899, 508], "actions": ["up", "up", "up", "right", "down"], "actionTimes": [4603, 5265, 8169, 9581, 10604], "queries": {"click": {"state": {"target": ["1", "23", "12"], "time": [2046, 2636, 3229]}, "edge": {"target": [], "time": []}}, "mouseover": {"state": {"target": ["1", "23", "0", "12"], "time": [1835, 2354, 2921, 2974]}, "edge": {"target": [], "time": []}}, "mouseout": {"state": {"target": ["23", "0", "12", "0", "1", "1", "23", "23", "0", "12", "2", "2", "7", "7"], "time": [170, 286, 736, 1719, 2054, 2287, 2645, 2887, 2943, 3602, 5877, 6114, 7130, 12357]}, "edge": {"target": [], "time": []}}}, "displayed_time": "15.29", "trialTime": 16634, "trial_type": "mouselab-mdp", "trial_index": 17, "time_elapsed": 424075, "internal_node_id": "0.0-4.0-1.0-8.0"}}, {"uniqueid": "w39489135:a34731546", "current_trial": 18, "dateTime": 1691142472707, "trialdata": {"revealed_states": [], "clicked_states": ["1", "23", "12"], "num_clicks_accrued": [0, 0, 0, 0, 0, 0, 0, 0, 0, 0, 0, 0, 0], "stateRewards": ["", -2, -4, 4, -11, -63, -60, -7, 2, -14, 81, -43, -1, -1, -5, 7, 10, 69, 40, 8, -83, 52, 60, 1, 2, 5, -5, 16, 64, 14, -3, 29, 7, -51], "withholdReward": false, "trial_id": "mdp_trial_10", "block": "test", "trialIndex": 11, "score": -45.25, "costs": 0.75, "simulationMode": [null, null, null, null, null], "rewards": [1, 2, 5, -3, -51], "path": ["0", "0", "23", "24", "25", "30", "33"], "rt": [3978, 115, 212, 29, 131], "actions": ["left", "left", "left", "down", "left"], "actionTimes": [5339, 5973, 6700, 7250, 7918], "queries": {"click": {"state": {"target": ["1", "23", "12"], "time": [2749, 3456, 4417]}, "edge": {"target": [], "time": []}}, "mouseover": {"state": {"target": ["1", "23", "0", "12"], "time": [2457, 3274, 3741, 4140]}, "edge": {"target": [], "time": []}}, "mouseout": {"state": {"target": ["7", "0", "1", "1", "23", "0", "12", "0", "0", "0", "1", "1"], "time": [259, 2098, 2775, 2990, 3690, 3807, 4823, 8866, 9666, 12912, 18139, 18489]}, "edge": {"target": [], "time": []}}}, "displayed_time": "15.36", "trialTime": 20503, "trial_type": "mouselab-mdp", "trial_index": 18, "time_elapsed": 445019, "internal_node_id": "0.0-4.0-1.0-9.0"}}, {"uniqueid": "w39489135:a34731546", "current_trial": 19, "dateTime": 1691142502124, "trialdata": {"revealed_states": [], "clicked_states": ["23", "1", "12", "2", "7", "3", "10", "8", "4"], "num_clicks_accrued": [0, 0, 0, 0, 0, 0, 0, 0, 0, 0, 0, 0, 0], "stateRewards": ["", 2, -1, -2, -5, -47, -57, -33, -11, 31, -18, -72, -2, 1, -4, -8, -46, -53, -50, 15, -85, -9, 39, -2, -2, 1, 14, -1, -8, 53, -12, -41, -74, 62], "withholdReward": false, "trial_id": "mdp_trial_11", "block": "test", "trialIndex": 12, "score": -63.95, "costs": -7.949999999999999, "simulationMode": [null, null, null, null, null], "rewards": [-2, -2, 1, -12, -41], "path": ["0", "0", "23", "24", "25", "30", "31"], "rt": [17493, 162, 118, 204, 170], "actions": ["left", "left", "left", "down", "right"], "actionTimes": [18322, 18997, 19632, 20351, 21035], "queries": {"click": {"state": {"target": ["23", "1", "12", "2", "7", "3", "10", "8", "4"], "time": [1611, 2548, 3126, 4107, 5181, 8160, 9055, 12671, 13639]}, "edge": {"target": [], "time": []}}, "mouseover": {"state": {"target": ["23", "1", "1", "12", "2", "7", "3", "3", "10", "8", "8", "3", "4", "0"], "time": [1399, 2018, 2300, 2883, 3899, 4798, 5478, 6397, 8778, 9459, 10623, 13107, 13454, 17697]}, "edge": {"target": [], "time": []}}, "mouseout": {"state": {"target": ["12", "0", "23", "1", "1", "12", "12", "1", "2", "7", "3", "3", "3", "10", "8", "8", "3", "4", "4", "0", "23", "23"], "time": [300, 1232, 1917, 2051, 2800, 3465, 3582, 3682, 4488, 5196, 6111, 8170, 8660, 9360, 10275, 13072, 13222, 13648, 14204, 17731, 23740, 24672]}, "edge": {"target": [], "time": []}}}, "displayed_time": "21.55", "trialTime": 28951, "trial_type": "mouselab-mdp", "trial_index": 19, "time_elapsed": 474437, "internal_node_id": "0.0-4.0-1.0-10.0"}}, {"uniqueid": "w39489135:a34731546", "current_trial": 20, "dateTime": 1691142518904, "trialdata": {"revealed_states": [], "clicked_states": [], "num_clicks_accrued": [0, 0, 0, 0, 0, 0, 0, 0, 0, 0, 0, 0, 0], "stateRewards": ["", 1, 1, -3, 7, 49, 78, 26, -5, 26, 48, -43, -1, -3, 2, -5, 4, -1, -60, 10, -35, 51, 81, -2, 1, -7, -5, -39, -86, -54, 4, -3, 74, 77], "withholdReward": false, "trial_id": "mdp_trial_12", "block": "test", "trialIndex": 13, "score": 73, "costs": 0, "simulationMode": [null, null, null, null, null], "rewards": [-2, 1, -7, 4, 77], "path": ["0", "0", "23", "24", "25", "30", "33"], "rt": [2071, 74, 773, 5, 438], "actions": ["left", "left", "left", "down", "left"], "actionTimes": [2772, 3362, 4643, 5171, 6138], "queries": {"click": {"state": {"target": [], "time": []}, "edge": {"target": [], "time": []}}, "mouseover": {"state": {"target": ["0"], "time": [2633]}, "edge": {"target": [], "time": []}}, "mouseout": {"state": {"target": ["0", "0", "12"], "time": [2985, 7411, 15335]}, "edge": {"target": [], "time": []}}}, "displayed_time": "14.70", "trialTime": 16317, "trial_type": "mouselab-mdp", "trial_index": 20, "time_elapsed": 491216, "internal_node_id": "0.0-4.0-1.0-11.0"}}, {"uniqueid": "w39489135:a34731546", "current_trial": 21, "dateTime": 1691142615060, "trialdata": {"revealed_states": [], "clicked_states": [], "num_clicks_accrued": [0, 0, 0, 0, 0, 0, 0, 0, 0, 0, 0, 0, 0], "stateRewards": ["", -2, -3, -6, -7, 9, 16, 65, 5, -41, 20, -25, -1, -4, 1, -11, -49, -4, 71, 1, 39, -62, 52, -2, -3, 7, -9, -28, -70, 84, 8, 24, -58, 82], "withholdReward": false, "trial_id": "mdp_trial_13", "block": "test", "trialIndex": 14, "score": -35, "costs": 0, "simulationMode": [null, null, null, null, null], "rewards": [-2, -3, 7, -9, -28], "path": ["0", "0", "23", "24", "25", "26", "27"], "rt": [1848, 441, 188, 214, 698], "actions": ["left", "left", "left", "up", "up"], "actionTimes": [3737, 4709, 5406, 6154, 7365], "queries": {"click": {"state": {"target": [], "time": []}, "edge": {"target": [], "time": []}}, "mouseover": {"state": {"target": ["0"], "time": [2233]}, "edge": {"target": [], "time": []}}, "mouseout": {"state": {"target": ["30", "0", "0", "23", "23", "23", "24", "24", "25", "26", "26", "24"], "time": [767, 1383, 2283, 4281, 4815, 5905, 6496, 6977, 7244, 7911, 10207, 10939]}, "edge": {"target": [], "time": []}}}, "displayed_time": "15.89", "trialTime": 95691, "trial_type": "mouselab-mdp", "trial_index": 21, "time_elapsed": 587372, "internal_node_id": "0.0-4.0-1.0-12.0"}}, {"uniqueid": "w39489135:a34731546", "current_trial": 22, "dateTime": 1691142643621, "trialdata": {"revealed_states": [], "clicked_states": ["1", "2", "3", "8", "4", "7", "6", "5"], "num_clicks_accrued": [0, 0, 0, 0, 0, 0, 0, 0, 0, 0, 0, 0, 0], "stateRewards": ["", 1, 1, -3, 2, 22, -25, -11, -5, 50, 49, 3, 1, -1, 8, 14, -85, -30, 57, -6, -39, -16, 59, -2, -1, 5, 5, 59, -16, 8, 4, 67, 56, -9], "withholdReward": false, "trial_id": "mdp_trial_14", "block": "test", "trialIndex": 15, "score": 12.4, "costs": -10.6, "simulationMode": [null, null, null, null, null], "rewards": [1, 1, -3, 2, 22], "path": ["0", "0", "1", "2", "3", "4", "5"], "rt": [15206, 11, 244, 498, 929], "actions": ["up", "up", "up", "right", "up"], "actionTimes": [18457, 18984, 19758, 20777, 22225], "queries": {"click": {"state": {"target": ["1", "2", "3", "8", "4", "7", "6", "5"], "time": [4129, 4821, 5428, 6066, 7109, 7810, 10990, 14041]}, "edge": {"target": [], "time": []}}, "mouseover": {"state": {"target": ["0", "1", "2", "3", "8", "4", "7", "6", "5", "6", "4", "5", "4", "3", "8"], "time": [3480, 3945, 4547, 5185, 5895, 6894, 7492, 8253, 9008, 9492, 11422, 11854, 14619, 15018, 15151]}, "edge": {"target": [], "time": []}}, "mouseout": {"state": {"target": ["24", "30", "32", "0", "0", "1", "2", "3", "8", "3", "4", "4", "7", "6", "5", "6", "4", "5", "4", "3", "8"], "time": [1864, 1897, 2014, 2430, 3496, 4414, 5097, 5795, 6461, 6678, 7162, 7425, 8142, 8759, 9192, 11372, 11438, 14502, 14833, 15068, 15367]}, "edge": {"target": [], "time": []}}}, "displayed_time": "22.74", "trialTime": 28094, "trial_type": "mouselab-mdp", "trial_index": 22, "time_elapsed": 615934, "internal_node_id": "0.0-4.0-1.0-13.0"}}, {"uniqueid": "w39489135:a34731546", "current_trial": 23, "dateTime": 1691142673404, "trialdata": {"revealed_states": [], "clicked_states": [], "num_clicks_accrued": [0, 0, 0, 0, 0, 0, 0, 0, 0, 0, 0, 0, 0], "stateRewards": ["", -2, -1, -4, -15, -14, -67, 32, -3, -59, 63, 31, 2, -1, -7, -15, 71, -66, -27, -3, -54, -39, 72, 2, 1, 1, -13, 77, -40, 35, -9, 35, 75, 57], "withholdReward": false, "trial_id": "mdp_trial_15", "block": "test", "trialIndex": 16, "score": -63, "costs": 0, "simulationMode": [null, null, null, null, null], "rewards": [2, -1, -7, -3, -54], "path": ["0", "0", "12", "13", "14", "19", "20"], "rt": [1327, 261, 205, 49, 196], "actions": ["right", "right", "right", "down", "right"], "actionTimes": [15300, 16092, 16834, 17396, 18123], "queries": {"click": {"state": {"target": [], "time": []}, "edge": {"target": [], "time": []}}, "mouseover": {"state": {"target": ["0", "12", "22"], "time": [14062, 14495, 14994]}, "edge": {"target": [], "time": []}}, "mouseout": {"state": {"target": ["3", "2", "1", "0", "0", "12", "22", "22", "0", "18", "15", "13", "18", "14", "14"], "time": [13029, 13145, 13179, 13578, 14162, 14944, 15011, 16410, 19023, 19678, 20405, 23834, 24034, 24150, 28945]}, "edge": {"target": [], "time": []}}}, "displayed_time": "27.98", "trialTime": 29322, "trial_type": "mouselab-mdp", "trial_index": 23, "time_elapsed": 645717, "internal_node_id": "0.0-4.0-1.0-14.0"}}, {"uniqueid": "w39489135:a34731546", "current_trial": 24, "dateTime": 1691142707354, "trialdata": {"revealed_states": [], "clicked_states": ["1", "23", "12", "13", "14", "15", "19", "20", "22", "21", "16", "17", "18"], "num_clicks_accrued": [0, 0, 0, 0, 0, 0, 0, 0, 0, 0, 0, 0, 0], "stateRewards": ["", -1, -3, -7, -7, -76, 30, -49, 11, -70, 56, 2, 1, 4, -3, -14, -59, -83, -25, -9, -21, -67, -73, -2, 4, 4, -9, -11, -32, 60, 9, -87, 22, -64], "withholdReward": false, "trial_id": "mdp_trial_16", "block": "test", "trialIndex": 17, "score": -88.55, "costs": -16.55, "simulationMode": [null, null, null, null, null], "rewards": [-2, 4, 4, 9, -87], "path": ["0", "0", "23", "24", "25", "30", "31"], "rt": [26045, 2, 659, 268, 521], "actions": ["left", "left", "left", "down", "right"], "actionTimes": [28433, 28945, 30135, 30924, 31962], "queries": {"click": {"state": {"target": ["1", "23", "12", "13", "14", "15", "19", "20", "22", "21", "16", "17", "18"], "time": [3042, 3554, 4419, 4848, 5526, 6964, 7932, 8539, 11900, 15082, 18755, 22233, 25353]}, "edge": {"target": [], "time": []}}, "mouseover": {"state": {"target": ["0", "1", "23", "0", "12", "19", "12", "13", "14", "19", "15", "19", "20", "22", "22", "21", "20", "15", "16", "16", "17", "15", "18", "14"], "time": [2553, 2869, 3487, 3886, 3905, 3953, 4174, 4619, 5285, 5767, 6614, 7666, 8331, 8863, 9163, 12360, 16918, 17604, 17705, 18520, 19668, 22696, 23113, 27160]}, "edge": {"target": [], "time": []}}, "mouseout": {"state": {"target": ["13", "0", "0", "1", "23", "23", "0", "12", "19", "12", "13", "14", "19", "14", "15", "15", "14", "19", "20", "19", "22", "22", "21", "21", "20", "15", "16", "16", "16", "17", "17", "15", "18", "14", "14"], "time": [1137, 1420, 2785, 3271, 3709, 3853, 3902, 3919, 4087, 4602, 5201, 5718, 6134, 6166, 7104, 7199, 7333, 8198, 8797, 8847, 8931, 12277, 15960, 16838, 17021, 17654, 18334, 18912, 19087, 22426, 22663, 22713, 25995, 27876, 32501]}, "edge": {"target": [], "time": []}}}, "displayed_time": "32.48", "trialTime": 33484, "trial_type": "mouselab-mdp", "trial_index": 24, "time_elapsed": 679667, "internal_node_id": "0.0-4.0-1.0-15.0"}}, {"uniqueid": "w39489135:a34731546", "current_trial": 25, "dateTime": 1691142724806, "trialdata": {"revealed_states": [], "clicked_states": [], "num_clicks_accrued": [0, 0, 0, 0, 0, 0, 0, 0, 0, 0, 0, 0, 0], "stateRewards": ["", -2, -1, -3, -1, -78, -6, 2, -1, 22, -88, 32, 2, 2, -7, -8, -51, -17, 54, 2, -44, 54, 75, 2, -2, -8, -15, -29, 12, -67, 15, -1, -47, -47], "withholdReward": false, "trial_id": "mdp_trial_17", "block": "test", "trialIndex": 18, "score": 15, "costs": 0, "simulationMode": [null, null, null, null, null], "rewards": [-2, -1, -3, -1, 22], "path": ["0", "0", "1", "2", "3", "8", "9"], "rt": [943, 4, 17, 32, 511], "actions": ["up", "up", "up", "left", "up"], "actionTimes": [2459, 2988, 3531, 4078, 5123], "queries": {"click": {"state": {"target": [], "time": []}, "edge": {"target": [], "time": []}}, "mouseover": {"state": {"target": [], "time": []}, "edge": {"target": [], "time": []}}, "mouseout": {"state": {"target": ["19", "12", "0", "0", "0", "0", "1", "12", "22"], "time": [632, 1013, 2480, 3928, 6124, 6791, 7977, 8056, 8123]}, "edge": {"target": [], "time": []}}}, "displayed_time": "15.52", "trialTime": 17018, "trial_type": "mouselab-mdp", "trial_index": 25, "time_elapsed": 697119, "internal_node_id": "0.0-4.0-1.0-16.0"}}, {"uniqueid": "w39489135:a34731546", "current_trial": 26, "dateTime": 1691142743902, "trialdata": {"revealed_states": [], "clicked_states": [], "num_clicks_accrued": [0, 0, 0, 0, 0, 0, 0, 0, 0, 0, 0, 0, 0], "stateRewards": ["", -1, 4, -3, 3, 57, -61, 5, -11, 23, -1, 34, -2, -4, -1, -13, 27, 38, -36, 4, -45, 21, 88, 1, -2, -1, 1, -69, -5, -78, -12, -9, 38, -54], "withholdReward": false, "trial_id": "mdp_trial_18", "block": "test", "trialIndex": 19, "score": 60, "costs": 0, "simulationMode": [null, null, null, null, null], "rewards": [-1, 4, -3, 3, 57], "path": ["0", "0", "1", "2", "3", "4", "5"], "rt": [1382, 38, 36, 176, 23], "actions": ["up", "up", "up", "right", "up"], "actionTimes": [3809, 4380, 4947, 5635, 6180], "queries": {"click": {"state": {"target": [], "time": []}, "edge": {"target": [], "time": []}}, "mouseover": {"state": {"target": [], "time": []}, "edge": {"target": [], "time": []}}, "mouseout": {"state": {"target": ["19", "13", "2", "1", "0", "0", "0", "0", "2", "1", "13", "20", "20", "20"], "time": [1026, 1258, 1625, 1675, 1758, 3790, 3907, 5340, 8118, 8218, 11049, 11516, 13039, 13546]}, "edge": {"target": [], "time": []}}}, "displayed_time": "16.43", "trialTime": 18612, "trial_type": "mouselab-mdp", "trial_index": 26, "time_elapsed": 716214, "internal_node_id": "0.0-4.0-1.0-17.0"}}, {"uniqueid": "w39489135:a34731546", "current_trial": 27, "dateTime": 1691142763386, "trialdata": {"revealed_states": [], "clicked_states": [], "num_clicks_accrued": [0, 0, 0, 0, 0, 0, 0, 0, 0, 0, 0, 0, 0], "stateRewards": ["", -1, 3, 1, -7, 56, 76, 57, 3, 11, -9, 14, 1, -2, 2, 8, -77, -3, 79, -5, 88, 24, -66, -2, -1, 7, -7, -30, 14, -76, 11, -36, 28, -6], "withholdReward": false, "trial_id": "mdp_trial_19", "block": "test", "trialIndex": 20, "score": 9, "costs": 0, "simulationMode": [null, null, null, null, null], "rewards": [-2, -1, 7, 11, -6], "path": ["0", "0", "23", "24", "25", "30", "33"], "rt": [1143, 326, 9, 620, 340], "actions": ["left", "left", "left", "down", "left"], "actionTimes": [3418, 4276, 4805, 5949, 6819], "queries": {"click": {"state": {"target": [], "time": []}, "edge": {"target": [], "time": []}}, "mouseover": {"state": {"target": ["12"], "time": [3195]}, "edge": {"target": [], "time": []}}, "mouseout": {"state": {"target": ["14", "13", "12", "0", "12", "12", "12", "13", "14", "14", "20"], "time": [1214, 1413, 1663, 2603, 3944, 5177, 5776, 6264, 6442, 6708, 7074]}, "edge": {"target": [], "time": []}}}, "displayed_time": "16.28", "trialTime": 19022, "trial_type": "mouselab-mdp", "trial_index": 27, "time_elapsed": 735698, "internal_node_id": "0.0-4.0-1.0-18.0"}}, {"uniqueid": "w39489135:a34731546", "current_trial": 28, "dateTime": 1691142780688, "trialdata": {"revealed_states": [], "clicked_states": [], "num_clicks_accrued": [0, 0, 0, 0, 0, 0, 0, 0, 0, 0, 0, 0, 0], "stateRewards": ["", 2, 3, -6, -5, -3, 55, 40, 11, 61, 11, 51, 2, -4, -6, 9, -25, 29, -15, -6, 7, -77, -2, -2, -4, 1, 14, -43, -1, 56, -12, -54, 41, -74], "withholdReward": false, "trial_id": "mdp_trial_20", "block": "test", "trialIndex": 21, "score": -24, "costs": 0, "simulationMode": [null, null, null, null, null], "rewards": [2, -4, -6, 9, -25], "path": ["0", "0", "12", "13", "14", "15", "16"], "rt": [1050, 230, 298, 456, 29], "actions": ["right", "right", "right", "up", "up"], "actionTimes": [2877, 3644, 4480, 5466, 6007], "queries": {"click": {"state": {"target": [], "time": []}, "edge": {"target": [], "time": []}}, "mouseover": {"state": {"target": ["0"], "time": [1946]}, "edge": {"target": [], "time": []}}, "mouseout": {"state": {"target": ["15", "12", "0", "0", "0", "12", "22", "14", "17"], "time": [812, 879, 996, 2495, 4176, 8688, 12733, 12785, 13391]}, "edge": {"target": [], "time": []}}}, "displayed_time": "15.83", "trialTime": 16795, "trial_type": "mouselab-mdp", "trial_index": 28, "time_elapsed": 753001, "internal_node_id": "0.0-4.0-1.0-19.0"}}, {"uniqueid": "w39489135:a34731546", "current_trial": 29, "dateTime": 1691142801325, "trialdata": {"revealed_states": [], "clicked_states": [], "num_clicks_accrued": [0, 0, 0, 0, 0, 0, 0, 0, 0, 0, 0, 0, 0], "stateRewards": ["", -1, 3, 2, 9, 41, 4, -46, -12, -54, -87, -25, 2, 3, -1, 11, -77, 12, -33, -9, -32, 35, 72, 1, 3, -7, 4, 37, 65, -73, 6, 77, -43, 8], "withholdReward": false, "trial_id": "mdp_trial_21", "block": "test", "trialIndex": 22, "score": -62, "costs": 0, "simulationMode": [null, null, null, null, null], "rewards": [-1, 3, 2, -12, -54], "path": ["0", "0", "1", "2", "3", "8", "9"], "rt": [1036, 330, 191, 146, 297], "actions": ["up", "up", "up", "left", "up"], "actionTimes": [2870, 3738, 4436, 5100, 5909], "queries": {"click": {"state": {"target": [], "time": []}, "edge": {"target": [], "time": []}}, "mouseover": {"state": {"target": ["0"], "time": [2194]}, "edge": {"target": [], "time": []}}, "mouseout": {"state": {"target": ["14", "0", "12", "12"], "time": [811, 2844, 3417, 7121]}, "edge": {"target": [], "time": []}}}, "displayed_time": "15.84", "trialTime": 20168, "trial_type": "mouselab-mdp", "trial_index": 29, "time_elapsed": 773638, "internal_node_id": "0.0-4.0-1.0-20.0"}}, {"uniqueid": "w39489135:a34731546", "current_trial": 30, "dateTime": 1691142818786, "trialdata": {"revealed_states": [], "clicked_states": ["1", "2", "3", "8", "4", "9"], "num_clicks_accrued": [0, 0, 0, 0, 0, 0, 0, 0, 0, 0, 0, 0, 0], "stateRewards": ["", 2, 3, 6, -12, -29, 12, 87, 4, 35, -30, 67, 2, 3, -5, -9, 44, 69, -8, 1, 45, -8, 28, -2, -1, -8, 11, -12, -5, 81, 9, 87, 82, 88], "withholdReward": false, "trial_id": "mdp_trial_22", "block": "test", "trialIndex": 23, "score": 43.7, "costs": -6.299999999999999, "simulationMode": [null, null, null, null, null], "rewards": [2, 3, 6, 4, 35], "path": ["0", "0", "1", "2", "3", "8", "9"], "rt": [9397, 260, 83, 610, 378], "actions": ["up", "up", "up", "left", "up"], "actionTimes": [11021, 11799, 12406, 13547, 14432], "queries": {"click": {"state": {"target": ["1", "2", "3", "8", "4", "9"], "time": [2188, 3146, 4063, 4726, 5530, 6587]}, "edge": {"target": [], "time": []}}, "mouseover": {"state": {"target": ["1", "2", "3", "3", "8", "4", "9", "11", "8"], "time": [2030, 2999, 3630, 3930, 4480, 5199, 6327, 6977, 9971]}, "edge": {"target": [], "time": []}}, "mouseout": {"state": {"target": ["13", "12", "1", "1", "2", "3", "3", "8", "3", "4", "8", "9", "11", "8"], "time": [525, 831, 2382, 2865, 3530, 3731, 4380, 5012, 5045, 5961, 6177, 6876, 9921, 10004]}, "edge": {"target": [], "time": []}}}, "displayed_time": "15.63", "trialTime": 16956, "trial_type": "mouselab-mdp", "trial_index": 30, "time_elapsed": 791099, "internal_node_id": "0.0-4.0-1.0-21.0"}}, {"uniqueid": "w39489135:a34731546", "current_trial": 31, "dateTime": 1691142844471, "trialdata": {"revealed_states": [], "clicked_states": ["23", "1", "12", "24", "25", "27", "19", "15", "4", "8"], "num_clicks_accrued": [0, 0, 0, 0, 0, 0, 0, 0, 0, 0, 0, 0, 0], "stateRewards": ["", -1, 3, 8, 10, -86, 61, -36, 10, 17, -60, 24, -1, -3, 3, 11, 50, 60, 33, -3, -20, 58, -6, 1, -4, -4, 13, -70, -71, 43, 14, 52, 82, -11], "withholdReward": false, "trial_id": "mdp_trial_23", "block": "test", "trialIndex": 24, "score": 35.1, "costs": -8.9, "simulationMode": [null, null, null, null, null], "rewards": [-1, 3, 8, 10, 24], "path": ["0", "0", "1", "2", "3", "8", "11"], "rt": [16938, 404, 177, 141, 127], "actions": ["up", "up", "up", "left", "left"], "actionTimes": [19147, 20069, 20760, 21440, 22076], "queries": {"click": {"state": {"target": ["23", "1", "12", "24", "25", "27", "19", "15", "4", "8"], "time": [3143, 3859, 4933, 5806, 6509, 7057, 11890, 13595, 15591, 17313]}, "edge": {"target": [], "time": []}}, "mouseover": {"state": {"target": ["23", "23", "1", "12", "31", "24", "25", "26", "27", "26", "8", "2", "13", "14", "14", "19", "19", "19", "14", "15", "16", "15", "18", "1", "2", "4", "4", "3", "8", "3", "7"], "time": [2516, 2932, 3683, 4682, 5331, 5664, 6346, 6850, 6929, 7263, 9277, 9609, 10224, 10506, 10739, 11106, 11422, 11643, 12272, 12631, 12714, 13104, 14105, 14155, 14370, 14702, 15335, 16069, 16169, 18032, 18930]}, "edge": {"target": [], "time": []}}, "mouseout": {"state": {"target": ["1", "12", "0", "23", "23", "1", "1", "12", "31", "24", "24", "25", "26", "27", "26", "8", "2", "13", "14", "14", "19", "19", "19", "14", "15", "16", "15", "18", "1", "2", "4", "4", "3", "8", "3", "4", "7", "7"], "time": [1266, 1533, 1800, 2549, 3317, 4000, 4216, 5114, 5381, 5925, 6246, 6810, 6871, 7148, 9111, 9576, 9677, 10257, 10590, 11089, 11156, 11472, 12011, 12589, 12684, 12938, 13764, 14122, 14188, 14521, 14983, 16036, 16103, 17988, 18117, 18764, 18964, 23009]}, "edge": {"target": [], "time": []}}}, "displayed_time": "22.61", "trialTime": 25196, "trial_type": "mouselab-mdp", "trial_index": 31, "time_elapsed": 816783, "internal_node_id": "0.0-4.0-1.0-22.0"}}, {"uniqueid": "w39489135:a34731546", "current_trial": 32, "dateTime": 1691142867435, "trialdata": {"revealed_states": [], "clicked_states": ["4", "8", "24", "13", "19", "15", "26", "30"], "num_clicks_accrued": [0, 0, 0, 0, 0, 0, 0, 0, 0, 0, 0, 0, 0], "stateRewards": ["", 1, -1, 1, -14, -10, 67, -28, -11, 72, 40, -65, -1, 1, 1, -2, 8, -55, 34, -10, 61, 33, -15, 2, -4, 7, 4, -75, 63, -21, -16, 61, 19, 21], "withholdReward": false, "trial_id": "mdp_trial_24", "block": "test", "trialIndex": 25, "score": -76, "costs": -10.000000000000002, "simulationMode": [null, null, null, null, null], "rewards": [2, -4, 7, 4, -75], "path": ["0", "0", "23", "24", "25", "26", "27"], "rt": [10382, 328, 721, 44, 456], "actions": ["left", "left", "left", "up", "up"], "actionTimes": [12089, 12939, 14179, 14736, 15731], "queries": {"click": {"state": {"target": ["4", "8", "24", "13", "19", "15", "26", "30"], "time": [2687, 3671, 5192, 6395, 7303, 8066, 9107, 9804]}, "edge": {"target": [], "time": []}}, "mouseover": {"state": {"target": ["0", "0", "1", "2", "4", "3", "8", "8", "10", "23", "24", "23", "0", "12", "13", "19", "14", "15", "28", "26", "25", "30", "31", "7", "4", "5"], "time": [1753, 1971, 2085, 2169, 2518, 2985, 3036, 3489, 4019, 4446, 4832, 5484, 5584, 5800, 6099, 6832, 7681, 7848, 8763, 8962, 9378, 9645, 10195, 11275, 11458, 11691]}, "edge": {"target": [], "time": []}}, "mouseout": {"state": {"target": ["12", "0", "0", "0", "1", "2", "4", "3", "8", "8", "10", "23", "24", "23", "0", "12", "13", "13", "19", "14", "15", "28", "26", "25", "30", "30", "31", "7", "4", "5", "12"], "time": [670, 1219, 1802, 2036, 2136, 2319, 2968, 3018, 3118, 3986, 4035, 4667, 5467, 5534, 5650, 5957, 6555, 6799, 7615, 7748, 8363, 8846, 9362, 9445, 9930, 10145, 10228, 11375, 11624, 12790, 21796]}, "edge": {"target": [], "time": []}}}, "displayed_time": "16.25", "trialTime": 22492, "trial_type": "mouselab-mdp", "trial_index": 32, "time_elapsed": 839748, "internal_node_id": "0.0-4.0-1.0-23.0"}}, {"uniqueid": "w39489135:a34731546", "current_trial": 33, "dateTime": 1691142884587, "trialdata": {"revealed_states": [], "clicked_states": ["2", "24", "13", "19", "15", "26", "30", "8", "4"], "num_clicks_accrued": [0, 0, 0, 0, 0, 0, 0, 0, 0, 0, 0, 0, 0], "stateRewards": ["", 2, 3, 3, 10, 19, -21, 6, 9, 54, 68, 16, 2, 2, -6, -8, 40, -2, -75, -2, -42, 55, 59, -1, 2, 4, -14, 11, -34, -30, -6, 61, -53, 13], "withholdReward": false, "trial_id": "mdp_trial_25", "block": "test", "trialIndex": 26, "score": 26.65, "costs": -10.35, "simulationMode": [null, null, null, null, null], "rewards": [2, 3, 3, 10, 19], "path": ["0", "0", "1", "2", "3", "4", "5"], "rt": [10211, 160, 62, 160, 135], "actions": ["up", "up", "up", "right", "up"], "actionTimes": [11331, 12017, 12602, 13280, 13926], "queries": {"click": {"state": {"target": ["2", "24", "13", "19", "15", "26", "30", "8", "4"], "time": [1972, 3079, 4039, 5367, 6585, 7455, 8079, 9273, 10074]}, "edge": {"target": [], "time": []}}, "mouseover": {"state": {"target": ["0", "1", "2", "1", "23", "24", "23", "0", "12", "13", "22", "19", "14", "15", "16", "15", "18", "28", "26", "25", "30", "25", "8", "4"], "time": [1266, 1548, 1848, 2368, 2571, 2881, 3298, 3398, 3465, 3806, 4563, 5211, 5712, 5779, 6062, 6345, 6861, 7011, 7344, 7727, 7827, 8410, 9223, 9806]}, "edge": {"target": [], "time": []}}, "mouseout": {"state": {"target": ["0", "0", "1", "2", "1", "23", "24", "23", "0", "12", "13", "22", "19", "14", "15", "16", "15", "18", "28", "26", "25", "30", "25", "8", "4", "18"], "time": [516, 1498, 1665, 2317, 2382, 2632, 3265, 3365, 3415, 3632, 4497, 4764, 5662, 5746, 5863, 6179, 6845, 6895, 7028, 7661, 7776, 8379, 8425, 9607, 10640, 14118]}, "edge": {"target": [], "time": []}}}, "displayed_time": "15.12", "trialTime": 16666, "trial_type": "mouselab-mdp", "trial_index": 33, "time_elapsed": 856900, "internal_node_id": "0.0-4.0-1.0-24.0"}}, {"uniqueid": "w39489135:a34731546", "current_trial": 34, "dateTime": 1691142920577, "trialdata": {"revealed_states": [], "clicked_states": [], "num_clicks_accrued": [0, 0, 0, 0, 0, 0, 0, 0, 0, 0, 0, 0, 0], "stateRewards": ["", 1, -1, 8, -3, 38, 85, -20, -4, 8, 23, 73, 2, -4, 6, -13, 44, 7, -28, -11, -77, 45, -69, 1, -1, -7, -11, 75, -51, -87, 7, 36, -53, -26], "withholdReward": false, "trial_id": "mdp_trial_26", "block": "test", "trialIndex": 27, "score": 27, "costs": 0, "simulationMode": [null, null, null, null, null], "rewards": [1, -1, 8, -4, 23], "path": ["0", "0", "1", "2", "3", "8", "10"], "rt": [1728, 1588, 680, 126, 433], "actions": ["up", "up", "up", "left", "down"], "actionTimes": [3095, 5199, 6408, 7071, 8041], "queries": {"click": {"state": {"target": [], "time": []}, "edge": {"target": [], "time": []}}, "mouseover": {"state": {"target": ["0"], "time": [1915]}, "edge": {"target": [], "time": []}}, "mouseout": {"state": {"target": ["12", "0", "0", "0", "0", "0", "12", "12", "12"], "time": [726, 2009, 3475, 3723, 7036, 7470, 8734, 35171, 35454]}, "edge": {"target": [], "time": []}}}, "displayed_time": "15.37", "trialTime": 35504, "trial_type": "mouselab-mdp", "trial_index": 34, "time_elapsed": 892890, "internal_node_id": "0.0-4.0-1.0-25.0"}}, {"uniqueid": "w39489135:a34731546", "current_trial": 35, "dateTime": 1691142938494, "trialdata": {"revealed_states": [], "clicked_states": ["13", "24", "4", "8"], "num_clicks_accrued": [0, 0, 0, 0, 0, 0, 0, 0, 0, 0, 0, 0, 0], "stateRewards": ["", 2, 3, -2, -8, -8, -41, 74, 15, -23, -80, 1, 1, 3, 3, -15, -63, -78, 67, 13, 75, -41, 86, 2, -2, 6, -3, -8, -49, 50, -6, 83, 74, 80], "withholdReward": false, "trial_id": "mdp_trial_27", "block": "test", "trialIndex": 28, "score": 15.2, "costs": -3.8, "simulationMode": [null, null, null, null, null], "rewards": [2, 3, -2, 15, 1], "path": ["0", "0", "1", "2", "3", "8", "11"], "rt": [7072, 303, 248, 77, 878], "actions": ["up", "up", "up", "left", "left"], "actionTimes": [8533, 9353, 10129, 10723, 12145], "queries": {"click": {"state": {"target": ["13", "24", "4", "8"], "time": [2332, 3778, 4931, 6637]}, "edge": {"target": [], "time": []}}, "mouseover": {"state": {"target": ["0", "12", "13", "12", "0", "23", "24", "24", "23", "12", "18", "7", "4", "3", "8", "8", "10", "1", "0"], "time": [1804, 1838, 2103, 2689, 2721, 2771, 2905, 3254, 4237, 4287, 4386, 4486, 4536, 5500, 5850, 6432, 7149, 7448, 7848]}, "edge": {"target": [], "time": []}}, "mouseout": {"state": {"target": ["2", "0", "23", "0", "0", "12", "13", "12", "0", "23", "24", "24", "23", "12", "18", "7", "4", "3", "8", "8", "10", "1", "0", "0", "0"], "time": [288, 704, 854, 1780, 1822, 1854, 2672, 2705, 2738, 2822, 3039, 4222, 4253, 4302, 4453, 4504, 5334, 5667, 5982, 7100, 7167, 7516, 8480, 9295, 10611]}, "edge": {"target": [], "time": []}}}, "displayed_time": "15.46", "trialTime": 17357, "trial_type": "mouselab-mdp", "trial_index": 35, "time_elapsed": 910807, "internal_node_id": "0.0-4.0-1.0-26.0"}}, {"uniqueid": "w39489135:a34731546", "current_trial": 36, "dateTime": 1691142956454, "trialdata": {"revealed_states": [], "clicked_states": ["8", "4", "24", "13", "19", "15"], "num_clicks_accrued": [0, 0, 0, 0, 0, 0, 0, 0, 0, 0, 0, 0, 0], "stateRewards": ["", -2, -2, -7, -13, -10, 49, -68, -1, 84, 70, 88, 1, 4, 4, 12, -57, 25, 30, 8, -1, -77, 57, 2, 3, 2, 3, -18, -80, 23, -15, -41, 70, 11], "withholdReward": false, "trial_id": "mdp_trial_28", "block": "test", "trialIndex": 29, "score": 44.1, "costs": -6.9, "simulationMode": [null, null, null, null, null], "rewards": [1, 4, 4, 12, 30], "path": ["0", "0", "12", "13", "14", "15", "18"], "rt": [8431, 253, 221, 3, 144], "actions": ["right", "right", "right", "up", "left"], "actionTimes": [10923, 11716, 12463, 12997, 13668], "queries": {"click": {"state": {"target": ["8", "4", "24", "13", "19", "15"], "time": [3750, 4694, 5754, 6721, 8646, 9723]}, "edge": {"target": [], "time": []}}, "mouseover": {"state": {"target": ["3", "8", "8", "3", "4", "2", "1", "23", "24", "23", "12", "13", "19", "14", "15", "14"], "time": [2525, 2748, 3392, 4097, 4164, 5147, 5180, 5264, 5490, 6129, 6312, 6496, 8458, 8908, 9024, 10606]}, "edge": {"target": [], "time": []}}, "mouseout": {"state": {"target": ["0", "0", "0", "3", "8", "8", "3", "4", "2", "1", "23", "24", "23", "12", "13", "13", "19", "14", "15", "15", "14", "19", "14", "15", "20"], "time": [985, 1266, 2081, 2540, 3022, 4046, 4146, 5114, 5164, 5197, 5364, 6096, 6145, 6446, 6766, 7212, 8783, 8974, 9852, 10140, 10722, 10888, 11022, 11192, 11839]}, "edge": {"target": [], "time": []}}}, "displayed_time": "16.49", "trialTime": 17415, "trial_type": "mouselab-mdp", "trial_index": 36, "time_elapsed": 928766, "internal_node_id": "0.0-4.0-1.0-27.0"}}, {"uniqueid": "w39489135:a34731546", "current_trial": 37, "dateTime": 1691142978221, "trialdata": {"revealed_states": [], "clicked_states": ["15", "19", "26", "30", "8", "4"], "num_clicks_accrued": [0, 0, 0, 0, 0, 0, 0, 0, 0, 0, 0, 0, 0], "stateRewards": ["", -1, -4, -1, -5, -28, -23, -15, -15, -38, 59, -87, 2, 2, -5, 9, -55, -39, -71, -6, 85, -85, -11, -1, -2, 5, -10, 1, 25, 41, -4, 69, -35, 86], "withholdReward": false, "trial_id": "mdp_trial_29", "block": "test", "trialIndex": 30, "score": -40.3, "costs": -9.3, "simulationMode": [null, null, null, null, null], "rewards": [2, 2, -5, 9, -39], "path": ["0", "0", "12", "13", "14", "15", "17"], "rt": [7181, 182, 647, 3, 149], "actions": ["right", "right", "right", "up", "right"], "actionTimes": [9838, 10553, 11717, 12256, 12937], "queries": {"click": {"state": {"target": ["15", "19", "26", "30", "8", "4"], "time": [4205, 5190, 6348, 7101, 8226, 8805]}, "edge": {"target": [], "time": []}}, "mouseover": {"state": {"target": ["13", "14", "15", "14", "19", "22", "31", "30", "25", "26", "25", "30", "24", "28", "10", "8", "3", "4", "6"], "time": [3660, 3750, 3976, 4565, 4645, 5543, 5809, 5892, 6042, 6290, 6656, 6723, 7460, 7490, 7773, 7839, 8464, 8509, 9374]}, "edge": {"target": [], "time": []}}, "mouseout": {"state": {"target": ["20", "21", "13", "12", "0", "0", "13", "14", "15", "14", "19", "22", "31", "30", "25", "26", "25", "30", "24", "28", "10", "8", "3", "4", "4", "6", "16", "16", "16", "16", "13"], "time": [1129, 1212, 1578, 1661, 1794, 2227, 3677, 3876, 4544, 4596, 5519, 5559, 5842, 5910, 6125, 6606, 6690, 7407, 7473, 7507, 7790, 8435, 8484, 8924, 9155, 9488, 10619, 11734, 12767, 19841, 21106]}, "edge": {"target": [], "time": []}}}, "displayed_time": "16.66", "trialTime": 21283, "trial_type": "mouselab-mdp", "trial_index": 37, "time_elapsed": 950534, "internal_node_id": "0.0-4.0-1.0-28.0"}}, {"uniqueid": "w39489135:a34731546", "current_trial": 38, "dateTime": 1691142995880, "trialdata": {"revealed_states": [], "clicked_states": ["16"], "num_clicks_accrued": [0, 0, 0, 0, 0, 0, 0, 0, 0, 0, 0, 0, 0], "stateRewards": ["", -2, 1, -7, 9, 8, 25, 61, -7, -17, 69, -81, 1, 4, -4, -11, 16, 67, 44, 3, 6, -45, -54, -2, 3, 6, -11, -15, 32, -47, 3, -39, -6, -88], "withholdReward": false, "trial_id": "mdp_trial_30", "block": "test", "trialIndex": 31, "score": 3.8499999999999996, "costs": -2.15, "simulationMode": [null, null, null, null, null], "rewards": [1, 4, -4, -11, 16], "path": ["0", "0", "12", "13", "14", "15", "16"], "rt": [6550, 267, 3, 58, 447], "actions": ["right", "right", "right", "up", "up"], "actionTimes": [7694, 8491, 9027, 9614, 10584], "queries": {"click": {"state": {"target": ["16"], "time": [2506]}, "edge": {"target": [], "time": []}}, "mouseover": {"state": {"target": ["16", "16", "19", "21", "31", "30", "33", "14", "22", "19", "20"], "time": [1893, 2260, 3177, 3643, 3943, 3976, 4010, 6006, 6305, 6739, 6788]}, "edge": {"target": [], "time": []}}, "mouseout": {"state": {"target": ["12", "0", "16", "16", "19", "21", "31", "30", "33", "16", "14", "22", "19", "20", "17"], "time": [562, 1157, 1944, 2695, 3295, 3793, 3959, 3993, 4027, 5192, 6055, 6705, 6772, 6871, 10378]}, "edge": {"target": [], "time": []}}}, "displayed_time": "15.14", "trialTime": 17165, "trial_type": "mouselab-mdp", "trial_index": 38, "time_elapsed": 968193, "internal_node_id": "0.0-4.0-1.0-29.0"}}, {"uniqueid": "w39489135:a34731546", "current_trial": 39, "dateTime": 1691143012990, "trialdata": {"revealed_states": [], "clicked_states": [], "num_clicks_accrued": [0, 0, 0, 0, 0, 0, 0, 0, 0, 0, 0, 0, 0], "stateRewards": ["", 1, 1, -7, -9, -44, 24, -83, -15, 44, -24, 72, -2, -3, 4, -5, 57, 55, 29, -11, 22, 12, -25, -1, 2, 7, 12, 33, -8, 47, -4, 8, 50, -4], "withholdReward": false, "trial_id": "mdp_trial_31", "block": "test", "trialIndex": 32, "score": 12, "costs": 0, "simulationMode": [null, null, null, null, null], "rewards": [-1, 2, 7, 12, -8], "path": ["0", "0", "23", "24", "25", "26", "28"], "rt": [1217, 255, 75, 257, 156], "actions": ["left", "left", "left", "up", "right"], "actionTimes": [2358, 3144, 3746, 4512, 5192], "queries": {"click": {"state": {"target": [], "time": []}, "edge": {"target": [], "time": []}}, "mouseover": {"state": {"target": ["0", "23"], "time": [1369, 1601]}, "edge": {"target": [], "time": []}}, "mouseout": {"state": {"target": ["16", "1", "0", "23", "31", "31", "24", "31"], "time": [352, 552, 1531, 2334, 4649, 5198, 5698, 11241]}, "edge": {"target": [], "time": []}}}, "displayed_time": "15.14", "trialTime": 16553, "trial_type": "mouselab-mdp", "trial_index": 39, "time_elapsed": 985303, "internal_node_id": "0.0-4.0-1.0-30.0"}}, {"uniqueid": "w39489135:a34731546", "current_trial": 40, "dateTime": 1691143038071, "trialdata": {"revealed_states": [], "clicked_states": ["2", "24", "13"], "num_clicks_accrued": [0, 0, 0, 0, 0, 0, 0, 0, 0, 0, 0, 0, 0], "stateRewards": ["", 1, -1, 4, 5, -32, 18, 20, 6, -88, -74, 9, -2, 1, -2, -14, 34, -77, -38, -1, 80, -36, 73, 2, 3, -8, 10, -48, -73, -71, -11, -22, 20, 54], "withholdReward": false, "trial_id": "mdp_trial_32", "block": "test", "trialIndex": 33, "score": 38.95, "costs": -1.0499999999999998, "simulationMode": [null, null, null, null, null], "rewards": [2, 3, -8, -11, 54], "path": ["0", "0", "23", "24", "25", "30", "33"], "rt": [5573, 220, 155, 93, 501], "actions": ["left", "left", "left", "down", "left"], "actionTimes": [7541, 8274, 8959, 9564, 10603], "queries": {"click": {"state": {"target": ["2", "24", "13"], "time": [3321, 4514, 5867]}, "edge": {"target": [], "time": []}}, "mouseover": {"state": {"target": ["1", "7", "2", "1", "23", "24", "23", "0", "12", "13", "22"], "time": [2439, 2805, 2955, 3673, 3856, 4239, 4816, 4905, 4972, 5557, 6668]}, "edge": {"target": [], "time": []}}, "mouseout": {"state": {"target": ["23", "23", "13", "12", "23", "23", "0", "1", "7", "2", "1", "23", "24", "23", "0", "12", "13", "13", "22", "21"], "time": [407, 540, 706, 806, 890, 1124, 2339, 2672, 2908, 3639, 3689, 4008, 4802, 4842, 4937, 5038, 5920, 6471, 6686, 7884]}, "edge": {"target": [], "time": []}}}, "displayed_time": "15.97", "trialTime": 24475, "trial_type": "mouselab-mdp", "trial_index": 40, "time_elapsed": 1010384, "internal_node_id": "0.0-4.0-1.0-31.0"}}, {"uniqueid": "w39489135:a34731546", "current_trial": 41, "dateTime": 1691143063454, "trialdata": {"revealed_states": [], "clicked_states": ["2", "13", "24"], "num_clicks_accrued": [0, 0, 0, 0, 0, 0, 0, 0, 0, 0, 0, 0, 0], "stateRewards": ["", -2, 2, 3, -7, -31, -33, 29, -8, -57, 50, -83, -1, -1, 5, 13, -23, -62, 25, 5, -66, -85, 14, 1, -2, -1, 16, 71, 33, -19, -14, 5, -43, 79], "withholdReward": false, "trial_id": "mdp_trial_33", "block": "test", "trialIndex": 34, "score": -36.05, "costs": -1.0499999999999998, "simulationMode": [null, null, null, null, null], "rewards": [-2, 2, 3, -7, -31], "path": ["0", "0", "1", "2", "3", "4", "5"], "rt": [5845, 183, 287, 124, 442], "actions": ["up", "up", "up", "right", "up"], "actionTimes": [11657, 12365, 13164, 13823, 14787], "queries": {"click": {"state": {"target": ["2", "13", "24"], "time": [7062, 9113, 10262]}, "edge": {"target": [], "time": []}}, "mouseover": {"state": {"target": ["0", "1", "2", "2", "1", "14", "13", "13", "12", "23", "24", "23", "0", "12", "18", "14"], "time": [5828, 6314, 6514, 6796, 7416, 7831, 8129, 8911, 9495, 9745, 10128, 10760, 10795, 10843, 10992, 11375]}, "edge": {"target": [], "time": []}}, "mouseout": {"state": {"target": ["17", "14", "13", "12", "0", "0", "1", "2", "2", "1", "14", "13", "13", "12", "23", "24", "23", "0", "12", "18", "14", "16", "7", "8", "11", "9", "4", "7"], "time": [4748, 4931, 5014, 5065, 5248, 6214, 6397, 6547, 7398, 7448, 7997, 8428, 9479, 9518, 9828, 10726, 10793, 10809, 10892, 11010, 11458, 21913, 22013, 22096, 23161, 23295, 23594, 23727]}, "edge": {"target": [], "time": []}}}, "displayed_time": "19.81", "trialTime": 24851, "trial_type": "mouselab-mdp", "trial_index": 41, "time_elapsed": 1035767, "internal_node_id": "0.0-4.0-1.0-32.0"}}, {"uniqueid": "w39489135:a34731546", "current_trial": 42, "dateTime": 1691143081797, "trialdata": {"revealed_states": [], "clicked_states": ["4", "8", "25", "14"], "num_clicks_accrued": [0, 0, 0, 0, 0, 0, 0, 0, 0, 0, 0, 0, 0], "stateRewards": ["", 2, -3, 5, -14, -63, -9, -24, -11, -54, -43, 68, 2, -2, -4, 7, -64, 30, 47, 12, -74, 11, 86, 1, -3, 3, 10, -71, -42, -52, -1, -29, -16, 69], "withholdReward": false, "trial_id": "mdp_trial_34", "block": "test", "trialIndex": 35, "score": -34, "costs": -5, "simulationMode": [null, null, null, null, null], "rewards": [1, -3, 3, -1, -29], "path": ["0", "0", "23", "24", "25", "30", "31"], "rt": [5312, 36, 511, 437, 500], "actions": ["left", "left", "left", "down", "right"], "actionTimes": [6975, 7530, 8571, 9530, 10560], "queries": {"click": {"state": {"target": ["4", "8", "25", "14"], "time": [2548, 3331, 4449, 5458]}, "edge": {"target": [], "time": []}}, "mouseover": {"state": {"target": ["6", "4", "3", "8", "8", "28", "25", "24", "23", "18", "14", "13", "12", "23", "23"], "time": [2064, 2347, 2832, 2932, 3182, 3781, 3915, 4763, 4795, 4929, 5262, 5932, 5978, 6509, 6892]}, "edge": {"target": [], "time": []}}, "mouseout": {"state": {"target": ["0", "0", "23", "23", "6", "4", "3", "8", "8", "8", "28", "25", "24", "23", "18", "14", "14", "13", "12", "23", "23", "23", "2", "1", "23", "31", "31", "24", "24", "24"], "time": [null, 149, 698, 1031, 2297, 2799, 2868, 2948, 3456, 3648, 3832, 4746, 4779, 4813, 4979, 5514, 5929, 5962, 6011, 6576, 6959, 7210, 10872, 11803, 12037, 12819, 12969, 13720, 13934, 16232]}, "edge": {"target": [], "time": []}}}, "displayed_time": "15.66", "trialTime": 17751, "trial_type": "mouselab-mdp", "trial_index": 42, "time_elapsed": 1054109, "internal_node_id": "0.0-4.0-1.0-33.0"}}, {"uniqueid": "w39489135:a34731546", "current_trial": 43, "dateTime": 1691143101640, "trialdata": {"revealed_states": [], "clicked_states": ["25", "4", "8", "14", "9"], "num_clicks_accrued": [0, 0, 0, 0, 0, 0, 0, 0, 0, 0, 0, 0, 0], "stateRewards": ["", 2, -1, 3, -12, -83, 6, -33, 9, 28, 24, -50, -2, -1, -2, -5, -87, 37, 82, 12, 80, -5, 10, -2, -3, -6, 9, 22, -1, 16, 9, 77, -62, 58], "withholdReward": false, "trial_id": "mdp_trial_35", "block": "test", "trialIndex": 36, "score": 33.85, "costs": -7.15, "simulationMode": [null, null, null, null, null], "rewards": [2, -1, 3, 9, 28], "path": ["0", "0", "1", "2", "3", "8", "9"], "rt": [9727, 124, 49, 562, 151], "actions": ["up", "up", "up", "left", "up"], "actionTimes": [11620, 12272, 12857, 13953, 14623], "queries": {"click": {"state": {"target": ["25", "4", "8", "14", "9"], "time": [3082, 4295, 5097, 6292, 7512]}, "edge": {"target": [], "time": []}}, "mouseover": {"state": {"target": ["23", "24", "25", "28", "2", "4", "4", "3", "8", "8", "2", "18", "15", "14", "14", "18", "5", "9", "10", "10"], "time": [2318, 2367, 2917, 3351, 3468, 3601, 4018, 4520, 4579, 4966, 5388, 5534, 5699, 5781, 6100, 6796, 6946, 7295, 10659, 11340]}, "edge": {"target": [], "time": []}}, "mouseout": {"state": {"target": ["32", "0", "12", "0", "23", "24", "25", "28", "2", "4", "4", "3", "8", "8", "8", "2", "18", "15", "14", "14", "18", "4", "5", "9", "8", "10", "10"], "time": [552, 701, 968, 2068, 2336, 2583, 3228, 3368, 3536, 3719, 4501, 4540, 4669, 5134, 5340, 5420, 5631, 5731, 5799, 6645, 6829, 6912, 6979, 7813, 7946, 10791, 11357]}, "edge": {"target": [], "time": []}}}, "displayed_time": "15.89", "trialTime": 19219, "trial_type": "mouselab-mdp", "trial_index": 43, "time_elapsed": 1073953, "internal_node_id": "0.0-4.0-1.0-34.0"}}, {"uniqueid": "w39489135:a34731546", "current_trial": 44, "dateTime": 1691143123940, "trialdata": {"revealed_states": [], "clicked_states": ["8", "4", "26", "15", "19", "30", "27"], "num_clicks_accrued": [0, 0, 0, 0, 0, 0, 0, 0, 0, 0, 0, 0, 0], "stateRewards": ["", 1, 4, 5, -5, 58, -80, 75, 6, 25, -39, 46, 2, -2, 4, 2, 59, 31, -22, -12, -61, 15, 72, 1, -2, -7, 8, 77, 76, -23, -7, 71, -15, -3], "withholdReward": false, "trial_id": "mdp_trial_36", "block": "test", "trialIndex": 37, "score": 65.55, "costs": -11.450000000000001, "simulationMode": [null, null, null, null, null], "rewards": [1, -2, -7, 8, 77], "path": ["0", "0", "23", "24", "25", "26", "27"], "rt": [14168, 770, 95, 315, 275], "actions": ["left", "left", "left", "up", "up"], "actionTimes": [15974, 17260, 17867, 18702, 19496], "queries": {"click": {"state": {"target": ["8", "4", "26", "15", "19", "30", "27"], "time": [3015, 4194, 6488, 8161, 9364, 10392, 11461]}, "edge": {"target": [], "time": []}}, "mouseover": {"state": {"target": ["1", "2", "8", "10", "1", "2", "4", "1", "23", "24", "25", "26", "23", "14", "15", "14", "19", "22", "31", "30", "25", "27", "28"], "time": [2185, 2252, 2801, 3353, 3453, 3660, 3918, 4716, 4816, 5184, 5382, 5698, 7098, 7629, 7945, 8546, 9195, 9729, 9945, 10028, 10844, 11261, 12392]}, "edge": {"target": [], "time": []}}, "mouseout": {"state": {"target": ["1", "1", "2", "8", "10", "1", "2", "4", "4", "1", "23", "24", "25", "26", "23", "14", "15", "15", "14", "19", "22", "31", "30", "25", "27", "28", "28"], "time": [1053, 2219, 2286, 3303, 3369, 3629, 3735, 4268, 4483, 4767, 4883, 5315, 5631, 7015, 7131, 7879, 8335, 8495, 8662, 9712, 9762, 10012, 10811, 10878, 11827, 18817, 21064]}, "edge": {"target": [], "time": []}}}, "displayed_time": "20.02", "trialTime": 21759, "trial_type": "mouselab-mdp", "trial_index": 44, "time_elapsed": 1096253, "internal_node_id": "0.0-4.0-1.0-35.0"}}, {"uniqueid": "w39489135:a34731546", "current_trial": 45, "dateTime": 1691143147830, "trialdata": {"revealed_states": [], "clicked_states": ["26", "15", "4", "8", "19", "17", "16"], "num_clicks_accrued": [0, 0, 0, 0, 0, 0, 0, 0, 0, 0, 0, 0, 0], "stateRewards": ["", 2, 4, -6, -13, -75, -81, 30, 7, 5, 59, -65, -1, -1, 7, 14, -38, 36, -41, 1, -54, -5, 64, 2, -1, 5, 6, -19, 79, 11, 16, -33, -50, 58], "withholdReward": false, "trial_id": "mdp_trial_37", "block": "test", "trialIndex": 38, "score": 42.95, "costs": -12.05, "simulationMode": [null, null, null, null, null], "rewards": [-1, -1, 7, 14, 36], "path": ["0", "0", "12", "13", "14", "15", "17"], "rt": [14847, 313, 194, 261, 10], "actions": ["right", "right", "right", "up", "right"], "actionTimes": [17202, 18026, 18738, 19520, 20068], "queries": {"click": {"state": {"target": ["26", "15", "4", "8", "19", "17", "16"], "time": [3557, 5840, 6940, 7881, 9186, 10924, 14012]}, "edge": {"target": [], "time": []}}, "mouseover": {"state": {"target": ["0", "23", "24", "26", "25", "0", "12", "18", "15", "15", "18", "6", "4", "3", "8", "8", "2", "13", "19", "14", "17", "17", "16", "16"], "time": [2372, 2843, 2926, 3142, 3943, 4857, 4924, 5006, 5273, 5589, 6307, 6575, 6740, 7205, 7272, 7739, 8239, 8404, 8952, 10069, 10400, 10702, 11302, 11635]}, "edge": {"target": [], "time": []}}, "mouseout": {"state": {"target": ["28", "23", "0", "23", "24", "26", "25", "0", "12", "18", "15", "15", "18", "6", "4", "4", "3", "8", "8", "2", "13", "19", "14", "17", "17", "16", "16", "16", "18", "13", "20", "21"], "time": [1377, 1643, 2826, 2876, 2959, 3910, 3993, 4890, 4941, 5090, 5323, 6241, 6374, 6707, 7085, 7188, 7238, 7424, 8222, 8272, 8555, 9720, 10119, 10533, 10955, 11418, 14630, 22170, 22353, 22671, 22936, 23086]}, "edge": {"target": [], "time": []}}}, "displayed_time": "20.59", "trialTime": 23349, "trial_type": "mouselab-mdp", "trial_index": 45, "time_elapsed": 1120143, "internal_node_id": "0.0-4.0-1.0-36.0"}}, {"uniqueid": "w39489135:a34731546", "current_trial": 46, "dateTime": 1691143166691, "trialdata": {"revealed_states": [], "clicked_states": ["4", "8", "25", "14", "9"], "num_clicks_accrued": [0, 0, 0, 0, 0, 0, 0, 0, 0, 0, 0, 0, 0], "stateRewards": ["", -2, -1, 3, -3, 71, -58, -21, 7, -10, -75, -37, 2, 4, -1, -12, -79, -29, -48, 3, -41, -10, -30, -1, -2, 1, -15, 13, 66, 22, -1, -42, -86, -55], "withholdReward": false, "trial_id": "mdp_trial_38", "block": "test", "trialIndex": 39, "score": -37.15, "costs": -7.15, "simulationMode": [null, null, null, null, null], "rewards": [-2, -1, 3, 7, -37], "path": ["0", "0", "1", "2", "3", "8", "11"], "rt": [10073, 397, 45, 142, 336], "actions": ["up", "up", "up", "left", "left"], "actionTimes": [11791, 12714, 13291, 13954, 14814], "queries": {"click": {"state": {"target": ["4", "8", "25", "14", "9"], "time": [2698, 3297, 4274, 5233, 6252]}, "edge": {"target": [], "time": []}}, "mouseover": {"state": {"target": ["1", "4", "3", "8", "10", "28", "25", "25", "24", "23", "0", "12", "13", "14", "15", "7", "3", "9", "8", "10", "10", "10", "10", "24", "28", "3", "2", "7", "7", "1", "1"], "time": [2136, 2519, 2973, 3038, 3645, 3753, 3886, 4103, 4552, 4585, 4635, 4685, 4802, 5036, 5635, 5701, 5800, 5917, 6766, 6850, 7549, 8031, 8331, 8398, 8498, 9928, 10061, 10127, 10261, 10644, 11726]}, "edge": {"target": [], "time": []}}, "mouseout": {"state": {"target": ["22", "23", "0", "1", "4", "3", "8", "10", "28", "25", "25", "24", "23", "0", "12", "13", "14", "15", "7", "3", "9", "8", "10", "10", "10", "10", "24", "28", "9", "9", "9", "9", "3", "2", "7", "7", "1", "1", "2", "2", "1", "2", "2", "2", "2"], "time": [571, 871, 1733, 2187, 2905, 3005, 3599, 3661, 3803, 3936, 4421, 4569, 4619, 4668, 4752, 4886, 5568, 5651, 5767, 5834, 6717, 6800, 7287, 7882, 8182, 8348, 8481, 8514, 8914, 9179, 9613, 9845, 9994, 10078, 10145, 10410, 10710, 11743, 12559, 13724, 14340, 15438, 16171, 17319, 17902]}, "edge": {"target": [], "time": []}}}, "displayed_time": "15.72", "trialTime": 18313, "trial_type": "mouselab-mdp", "trial_index": 46, "time_elapsed": 1139003, "internal_node_id": "0.0-4.0-1.0-37.0"}}, {"uniqueid": "w39489135:a34731546", "current_trial": 47, "dateTime": 1691143189021, "trialdata": {"revealed_states": [], "clicked_states": ["5", "9", "33", "17"], "num_clicks_accrued": [0, 0, 0, 0, 0, 0, 0, 0, 0, 0, 0, 0, 0], "stateRewards": ["", 2, -1, -3, 16, -3, -16, -62, -1, 13, -26, 43, -1, 4, 3, -9, -54, -37, -3, -12, -71, -68, -57, 1, -3, 2, -9, 2, -2, -9, -11, 84, -52, 55], "withholdReward": false, "trial_id": "mdp_trial_39", "block": "test", "trialIndex": 40, "score": 35.4, "costs": -8.6, "simulationMode": [null, null, null, null, null], "rewards": [1, -3, 2, -11, 55], "path": ["0", "0", "23", "24", "25", "30", "33"], "rt": [12956, 341, 21, 8, 562], "actions": ["left", "left", "left", "down", "left"], "actionTimes": [14205, 15063, 15592, 16128, 17215], "queries": {"click": {"state": {"target": ["5", "9", "33", "17"], "time": [2045, 4953, 7812, 11012]}, "edge": {"target": [], "time": []}}, "mouseover": {"state": {"target": ["1", "7", "4", "4", "5", "4", "8", "9", "9", "3", "16", "15", "17", "15", "18", "23", "24", "33", "30", "31", "13", "15", "17"], "time": [1286, 1333, 1400, 1732, 1966, 2401, 3550, 3699, 4115, 5613, 5729, 5813, 6096, 6845, 6865, 7028, 7294, 7594, 8327, 8360, 8510, 8676, 8909]}, "edge": {"target": [], "time": []}}, "mouseout": {"state": {"target": ["18", "1", "1", "7", "4", "4", "5", "4", "8", "9", "9", "3", "16", "15", "17", "15", "18", "23", "24", "33", "30", "31", "13", "15", "17", "17", "15", "18", "18", "16", "15", "13", "13"], "time": [333, 466, 1300, 1366, 1582, 1832, 2367, 2500, 3632, 3850, 5542, 5647, 5762, 5830, 6828, 6862, 6877, 7162, 7394, 8276, 8344, 8393, 8542, 8842, 11640, 13321, 17716, 19212, 19479, 19562, 20178, 20444, 20727]}, "edge": {"target": [], "time": []}}}, "displayed_time": "17.75", "trialTime": 21761, "trial_type": "mouselab-mdp", "trial_index": 47, "time_elapsed": 1161334, "internal_node_id": "0.0-4.0-1.0-38.0"}}, {"uniqueid": "w39489135:a34731546", "current_trial": 48, "dateTime": 1691143217232, "trialdata": {"revealed_states": [], "clicked_states": ["33", "6", "11", "20"], "num_clicks_accrued": [0, 0, 0, 0, 0, 0, 0, 0, 0, 0, 0, 0, 0], "stateRewards": ["", -2, 2, -5, -6, 10, -66, -58, -10, -11, -63, -70, -1, -4, -5, 7, 66, -64, -43, -3, 45, -37, 4, -2, -2, -6, -4, -30, 33, 43, 15, -32, -65, -59], "withholdReward": false, "trial_id": "mdp_trial_40", "block": "test", "trialIndex": 41, "score": 23.4, "costs": -8.6, "simulationMode": [null, null, null, null, null], "rewards": [-1, -4, -5, -3, 45], "path": ["0", "0", "12", "13", "14", "19", "20"], "rt": [17008, 195, 261, 11, 127], "actions": ["right", "right", "right", "down", "right"], "actionTimes": [21345, 22084, 22871, 23403, 24053], "queries": {"click": {"state": {"target": ["33", "6", "11", "20"], "time": [6063, 9725, 13403, 16601]}, "edge": {"target": [], "time": []}}, "mouseover": {"state": {"target": ["0", "23", "31", "30", "33", "25", "2", "6", "6", "4", "8", "3", "4", "6", "4", "3", "3", "8", "11", "10", "13", "14", "20", "17", "17"], "time": [5444, 5495, 5627, 5661, 5911, 6297, 6395, 6461, 6786, 7860, 8376, 8441, 8508, 9090, 10207, 11222, 12104, 12288, 12504, 14002, 14136, 14202, 14985, 18864, 20828]}, "edge": {"target": [], "time": []}}, "mouseout": {"state": {"target": ["18", "12", "0", "0", "23", "31", "30", "33", "25", "2", "6", "6", "4", "8", "3", "4", "6", "6", "4", "3", "3", "8", "11", "11", "10", "13", "14", "20", "20", "17", "17", "17"], "time": [3562, 3712, 3995, 5478, 5560, 5645, 5710, 6262, 6313, 6412, 6478, 7844, 7877, 8425, 8475, 8792, 9861, 10140, 10240, 11789, 12204, 12387, 13546, 13970, 14035, 14170, 14551, 17832, 18464, 20693, 20943, 22075]}, "edge": {"target": [], "time": []}}}, "displayed_time": "24.61", "trialTime": 27679, "trial_type": "mouselab-mdp", "trial_index": 48, "time_elapsed": 1189544, "internal_node_id": "0.0-4.0-1.0-39.0"}}, {"uniqueid": "w39489135:a34731546", "current_trial": 49, "dateTime": 1691143253529, "trialdata": {"rt": 36293, "response": {"Q0": "$-2 to $2", "Q1": "$-32 to $32", "Q2": "$-88 to $88", "Q3": "The cost for clicking on nodes varied between nodes.", "Q4": "Slightly motivated"}, "question_order": [0, 1, 2, 3, 4], "trial_id": "final_quiz_control", "trial_type": "survey-multi-choice", "trial_index": 49, "time_elapsed": 1225842, "internal_node_id": "0.0-4.0-2.0"}}, {"uniqueid": "w39489135:a34731546", "current_trial": 50, "dateTime": 1691143338355, "trialdata": {"rt": 84816, "response": {"Q0": "sometimes, it was just luck.other times i'd click the end nodes to see what the highest payoff was", "Q1": "not necessarily, i just deployed random strategies with each subsequent game", "Q2": "very difficult. there wasn't any consistency between nodes which made it hard to have a side i could favour."}, "trial_id": "self_report_control", "trial_type": "survey-text", "trial_index": 50, "time_elapsed": 1310668, "internal_node_id": "0.0-4.0-3.0"}}, {"uniqueid": "w39489135:a34731546", "current_trial": 51, "dateTime": 1691143388604, "trialdata": {"rt": 50244, "response": {"Q0": "Agree", "Q1": "Strongly disagree", "Q2": "Strongly agree", "Q3": "Strongly agree", "Q4": "Strongly disagree", "Q5": "Strongly agree", "Q6": "Strongly disagree"}, "question_order": [0, 1, 2, 3, 4, 5, 6], "trial_id": "self_report_2", "trial_type": "survey-multi-choice", "trial_index": 51, "time_elapsed": 1360917, "internal_node_id": "0.0-4.0-4.0"}}, {"uniqueid": "w39489135:a34731546", "current_trial": 52, "dateTime": 1691143419752, "trialdata": {"rt": 31141, "response": {"gender": "male", "age": "21", "colorblind": "0", "effort": "1"}, "trial_type": "survey-html-form", "trial_index": 52, "time_elapsed": 1392065, "internal_node_id": "0.0-4.0-5.0"}}, {"uniqueid": "w39489135:a34731546", "current_trial": 53, "dateTime": 1691143457705, "trialdata": {"rt": 37946, "response": {"Q0": "n/a", "Q1": "this was my first time doing a web of cash HIT, or any other HIT for that matter", "Q2": "n/a"}, "trial_type": "survey-text", "trial_index": 53, "time_elapsed": 1430018, "internal_node_id": "0.0-4.0-6.0"}}, {"uniqueid": "w39489135:a34731546", "current_trial": 54, "dateTime": 1691143462438, "trialdata": {"rt": 4726, "stimulus": "Press 'Finish HIT' in order to reach the completion code. Once the data has been saved, you will receive the code either in this window or in the original browser window where you started the experiment.\n", "response": 0, "trial_type": "html-button-response", "trial_index": 54, "time_elapsed": 1434751, "internal_node_id": "0.0-5.0"}}, {"uniqueid": "w39489135:a34731546", "current_trial": 55, "dateTime": 1691143463441, "trialdata": {"success": true, "trial_type": "fullscreen", "trial_index": 55, "time_elapsed": 1435754, "internal_node_id": "0.0-6.0"}}], "questiondata": {"params": {"CODE": "C6DMOQA6", "MIN_TIME": 14, "inspectCost": 1, "startTime": "Fri Aug 04 2023 11:40:26 GMT+0200 (South Africa Standard Time)", "bonusRate": 0.002, "variance": "1_2_4_8_44", "branching": "31123"}, "final_score": -43.2}, "eventdata": [{"eventtype": "initialized", "value": null, "timestamp": 1691142025888, "interval": 0}, {"eventtype": "window_resize", "value": [1366, 670], "timestamp": 1691142025888, "interval": 0}, {"eventtype": "window_resize", "value": [1366, 670], "timestamp": 1691142026298, "interval": 410}, {"eventtype": "window_resize", "value": [1366, 768], "timestamp": 1691142030720, "interval": 4422}, {"eventtype": "window_resize", "value": [1366, 670], "timestamp": 1691143462717, "interval": 1431997}], "useragent": "Mozilla/5.0 (Windows NT 10.0; Win64; x64) AppleWebKit/537.36 (KHTML, like Gecko) Chrome/115.0.0.0 Safari/537.36", "mode": "live", "id": "w39489135:a34731546", "status": "user data saved", "Beginhit": "2023-08-04 09:40:22.001967", "Beginexp": "2023-08-04 09:40:29.735217", "Endhit": "2023-08-04 10:04:22.840546", "psiturkStatus": 3, "browser": "<redacted>", "platform": "windows", "language": "en-GB"}