{"condition": 0, "counterbalance": 0, "assignmentId": "a41925762", "workerId": "w16476295", "hitId": "h79504144", "currenttrial": 55, "bonus": 0, "data": [{"uniqueid": "w16476295:a41925762", "current_trial": 0, "dateTime": 1693564766134, "trialdata": {"success": true, "trial_type": "fullscreen", "trial_index": 0, "time_elapsed": 4911, "internal_node_id": "0.0-0.0"}}, {"uniqueid": "w16476295:a41925762", "current_trial": 1, "dateTime": 1693564785301, "trialdata": {"view_history": [{"page_index": 0, "viewing_time": 19162}], "rt": 19163, "trial_id": "exp_instructions_control", "trial_type": "instructions", "trial_index": 1, "time_elapsed": 24078, "internal_node_id": "0.0-1.0"}}, {"uniqueid": "w16476295:a41925762", "current_trial": 2, "dateTime": 1693565194678, "trialdata": {"view_history": [{"page_index": 0, "viewing_time": 70798}, {"page_index": 1, "viewing_time": 205119}, {"page_index": 2, "viewing_time": 93832}, {"page_index": 3, "viewing_time": 39625}], "rt": 409374, "trial_id": "mouselab_instructions_1_control", "trial_type": "instructions", "trial_index": 2, "time_elapsed": 433454, "internal_node_id": "0.0-2.0-1.0"}}, {"uniqueid": "w16476295:a41925762", "current_trial": 3, "dateTime": 1693565247252, "trialdata": {"revealed_states": [], "clicked_states": ["13", "14", "1", "19", "20", "23", "2", "4", "6"], "num_clicks_accrued": [0, 0, 0, 0, 0, 0, 0, 0, 0, 0, 0, 0, 0], "stateRewards": ["", -10, -10, 10, -10, -10, 10, 10, -10, 10, 10, -10, -10, 10, 10, -10, -10, 10, 10, 10, 10, -10, -10, -10, -10, -10, -10, 10, -10, 10, -10, -10, -10, 10], "withholdReward": false, "trial_id": "practice_1", "block": "test", "trialIndex": 0, "score": 29, "costs": -4.5, "simulationMode": [null, null, null, null, null], "rewards": [-10, 10, 10, 10, 10], "path": ["0", "0", "12", "13", "14", "19", "20"], "rt": [39402, 349, 356, 284, 357], "actions": ["right", "right", "right", "down", "right"], "actionTimes": [43255, 44166, 45076, 45898, 46801], "queries": {"click": {"state": {"target": ["13", "14", "1", "19", "20", "23", "2", "4", "6"], "time": [5928, 10676, 12874, 15301, 18089, 22338, 25017, 27351, 32277]}, "edge": {"target": [], "time": []}}, "mouseover": {"state": {"target": ["0", "12", "13", "13", "12", "12", "14", "14", "19", "22", "12", "1", "2", "0", "12", "14", "19", "21", "20", "19", "22", "0", "23", "24", "24", "1", "2", "3", "4", "4", "6", "18", "7", "6", "18", "13", "22", "22"], "time": [3886, 4820, 4920, 5079, 7098, 7413, 9012, 10363, 11113, 11640, 11845, 12480, 13422, 14630, 14713, 15029, 15108, 15696, 17880, 21346, 21422, 21548, 21897, 22737, 23697, 24309, 24914, 25473, 26571, 27196, 27836, 30731, 31430, 31878, 35360, 35440, 35543, 35731]}, "edge": {"target": [], "time": []}}, "mouseout": {"state": {"target": ["0", "0", "12", "13", "13", "12", "12", "13", "14", "14", "19", "22", "12", "1", "2", "1", "0", "12", "14", "19", "21", "20", "19", "22", "0", "23", "24", "24", "1", "2", "3", "4", "4", "6", "18", "7", "6", "18", "13", "22", "22"], "time": [3327, 4796, 4876, 5027, 6329, 7123, 7894, 8677, 10225, 11065, 11639, 11693, 11871, 13261, 14527, 14580, 14662, 14912, 15054, 15585, 17796, 19099, 21395, 21473, 21645, 22628, 23510, 24013, 24711, 25264, 26547, 26896, 27664, 30393, 31377, 31509, 35281, 35398, 35492, 35612, 37347]}, "edge": {"target": [], "time": []}}}, "displayed_time": "47.35", "trialTime": 51379, "trial_type": "mouselab-mdp", "trial_index": 3, "time_elapsed": 486028, "internal_node_id": "0.0-2.0-2.0-0.0"}}, {"uniqueid": "w16476295:a41925762", "current_trial": 4, "dateTime": 1693565264674, "trialdata": {"revealed_states": [], "clicked_states": ["1", "24", "13", "19"], "num_clicks_accrued": [0, 0, 0, 0, 0, 0, 0, 0, 0, 0, 0, 0, 0], "stateRewards": ["", -10, -10, -10, -10, -10, -10, -10, 10, 10, -10, 10, -10, 10, 10, 10, 10, -10, -10, 10, -10, 10, 10, -10, -10, -10, -10, -10, 10, 10, -10, 10, 10, -10], "withholdReward": false, "trial_id": "practice_2", "block": "test", "trialIndex": 1, "score": 31.5, "costs": -2, "simulationMode": [null, null, null, null, null], "rewards": [-10, 10, 10, 10, 10], "path": ["0", "0", "12", "13", "14", "19", "21"], "rt": [8860, 747, 162, 142, 320], "actions": ["right", "right", "right", "down", "down"], "actionTimes": [10807, 12108, 12816, 13498, 14366], "queries": {"click": {"state": {"target": ["1", "24", "13", "19"], "time": [3934, 6097, 7263, 8886]}, "edge": {"target": [], "time": []}}, "mouseover": {"state": {"target": ["0", "1", "23", "24", "24", "25", "12", "13", "14", "19", "22"], "time": [3276, 3694, 4694, 5511, 5959, 6400, 6884, 7166, 7735, 8644, 10292]}, "edge": {"target": [], "time": []}}, "mouseout": {"state": {"target": ["0", "0", "1", "23", "24", "24", "25", "12", "13", "14", "19"], "time": [2608, 3376, 4225, 5413, 5677, 6345, 6771, 6937, 7683, 8361, 9529]}, "edge": {"target": [], "time": []}}}, "displayed_time": "14.91", "trialTime": 16748, "trial_type": "mouselab-mdp", "trial_index": 4, "time_elapsed": 503451, "internal_node_id": "0.0-2.0-2.0-1.0"}}, {"uniqueid": "w16476295:a41925762", "current_trial": 5, "dateTime": 1693565326843, "trialdata": {"view_history": [{"page_index": 0, "viewing_time": 49823}, {"page_index": 1, "viewing_time": 12344}], "rt": 62168, "trial_id": "mouselab_instructions_2_control", "trial_type": "instructions", "trial_index": 5, "time_elapsed": 565620, "internal_node_id": "0.0-2.0-3.0"}}, {"uniqueid": "w16476295:a41925762", "current_trial": 6, "dateTime": 1693565471615, "trialdata": {"rt": 144767, "response": {"Q0": "The cost for clicking on nodes may vary between nodes.", "Q1": "The better I perform the higher my bonus will be.", "Q2": "No, the amount of cash at each node of the web may be different each time.", "Q3": "To get the highest total score.", "Q4": "Only before moving the spider.", "Q5": "3 seconds"}, "question_order": [0, 1, 2, 3, 4, 5], "correct": {"Q0": "The cost for clicking on nodes may vary between nodes.", "Q1": "The better I perform the higher my bonus will be.", "Q2": "No, the amount of cash at each node of the web may be different each time.", "Q3": "To get the highest total score.", "Q4": "Only before moving the spider.", "Q5": "3 seconds"}, "trial_id": "mouselab_quiz_control", "trial_type": "survey-multi-choice", "trial_index": 6, "time_elapsed": 710392, "internal_node_id": "0.0-2.0-4.0"}}, {"uniqueid": "w16476295:a41925762", "current_trial": 7, "dateTime": 1693565479685, "trialdata": {"rt": 8064, "response": {"Q0": "No"}, "question_order": [0], "trial_id": "repeat_check", "trial_type": "survey-multi-choice", "trial_index": 7, "time_elapsed": 718462, "internal_node_id": "0.0-4.0-0.0"}}, {"uniqueid": "w16476295:a41925762", "current_trial": 8, "dateTime": 1693565505026, "trialdata": {"rt": 25337, "stimulus": "\n<h1> Get ready to start the game! </h1>\n\nThank you for reading the instructions. Get ready start with the 40 rounds of this game.\n<br><br>\nIf you need to take a break, feel free to take one after the end of a round, before continuing to the next one.\n<br><br>\nRemember, the more money the spider gets, the bigger your bonus will be!\n<br><br>\n<div style='text-align: center;'>Press <code>space</code> to begin.</div>\n\n<br><br>\n(If, at any point, the <code>space</code> key does not take you to the next page, click once on the text and try again.)", "response": " ", "trial_id": "mdp_ready", "trial_type": "html-keyboard-response", "trial_index": 8, "time_elapsed": 743803, "internal_node_id": "0.0-6.0-0.0"}}, {"uniqueid": "w16476295:a41925762", "current_trial": 9, "dateTime": 1693565533615, "trialdata": {"revealed_states": [], "clicked_states": ["19", "24", "2", "26"], "num_clicks_accrued": [0, 0, 0, 0, 0, 0, 0, 0, 0, 0, 0, 0, 0], "stateRewards": ["", -1, 3, 8, 10, -86, 61, -36, 10, 17, -60, 24, -1, -3, 3, 11, 50, 60, 33, -3, -20, 58, -6, 1, -4, -4, 13, -70, -71, 43, 14, 52, 82, -11], "withholdReward": false, "trial_id": "mdp_trial_1", "block": "test", "trialIndex": 2, "score": 75.4, "costs": -5.6, "simulationMode": [null, null, null, null, null], "rewards": [-1, 3, 8, 10, 61], "path": ["0", "0", "1", "2", "3", "4", "6"], "rt": [9562, 1374, 5049, 1353, 204], "actions": ["up", "up", "up", "right", "right"], "actionTimes": [12809, 14738, 20335, 22235, 22955], "queries": {"click": {"state": {"target": ["19", "24", "2", "26"], "time": [4215, 6810, 9018, 11051]}, "edge": {"target": [], "time": []}}, "mouseover": {"state": {"target": ["12", "13", "22", "19", "14", "15", "1", "25", "24", "2", "28", "26"], "time": [3668, 3747, 3913, 4016, 4695, 5182, 5930, 6246, 6678, 7678, 10647, 10750]}, "edge": {"target": [], "time": []}}, "mouseout": {"state": {"target": ["0", "12", "13", "22", "19", "14", "15", "1", "25", "24", "2", "2", "28", "26", "1", "10", "8", "3", "3"], "time": [2129, 3713, 3815, 3978, 4534, 4860, 5801, 5956, 6478, 7201, 9613, 9829, 10698, 11668, 17581, 17844, 19164, 20310, 24678]}, "edge": {"target": [], "time": []}}}, "displayed_time": "23.51", "trialTime": 27909, "trial_type": "mouselab-mdp", "trial_index": 9, "time_elapsed": 772392, "internal_node_id": "0.0-6.0-1.0-0.0"}}, {"uniqueid": "w16476295:a41925762", "current_trial": 10, "dateTime": 1693565581153, "trialdata": {"revealed_states": [], "clicked_states": ["26", "25", "13", "15"], "num_clicks_accrued": [0, 0, 0, 0, 0, 0, 0, 0, 0, 0, 0, 0, 0], "stateRewards": ["", 1, -4, -4, 8, 1, -79, 68, -10, -79, 8, -74, -1, -3, -6, 14, 43, 23, 9, 5, -51, 63, 61, -2, 4, 6, -10, 69, -32, 57, 15, -80, -80, -77], "withholdReward": false, "trial_id": "mdp_trial_2", "block": "test", "trialIndex": 3, "score": 21.4, "costs": -5.6, "simulationMode": [null, null, null, null, null], "rewards": [-1, -3, -6, 14, 23], "path": ["0", "0", "12", "13", "14", "15", "17"], "rt": [16701, 157, 527, 187, 646], "actions": ["right", "right", "right", "up", "right"], "actionTimes": [33034, 33763, 34860, 35593, 36780], "queries": {"click": {"state": {"target": ["26", "25", "13", "15"], "time": [18430, 20599, 23120, 25818]}, "edge": {"target": [], "time": []}}, "mouseover": {"state": {"target": ["23", "24", "24", "26", "25", "23", "13", "18", "13", "22", "12", "7", "15", "14", "17"], "time": [17514, 17605, 17927, 18215, 19148, 21205, 21578, 22661, 22764, 23614, 25145, 25380, 25529, 26170, 31597]}, "edge": {"target": [], "time": []}}, "mouseout": {"state": {"target": ["0", "23", "24", "24", "26", "25", "23", "13", "18", "13", "22", "12", "7", "15", "14", "17"], "time": [17480, 17564, 17797, 17982, 19037, 20941, 21415, 21688, 22714, 23565, 24281, 25173, 25406, 26116, 31477, 32215]}, "edge": {"target": [], "time": []}}}, "displayed_time": "37.33", "trialTime": 46879, "trial_type": "mouselab-mdp", "trial_index": 10, "time_elapsed": 819930, "internal_node_id": "0.0-6.0-1.0-1.0"}}, {"uniqueid": "w16476295:a41925762", "current_trial": 11, "dateTime": 1693565610688, "trialdata": {"revealed_states": [], "clicked_states": ["3", "19", "25"], "num_clicks_accrued": [0, 0, 0, 0, 0, 0, 0, 0, 0, 0, 0, 0, 0], "stateRewards": ["", 1, 4, 7, -16, -84, -6, -46, -12, -7, -49, -26, -1, 2, -4, 2, 22, 37, -64, 1, 88, -13, -10, 1, -4, -2, 5, 2, -10, -34, 9, 66, 55, 38], "withholdReward": false, "trial_id": "mdp_trial_3", "block": "test", "trialIndex": 4, "score": -11.2, "costs": -4.199999999999999, "simulationMode": [null, null, null, null, null], "rewards": [1, 4, 7, -12, -7], "path": ["0", "0", "1", "2", "3", "8", "9"], "rt": [17987, 254, 258, 362, 344], "actions": ["up", "up", "up", "left", "up"], "actionTimes": [20195, 20961, 21742, 22637, 23519], "queries": {"click": {"state": {"target": ["3", "19", "25"], "time": [4185, 8258, 11745]}, "edge": {"target": [], "time": []}}, "mouseover": {"state": {"target": ["12", "13", "18", "2", "3", "3", "2", "1", "22", "19", "24", "23", "12", "19", "22", "25", "28", "7", "18", "10", "8", "11", "8", "2"], "time": [2719, 2796, 3071, 3253, 3422, 3990, 4672, 4795, 6438, 6513, 6986, 7182, 7284, 7986, 10281, 10570, 14004, 14106, 15405, 15481, 15668, 15747, 17981, 18087]}, "edge": {"target": [], "time": []}}, "mouseout": {"state": {"target": ["14", "13", "22", "0", "12", "13", "18", "2", "3", "3", "2", "1", "22", "19", "24", "23", "12", "19", "22", "25", "25", "28", "7", "18", "10", "8", "11", "8", "2"], "time": [1187, 1238, 1301, 1639, 2756, 2844, 3097, 3339, 3685, 4621, 4790, 4844, 6463, 6706, 7155, 7230, 7336, 10258, 10338, 12026, 13952, 14039, 14302, 15429, 15538, 15696, 17952, 18032, 18139]}, "edge": {"target": [], "time": []}}}, "displayed_time": "24.04", "trialTime": 28856, "trial_type": "mouselab-mdp", "trial_index": 11, "time_elapsed": 849465, "internal_node_id": "0.0-6.0-1.0-2.0"}}, {"uniqueid": "w16476295:a41925762", "current_trial": 12, "dateTime": 1693565631654, "trialdata": {"revealed_states": [], "clicked_states": ["14", "3", "25"], "num_clicks_accrued": [0, 0, 0, 0, 0, 0, 0, 0, 0, 0, 0, 0, 0], "stateRewards": ["", 2, -4, 4, 9, 69, 9, -75, 12, -86, 66, 25, -1, 3, 2, -13, -88, -3, 1, 4, -69, 49, -84, 2, -1, 4, 2, -18, -81, -52, -15, -69, -54, 25], "withholdReward": false, "trial_id": "mdp_trial_4", "block": "test", "trialIndex": 5, "score": -68.2, "costs": -4.199999999999999, "simulationMode": [null, null, null, null, null], "rewards": [2, -1, 4, -15, -54], "path": ["0", "0", "23", "24", "25", "30", "32"], "rt": [10531, 205, 159, 226, 173], "actions": ["left", "left", "left", "down", "down"], "actionTimes": [13029, 13783, 14484, 15252, 15969], "queries": {"click": {"state": {"target": ["14", "3", "25"], "time": [3965, 6509, 9146]}, "edge": {"target": [], "time": []}}, "mouseover": {"state": {"target": ["12", "13", "14", "23", "24", "24", "23", "3", "25", "22", "30"], "time": [2906, 3202, 3470, 4516, 4731, 5007, 5787, 6188, 7370, 11088, 11520]}, "edge": {"target": [], "time": []}}, "mouseout": {"state": {"target": ["0", "0", "0", "12", "13", "14", "23", "24", "24", "23", "3", "25", "22"], "time": [1241, 1370, 2615, 2929, 3305, 4408, 4677, 4793, 5721, 5814, 6951, 9796, 11114]}, "edge": {"target": [], "time": []}}}, "displayed_time": "17.42", "trialTime": 20305, "trial_type": "mouselab-mdp", "trial_index": 12, "time_elapsed": 870431, "internal_node_id": "0.0-6.0-1.0-3.0"}}, {"uniqueid": "w16476295:a41925762", "current_trial": 13, "dateTime": 1693565658662, "trialdata": {"revealed_states": [], "clicked_states": ["14", "27", "21"], "num_clicks_accrued": [0, 0, 0, 0, 0, 0, 0, 0, 0, 0, 0, 0, 0], "stateRewards": ["", -2, -1, -6, -14, -55, 78, -13, 11, 14, -71, 59, 2, 2, 6, -6, 9, 38, 14, 7, 85, 11, 68, 1, -4, -1, -3, -63, -85, 9, -2, 63, -86, -10], "withholdReward": false, "trial_id": "mdp_trial_5", "block": "test", "trialIndex": 6, "score": 23.8, "costs": -4.199999999999999, "simulationMode": [null, null, null, null, null], "rewards": [2, 2, 6, 7, 11], "path": ["0", "0", "12", "13", "14", "19", "21"], "rt": [8982, 291, 204, 181, 286], "actions": ["right", "right", "right", "down", "down"], "actionTimes": [14903, 15741, 16467, 17216, 18042], "queries": {"click": {"state": {"target": ["14", "27", "21"], "time": [7169, 9691, 12083]}, "edge": {"target": [], "time": []}}, "mouseover": {"state": {"target": ["12", "13", "14", "13", "14", "1", "2", "3", "8", "10", "28", "27", "25", "31", "22", "21"], "time": [6346, 6432, 6628, 6828, 6982, 8141, 8254, 8438, 8829, 9097, 9193, 9478, 10243, 11481, 11581, 11935]}, "edge": {"target": [], "time": []}}, "mouseout": {"state": {"target": ["30", "31", "0", "12", "13", "14", "13", "14", "14", "1", "2", "3", "8", "10", "28", "27", "25", "31", "22", "21"], "time": [4909, 4963, 5329, 6397, 6469, 6698, 6936, 7254, 7819, 8197, 8316, 8699, 9061, 9144, 9381, 10189, 10300, 11514, 11648, 12169]}, "edge": {"target": [], "time": []}}}, "displayed_time": "20.92", "trialTime": 26356, "trial_type": "mouselab-mdp", "trial_index": 13, "time_elapsed": 897439, "internal_node_id": "0.0-6.0-1.0-4.0"}}, {"uniqueid": "w16476295:a41925762", "current_trial": 14, "dateTime": 1693565682553, "trialdata": {"revealed_states": [], "clicked_states": ["6", "21", "29"], "num_clicks_accrued": [0, 0, 0, 0, 0, 0, 0, 0, 0, 0, 0, 0, 0], "stateRewards": ["", 2, -3, -8, 14, -7, -51, 73, 2, 36, 36, -43, -1, 3, -4, 1, 6, 87, -65, 15, 61, -42, -83, -1, 3, -2, -7, 30, -48, 35, 13, 26, 60, 78], "withholdReward": false, "trial_id": "mdp_trial_6", "block": "test", "trialIndex": 7, "score": 23.8, "costs": -4.199999999999999, "simulationMode": [null, null, null, null, null], "rewards": [-1, 3, -2, -7, 35], "path": ["0", "0", "23", "24", "25", "26", "29"], "rt": [10421, 57, 218, 191, 91], "actions": ["left", "left", "left", "up", "left"], "actionTimes": [11990, 12594, 13335, 14072, 14704], "queries": {"click": {"state": {"target": ["6", "21", "29"], "time": [2513, 4521, 6821]}, "edge": {"target": [], "time": []}}, "mouseover": {"state": {"target": ["6", "18", "22", "21", "32", "32", "30", "29", "14", "17", "15", "12", "23"], "time": [2328, 2810, 2921, 3245, 5166, 5487, 6392, 6710, 8087, 8510, 9076, 9213, 9613]}, "edge": {"target": [], "time": []}}, "mouseout": {"state": {"target": ["12", "0", "6", "18", "22", "21", "32", "32", "30", "29", "14", "17", "15", "12", "23"], "time": [378, 1008, 2695, 2864, 2983, 4857, 5220, 6277, 6420, 7055, 8143, 9027, 9165, 9264, 9661]}, "edge": {"target": [], "time": []}}}, "displayed_time": "16.51", "trialTime": 23194, "trial_type": "mouselab-mdp", "trial_index": 14, "time_elapsed": 921330, "internal_node_id": "0.0-6.0-1.0-5.0"}}, {"uniqueid": "w16476295:a41925762", "current_trial": 15, "dateTime": 1693565712051, "trialdata": {"revealed_states": [], "clicked_states": ["5", "9", "21", "32"], "num_clicks_accrued": [0, 0, 0, 0, 0, 0, 0, 0, 0, 0, 0, 0, 0], "stateRewards": ["", -2, -3, 1, -7, 39, -67, 16, 5, -20, 73, 66, -1, 4, 5, -3, 23, -68, -87, -8, 3, -3, 17, 1, -4, -2, -13, -32, 34, 61, -5, -11, -18, 12], "withholdReward": false, "trial_id": "mdp_trial_7", "block": "test", "trialIndex": 8, "score": 22.4, "costs": -5.6, "simulationMode": [null, null, null, null, null], "rewards": [-2, -3, 1, -7, 39], "path": ["0", "0", "1", "2", "3", "4", "5"], "rt": [15787, 84, 248, 930, 245], "actions": ["up", "up", "up", "right", "up"], "actionTimes": [17271, 17913, 18704, 20186, 20976], "queries": {"click": {"state": {"target": ["5", "9", "21", "32"], "time": [2489, 4946, 7424, 11948]}, "edge": {"target": [], "time": []}}, "mouseover": {"state": {"target": ["12", "1", "3", "5", "3", "2", "2", "9", "9", "8", "0", "21", "32", "31", "30", "25", "25", "24"], "time": [1516, 1908, 2026, 2305, 2893, 3323, 3692, 4407, 4690, 5190, 5367, 7142, 11823, 16472, 16722, 16843, 16990, 17116]}, "edge": {"target": [], "time": []}}, "mouseout": {"state": {"target": ["2", "23", "12", "1", "3", "5", "5", "3", "2", "2", "9", "9", "8", "0", "21", "32", "31", "30", "25", "25", "24"], "time": [256, 471, 1650, 1933, 2061, 2582, 2842, 3212, 3376, 4323, 4472, 5184, 5238, 6625, 7676, 12286, 16502, 16750, 16874, 17090, 17193]}, "edge": {"target": [], "time": []}}}, "displayed_time": "21.51", "trialTime": 28820, "trial_type": "mouselab-mdp", "trial_index": 15, "time_elapsed": 950827, "internal_node_id": "0.0-6.0-1.0-6.0"}}, {"uniqueid": "w16476295:a41925762", "current_trial": 16, "dateTime": 1693565740528, "trialdata": {"revealed_states": [], "clicked_states": ["28", "18", "22", "20", "33", "31"], "num_clicks_accrued": [0, 0, 0, 0, 0, 0, 0, 0, 0, 0, 0, 0, 0], "stateRewards": ["", -1, 4, -3, 3, 57, -61, 5, -11, 23, -1, 34, -2, -4, -1, -13, 27, 38, -36, 4, -45, 21, 88, 1, -2, -1, 1, -69, -5, -78, -12, -9, 38, -54], "withholdReward": false, "trial_id": "mdp_trial_8", "block": "test", "trialIndex": 9, "score": 76.6, "costs": -8.4, "simulationMode": [null, null, null, null, null], "rewards": [-2, -4, -1, 4, 88], "path": ["0", "0", "12", "13", "14", "19", "22"], "rt": [16194, 47, 68, 52, 184], "actions": ["right", "right", "right", "down", "left"], "actionTimes": [18205, 18799, 19394, 20002, 20699], "queries": {"click": {"state": {"target": ["28", "18", "22", "20", "33", "31"], "time": [3388, 5721, 7756, 10217, 12950, 15370]}, "edge": {"target": [], "time": []}}, "mouseover": {"state": {"target": ["0", "23", "28", "0", "14", "15", "18", "22", "19", "20", "21", "30", "33", "31"], "time": [2049, 2674, 3127, 4793, 4952, 5408, 5610, 7273, 9710, 9959, 12374, 12659, 12859, 15157]}, "edge": {"target": [], "time": []}}, "mouseout": {"state": {"target": ["23", "0", "0", "23", "28", "0", "14", "15", "18", "22", "19", "20", "21", "30", "33", "31", "31"], "time": [989, 1439, 2510, 2700, 3928, 4897, 5360, 5560, 5965, 8102, 9758, 10550, 12407, 12708, 13185, 15708, 17674]}, "edge": {"target": [], "time": []}}}, "displayed_time": "21.25", "trialTime": 27816, "trial_type": "mouselab-mdp", "trial_index": 16, "time_elapsed": 979305, "internal_node_id": "0.0-6.0-1.0-7.0"}}, {"uniqueid": "w16476295:a41925762", "current_trial": 17, "dateTime": 1693565764326, "trialdata": {"revealed_states": [], "clicked_states": ["16", "22", "31", "33", "29"], "num_clicks_accrued": [0, 0, 0, 0, 0, 0, 0, 0, 0, 0, 0, 0, 0], "stateRewards": ["", 2, -1, -1, 7, 11, -40, -22, -2, 69, 37, 8, -2, 4, -8, -12, -2, -72, -3, -12, 17, 63, 12, 1, 3, -7, 6, 25, 61, 61, -9, 28, -17, 27], "withholdReward": false, "trial_id": "mdp_trial_9", "block": "test", "trialIndex": 10, "score": 57, "costs": -7, "simulationMode": [null, null, null, null, null], "rewards": [1, 3, -7, 6, 61], "path": ["0", "0", "23", "24", "25", "26", "29"], "rt": [13369, 110, 123, 142, 969], "actions": ["left", "left", "left", "up", "left"], "actionTimes": [16373, 17006, 17658, 18313, 19838], "queries": {"click": {"state": {"target": ["16", "22", "31", "33", "29"], "time": [4014, 6042, 8230, 10414, 12724]}, "edge": {"target": [], "time": []}}, "mouseover": {"state": {"target": ["18", "16", "15", "14", "19", "22", "19", "22", "22", "19", "22", "21", "30", "33", "30", "31", "32", "33", "29", "30", "23"], "time": [3412, 3814, 4251, 4321, 4439, 4969, 5088, 5256, 5585, 5685, 5789, 6391, 6925, 6983, 7104, 7929, 9812, 10181, 12529, 14423, 15295]}, "edge": {"target": [], "time": []}}, "mouseout": {"state": {"target": ["0", "23", "23", "0", "0", "18", "16", "15", "14", "19", "22", "19", "22", "22", "19", "22", "21", "30", "33", "30", "31", "32", "33", "29", "30", "23"], "time": [1030, 1065, 1178, 1294, 3036, 3630, 4200, 4315, 4371, 4553, 5084, 5254, 5310, 5682, 5734, 6280, 6605, 6980, 7033, 7165, 8464, 9913, 10654, 12917, 14565, 16947]}, "edge": {"target": [], "time": []}}}, "displayed_time": "20.38", "trialTime": 23136, "trial_type": "mouselab-mdp", "trial_index": 17, "time_elapsed": 1003103, "internal_node_id": "0.0-6.0-1.0-8.0"}}, {"uniqueid": "w16476295:a41925762", "current_trial": 18, "dateTime": 1693565792648, "trialdata": {"revealed_states": [], "clicked_states": ["21", "27", "16", "17", "32", "31", "33"], "num_clicks_accrued": [0, 0, 0, 0, 0, 0, 0, 0, 0, 0, 0, 0, 0], "stateRewards": ["", 2, -4, 7, 3, 23, -42, 4, 7, -81, -33, 7, -2, -4, 5, -1, 50, -57, -14, -13, -14, 44, 55, -2, -2, 5, -2, 33, 1, 57, -13, -7, 58, 87], "withholdReward": false, "trial_id": "mdp_trial_10", "block": "test", "trialIndex": 11, "score": 65.2, "costs": -9.8, "simulationMode": [null, null, null, null, null], "rewards": [-2, -2, 5, -13, 87], "path": ["0", "0", "23", "24", "25", "30", "33"], "rt": [18200, 47, 66, 74, 111], "actions": ["left", "left", "left", "down", "left"], "actionTimes": [20936, 21539, 22137, 22765, 23460], "queries": {"click": {"state": {"target": ["21", "27", "16", "17", "32", "31", "33"], "time": [3529, 5918, 8108, 10434, 12916, 16592, 18543]}, "edge": {"target": [], "time": []}}, "mouseover": {"state": {"target": ["12", "19", "19", "21", "25", "28", "27", "26", "15", "15", "16", "19", "17", "19", "26", "30", "32", "31", "33"], "time": [2906, 3118, 3219, 3306, 4336, 5440, 5772, 6315, 6752, 6864, 7904, 9889, 10287, 12342, 12453, 12672, 12837, 14327, 17239]}, "edge": {"target": [], "time": []}}, "mouseout": {"state": {"target": ["23", "24", "30", "24", "23", "23", "23", "23", "12", "19", "19", "21", "25", "28", "27", "26", "15", "15", "16", "19", "17", "17", "19", "26", "30", "32", "32", "31", "33"], "time": [575, 607, 756, 790, 886, 1006, 1387, 1584, 3004, 3142, 3247, 3939, 4494, 5671, 6256, 6376, 6805, 7786, 8293, 9987, 10523, 10691, 12371, 12552, 12721, 13004, 13512, 16773, 18831]}, "edge": {"target": [], "time": []}}}, "displayed_time": "24.00", "trialTime": 27647, "trial_type": "mouselab-mdp", "trial_index": 18, "time_elapsed": 1031425, "internal_node_id": "0.0-6.0-1.0-9.0"}}, {"uniqueid": "w16476295:a41925762", "current_trial": 19, "dateTime": 1693565823430, "trialdata": {"revealed_states": [], "clicked_states": ["20", "9", "11", "6", "31", "32", "33", "16", "18"], "num_clicks_accrued": [0, 0, 0, 0, 0, 0, 0, 0, 0, 0, 0, 0, 0], "stateRewards": ["", 1, 2, 7, 13, 88, -71, 27, 3, 60, 5, -53, -2, 2, -6, -1, -30, 79, 47, -4, -14, 46, 68, 1, 1, 8, 10, -14, 86, 48, -11, -67, -44, 5], "withholdReward": false, "trial_id": "mdp_trial_11", "block": "test", "trialIndex": 12, "score": 60.4, "costs": -12.600000000000001, "simulationMode": [null, null, null, null, null], "rewards": [1, 2, 7, 3, 60], "path": ["0", "0", "1", "2", "3", "8", "9"], "rt": [20419, 100, 158, 861, 59], "actions": ["up", "up", "up", "left", "up"], "actionTimes": [21910, 22572, 23273, 24673, 25261], "queries": {"click": {"state": {"target": ["20", "9", "11", "6", "31", "32", "33", "16", "18"], "time": [2169, 4152, 6015, 8132, 10247, 12714, 14712, 16984, 19081]}, "edge": {"target": [], "time": []}}, "mouseover": {"state": {"target": ["19", "20", "19", "28", "9", "11", "2", "4", "6", "1", "30", "31", "32", "33", "13", "18", "15", "16", "13", "18", "13", "13"], "time": [1808, 2056, 2386, 2544, 3292, 4447, 7545, 7709, 7825, 8444, 8830, 10031, 10544, 13391, 16112, 16442, 16610, 16876, 17348, 18959, 19328, 21172]}, "edge": {"target": [], "time": []}}, "mouseout": {"state": {"target": ["30", "23", "0", "19", "20", "19", "28", "9", "11", "2", "4", "6", "1", "30", "31", "32", "33", "13", "18", "15", "16", "13", "18", "13", "13"], "time": [475, 541, 1559, 1859, 2383, 2443, 2598, 4333, 6309, 7612, 7757, 8319, 8494, 9246, 10427, 13278, 14957, 16175, 16558, 16637, 17226, 18626, 19326, 19431, 25013]}, "edge": {"target": [], "time": []}}}, "displayed_time": "25.78", "trialTime": 30117, "trial_type": "mouselab-mdp", "trial_index": 19, "time_elapsed": 1062206, "internal_node_id": "0.0-6.0-1.0-10.0"}}, {"uniqueid": "w16476295:a41925762", "current_trial": 20, "dateTime": 1693565858007, "trialdata": {"revealed_states": [], "clicked_states": ["15", "32", "27", "11", "5", "6", "21", "20", "22", "17", "18"], "num_clicks_accrued": [0, 0, 0, 0, 0, 0, 0, 0, 0, 0, 0, 0, 0], "stateRewards": ["", 1, 3, -2, 15, 51, 15, -19, 11, 67, -45, -73, 2, 4, -2, -13, 36, 9, -28, 10, -30, 31, 16, 1, 2, -1, -16, 14, -22, 36, -1, 88, -5, 45], "withholdReward": false, "trial_id": "mdp_trial_12", "block": "test", "trialIndex": 13, "score": 52.599999999999994, "costs": -15.400000000000002, "simulationMode": [null, null, null, null, null], "rewards": [1, 3, -2, 15, 51], "path": ["0", "0", "1", "2", "3", "4", "5"], "rt": [24004, 48, 221, 44, 228], "actions": ["up", "up", "up", "right", "up"], "actionTimes": [26317, 26913, 27704, 28290, 29044], "queries": {"click": {"state": {"target": ["15", "32", "27", "11", "5", "6", "21", "20", "22", "17", "18"], "time": [3053, 5226, 7643, 9743, 11642, 13536, 15795, 17970, 20015, 22245, 24246]}, "edge": {"target": [], "time": []}}, "mouseover": {"state": {"target": ["12", "18", "15", "15", "32", "25", "24", "28", "26", "27", "11", "2", "6", "5", "4", "6", "18", "13", "19", "21", "20", "22", "17", "13", "18", "13"], "time": [2490, 2641, 2720, 2959, 4675, 6039, 6460, 6786, 7141, 7358, 9590, 10145, 10463, 10832, 11938, 12113, 13939, 14049, 15409, 15606, 17110, 19921, 22155, 23712, 23943, 24489]}, "edge": {"target": [], "time": []}}, "mouseout": {"state": {"target": ["0", "0", "0", "12", "18", "15", "15", "32", "32", "25", "24", "28", "26", "27", "11", "2", "6", "5", "4", "6", "18", "13", "19", "21", "20", "20", "22", "17", "22", "13", "18", "13"], "time": [704, 1273, 2391, 2541, 2666, 2823, 3229, 5312, 5668, 6146, 6720, 7009, 7275, 7848, 10041, 10197, 10725, 11881, 11995, 13830, 13993, 15338, 15457, 16849, 18056, 18211, 20306, 22491, 23654, 23877, 24437, 24554]}, "edge": {"target": [], "time": []}}}, "displayed_time": "29.58", "trialTime": 33876, "trial_type": "mouselab-mdp", "trial_index": 20, "time_elapsed": 1096784, "internal_node_id": "0.0-6.0-1.0-11.0"}}, {"uniqueid": "w16476295:a41925762", "current_trial": 21, "dateTime": 1693565887403, "trialdata": {"revealed_states": [], "clicked_states": ["21", "18", "28", "29", "27"], "num_clicks_accrued": [0, 0, 0, 0, 0, 0, 0, 0, 0, 0, 0, 0, 0], "stateRewards": ["", -2, -3, 7, -13, 60, 9, 37, -6, 37, 20, 1, 2, -2, -8, 6, -80, -31, -10, -7, 70, -65, -44, -1, 1, 7, 6, -11, 73, -85, 16, -21, 47, 34], "withholdReward": false, "trial_id": "mdp_trial_13", "block": "test", "trialIndex": 14, "score": 79, "costs": -7, "simulationMode": [null, null, null, null, null], "rewards": [-1, 1, 7, 6, 73], "path": ["0", "0", "23", "24", "25", "26", "28"], "rt": [11987, 43, 722, 72, 44], "actions": ["left", "left", "left", "up", "right"], "actionTimes": [14119, 14711, 15959, 16580, 17162], "queries": {"click": {"state": {"target": ["21", "18", "28", "29", "27"], "time": [2801, 5001, 7179, 9373, 12098]}, "edge": {"target": [], "time": []}}, "mouseover": {"state": {"target": ["21", "20", "15", "18", "13", "18", "13", "25", "24", "24", "28", "24", "24", "26", "29", "27", "26", "25"], "time": [2627, 3343, 3725, 4000, 4392, 4845, 5247, 5971, 6033, 6892, 7059, 7425, 8355, 8576, 8691, 11975, 12392, 12468]}, "edge": {"target": [], "time": []}}, "mouseout": {"state": {"target": ["19", "22", "0", "23", "28", "31", "0", "21", "21", "20", "15", "18", "13", "18", "13", "25", "24", "24", "28", "24", "24", "26", "29", "27", "26"], "time": [null, 392, 442, 462, 658, 1041, 1373, 2898, 3179, 3561, 3947, 4224, 4744, 5244, 5297, 6024, 6081, 6976, 7368, 7542, 8411, 8687, 9812, 12343, 12463]}, "edge": {"target": [], "time": []}}}, "displayed_time": "17.68", "trialTime": 28675, "trial_type": "mouselab-mdp", "trial_index": 21, "time_elapsed": 1126180, "internal_node_id": "0.0-6.0-1.0-12.0"}}, {"uniqueid": "w16476295:a41925762", "current_trial": 22, "dateTime": 1693565910222, "trialdata": {"revealed_states": [], "clicked_states": ["17", "16", "9", "11", "21", "22"], "num_clicks_accrued": [0, 0, 0, 0, 0, 0, 0, 0, 0, 0, 0, 0, 0], "stateRewards": ["", -1, 3, 2, 9, 41, 4, -46, -12, -54, -87, -25, 2, 3, -1, 11, -77, 12, -33, -9, -32, 35, 72, 1, 3, -7, 4, 37, 65, -73, 6, 77, -43, 8], "withholdReward": false, "trial_id": "mdp_trial_14", "block": "test", "trialIndex": 15, "score": 58.6, "costs": -8.4, "simulationMode": [null, null, null, null, null], "rewards": [2, 3, -1, -9, 72], "path": ["0", "0", "12", "13", "14", "19", "22"], "rt": [14978, 161, 303, 82, 143], "actions": ["right", "right", "right", "down", "left"], "actionTimes": [16115, 16840, 17694, 18321, 19007], "queries": {"click": {"state": {"target": ["17", "16", "9", "11", "21", "22"], "time": [2186, 4542, 6427, 8432, 10598, 12630]}, "edge": {"target": [], "time": []}}, "mouseover": {"state": {"target": ["0", "12", "13", "14", "17", "14", "13", "18", "6", "16", "9", "10", "23", "11", "7", "0", "6", "21", "22", "31"], "time": [1417, 1496, 1663, 1830, 2047, 2432, 2550, 3470, 4199, 4433, 5552, 6671, 6846, 7419, 8779, 9103, 9583, 10401, 11049, 13983]}, "edge": {"target": [], "time": []}}, "mouseout": {"state": {"target": ["10", "2", "1", "0", "12", "13", "14", "17", "14", "13", "18", "6", "16", "16", "9", "10", "23", "11", "7", "0", "6", "21", "22", "31"], "time": [null, null, 247, 1444, 1550, 1699, 1916, 2429, 2547, 3430, 3586, 4334, 4639, 4809, 6613, 6729, 6940, 8615, 8827, 9317, 10019, 10836, 12814, 15133]}, "edge": {"target": [], "time": []}}}, "displayed_time": "19.55", "trialTime": 21998, "trial_type": "mouselab-mdp", "trial_index": 22, "time_elapsed": 1148999, "internal_node_id": "0.0-6.0-1.0-13.0"}}, {"uniqueid": "w16476295:a41925762", "current_trial": 23, "dateTime": 1693565941014, "trialdata": {"revealed_states": [], "clicked_states": ["32", "31", "33", "27", "16", "17", "18", "21", "22", "20"], "num_clicks_accrued": [0, 0, 0, 0, 0, 0, 0, 0, 0, 0, 0, 0, 0], "stateRewards": ["", -1, 3, 8, 9, -53, 20, -84, 2, -28, -62, -31, -1, -2, -7, 2, 51, 58, 45, -4, -17, -41, 36, 2, -2, -7, -15, 29, -54, -37, -16, -43, 65, -17], "withholdReward": false, "trial_id": "mdp_trial_15", "block": "test", "trialIndex": 16, "score": 28, "costs": -14.000000000000002, "simulationMode": [null, null, null, null, null], "rewards": [2, -2, -7, -16, 65], "path": ["0", "0", "23", "24", "25", "30", "32"], "rt": [22337, 246, 394, 634, 201], "actions": ["left", "left", "left", "down", "down"], "actionTimes": [23486, 24283, 25226, 26406, 27171], "queries": {"click": {"state": {"target": ["32", "31", "33", "27", "16", "17", "18", "21", "22", "20"], "time": [1882, 4108, 6503, 8742, 10805, 12955, 15404, 17557, 19560, 21567]}, "edge": {"target": [], "time": []}}, "mouseover": {"state": {"target": ["32", "25", "31", "30", "33", "26", "27", "24", "1", "1", "16", "13", "17", "14", "19", "18", "22", "21", "22", "19", "20"], "time": [1533, 2505, 2876, 5515, 6284, 8389, 8650, 9054, 9269, 9487, 9807, 11158, 12378, 13190, 13260, 15281, 15699, 17147, 18035, 19854, 20038]}, "edge": {"target": [], "time": []}}, "mouseout": {"state": {"target": ["0", "32", "25", "31", "30", "33", "26", "27", "24", "1", "1", "16", "13", "17", "14", "19", "18", "22", "21", "22", "19", "20"], "time": [1215, 2252, 2670, 5404, 5736, 7060, 8516, 8939, 9109, 9323, 9541, 11037, 11254, 13142, 13256, 14572, 15583, 15802, 17671, 19801, 19910, 21865]}, "edge": {"target": [], "time": []}}}, "displayed_time": "27.74", "trialTime": 30124, "trial_type": "mouselab-mdp", "trial_index": 23, "time_elapsed": 1179791, "internal_node_id": "0.0-6.0-1.0-14.0"}}, {"uniqueid": "w16476295:a41925762", "current_trial": 24, "dateTime": 1693565962840, "trialdata": {"revealed_states": [], "clicked_states": ["9", "11", "6", "5", "7", "10"], "num_clicks_accrued": [0, 0, 0, 0, 0, 0, 0, 0, 0, 0, 0, 0, 0], "stateRewards": ["", 1, 1, -3, 2, 22, -25, -11, -5, 50, 49, 3, 1, -1, 8, 14, -85, -30, 57, -6, -39, -16, 59, -2, -1, 5, 5, 59, -16, 8, 4, 67, 56, -9], "withholdReward": false, "trial_id": "mdp_trial_16", "block": "test", "trialIndex": 17, "score": 35.6, "costs": -8.4, "simulationMode": [null, null, null, null, null], "rewards": [1, 1, -3, -5, 50], "path": ["0", "0", "1", "2", "3", "8", "9"], "rt": [14058, 57, 129, 84, 60], "actions": ["up", "up", "up", "left", "up"], "actionTimes": [15407, 16013, 16658, 17285, 17883], "queries": {"click": {"state": {"target": ["9", "11", "6", "5", "7", "10"], "time": [2069, 3979, 5889, 8563, 10544, 13002]}, "edge": {"target": [], "time": []}}, "mouseover": {"state": {"target": ["10", "9", "11", "1", "6", "7", "1", "4", "7", "7", "4", "5", "4", "7", "2", "10"], "time": [1568, 1933, 2579, 4437, 4908, 6183, 6352, 8067, 8149, 8256, 8306, 8411, 8781, 8837, 12569, 12851]}, "edge": {"target": [], "time": []}}, "mouseout": {"state": {"target": ["19", "18", "10", "9", "11", "1", "6", "7", "1", "4", "7", "7", "4", "5", "4", "7", "2", "10"], "time": [12, 349, 1619, 2161, 4167, 4493, 6129, 6295, 6872, 8094, 8198, 8302, 8352, 8777, 8826, 10799, 12717, 13391]}, "edge": {"target": [], "time": []}}}, "displayed_time": "18.46", "trialTime": 21119, "trial_type": "mouselab-mdp", "trial_index": 24, "time_elapsed": 1201616, "internal_node_id": "0.0-6.0-1.0-15.0"}}, {"uniqueid": "w16476295:a41925762", "current_trial": 25, "dateTime": 1693565985004, "trialdata": {"revealed_states": [], "clicked_states": ["20", "16", "18", "22", "32"], "num_clicks_accrued": [0, 0, 0, 0, 0, 0, 0, 0, 0, 0, 0, 0, 0], "stateRewards": ["", 2, -2, -8, 9, -20, 55, -58, 14, 42, 2, 36, 1, -3, -5, 5, -58, 57, 60, 16, 57, 30, -70, -2, 1, 3, 10, 59, 23, 77, -13, -26, 88, -72], "withholdReward": false, "trial_id": "mdp_trial_17", "block": "test", "trialIndex": 18, "score": 70, "costs": -7, "simulationMode": [null, null, null, null, null], "rewards": [-2, 1, 3, -13, 88], "path": ["0", "0", "23", "24", "25", "30", "32"], "rt": [12771, 115, 188, 57, 95], "actions": ["left", "left", "left", "down", "down"], "actionTimes": [14394, 15060, 15788, 16452, 17113], "queries": {"click": {"state": {"target": ["20", "16", "18", "22", "32"], "time": [2330, 4381, 6414, 9353, 11627]}, "edge": {"target": [], "time": []}}, "mouseover": {"state": {"target": ["12", "22", "19", "20", "15", "16", "13", "0", "12", "18", "22", "13", "22", "32", "30", "31"], "time": [1811, 1950, 2025, 2253, 3038, 3404, 4725, 5051, 5768, 6218, 6906, 8702, 9053, 11535, 13470, 13819]}, "edge": {"target": [], "time": []}}, "mouseout": {"state": {"target": ["0", "12", "22", "19", "20", "15", "16", "13", "0", "12", "18", "22", "13", "22", "32", "30", "31"], "time": [1787, 1855, 1975, 2070, 2590, 3196, 4614, 4781, 5106, 6071, 6693, 8534, 8886, 9646, 12120, 13750, 13903]}, "edge": {"target": [], "time": []}}}, "displayed_time": "17.65", "trialTime": 21467, "trial_type": "mouselab-mdp", "trial_index": 25, "time_elapsed": 1223781, "internal_node_id": "0.0-6.0-1.0-16.0"}}, {"uniqueid": "w16476295:a41925762", "current_trial": 26, "dateTime": 1693566014507, "trialdata": {"revealed_states": [], "clicked_states": ["5", "7", "29", "31", "32", "33", "20", "18", "17", "16"], "num_clicks_accrued": [0, 0, 0, 0, 0, 0, 0, 0, 0, 0, 0, 0, 0], "stateRewards": ["", 1, -1, 1, -14, -10, 67, -28, -11, 72, 40, -65, -1, 1, 1, -2, 8, -55, 34, -10, 61, 33, -15, 2, -4, 7, 4, -75, 63, -21, -16, 61, 19, 21], "withholdReward": false, "trial_id": "mdp_trial_18", "block": "test", "trialIndex": 19, "score": 38, "costs": -14.000000000000002, "simulationMode": [null, null, null, null, null], "rewards": [-1, 1, 1, -10, 61], "path": ["0", "0", "12", "13", "14", "19", "20"], "rt": [21446, 331, 489, 74, 109], "actions": ["right", "right", "right", "down", "right"], "actionTimes": [23462, 24344, 25383, 26006, 26657], "queries": {"click": {"state": {"target": ["5", "7", "29", "31", "32", "33", "20", "18", "17", "16"], "time": [2639, 4578, 6351, 8259, 10148, 12053, 14236, 16577, 18577, 20656]}, "edge": {"target": [], "time": []}}, "mouseover": {"state": {"target": ["3", "5", "4", "7", "7", "0", "31", "30", "25", "29", "30", "31", "32", "33", "22", "21", "20", "21", "18", "13", "19", "14", "17", "15", "16", "15", "14"], "time": [2244, 2478, 2906, 3420, 3730, 4934, 5316, 5380, 5553, 5833, 6812, 7407, 8550, 10896, 12603, 12879, 13995, 16013, 16462, 16771, 16932, 17931, 18446, 20156, 20305, 20967, 21034]}, "edge": {"target": [], "time": []}}, "mouseout": {"state": {"target": ["0", "3", "5", "4", "7", "7", "0", "31", "30", "25", "29", "30", "31", "32", "33", "22", "21", "20", "21", "18", "13", "19", "14", "17", "15", "16", "15", "14"], "time": [2097, 2379, 2798, 2955, 3472, 4767, 4987, 5372, 5428, 5616, 6645, 6923, 8439, 10481, 12346, 12662, 13778, 14484, 16147, 16769, 16870, 17662, 18050, 18816, 20206, 20905, 21028, 21091]}, "edge": {"target": [], "time": []}}}, "displayed_time": "27.21", "trialTime": 28830, "trial_type": "mouselab-mdp", "trial_index": 26, "time_elapsed": 1253284, "internal_node_id": "0.0-6.0-1.0-17.0"}}, {"uniqueid": "w16476295:a41925762", "current_trial": 27, "dateTime": 1693566043470, "trialdata": {"revealed_states": [], "clicked_states": ["18", "27", "29", "33", "31", "32", "5", "6"], "num_clicks_accrued": [0, 0, 0, 0, 0, 0, 0, 0, 0, 0, 0, 0, 0], "stateRewards": ["", 2, -1, 5, 8, 75, -35, -77, 1, -9, -81, -58, 1, 2, -7, 5, 77, -16, 19, 16, -10, -18, 40, -2, 3, 7, -5, 64, 1, -62, 10, 27, 10, 65], "withholdReward": false, "trial_id": "mdp_trial_19", "block": "test", "trialIndex": 20, "score": 77.8, "costs": -11.200000000000001, "simulationMode": [null, null, null, null, null], "rewards": [2, -1, 5, 8, 75], "path": ["0", "0", "1", "2", "3", "4", "5"], "rt": [20292, 110, 139, 45, 41], "actions": ["up", "up", "up", "right", "up"], "actionTimes": [22163, 22818, 23502, 24086, 24702], "queries": {"click": {"state": {"target": ["18", "27", "29", "33", "31", "32", "5", "6"], "time": [4356, 6593, 8499, 10492, 12509, 14673, 17267, 20099]}, "edge": {"target": [], "time": []}}, "mouseover": {"state": {"target": ["0", "12", "1", "2", "8", "8", "3", "7", "13", "15", "18", "13", "25", "26", "27", "26", "29", "29", "25", "30", "33", "31", "32", "23", "2", "3", "4", "5", "7", "6", "7"], "time": [1905, 2070, 2468, 2663, 3017, 3234, 3275, 3337, 3451, 4150, 4229, 4759, 5338, 6149, 6502, 6849, 6916, 7256, 9497, 9621, 9883, 10997, 14502, 16667, 16742, 16807, 17048, 17202, 19113, 19964, 20565]}, "edge": {"target": [], "time": []}}, "mouseout": {"state": {"target": ["23", "0", "0", "12", "1", "2", "8", "8", "3", "7", "13", "15", "18", "13", "25", "26", "27", "26", "29", "29", "25", "30", "33", "31", "32", "23", "2", "3", "4", "5", "7", "6", "6", "7"], "time": [1164, 1348, 2029, 2249, 2583, 2935, 3202, 3272, 3330, 3393, 3502, 4182, 4650, 4816, 5452, 6350, 6787, 6910, 6968, 8733, 9557, 9668, 10833, 12746, 15117, 16692, 16802, 16965, 17084, 17719, 19483, 20187, 20505, 20623]}, "edge": {"target": [], "time": []}}}, "displayed_time": "25.22", "trialTime": 28046, "trial_type": "mouselab-mdp", "trial_index": 27, "time_elapsed": 1282247, "internal_node_id": "0.0-6.0-1.0-18.0"}}, {"uniqueid": "w16476295:a41925762", "current_trial": 28, "dateTime": 1693566086479, "trialdata": {"revealed_states": [], "clicked_states": ["9", "5", "22", "21", "33", "32", "29", "28", "18", "20", "17", "27", "6", "10", "2"], "num_clicks_accrued": [0, 0, 0, 0, 0, 0, 0, 0, 0, 0, 0, 0, 0], "stateRewards": ["", 2, -2, 7, -11, -76, -65, -23, 16, -58, 30, 81, 1, 2, 7, 14, 9, 55, -2, 6, 11, -15, 31, -1, -1, -3, 2, 15, 2, 46, 15, 18, 45, -34], "withholdReward": false, "trial_id": "mdp_trial_20", "block": "test", "trialIndex": 21, "score": 22.000000000000004, "costs": -20.999999999999996, "simulationMode": [null, null, null, null, null], "rewards": [-1, -1, -3, 2, 46], "path": ["0", "0", "23", "24", "25", "26", "29"], "rt": [34976, 138, 357, 39, 594], "actions": ["left", "left", "left", "up", "left"], "actionTimes": [36241, 36941, 37850, 38435, 39602], "queries": {"click": {"state": {"target": ["9", "5", "22", "21", "33", "32", "29", "28", "18", "20", "17", "27", "6", "10", "2"], "time": [2336, 4256, 6223, 8079, 10029, 11958, 13903, 17194, 19367, 21727, 24141, 26437, 28833, 31768, 33863]}, "edge": {"target": [], "time": []}}, "mouseover": {"state": {"target": ["22", "13", "10", "9", "8", "22", "7", "4", "5", "4", "7", "22", "22", "21", "33", "32", "31", "29", "24", "28", "27", "1", "28", "26", "26", "28", "24", "1", "18", "12", "14", "20", "15", "17", "13", "12", "23", "28", "27", "2", "7", "6", "6", "1", "10", "1", "2", "1", "0", "12"], "time": [1304, 1722, 1885, 2189, 2624, 2906, 3273, 3330, 3557, 4501, 4563, 4745, 5175, 6739, 9105, 10419, 12462, 12981, 14503, 14626, 14738, 15312, 16754, 16783, 16971, 17072, 17591, 18987, 19204, 19981, 21354, 21601, 23838, 24071, 24553, 24612, 24737, 26135, 26288, 28150, 28287, 28454, 28737, 31474, 31673, 32273, 33428, 34175, 34302, 35020]}, "edge": {"target": [], "time": []}}, "mouseout": {"state": {"target": ["0", "22", "13", "10", "9", "8", "22", "7", "4", "5", "5", "4", "7", "22", "22", "21", "33", "32", "31", "29", "24", "28", "27", "1", "28", "26", "26", "28", "24", "1", "18", "12", "14", "20", "15", "17", "13", "12", "23", "28", "27", "2", "7", "6", "6", "1", "10", "1", "2", "1", "0", "12"], "time": [634, 1554, 1800, 1917, 2622, 2676, 3009, 3327, 3389, 4338, 4494, 4552, 4622, 4802, 6417, 8266, 10262, 12305, 12724, 14136, 14554, 14736, 14855, 16621, 16780, 16834, 16997, 17486, 17755, 19037, 19607, 21304, 21387, 22046, 23953, 24335, 24608, 24664, 26070, 26164, 26672, 28202, 28325, 28484, 29069, 31523, 31980, 33245, 34112, 34241, 34959, 35095]}, "edge": {"target": [], "time": []}}}, "displayed_time": "40.15", "trialTime": 42192, "trial_type": "mouselab-mdp", "trial_index": 28, "time_elapsed": 1325256, "internal_node_id": "0.0-6.0-1.0-19.0"}}, {"uniqueid": "w16476295:a41925762", "current_trial": 29, "dateTime": 1693566117794, "trialdata": {"revealed_states": [], "clicked_states": ["21", "5", "9", "28", "29", "32", "11", "6", "17", "18"], "num_clicks_accrued": [0, 0, 0, 0, 0, 0, 0, 0, 0, 0, 0, 0, 0], "stateRewards": ["", -1, -2, -1, -10, -57, 73, -72, -16, 75, -14, -46, -2, -3, -7, -1, -61, -60, 76, -4, 50, 4, 14, 2, 2, -7, 12, -65, -32, 15, -8, -76, -25, -61], "withholdReward": false, "trial_id": "mdp_trial_21", "block": "test", "trialIndex": 22, "score": 49, "costs": -14.000000000000002, "simulationMode": [null, null, null, null, null], "rewards": [-2, -3, -7, -1, 76], "path": ["0", "0", "12", "13", "14", "15", "18"], "rt": [23242, 36, 108, 82, 637], "actions": ["right", "right", "right", "up", "left"], "actionTimes": [25029, 25621, 26255, 26900, 28059], "queries": {"click": {"state": {"target": ["21", "5", "9", "28", "29", "32", "11", "6", "17", "18"], "time": [2860, 4806, 6735, 8647, 10939, 12632, 14952, 17831, 20067, 22175]}, "edge": {"target": [], "time": []}}, "mouseover": {"state": {"target": ["13", "13", "21", "12", "4", "5", "9", "8", "28", "24", "23", "24", "26", "29", "31", "32", "32", "8", "9", "8", "11", "6", "6", "6", "13", "17", "14", "18", "13", "13", "15", "16", "15"], "time": [2333, 2513, 2716, 3160, 3281, 3497, 5168, 7034, 7835, 8955, 9132, 10104, 10225, 10849, 11712, 11885, 12157, 13667, 13775, 14001, 14681, 16816, 17083, 17616, 18333, 19559, 20480, 22133, 22501, 23608, 23790, 24082, 24800]}, "edge": {"target": [], "time": []}}, "mouseout": {"state": {"target": ["22", "13", "1", "0", "13", "13", "21", "12", "4", "5", "9", "8", "28", "24", "23", "24", "26", "29", "29", "31", "32", "32", "8", "9", "8", "11", "6", "6", "6", "13", "17", "17", "14", "18", "13", "13", "15", "16", "15"], "time": [81, 197, 381, 1824, 2382, 2539, 3106, 3222, 3339, 5051, 7030, 7088, 8951, 9073, 10048, 10164, 10450, 11030, 11237, 11768, 11999, 13237, 13726, 13997, 14119, 15303, 16913, 17283, 18016, 18389, 20156, 20364, 20587, 22438, 22567, 23659, 23930, 24733, 24934]}, "edge": {"target": [], "time": []}}}, "displayed_time": "28.57", "trialTime": 30636, "trial_type": "mouselab-mdp", "trial_index": 29, "time_elapsed": 1356571, "internal_node_id": "0.0-6.0-1.0-20.0"}}, {"uniqueid": "w16476295:a41925762", "current_trial": 30, "dateTime": 1693566154038, "trialdata": {"revealed_states": [], "clicked_states": ["5", "22", "32", "29", "17", "16", "9", "11", "3", "4", "1", "2"], "num_clicks_accrued": [0, 0, 0, 0, 0, 0, 0, 0, 0, 0, 0, 0, 0], "stateRewards": ["", 1, 2, -3, -5, 66, -50, -47, -5, 1, 28, -27, 1, 1, -1, -6, 37, -25, 56, 1, -82, -66, -40, -1, -4, -7, 15, -61, -23, 26, 10, 14, -56, 29], "withholdReward": false, "trial_id": "mdp_trial_22", "block": "test", "trialIndex": 23, "score": 44.2, "costs": -16.8, "simulationMode": [null, null, null, null, null], "rewards": [1, 2, -3, -5, 66], "path": ["0", "0", "1", "2", "3", "4", "5"], "rt": [26393, 90, 291, 656, 80], "actions": ["up", "up", "up", "right", "up"], "actionTimes": [28764, 29418, 30249, 31450, 32071], "queries": {"click": {"state": {"target": ["5", "22", "32", "29", "17", "16", "9", "11", "3", "4", "1", "2"], "time": [3375, 5579, 7991, 10106, 12380, 14464, 16574, 18523, 20448, 22606, 24602, 26480]}, "edge": {"target": [], "time": []}}, "mouseover": {"state": {"target": ["19", "13", "7", "4", "5", "24", "22", "21", "32", "25", "29", "13", "13", "14", "17", "14", "15", "16", "18", "13", "2", "9", "8", "11", "2", "3", "2", "2", "4", "2", "1", "2"], "time": [2502, 2864, 2944, 3083, 3264, 3832, 5331, 6693, 7763, 8774, 9917, 10966, 11075, 11297, 12299, 12730, 14033, 14333, 14759, 14934, 15854, 16132, 16872, 17897, 19673, 19907, 20734, 21893, 22465, 23736, 24217, 25629]}, "edge": {"target": [], "time": []}}, "mouseout": {"state": {"target": ["30", "25", "24", "23", "19", "13", "7", "4", "5", "24", "22", "21", "32", "25", "29", "29", "13", "13", "14", "17", "17", "14", "15", "16", "18", "13", "2", "9", "8", "11", "2", "3", "2", "2", "4", "2", "1", "1", "2", "0"], "time": [449, 731, 781, 931, 2581, 2890, 3016, 3133, 3563, 3884, 6020, 7483, 8362, 8885, 10242, 10499, 11017, 11241, 11356, 12463, 12724, 12775, 14146, 14700, 14832, 15642, 15908, 16815, 16932, 18760, 19789, 20733, 20856, 21947, 23003, 24050, 24890, 25509, 26718, 33497]}, "edge": {"target": [], "time": []}}}, "displayed_time": "32.61", "trialTime": 35563, "trial_type": "mouselab-mdp", "trial_index": 30, "time_elapsed": 1392815, "internal_node_id": "0.0-6.0-1.0-21.0"}}, {"uniqueid": "w16476295:a41925762", "current_trial": 31, "dateTime": 1693566179406, "trialdata": {"revealed_states": [], "clicked_states": ["14", "25", "32", "21", "22", "20", "5", "9"], "num_clicks_accrued": [0, 0, 0, 0, 0, 0, 0, 0, 0, 0, 0, 0, 0], "stateRewards": ["", -2, 2, 8, -6, -25, 3, 87, 2, -62, -2, 74, -2, -1, 2, -1, 79, 49, -37, -14, 5, 67, -9, -1, 2, -2, 5, 15, 38, 32, -14, -38, -38, 30], "withholdReward": false, "trial_id": "mdp_trial_23", "block": "test", "trialIndex": 24, "score": 40.8, "costs": -11.200000000000001, "simulationMode": [null, null, null, null, null], "rewards": [-2, -1, 2, -14, 67], "path": ["0", "0", "12", "13", "14", "19", "21"], "rt": [17400, 535, 140, 92, 106], "actions": ["right", "right", "right", "down", "down"], "actionTimes": [18782, 19871, 20530, 21160, 21804], "queries": {"click": {"state": {"target": ["14", "25", "32", "21", "22", "20", "5", "9"], "time": [2852, 5185, 7107, 8974, 11230, 13190, 15124, 16844]}, "edge": {"target": [], "time": []}}, "mouseover": {"state": {"target": ["18", "15", "14", "19", "31", "25", "31", "32", "21", "20", "19", "22", "20", "15", "4", "5", "9", "3", "7", "13"], "time": [1711, 2182, 2613, 3146, 4846, 5029, 5473, 6589, 8229, 9697, 10937, 11041, 11977, 13893, 14068, 14334, 15677, 17233, 17301, 17694]}, "edge": {"target": [], "time": []}}, "mouseout": {"state": {"target": ["0", "0", "18", "15", "14", "19", "31", "25", "31", "32", "21", "21", "20", "19", "22", "20", "15", "4", "5", "9", "3", "7"], "time": [179, 1417, 1797, 2396, 3144, 3200, 4878, 5417, 5536, 7456, 9208, 9484, 10912, 10992, 11567, 13836, 13953, 14175, 15364, 17231, 17290, 17352]}, "edge": {"target": [], "time": []}}}, "displayed_time": "22.35", "trialTime": 24680, "trial_type": "mouselab-mdp", "trial_index": 31, "time_elapsed": 1418183, "internal_node_id": "0.0-6.0-1.0-22.0"}}, {"uniqueid": "w16476295:a41925762", "current_trial": 32, "dateTime": 1693566198882, "trialdata": {"revealed_states": [], "clicked_states": ["27", "11", "6"], "num_clicks_accrued": [0, 0, 0, 0, 0, 0, 0, 0, 0, 0, 0, 0, 0], "stateRewards": ["", -1, 3, -5, -2, -13, -9, -34, -7, -81, 32, 35, -2, -2, 1, -14, -32, 81, 7, 4, 82, 56, -8, -1, 3, -8, 6, -24, -24, -53, 2, 38, 61, 54], "withholdReward": false, "trial_id": "mdp_trial_24", "block": "test", "trialIndex": 25, "score": 20.8, "costs": -4.199999999999999, "simulationMode": [null, null, null, null, null], "rewards": [-1, 3, -5, -7, 35], "path": ["0", "0", "1", "2", "3", "8", "11"], "rt": [7196, 63, 69, 46, 123], "actions": ["up", "up", "up", "left", "left"], "actionTimes": [8619, 9226, 9853, 10445, 11100], "queries": {"click": {"state": {"target": ["27", "11", "6"], "time": [2052, 4151, 6283]}, "edge": {"target": [], "time": []}}, "mouseover": {"state": {"target": ["26", "27", "11", "10", "7", "6", "6", "18", "13", "13", "14"], "time": [1706, 1826, 2456, 4395, 4614, 4884, 5921, 6588, 6697, 7738, 8091]}, "edge": {"target": [], "time": []}}, "mouseout": {"state": {"target": ["13", "1", "26", "27", "11", "10", "7", "6", "6", "18", "13", "13", "14"], "time": [null, 631, 1789, 2241, 4341, 4453, 4724, 4941, 6474, 6644, 7169, 7957, 8222]}, "edge": {"target": [], "time": []}}}, "displayed_time": "16.43", "trialTime": 18732, "trial_type": "mouselab-mdp", "trial_index": 32, "time_elapsed": 1437659, "internal_node_id": "0.0-6.0-1.0-23.0"}}, {"uniqueid": "w16476295:a41925762", "current_trial": 33, "dateTime": 1693566231600, "trialdata": {"revealed_states": [], "clicked_states": ["5", "9", "21", "33", "29", "28", "6", "7", "10", "11", "18"], "num_clicks_accrued": [0, 0, 0, 0, 0, 0, 0, 0, 0, 0, 0, 0, 0], "stateRewards": ["", -2, 2, -5, 1, 42, -63, -58, -6, 2, 16, 81, -2, 4, 7, -10, 33, 3, -33, -2, -52, -84, -27, 2, -3, -3, 15, -74, -14, -5, -5, -84, 79, -31], "withholdReward": false, "trial_id": "mdp_trial_25", "block": "test", "trialIndex": 26, "score": 54.599999999999994, "costs": -15.400000000000002, "simulationMode": [null, null, null, null, null], "rewards": [-2, 2, -5, -6, 81], "path": ["0", "0", "1", "2", "3", "8", "11"], "rt": [24798, 162, 131, 39, 149], "actions": ["up", "up", "up", "left", "left"], "actionTimes": [25938, 26656, 27333, 27935, 28604], "queries": {"click": {"state": {"target": ["5", "9", "21", "33", "29", "28", "6", "7", "10", "11", "18"], "time": [1900, 4299, 6640, 8847, 10855, 12880, 15028, 16780, 18689, 20834, 22799]}, "edge": {"target": [], "time": []}}, "mouseover": {"state": {"target": ["3", "4", "4", "5", "9", "8", "21", "32", "33", "25", "26", "29", "25", "23", "28", "24", "24", "1", "6", "7", "2", "10", "10", "2", "7", "1", "10", "11", "1", "19", "13", "18"], "time": [1331, 1422, 1566, 1732, 2308, 4534, 5085, 8382, 8780, 9763, 9876, 10086, 11153, 11269, 11700, 13435, 13996, 14315, 14883, 15269, 15333, 15398, 15574, 16364, 16431, 17530, 17844, 20332, 21137, 21307, 21682, 22466]}, "edge": {"target": [], "time": []}}, "mouseout": {"state": {"target": ["0", "0", "0", "3", "4", "4", "5", "9", "8", "21", "32", "33", "25", "26", "29", "25", "23", "28", "24", "24", "1", "6", "7", "2", "10", "10", "2", "7", "1", "10", "10", "11", "10", "1", "19", "13", "18"], "time": [68, 213, 514, 1399, 1478, 1649, 2085, 4532, 4591, 6878, 8413, 9348, 9814, 10040, 11101, 11215, 11531, 13316, 13537, 14052, 14371, 15212, 15325, 15388, 15453, 15635, 16423, 17017, 17682, 18928, 19250, 21070, 21131, 21187, 21481, 21900, 23399]}, "edge": {"target": [], "time": []}}}, "displayed_time": "29.14", "trialTime": 31790, "trial_type": "mouselab-mdp", "trial_index": 33, "time_elapsed": 1470376, "internal_node_id": "0.0-6.0-1.0-24.0"}}, {"uniqueid": "w16476295:a41925762", "current_trial": 34, "dateTime": 1693566259471, "trialdata": {"revealed_states": [], "clicked_states": ["21", "9", "28", "10"], "num_clicks_accrued": [0, 0, 0, 0, 0, 0, 0, 0, 0, 0, 0, 0, 0], "stateRewards": ["", 1, 2, 2, -15, -84, 28, -26, 13, 31, 86, 30, -2, 1, -1, -8, 66, -40, -1, -10, -32, 57, -17, 1, 2, -2, 9, -23, 77, 85, 12, -32, -62, -35], "withholdReward": false, "trial_id": "mdp_trial_26", "block": "test", "trialIndex": 27, "score": 98.4, "costs": -5.6, "simulationMode": [null, null, null, null, null], "rewards": [1, 2, 2, 13, 86], "path": ["0", "0", "1", "2", "3", "8", "10"], "rt": [10706, 112, 49, 146, 153], "actions": ["up", "up", "up", "left", "down"], "actionTimes": [11699, 12373, 12996, 13690, 14402], "queries": {"click": {"state": {"target": ["21", "9", "28", "10"], "time": [1519, 3564, 5652, 8911]}, "edge": {"target": [], "time": []}}, "mouseover": {"state": {"target": ["21", "4", "9", "8", "28", "28", "26", "25", "30", "25", "24", "28", "23", "0", "7", "2", "10", "7"], "time": [1174, 2585, 2810, 3906, 4019, 4295, 4361, 4531, 4652, 4987, 5107, 5409, 5999, 6827, 8083, 8761, 8809, 10591]}, "edge": {"target": [], "time": []}}, "mouseout": {"state": {"target": ["12", "0", "21", "4", "9", "8", "28", "28", "26", "25", "30", "25", "24", "28", "23", "0", "7", "2", "10", "7"], "time": [172, 457, 1858, 2644, 3902, 3956, 4239, 4356, 4474, 4592, 4715, 5044, 5308, 5942, 6060, 6878, 8728, 8807, 9142, 11441]}, "edge": {"target": [], "time": []}}}, "displayed_time": "15.70", "trialTime": 27139, "trial_type": "mouselab-mdp", "trial_index": 34, "time_elapsed": 1498248, "internal_node_id": "0.0-6.0-1.0-25.0"}}, {"uniqueid": "w16476295:a41925762", "current_trial": 35, "dateTime": 1693566289703, "trialdata": {"revealed_states": [], "clicked_states": ["21", "17", "5", "9", "27", "29", "33", "32"], "num_clicks_accrued": [0, 0, 0, 0, 0, 0, 0, 0, 0, 0, 0, 0, 0], "stateRewards": ["", -2, -3, 8, -4, -30, 31, 69, 9, 66, 87, 64, -2, 2, 8, 5, 47, 16, -39, -8, -54, 51, -19, 1, -2, -2, -11, -25, -26, 43, -9, 19, -84, 86], "withholdReward": false, "trial_id": "mdp_trial_27", "block": "test", "trialIndex": 28, "score": 62.8, "costs": -11.200000000000001, "simulationMode": [null, null, null, null, null], "rewards": [1, -2, -2, -9, 86], "path": ["0", "0", "23", "24", "25", "30", "33"], "rt": [20350, 517, 162, 108, 42], "actions": ["left", "left", "left", "down", "left"], "actionTimes": [22981, 24073, 24769, 25437, 26022], "queries": {"click": {"state": {"target": ["21", "17", "5", "9", "27", "29", "33", "32"], "time": [3719, 5841, 7956, 9892, 12067, 14003, 16115, 17824]}, "edge": {"target": [], "time": []}}, "mouseover": {"state": {"target": ["22", "19", "21", "19", "14", "17", "15", "4", "3", "5", "9", "11", "27", "26", "29", "33", "33", "32"], "time": [3317, 3480, 3600, 4178, 4286, 4786, 6138, 6314, 6369, 6546, 8717, 10193, 10714, 12374, 13410, 14579, 15061, 16518]}, "edge": {"target": [], "time": []}}, "mouseout": {"state": {"target": ["22", "19", "21", "19", "14", "17", "15", "4", "3", "5", "9", "11", "27", "26", "29", "33", "33", "33", "32"], "time": [3451, 3533, 3808, 4233, 4566, 6135, 6183, 6360, 6420, 8243, 9985, 10251, 12318, 13202, 14091, 14685, 16212, 16362, 19273]}, "edge": {"target": [], "time": []}}}, "displayed_time": "26.54", "trialTime": 29462, "trial_type": "mouselab-mdp", "trial_index": 35, "time_elapsed": 1528480, "internal_node_id": "0.0-6.0-1.0-26.0"}}, {"uniqueid": "w16476295:a41925762", "current_trial": 36, "dateTime": 1693566318631, "trialdata": {"revealed_states": [], "clicked_states": ["21", "16", "5", "9", "29", "33", "25", "26", "17", "18"], "num_clicks_accrued": [0, 0, 0, 0, 0, 0, 0, 0, 0, 0, 0, 0, 0], "stateRewards": ["", -2, -1, 3, -3, 71, -58, -21, 7, -10, -75, -37, 2, 4, -1, -12, -79, -29, -48, 3, -41, -10, -30, -1, -2, 1, -15, 13, 66, 22, -1, -42, -86, -55], "withholdReward": false, "trial_id": "mdp_trial_28", "block": "test", "trialIndex": 29, "score": 54, "costs": -14.000000000000002, "simulationMode": [null, null, null, null, null], "rewards": [-2, -1, 3, -3, 71], "path": ["0", "0", "1", "2", "3", "4", "5"], "rt": [20924, 83, 134, 726, 44], "actions": ["up", "up", "up", "right", "up"], "actionTimes": [22639, 23278, 23940, 25212, 25800], "queries": {"click": {"state": {"target": ["21", "16", "5", "9", "29", "33", "25", "26", "17", "18"], "time": [2352, 4141, 5794, 7858, 9767, 11436, 13666, 15865, 18532, 20565]}, "edge": {"target": [], "time": []}}, "mouseover": {"state": {"target": ["21", "12", "4", "15", "14", "16", "4", "5", "9", "8", "29", "33", "30", "32", "30", "25", "25", "26", "24", "23", "23", "0", "15", "17", "18", "13"], "time": [2207, 3022, 3137, 3322, 3426, 3715, 4513, 4788, 6424, 8153, 9287, 10573, 12095, 12259, 13131, 13304, 13536, 15671, 16219, 16278, 16454, 17090, 18206, 18397, 19031, 20861]}, "edge": {"target": [], "time": []}}, "mouseout": {"state": {"target": ["32", "32", "0", "21", "12", "4", "15", "14", "16", "16", "4", "5", "9", "8", "29", "33", "30", "32", "30", "25", "25", "25", "26", "25", "24", "23", "23", "0", "15", "17", "18", "13"], "time": [39, 218, 1020, 2543, 3080, 3197, 3377, 3495, 4226, 4401, 4570, 5901, 8151, 8209, 9855, 11829, 12152, 13037, 13254, 13470, 13752, 15588, 16071, 16212, 16270, 16331, 16673, 17139, 18369, 18818, 20803, 26867]}, "edge": {"target": [], "time": []}}}, "displayed_time": "26.37", "trialTime": 28177, "trial_type": "mouselab-mdp", "trial_index": 36, "time_elapsed": 1557408, "internal_node_id": "0.0-6.0-1.0-27.0"}}, {"uniqueid": "w16476295:a41925762", "current_trial": 37, "dateTime": 1693566338465, "trialdata": {"revealed_states": [], "clicked_states": ["21", "18", "28", "29", "10", "6"], "num_clicks_accrued": [0, 0, 0, 0, 0, 0, 0, 0, 0, 0, 0, 0, 0], "stateRewards": ["", -2, -3, -7, 7, -54, -69, -4, -14, -77, 22, 40, -2, -1, 5, 6, -35, 50, -60, 10, -28, 75, 57, 1, -4, -2, 2, 68, 34, -18, 12, 3, -21, -43], "withholdReward": false, "trial_id": "mdp_trial_29", "block": "test", "trialIndex": 30, "score": 78.6, "costs": -8.4, "simulationMode": [null, null, null, null, null], "rewards": [-2, -1, 5, 10, 75], "path": ["0", "0", "12", "13", "14", "19", "21"], "rt": [12362, 121, 50, 44, 44], "actions": ["right", "right", "right", "down", "down"], "actionTimes": [14062, 14748, 15352, 15959, 16572], "queries": {"click": {"state": {"target": ["21", "18", "28", "29", "10", "6"], "time": [2253, 4199, 6198, 8087, 10119, 12060]}, "edge": {"target": [], "time": []}}, "mouseover": {"state": {"target": ["21", "20", "14", "15", "16", "18", "12", "10", "28", "29", "29", "33", "8", "8", "10", "2", "2", "6"], "time": [2047, 2905, 2974, 3112, 3301, 3537, 4651, 4973, 5611, 6606, 6721, 8541, 8971, 9294, 9723, 10882, 11039, 11205]}, "edge": {"target": [], "time": []}}, "mouseout": {"state": {"target": ["0", "21", "20", "14", "15", "16", "18", "12", "10", "28", "28", "29", "29", "33", "8", "8", "10", "2", "2", "6", "6", "1", "1"], "time": [1938, 2843, 2970, 3034, 3178, 3476, 4434, 4764, 5084, 6288, 6497, 6667, 8434, 8601, 9022, 9346, 10407, 10985, 11154, 12200, 13930, 18094, 18329]}, "edge": {"target": [], "time": []}}}, "displayed_time": "17.14", "trialTime": 19119, "trial_type": "mouselab-mdp", "trial_index": 37, "time_elapsed": 1577242, "internal_node_id": "0.0-6.0-1.0-28.0"}}, {"uniqueid": "w16476295:a41925762", "current_trial": 38, "dateTime": 1693566373783, "trialdata": {"revealed_states": [], "clicked_states": ["6", "22", "29", "32", "9", "11", "5", "18", "17", "20"], "num_clicks_accrued": [0, 0, 0, 0, 0, 0, 0, 0, 0, 0, 0, 0, 0], "stateRewards": ["", 2, 3, 8, 11, 25, -80, 6, -4, -56, 84, -23, -2, -4, -3, 4, -51, -9, -61, -15, -64, 67, -35, 1, -1, -7, -6, 83, 59, -15, 12, -79, 56, 41], "withholdReward": false, "trial_id": "mdp_trial_30", "block": "test", "trialIndex": 31, "score": 47, "costs": -14.000000000000002, "simulationMode": [null, null, null, null, null], "rewards": [1, -1, -7, 12, 56], "path": ["0", "0", "23", "24", "25", "30", "32"], "rt": [20562, 100, 149, 46, 53], "actions": ["left", "left", "left", "down", "down"], "actionTimes": [23172, 23813, 24505, 25092, 25670], "queries": {"click": {"state": {"target": ["6", "22", "29", "32", "9", "11", "5", "18", "17", "20"], "time": [3422, 5115, 6838, 8571, 10367, 12182, 14194, 16296, 18546, 21046]}, "edge": {"target": [], "time": []}}, "mouseover": {"state": {"target": ["7", "6", "7", "12", "14", "13", "22", "30", "25", "29", "26", "26", "24", "31", "32", "24", "0", "9", "11", "2", "4", "5", "23", "14", "15", "18", "15", "17", "22", "22", "20", "20"], "time": [2990, 3290, 3612, 3994, 4115, 4175, 4511, 5867, 5977, 6097, 7385, 7557, 7775, 7838, 8217, 9176, 9233, 9940, 11076, 13134, 13716, 13909, 14549, 15442, 15943, 16109, 17345, 17775, 19415, 20475, 20509, 20909]}, "edge": {"target": [], "time": []}}, "mouseout": {"state": {"target": ["1", "7", "6", "7", "12", "14", "13", "22", "30", "25", "29", "26", "26", "24", "31", "32", "24", "0", "9", "11", "2", "4", "5", "23", "14", "15", "18", "15", "17", "17", "22", "22", "20", "20"], "time": [508, 3018, 3609, 3670, 4054, 4168, 4402, 5400, 5921, 6041, 7327, 7441, 7611, 7832, 7888, 8712, 9230, 9290, 10611, 12519, 13596, 13828, 14436, 14608, 15850, 15972, 17289, 17405, 18944, 19096, 19530, 20505, 20561, 21350]}, "edge": {"target": [], "time": []}}}, "displayed_time": "26.23", "trialTime": 34584, "trial_type": "mouselab-mdp", "trial_index": 38, "time_elapsed": 1612560, "internal_node_id": "0.0-6.0-1.0-29.0"}}, {"uniqueid": "w16476295:a41925762", "current_trial": 39, "dateTime": 1693566392539, "trialdata": {"revealed_states": [], "clicked_states": ["9", "21", "28"], "num_clicks_accrued": [0, 0, 0, 0, 0, 0, 0, 0, 0, 0, 0, 0, 0], "stateRewards": ["", 2, -4, -8, -15, 71, -43, -41, 7, -17, 20, 67, -1, -1, -4, 6, 37, -24, -47, 9, 34, 57, 45, 1, 2, -4, -5, -23, 88, -5, 13, -40, 43, 44], "withholdReward": false, "trial_id": "mdp_trial_31", "block": "test", "trialIndex": 32, "score": 77.8, "costs": -4.199999999999999, "simulationMode": [null, null, null, null, null], "rewards": [1, 2, -4, -5, 88], "path": ["0", "0", "23", "24", "25", "26", "28"], "rt": [8969, 197, 137, 41, 503], "actions": ["left", "left", "left", "up", "right"], "actionTimes": [10418, 11163, 11842, 12425, 13508], "queries": {"click": {"state": {"target": ["9", "21", "28"], "time": [2507, 4420, 7337]}, "edge": {"target": [], "time": []}}, "mouseover": {"state": {"target": ["23", "10", "8", "9", "8", "24", "12", "21", "25", "24", "25", "26", "28", "26", "33", "30"], "time": [1917, 2032, 2147, 2330, 2803, 3083, 3310, 3848, 5288, 5405, 5726, 6184, 6512, 8835, 9400, 9590]}, "edge": {"target": [], "time": []}}, "mouseout": {"state": {"target": ["23", "0", "23", "10", "8", "9", "8", "24", "12", "21", "25", "24", "25", "26", "28", "26", "33", "30"], "time": [546, 1523, 1946, 2113, 2198, 2747, 2858, 3196, 3527, 4667, 5344, 5567, 6034, 6208, 8616, 9087, 9552, 9683]}, "edge": {"target": [], "time": []}}}, "displayed_time": "16.14", "trialTime": 18046, "trial_type": "mouselab-mdp", "trial_index": 39, "time_elapsed": 1631316, "internal_node_id": "0.0-6.0-1.0-30.0"}}, {"uniqueid": "w16476295:a41925762", "current_trial": 40, "dateTime": 1693566421116, "trialdata": {"revealed_states": [], "clicked_states": ["17", "5", "11", "9", "20", "33", "29", "27", "31"], "num_clicks_accrued": [0, 0, 0, 0, 0, 0, 0, 0, 0, 0, 0, 0, 0], "stateRewards": ["", -2, -1, -1, 5, -54, -87, 35, 2, -8, 20, -22, 1, 3, 6, 13, -75, -32, -55, -3, 56, 62, -22, -1, -4, -1, -7, -51, 84, 70, 7, -15, 5, 55], "withholdReward": false, "trial_id": "mdp_trial_32", "block": "test", "trialIndex": 33, "score": 44.4, "costs": -12.600000000000001, "simulationMode": [null, null, null, null, null], "rewards": [-1, -4, -1, -7, 70], "path": ["0", "0", "23", "24", "25", "26", "29"], "rt": [20597, 186, 56, 82, 40], "actions": ["left", "left", "left", "up", "left"], "actionTimes": [22018, 22787, 23411, 24026, 24631], "queries": {"click": {"state": {"target": ["17", "5", "11", "9", "20", "33", "29", "27", "31"], "time": [2256, 4240, 6073, 8373, 10543, 12452, 14686, 17117, 19629]}, "edge": {"target": [], "time": []}}, "mouseover": {"state": {"target": ["0", "23", "0", "17", "18", "3", "3", "4", "5", "3", "8", "11", "8", "9", "9", "1", "12", "1", "8", "9", "8", "32", "20", "30", "33", "30", "29", "25", "27", "25", "24", "31"], "time": [1457, 1651, 1796, 2134, 2615, 2933, 3207, 3475, 3806, 4476, 4544, 4873, 6575, 6691, 7438, 7714, 7817, 7999, 8100, 8251, 8566, 8987, 10399, 10951, 11017, 14027, 14515, 15443, 16935, 18850, 19316, 19497]}, "edge": {"target": [], "time": []}}, "mouseout": {"state": {"target": ["25", "26", "28", "0", "0", "23", "0", "17", "18", "3", "3", "4", "5", "3", "8", "11", "8", "9", "9", "1", "12", "1", "8", "9", "8", "32", "20", "30", "33", "30", "33", "29", "29", "25", "27", "25", "24", "31"], "time": [39, 84, 283, 748, 1600, 1767, 1847, 2450, 2667, 2992, 3259, 3533, 4427, 4540, 4715, 6415, 6632, 7108, 7601, 7759, 7932, 8031, 8140, 8561, 8618, 9903, 10840, 11014, 14022, 14185, 14300, 14773, 15134, 16382, 17340, 19085, 19416, 19922]}, "edge": {"target": [], "time": []}}}, "displayed_time": "25.43", "trialTime": 27807, "trial_type": "mouselab-mdp", "trial_index": 40, "time_elapsed": 1659893, "internal_node_id": "0.0-6.0-1.0-31.0"}}, {"uniqueid": "w16476295:a41925762", "current_trial": 41, "dateTime": 1693566446796, "trialdata": {"revealed_states": [], "clicked_states": ["16", "22", "29", "28", "32", "11", "5"], "num_clicks_accrued": [0, 0, 0, 0, 0, 0, 0, 0, 0, 0, 0, 0, 0], "stateRewards": ["", 2, 3, -1, 6, 44, -4, -59, -14, -3, 64, 16, 1, -3, 3, 6, 3, 49, 19, 3, -49, -14, -86, 1, 2, -3, -8, -33, 14, 32, -13, -77, -47, -67], "withholdReward": false, "trial_id": "mdp_trial_33", "block": "test", "trialIndex": 34, "score": 44.2, "costs": -9.8, "simulationMode": [null, null, null, null, null], "rewards": [2, 3, -1, 6, 44], "path": ["0", "0", "1", "2", "3", "4", "5"], "rt": [17379, 109, 151, 677, 43], "actions": ["up", "up", "up", "right", "up"], "actionTimes": [19020, 19685, 20376, 21606, 22224], "queries": {"click": {"state": {"target": ["16", "22", "29", "28", "32", "11", "5"], "time": [2874, 4830, 7095, 9091, 10807, 12839, 15257]}, "edge": {"target": [], "time": []}}, "mouseover": {"state": {"target": ["12", "13", "14", "15", "16", "15", "19", "22", "25", "25", "29", "28", "28", "32", "9", "11", "8", "5", "4", "4", "6", "6"], "time": [1972, 2085, 2135, 2574, 2789, 3070, 3308, 3689, 5781, 5952, 6905, 7562, 8776, 9789, 12026, 12406, 13814, 14991, 15513, 15730, 16814, 17144]}, "edge": {"target": [], "time": []}}, "mouseout": {"state": {"target": ["31", "31", "12", "13", "14", "15", "16", "15", "19", "22", "25", "25", "29", "28", "28", "32", "9", "11", "11", "8", "5", "4", "4", "6", "6"], "time": [null, 535, 2056, 2133, 2422, 2706, 3067, 3124, 3578, 5159, 5843, 6541, 7393, 7970, 9377, 11502, 12291, 12935, 13812, 13985, 15449, 15626, 15895, 16993, 23889]}, "edge": {"target": [], "time": []}}}, "displayed_time": "22.78", "trialTime": 24778, "trial_type": "mouselab-mdp", "trial_index": 41, "time_elapsed": 1685572, "internal_node_id": "0.0-6.0-1.0-32.0"}}, {"uniqueid": "w16476295:a41925762", "current_trial": 42, "dateTime": 1693566465244, "trialdata": {"revealed_states": [], "clicked_states": ["21", "29"], "num_clicks_accrued": [0, 0, 0, 0, 0, 0, 0, 0, 0, 0, 0, 0, 0], "stateRewards": ["", 1, 2, -3, 6, -88, 74, -45, 7, -46, 40, -77, 1, -4, 4, 3, 22, -25, -59, 8, -83, 19, -60, -1, -1, -1, -8, 26, -29, 64, -7, -88, -51, -55], "withholdReward": false, "trial_id": "mdp_trial_34", "block": "test", "trialIndex": 35, "score": 50.2, "costs": -2.8, "simulationMode": [null, null, null, null, null], "rewards": [-1, -1, -1, -8, 64], "path": ["0", "0", "23", "24", "25", "26", "29"], "rt": [7934, 779, 185, 205, 44], "actions": ["left", "left", "left", "up", "left"], "actionTimes": [9402, 10734, 11464, 12214, 12800], "queries": {"click": {"state": {"target": ["21", "29"], "time": [2455, 5869]}, "edge": {"target": [], "time": []}}, "mouseover": {"state": {"target": ["0", "12", "19", "21", "31", "29", "25", "4", "6", "6", "6"], "time": [1503, 1726, 2067, 2284, 4967, 5186, 7802, 7901, 7985, 8202, 8869]}, "edge": {"target": [], "time": []}}, "mouseout": {"state": {"target": ["7", "1", "1", "0", "12", "19", "21", "21", "31", "29", "25", "4", "6", "6"], "time": [367, 468, 635, 1701, 1779, 2138, 2537, 4862, 4995, 6103, 7834, 7935, 8035, 8517]}, "edge": {"target": [], "time": []}}}, "displayed_time": "16.05", "trialTime": 17755, "trial_type": "mouselab-mdp", "trial_index": 42, "time_elapsed": 1704021, "internal_node_id": "0.0-6.0-1.0-33.0"}}, {"uniqueid": "w16476295:a41925762", "current_trial": 43, "dateTime": 1693566489786, "trialdata": {"revealed_states": [], "clicked_states": ["5", "18", "17", "21", "32", "27"], "num_clicks_accrued": [0, 0, 0, 0, 0, 0, 0, 0, 0, 0, 0, 0, 0], "stateRewards": ["", -2, 3, 3, -14, 62, 36, 49, 16, 11, 17, -84, 2, -1, 6, 2, -82, -73, 49, -6, -87, 48, 50, -1, -2, -1, -16, -11, 37, -44, 4, 55, 73, -10], "withholdReward": false, "trial_id": "mdp_trial_35", "block": "test", "trialIndex": 36, "score": 64.6, "costs": -8.4, "simulationMode": [null, null, null, null, null], "rewards": [-1, -2, -1, 4, 73], "path": ["0", "0", "23", "24", "25", "30", "32"], "rt": [16881, 767, 64, 149, 124], "actions": ["left", "left", "left", "down", "down"], "actionTimes": [18453, 19774, 20386, 21085, 21747], "queries": {"click": {"state": {"target": ["5", "18", "17", "21", "32", "27"], "time": [2419, 4901, 7316, 9717, 12466, 16241]}, "edge": {"target": [], "time": []}}, "mouseover": {"state": {"target": ["18", "7", "4", "5", "4", "7", "18", "15", "17", "13", "19", "21", "32", "31", "30", "33", "29", "27", "33"], "time": [1617, 2067, 2142, 2268, 2663, 2785, 4664, 6966, 7047, 7662, 9400, 9597, 12369, 14400, 14529, 14813, 15848, 16098, 16692]}, "edge": {"target": [], "time": []}}, "mouseout": {"state": {"target": ["6", "6", "1", "0", "18", "7", "4", "5", "4", "7", "18", "18", "15", "17", "13", "19", "21", "32", "31", "30", "33", "29", "27", "33", "30"], "time": [296, 545, 679, 1606, 1755, 2092, 2193, 2659, 2713, 4401, 5196, 6881, 6996, 7502, 9314, 9431, 9803, 12546, 14465, 14630, 15730, 16015, 16482, 22916, 22966]}, "edge": {"target": [], "time": []}}}, "displayed_time": "22.29", "trialTime": 23843, "trial_type": "mouselab-mdp", "trial_index": 43, "time_elapsed": 1728563, "internal_node_id": "0.0-6.0-1.0-34.0"}}, {"uniqueid": "w16476295:a41925762", "current_trial": 44, "dateTime": 1693566512585, "trialdata": {"revealed_states": [], "clicked_states": ["21", "9", "29", "32", "33"], "num_clicks_accrued": [0, 0, 0, 0, 0, 0, 0, 0, 0, 0, 0, 0, 0], "stateRewards": ["", -1, -4, -1, -11, 43, 69, 39, 4, 17, -20, -82, -2, -1, 4, 8, -79, 24, -79, 11, 36, 64, 41, 2, 4, -1, 11, -79, -47, 75, -3, 63, -36, -19], "withholdReward": false, "trial_id": "mdp_trial_36", "block": "test", "trialIndex": 37, "score": 84, "costs": -7, "simulationMode": [null, null, null, null, null], "rewards": [2, 4, -1, 11, 75], "path": ["0", "0", "23", "24", "25", "26", "29"], "rt": [12276, 113, 189, 42, 91], "actions": ["left", "left", "left", "up", "left"], "actionTimes": [15949, 16606, 17342, 17930, 18549], "queries": {"click": {"state": {"target": ["21", "9", "29", "32", "33"], "time": [5049, 7034, 9013, 11485, 13859]}, "edge": {"target": [], "time": []}}, "mouseover": {"state": {"target": ["0", "12", "21", "12", "7", "3", "9", "29", "33", "32", "33"], "time": [3981, 4200, 4878, 5566, 5685, 5749, 6032, 7893, 10458, 11113, 12192]}, "edge": {"target": [], "time": []}}, "mouseout": {"state": {"target": ["30", "31", "0", "0", "0", "0", "12", "21", "12", "7", "3", "9", "29", "29", "33", "32", "33"], "time": [230, 428, 663, 2649, 3928, 4161, 4264, 5287, 5622, 5744, 5919, 7432, 9324, 10246, 10815, 11574, 15256]}, "edge": {"target": [], "time": []}}}, "displayed_time": "19.07", "trialTime": 22089, "trial_type": "mouselab-mdp", "trial_index": 44, "time_elapsed": 1751361, "internal_node_id": "0.0-6.0-1.0-35.0"}}, {"uniqueid": "w16476295:a41925762", "current_trial": 45, "dateTime": 1693566531068, "trialdata": {"revealed_states": [], "clicked_states": ["11", "17", "18", "28"], "num_clicks_accrued": [0, 0, 0, 0, 0, 0, 0, 0, 0, 0, 0, 0, 0], "stateRewards": ["", -1, -3, 3, 5, 56, 39, 50, -1, -80, 33, -46, 1, -2, -6, -8, 87, 48, 54, -11, -20, -64, -54, -2, 3, -7, -3, 12, 88, 35, -16, -46, -70, -3], "withholdReward": false, "trial_id": "mdp_trial_37", "block": "test", "trialIndex": 38, "score": 73.4, "costs": -5.6, "simulationMode": [null, null, null, null, null], "rewards": [-2, 3, -7, -3, 88], "path": ["0", "0", "23", "24", "25", "26", "28"], "rt": [9571, 148, 104, 54, 55], "actions": ["left", "left", "left", "up", "right"], "actionTimes": [10898, 11603, 12263, 12866, 13433], "queries": {"click": {"state": {"target": ["11", "17", "18", "28"], "time": [2102, 4313, 6322, 8264]}, "edge": {"target": [], "time": []}}, "mouseover": {"state": {"target": ["10", "8", "11", "10", "12", "12", "17", "14", "13", "18", "13", "25", "26", "28", "24"], "time": [1694, 1775, 1828, 2356, 2731, 3051, 4112, 4609, 5033, 5146, 6561, 7160, 7380, 7441, 8562]}, "edge": {"target": [], "time": []}}, "mouseout": {"state": {"target": ["23", "2", "2", "1", "0", "10", "8", "11", "10", "12", "12", "17", "14", "13", "18", "13", "25", "26", "28", "24"], "time": [325, 410, 518, 609, 1459, 1719, 1826, 2298, 2469, 2896, 3113, 4547, 4668, 5085, 6557, 6612, 7262, 7430, 8504, 8619]}, "edge": {"target": [], "time": []}}}, "displayed_time": "16.38", "trialTime": 17753, "trial_type": "mouselab-mdp", "trial_index": 45, "time_elapsed": 1769844, "internal_node_id": "0.0-6.0-1.0-36.0"}}, {"uniqueid": "w16476295:a41925762", "current_trial": 46, "dateTime": 1693566560622, "trialdata": {"revealed_states": [], "clicked_states": ["20", "18", "9", "11", "6", "32", "29", "27", "28", "22"], "num_clicks_accrued": [0, 0, 0, 0, 0, 0, 0, 0, 0, 0, 0, 0, 0], "stateRewards": ["", 2, -2, -3, 10, -4, -1, -11, -8, -9, -36, -78, 2, 1, 7, -7, 44, -1, -31, -1, 26, 47, 83, 2, -4, -4, -6, -52, -76, -81, -1, -59, 45, 67], "withholdReward": false, "trial_id": "mdp_trial_38", "block": "test", "trialIndex": 39, "score": 78, "costs": -14.000000000000002, "simulationMode": [null, null, null, null, null], "rewards": [2, 1, 7, -1, 83], "path": ["0", "0", "12", "13", "14", "19", "22"], "rt": [22128, 111, 160, 688, 137], "actions": ["right", "right", "right", "down", "left"], "actionTimes": [23309, 23929, 24638, 25868, 26555], "queries": {"click": {"state": {"target": ["20", "18", "9", "11", "6", "32", "29", "27", "28", "22"], "time": [1952, 4356, 6301, 8158, 10085, 12608, 14521, 16408, 18321, 20696]}, "edge": {"target": [], "time": []}}, "mouseover": {"state": {"target": ["22", "20", "19", "22", "13", "18", "1", "2", "7", "7", "9", "8", "28", "11", "7", "6", "24", "30", "32", "32", "33", "29", "27", "26", "25", "28", "24", "23", "22"], "time": [1528, 1796, 3260, 3319, 3600, 4225, 4748, 4814, 4876, 5051, 5544, 6607, 6986, 7473, 8824, 9095, 10387, 10559, 10791, 12259, 13000, 13220, 15670, 16755, 16819, 17248, 18677, 18738, 20011]}, "edge": {"target": [], "time": []}}, "mouseout": {"state": {"target": ["22", "20", "19", "22", "13", "18", "1", "2", "7", "7", "9", "8", "28", "11", "7", "6", "24", "30", "32", "32", "33", "29", "27", "26", "25", "28", "24", "23", "22"], "time": [1561, 2182, 3316, 3435, 3778, 4588, 4811, 4870, 5002, 5115, 6549, 6714, 7102, 8455, 8881, 10267, 10433, 10674, 11514, 12948, 13061, 15460, 16696, 16816, 17038, 18619, 18736, 18800, 21041]}, "edge": {"target": [], "time": []}}}, "displayed_time": "27.10", "trialTime": 28857, "trial_type": "mouselab-mdp", "trial_index": 46, "time_elapsed": 1799399, "internal_node_id": "0.0-6.0-1.0-37.0"}}, {"uniqueid": "w16476295:a41925762", "current_trial": 47, "dateTime": 1693566588155, "trialdata": {"revealed_states": [], "clicked_states": ["9", "21", "16", "17", "18", "29", "28", "27", "32"], "num_clicks_accrued": [0, 0, 0, 0, 0, 0, 0, 0, 0, 0, 0, 0, 0], "stateRewards": ["", -1, -2, 4, 9, 10, -75, 39, 16, -43, 88, -19, -1, 1, 2, 4, -31, 10, 73, 12, 41, -64, -81, -2, 2, -6, 1, -81, -1, -26, 3, -59, -3, -20], "withholdReward": false, "trial_id": "mdp_trial_39", "block": "test", "trialIndex": 40, "score": 66.4, "costs": -12.600000000000001, "simulationMode": [null, null, null, null, null], "rewards": [-1, 1, 2, 4, 73], "path": ["0", "0", "12", "13", "14", "15", "18"], "rt": [19941, 509, 131, 77, 591], "actions": ["right", "right", "right", "up", "left"], "actionTimes": [21376, 22439, 23119, 23733, 24861], "queries": {"click": {"state": {"target": ["9", "21", "16", "17", "18", "29", "28", "27", "32"], "time": [2623, 4566, 6847, 8761, 10740, 12762, 14999, 17191, 19330]}, "edge": {"target": [], "time": []}}, "mouseover": {"state": {"target": ["0", "23", "10", "8", "9", "21", "16", "17", "18", "12", "29", "28", "24", "26", "27", "25", "32"], "time": [1997, 2028, 2137, 2245, 2446, 4430, 6647, 7950, 9516, 10982, 11572, 14732, 15351, 16484, 17012, 17580, 19124]}, "edge": {"target": [], "time": []}}, "mouseout": {"state": {"target": ["0", "0", "23", "10", "8", "9", "21", "21", "16", "17", "18", "12", "29", "28", "24", "26", "27", "25", "32"], "time": [1504, 2026, 2083, 2190, 2316, 3014, 5077, 6461, 7084, 9050, 10980, 11035, 14221, 15294, 16370, 16881, 17519, 17637, 20689]}, "edge": {"target": [], "time": []}}}, "displayed_time": "25.41", "trialTime": 26810, "trial_type": "mouselab-mdp", "trial_index": 47, "time_elapsed": 1826932, "internal_node_id": "0.0-6.0-1.0-38.0"}}, {"uniqueid": "w16476295:a41925762", "current_trial": 48, "dateTime": 1693566621599, "trialdata": {"revealed_states": [], "clicked_states": ["21", "7", "10", "5", "6", "4", "27", "26", "25"], "num_clicks_accrued": [0, 0, 0, 0, 0, 0, 0, 0, 0, 0, 0, 0, 0], "stateRewards": ["", -1, 2, -6, 6, 43, 78, 78, -2, 55, -29, -17, -2, -4, 1, -15, 13, 7, -79, 8, -28, -68, 36, -1, -3, 3, -16, 84, -18, 87, 10, 32, 13, -81], "withholdReward": false, "trial_id": "mdp_trial_40", "block": "test", "trialIndex": 41, "score": 66.4, "costs": -12.600000000000001, "simulationMode": [null, null, null, null, null], "rewards": [-1, 2, -6, 6, 78], "path": ["0", "0", "1", "2", "3", "4", "7"], "rt": [25480, 455, 205, 604, 77], "actions": ["up", "up", "up", "right", "down"], "actionTimes": [27371, 28376, 29131, 30277, 30917], "queries": {"click": {"state": {"target": ["21", "7", "10", "5", "6", "4", "27", "26", "25"], "time": [2518, 5026, 7205, 9498, 11607, 14869, 19178, 22427, 24918]}, "edge": {"target": [], "time": []}}, "mouseover": {"state": {"target": ["21", "3", "9", "8", "2", "7", "10", "3", "5", "4", "6", "24", "2", "4", "2", "1", "0", "23", "24", "25", "29", "27", "29", "26", "24", "24", "26", "25"], "time": [2382, 3020, 3196, 4560, 4683, 4914, 5582, 9166, 9335, 9744, 11121, 12116, 14498, 14768, 16491, 17419, 18067, 18146, 18265, 18402, 18784, 19050, 20866, 21666, 21931, 22066, 22298, 24717]}, "edge": {"target": [], "time": []}}, "mouseout": {"state": {"target": ["0", "21", "3", "9", "8", "2", "7", "10", "10", "3", "5", "4", "6", "24", "2", "4", "2", "1", "0", "23", "24", "25", "29", "27", "29", "26", "24", "24", "26", "26", "25"], "time": [1180, 2606, 3077, 4533, 4615, 4800, 5267, 7504, 9133, 9216, 9688, 9848, 11854, 14418, 14528, 15165, 17300, 17781, 18093, 18234, 18334, 18668, 18900, 20771, 21397, 21750, 21997, 22109, 22510, 22720, 25215]}, "edge": {"target": [], "time": []}}}, "displayed_time": "31.47", "trialTime": 32756, "trial_type": "mouselab-mdp", "trial_index": 48, "time_elapsed": 1860376, "internal_node_id": "0.0-6.0-1.0-39.0"}}, {"uniqueid": "w16476295:a41925762", "current_trial": 49, "dateTime": 1693566692694, "trialdata": {"rt": 71084, "response": {"Q0": "$-2 to $2", "Q1": "$-16 to $16", "Q2": "$-88 to $88", "Q3": "The cost for clicking on nodes varied between nodes.", "Q4": "Very motivated"}, "question_order": [0, 1, 2, 3, 4], "trial_id": "final_quiz_control", "trial_type": "survey-multi-choice", "trial_index": 49, "time_elapsed": 1931471, "internal_node_id": "0.0-6.0-2.0"}}, {"uniqueid": "w16476295:a41925762", "current_trial": 50, "dateTime": 1693566861757, "trialdata": {"rt": 169035, "response": {"Q0": "I used my entire energy because I wanted to remain focus. my aim was to get a high score", "Q1": "yes I did. I started checking the nodes on the end instead of focusing on the ones in the middle because what mattered is getting a high score on the end node", "Q2": "the fact that every time I opened a node it affected the score made it difficult for me to improve my performace because it meant that I had to select less nodes as the game progressed."}, "trial_id": "self_report_control", "trial_type": "survey-text", "trial_index": 50, "time_elapsed": 2100534, "internal_node_id": "0.0-6.0-3.0"}}, {"uniqueid": "w16476295:a41925762", "current_trial": 51, "dateTime": 1693566881335, "trialdata": {"rt": 19569, "response": {"gender": "female", "age": "31", "colorblind": "0", "effort": "0"}, "trial_type": "survey-html-form", "trial_index": 51, "time_elapsed": 2120112, "internal_node_id": "0.0-6.0-4.0"}}, {"uniqueid": "w16476295:a41925762", "current_trial": 52, "dateTime": 1693566923619, "trialdata": {"rt": 42277, "response": {"Q0": "No, I understood everything", "Q1": "I have never participated in such a game before", "Q2": ""}, "trial_type": "survey-text", "trial_index": 52, "time_elapsed": 2162396, "internal_node_id": "0.0-6.0-5.0"}}, {"uniqueid": "w16476295:a41925762", "current_trial": 53, "dateTime": 1693566973932, "trialdata": {"rt": 50308, "stimulus": "<h1>Completion Code Instructions (1/2)</h1>\n<br><br><br><br>\nYou have reached the end of the experiment! The completion code consists of two parts: (1) a code with 2 characters (2) a code with 6 characters. On this page, you will receive the second part of the code. The first part of the completion code will be on the next page.\n<br><br>\nThe second part of your completion code is: <b>EWEK22</b>\n<br><br>\nPlease note this down. Then, press 'Finish HIT' in order to find the first part of your completion code. Once the data has been saved, you will receive this code either in this window or in the original browser window where you started the experiment.\n", "response": 0, "trial_type": "html-button-response", "trial_index": 53, "time_elapsed": 2212709, "internal_node_id": "0.0-6.0-6.0"}}, {"uniqueid": "w16476295:a41925762", "current_trial": 54, "dateTime": 1693566974956, "trialdata": {"success": true, "trial_type": "fullscreen", "trial_index": 54, "time_elapsed": 2213733, "internal_node_id": "0.0-7.0"}}], "questiondata": {"params": {"CODE": "C6DMOQA6", "MIN_TIME": 14, "inspectCost": 1, "startTime": "Fri Sep 01 2023 12:39:17 GMT+0200 (South Africa Standard Time)", "bonusRate": 0.002, "variance": "1_2_4_8_44", "branching": "31123"}, "final_score": 2007.8}, "eventdata": [{"eventtype": "initialized", "value": null, "timestamp": 1693564757317, "interval": 0}, {"eventtype": "window_resize", "value": [1024, 755], "timestamp": 1693564757317, "interval": 0}, {"eventtype": "focus", "value": "on", "timestamp": 1693564757630, "interval": 313}, {"eventtype": "window_resize", "value": [1024, 755], "timestamp": 1693564757846, "interval": 216}, {"eventtype": "window_resize", "value": [1536, 864], "timestamp": 1693564765590, "interval": 7744}, {"eventtype": "window_resize", "value": [1024, 755], "timestamp": 1693566974508, "interval": 2208918}], "useragent": "Mozilla/5.0 (Windows NT 10.0; Win64; x64; rv:109.0) Gecko/20100101 Firefox/116.0", "mode": "live", "id": "w16476295:a41925762", "status": "user data saved", "Beginhit": "2023-09-01 10:39:11.041889", "Beginexp": "2023-09-01 10:39:25.357064", "Endhit": "2023-09-01 11:16:16.285697", "psiturkStatus": 3, "browser": "<redacted>", "platform": "windows", "language": "en-US"}