{"condition": 0, "counterbalance": 0, "assignmentId": "a24338374", "workerId": "w13475977", "hitId": "h56692339", "currenttrial": 55, "bonus": 0, "data": [{"uniqueid": "w13475977:a24338374", "current_trial": 0, "dateTime": 1693564881458, "trialdata": {"success": true, "trial_type": "fullscreen", "trial_index": 0, "time_elapsed": 6420, "internal_node_id": "0.0-0.0"}}, {"uniqueid": "w13475977:a24338374", "current_trial": 1, "dateTime": 1693564904005, "trialdata": {"view_history": [{"page_index": 0, "viewing_time": 22536}], "rt": 22537, "trial_id": "exp_instructions_control", "trial_type": "instructions", "trial_index": 1, "time_elapsed": 28966, "internal_node_id": "0.0-1.0"}}, {"uniqueid": "w13475977:a24338374", "current_trial": 2, "dateTime": 1693565015075, "trialdata": {"view_history": [{"page_index": 0, "viewing_time": 50154}, {"page_index": 1, "viewing_time": 31328}, {"page_index": 2, "viewing_time": 16024}, {"page_index": 3, "viewing_time": 13560}], "rt": 111067, "trial_id": "mouselab_instructions_1_control", "trial_type": "instructions", "trial_index": 2, "time_elapsed": 140037, "internal_node_id": "0.0-2.0-1.0"}}, {"uniqueid": "w13475977:a24338374", "current_trial": 3, "dateTime": 1693565045342, "trialdata": {"revealed_states": [], "clicked_states": [], "num_clicks_accrued": [0, 0, 0, 0, 0, 0, 0, 0, 0, 0, 0, 0, 0], "stateRewards": ["", -10, -10, 10, 10, 10, -10, -10, -10, -10, -10, -10, 10, 10, -10, 10, -10, 10, -10, -10, 10, 10, -10, 10, 10, 10, 10, 10, -10, -10, 10, -10, 10, 10], "withholdReward": false, "trial_id": "practice_1", "block": "test", "trialIndex": 0, "score": -26.5, "costs": 0, "simulationMode": [null, null, null, null, null], "rewards": [-10, -10, 10, -10, -10], "path": ["0", "0", "1", "2", "3", "8", "9"], "rt": [5125, 1909, 954, 1035, 265], "actions": ["up", "up", "up", "left", "up"], "actionTimes": [11253, 13659, 15136, 16686, 17463], "queries": {"click": {"state": {"target": [], "time": []}, "edge": {"target": [], "time": []}}, "mouseover": {"state": {"target": [], "time": []}, "edge": {"target": [], "time": []}}, "mouseout": {"state": {"target": ["0", "12", "13", "18", "15", "17"], "time": [26126, 26176, 26526, 26593, 26860, 26943]}, "edge": {"target": [], "time": []}}}, "displayed_time": "17.99", "trialTime": 29530, "trial_type": "mouselab-mdp", "trial_index": 3, "time_elapsed": 170303, "internal_node_id": "0.0-2.0-2.0-0.0"}}, {"uniqueid": "w13475977:a24338374", "current_trial": 4, "dateTime": 1693565063786, "trialdata": {"revealed_states": [], "clicked_states": [], "num_clicks_accrued": [0, 0, 0, 0, 0, 0, 0, 0, 0, 0, 0, 0, 0], "stateRewards": ["", -10, 10, 10, -10, -10, -10, -10, 10, -10, -10, 10, -10, 10, -10, -10, -10, -10, -10, 10, 10, 10, -10, -10, 10, -10, -10, 10, -10, 10, 10, -10, 10, 10], "withholdReward": false, "trial_id": "practice_2", "block": "test", "trialIndex": 1, "score": -26.5, "costs": 0, "simulationMode": [null, null, null, null, null], "rewards": [-10, 10, -10, -10, -10], "path": ["0", "0", "12", "13", "14", "15", "16"], "rt": [3935, 1, 139, 579, 675], "actions": ["right", "right", "right", "up", "up"], "actionTimes": [8893, 9417, 10077, 11183, 12380], "queries": {"click": {"state": {"target": [], "time": []}, "edge": {"target": [], "time": []}}, "mouseover": {"state": {"target": ["0"], "time": [6316]}, "edge": {"target": [], "time": []}}, "mouseout": {"state": {"target": ["17", "15", "13", "12", "0", "0"], "time": [3461, 3511, 3628, 3878, 6363, 15780]}, "edge": {"target": [], "time": []}}}, "displayed_time": "12.90", "trialTime": 17859, "trial_type": "mouselab-mdp", "trial_index": 4, "time_elapsed": 188747, "internal_node_id": "0.0-2.0-2.0-1.0"}}, {"uniqueid": "w13475977:a24338374", "current_trial": 5, "dateTime": 1693565094724, "trialdata": {"view_history": [{"page_index": 0, "viewing_time": 23349}, {"page_index": 1, "viewing_time": 7584}], "rt": 30934, "trial_id": "mouselab_instructions_2_control", "trial_type": "instructions", "trial_index": 5, "time_elapsed": 219686, "internal_node_id": "0.0-2.0-3.0"}}, {"uniqueid": "w13475977:a24338374", "current_trial": 6, "dateTime": 1693565141540, "trialdata": {"rt": 46809, "response": {"Q0": "The cost for clicking on nodes may vary between nodes.", "Q1": "The better I perform the higher my bonus will be.", "Q2": "No, the amount of cash at each node of the web may be different each time.", "Q3": "To get the highest total score.", "Q4": "Only before moving the spider.", "Q5": "3 seconds"}, "question_order": [0, 1, 2, 3, 4, 5], "correct": {"Q0": "The cost for clicking on nodes may vary between nodes.", "Q1": "The better I perform the higher my bonus will be.", "Q2": "No, the amount of cash at each node of the web may be different each time.", "Q3": "To get the highest total score.", "Q4": "Only before moving the spider.", "Q5": "3 seconds"}, "trial_id": "mouselab_quiz_control", "trial_type": "survey-multi-choice", "trial_index": 6, "time_elapsed": 266502, "internal_node_id": "0.0-2.0-4.0"}}, {"uniqueid": "w13475977:a24338374", "current_trial": 7, "dateTime": 1693565151028, "trialdata": {"rt": 9479, "response": {"Q0": "No"}, "question_order": [0], "trial_id": "repeat_check", "trial_type": "survey-multi-choice", "trial_index": 7, "time_elapsed": 275989, "internal_node_id": "0.0-4.0-0.0"}}, {"uniqueid": "w13475977:a24338374", "current_trial": 8, "dateTime": 1693565163886, "trialdata": {"rt": 12850, "stimulus": "\n<h1> Get ready to start the game! </h1>\n\nThank you for reading the instructions. Get ready start with the 40 rounds of this game.\n<br><br>\nIf you need to take a break, feel free to take one after the end of a round, before continuing to the next one.\n<br><br>\nRemember, the more money the spider gets, the bigger your bonus will be!\n<br><br>\n<div style='text-align: center;'>Press <code>space</code> to begin.</div>\n\n<br><br>\n(If, at any point, the <code>space</code> key does not take you to the next page, click once on the text and try again.)", "response": " ", "trial_id": "mdp_ready", "trial_type": "html-keyboard-response", "trial_index": 8, "time_elapsed": 288847, "internal_node_id": "0.0-6.0-0.0"}}, {"uniqueid": "w13475977:a24338374", "current_trial": 9, "dateTime": 1693565191106, "trialdata": {"revealed_states": [], "clicked_states": [], "num_clicks_accrued": [0, 0, 0, 0, 0, 0, 0, 0, 0, 0, 0, 0, 0], "stateRewards": ["", -1, 1, 8, -3, -24, 11, -65, -6, -77, 48, 44, -2, 1, -2, -7, -55, -35, 33, 8, -28, 19, -53, -1, -1, -5, -5, -70, 10, 44, 8, -58, -70, 51], "withholdReward": false, "trial_id": "mdp_trial_1", "block": "test", "trialIndex": 2, "score": -19, "costs": 0, "simulationMode": [null, null, null, null, null], "rewards": [-1, 1, 8, -3, -24], "path": ["0", "0", "1", "2", "3", "4", "5"], "rt": [9327, 1348, 3544, 758, 713], "actions": ["up", "up", "up", "right", "up"], "actionTimes": [13332, 15207, 19270, 20556, 21799], "queries": {"click": {"state": {"target": [], "time": []}, "edge": {"target": [], "time": []}}, "mouseover": {"state": {"target": ["23", "24", "26", "29", "26", "28"], "time": [6349, 6430, 8032, 8566, 11535, 11583]}, "edge": {"target": [], "time": []}}, "mouseout": {"state": {"target": ["23", "24", "26", "29", "26", "28"], "time": [6382, 7434, 8532, 11516, 11551, 12152]}, "edge": {"target": [], "time": []}}}, "displayed_time": "22.32", "trialTime": 26597, "trial_type": "mouselab-mdp", "trial_index": 9, "time_elapsed": 316067, "internal_node_id": "0.0-6.0-1.0-0.0"}}, {"uniqueid": "w13475977:a24338374", "current_trial": 10, "dateTime": 1693565212051, "trialdata": {"revealed_states": [], "clicked_states": ["3"], "num_clicks_accrued": [0, 0, 0, 0, 0, 0, 0, 0, 0, 0, 0, 0, 0], "stateRewards": ["", 1, 1, -3, 7, 49, 78, 26, -5, 26, 48, -43, -1, -3, 2, -5, 4, -1, -60, 10, -35, 51, 81, -2, 1, -7, -5, -39, -86, -54, 4, -3, 74, 77], "withholdReward": false, "trial_id": "mdp_trial_2", "block": "test", "trialIndex": 3, "score": -53.4, "costs": -1.4, "simulationMode": [null, null, null, null, null], "rewards": [-2, 1, -7, -5, -39], "path": ["0", "0", "23", "24", "25", "26", "27"], "rt": [4900, 634, 48, 565, 657], "actions": ["left", "left", "left", "up", "up"], "actionTimes": [8224, 9378, 9954, 11042, 12225], "queries": {"click": {"state": {"target": ["3"], "time": [4727]}, "edge": {"target": [], "time": []}}, "mouseover": {"state": {"target": ["1", "2", "3"], "time": [3953, 4087, 4486]}, "edge": {"target": [], "time": []}}, "mouseout": {"state": {"target": ["1", "2", "3", "2", "1", "0"], "time": [4002, 4336, 6039, 17355, 17803, 17837]}, "edge": {"target": [], "time": []}}}, "displayed_time": "17.32", "trialTime": 20245, "trial_type": "mouselab-mdp", "trial_index": 10, "time_elapsed": 337013, "internal_node_id": "0.0-6.0-1.0-1.0"}}, {"uniqueid": "w13475977:a24338374", "current_trial": 11, "dateTime": 1693565235247, "trialdata": {"revealed_states": [], "clicked_states": [], "num_clicks_accrued": [0, 0, 0, 0, 0, 0, 0, 0, 0, 0, 0, 0, 0], "stateRewards": ["", -1, -3, 3, 5, 56, 39, 50, -1, -80, 33, -46, 1, -2, -6, -8, 87, 48, 54, -11, -20, -64, -54, -2, 3, -7, -3, 12, 88, 35, -16, -46, -70, -3], "withholdReward": false, "trial_id": "mdp_trial_3", "block": "test", "trialIndex": 4, "score": 72, "costs": 0, "simulationMode": [null, null, null, null, null], "rewards": [1, -2, -6, -8, 87], "path": ["0", "0", "12", "13", "14", "15", "16"], "rt": [8339, 4623, 307, 905, 1], "actions": ["right", "right", "right", "up", "up"], "actionTimes": [10792, 15936, 16772, 18202, 18733], "queries": {"click": {"state": {"target": [], "time": []}, "edge": {"target": [], "time": []}}, "mouseover": {"state": {"target": ["23", "24", "25"], "time": [5523, 5572, 5806]}, "edge": {"target": [], "time": []}}, "mouseout": {"state": {"target": ["0", "23", "24", "25", "0", "7", "18", "15", "15", "0", "1", "0"], "time": [5505, 5539, 5689, 7590, 11723, 12041, 12122, 12670, 13472, 20306, 20340, 21373]}, "edge": {"target": [], "time": []}}}, "displayed_time": "19.25", "trialTime": 22543, "trial_type": "mouselab-mdp", "trial_index": 11, "time_elapsed": 360209, "internal_node_id": "0.0-6.0-1.0-2.0"}}, {"uniqueid": "w13475977:a24338374", "current_trial": 12, "dateTime": 1693565255244, "trialdata": {"revealed_states": [], "clicked_states": [], "num_clicks_accrued": [0, 0, 0, 0, 0, 0, 0, 0, 0, 0, 0, 0, 0], "stateRewards": ["", 1, -3, -2, 14, 49, -40, -39, 2, 26, -61, 73, 1, -4, -8, 12, 79, 29, -65, -13, 55, -26, 27, -1, 3, 3, 9, -17, -60, -18, -8, 35, -88, 69], "withholdReward": false, "trial_id": "mdp_trial_4", "block": "test", "trialIndex": 5, "score": -91, "costs": 0, "simulationMode": [null, null, null, null, null], "rewards": [-1, 3, 3, -8, -88], "path": ["0", "0", "23", "24", "25", "30", "32"], "rt": [2668, 111, 1291, 555, 385], "actions": ["left", "left", "left", "down", "down"], "actionTimes": [5043, 5695, 7519, 8604, 9506], "queries": {"click": {"state": {"target": [], "time": []}, "edge": {"target": [], "time": []}}, "mouseover": {"state": {"target": ["12"], "time": [2547]}, "edge": {"target": [], "time": []}}, "mouseout": {"state": {"target": ["0", "12", "12"], "time": [2398, 11647, 12147]}, "edge": {"target": [], "time": []}}}, "displayed_time": "16.38", "trialTime": 19081, "trial_type": "mouselab-mdp", "trial_index": 12, "time_elapsed": 380205, "internal_node_id": "0.0-6.0-1.0-3.0"}}, {"uniqueid": "w13475977:a24338374", "current_trial": 13, "dateTime": 1693565284482, "trialdata": {"revealed_states": [], "clicked_states": ["27", "14", "21", "32", "5"], "num_clicks_accrued": [0, 0, 0, 0, 0, 0, 0, 0, 0, 0, 0, 0, 0], "stateRewards": ["", 1, -2, -8, -13, 4, 34, -84, -4, -49, 88, -70, -1, 3, -4, 10, -77, 13, -34, 15, -21, -16, 27, 1, -2, 8, -8, -6, 38, -26, 6, -15, 66, -3], "withholdReward": false, "trial_id": "mdp_trial_5", "block": "test", "trialIndex": 6, "score": -25, "costs": -7, "simulationMode": [null, null, null, null, null], "rewards": [1, -2, -8, -13, 4], "path": ["0", "0", "1", "2", "3", "4", "5"], "rt": [20098, 11, 313, 542, 684], "actions": ["up", "up", "up", "right", "up"], "actionTimes": [22071, 22595, 23423, 24481, 25693], "queries": {"click": {"state": {"target": ["27", "14", "21", "32", "5"], "time": [4713, 7646, 10190, 11783, 13639]}, "edge": {"target": [], "time": []}}, "mouseover": {"state": {"target": ["1", "2", "2", "10", "28", "26", "27", "24", "13", "14", "19", "21", "32", "31", "7", "4", "5", "9", "8", "3", "4", "17", "15", "13"], "time": [2780, 2880, 3431, 3513, 3647, 3931, 4365, 5836, 7113, 7397, 8354, 8637, 11550, 12690, 13037, 13188, 13447, 14686, 14784, 16182, 16214, 19347, 19630, 20664]}, "edge": {"target": [], "time": []}}, "mouseout": {"state": {"target": ["0", "1", "2", "2", "10", "28", "26", "27", "24", "13", "14", "19", "21", "32", "31", "7", "4", "5", "9", "8", "3", "4", "17", "15", "13"], "time": [2646, 2830, 3397, 3464, 3532, 3696, 4230, 5767, 5884, 7297, 8336, 8451, 11116, 12469, 12711, 13056, 13324, 14184, 14743, 16165, 16208, 16222, 19547, 19715, 20698]}, "edge": {"target": [], "time": []}}}, "displayed_time": "26.22", "trialTime": 28551, "trial_type": "mouselab-mdp", "trial_index": 13, "time_elapsed": 409443, "internal_node_id": "0.0-6.0-1.0-4.0"}}, {"uniqueid": "w13475977:a24338374", "current_trial": 14, "dateTime": 1693565306914, "trialdata": {"revealed_states": [], "clicked_states": [], "num_clicks_accrued": [0, 0, 0, 0, 0, 0, 0, 0, 0, 0, 0, 0, 0], "stateRewards": ["", -1, -3, 1, -4, -48, -63, -49, -2, -84, -19, 65, 2, -2, -2, -12, -4, 59, 9, 6, 75, 69, -13, -1, -3, -3, -2, -37, -68, -36, 13, 32, 18, -14], "withholdReward": false, "trial_id": "mdp_trial_6", "block": "test", "trialIndex": 7, "score": 73, "costs": 0, "simulationMode": [null, null, null, null, null], "rewards": [2, -2, -2, 6, 69], "path": ["0", "0", "12", "13", "14", "19", "21"], "rt": [2697, 562, 587, 503, 167], "actions": ["right", "right", "right", "down", "down"], "actionTimes": [6342, 7447, 8548, 9599, 10306], "queries": {"click": {"state": {"target": [], "time": []}, "edge": {"target": [], "time": []}}, "mouseover": {"state": {"target": ["13"], "time": [3668]}, "edge": {"target": [], "time": []}}, "mouseout": {"state": {"target": ["12", "0", "13"], "time": [2746, 3062, 18331]}, "edge": {"target": [], "time": []}}}, "displayed_time": "17.66", "trialTime": 21498, "trial_type": "mouselab-mdp", "trial_index": 14, "time_elapsed": 431875, "internal_node_id": "0.0-6.0-1.0-5.0"}}, {"uniqueid": "w13475977:a24338374", "current_trial": 15, "dateTime": 1693565342139, "trialdata": {"revealed_states": [], "clicked_states": [], "num_clicks_accrued": [0, 0, 0, 0, 0, 0, 0, 0, 0, 0, 0, 0, 0], "stateRewards": ["", 1, -1, 1, 13, 31, -56, 72, 2, 41, 5, 63, -2, -3, -2, 3, -71, -26, 52, 13, -31, 24, -67, 2, -2, 5, 4, 66, 43, 72, 9, 86, -26, 44], "withholdReward": false, "trial_id": "mdp_trial_7", "block": "test", "trialIndex": 8, "score": -12, "costs": 0, "simulationMode": [null, null, null, null, null], "rewards": [2, -2, 5, 9, -26], "path": ["0", "0", "23", "24", "25", "30", "32"], "rt": [1937, 11, 177, 629, 155], "actions": ["left", "left", "left", "down", "down"], "actionTimes": [4375, 4913, 5644, 6780, 7458], "queries": {"click": {"state": {"target": [], "time": []}, "edge": {"target": [], "time": []}}, "mouseover": {"state": {"target": [], "time": []}, "edge": {"target": [], "time": []}}, "mouseout": {"state": {"target": ["0"], "time": [3078]}, "edge": {"target": [], "time": []}}}, "displayed_time": "16.46", "trialTime": 34453, "trial_type": "mouselab-mdp", "trial_index": 15, "time_elapsed": 467100, "internal_node_id": "0.0-6.0-1.0-6.0"}}, {"uniqueid": "w13475977:a24338374", "current_trial": 16, "dateTime": 1693565360726, "trialdata": {"revealed_states": [], "clicked_states": [], "num_clicks_accrued": [0, 0, 0, 0, 0, 0, 0, 0, 0, 0, 0, 0, 0], "stateRewards": ["", 1, 2, 3, 16, 63, -25, 16, -4, -14, 82, -66, -1, -3, -3, -11, -14, 19, 46, 3, -34, -82, 66, -2, -3, 4, -5, -63, 77, -37, -1, -45, -41, 84], "withholdReward": false, "trial_id": "mdp_trial_8", "block": "test", "trialIndex": 9, "score": -32, "costs": 0, "simulationMode": [null, null, null, null, null], "rewards": [-1, -3, -3, -11, -14], "path": ["0", "0", "12", "13", "14", "15", "16"], "rt": [3856, 208, 415, 549, 506], "actions": ["right", "right", "right", "up", "up"], "actionTimes": [5600, 6336, 7320, 8390, 9440], "queries": {"click": {"state": {"target": [], "time": []}, "edge": {"target": [], "time": []}}, "mouseover": {"state": {"target": [], "time": []}, "edge": {"target": [], "time": []}}, "mouseout": {"state": {"target": ["0"], "time": [13003]}, "edge": {"target": [], "time": []}}}, "displayed_time": "15.76", "trialTime": 17814, "trial_type": "mouselab-mdp", "trial_index": 16, "time_elapsed": 485687, "internal_node_id": "0.0-6.0-1.0-7.0"}}, {"uniqueid": "w13475977:a24338374", "current_trial": 17, "dateTime": 1693565381463, "trialdata": {"revealed_states": [], "clicked_states": ["25"], "num_clicks_accrued": [0, 0, 0, 0, 0, 0, 0, 0, 0, 0, 0, 0, 0], "stateRewards": ["", -2, -4, 4, -11, -63, -60, -7, 2, -14, 81, -43, -1, -1, -5, 7, 10, 69, 40, 8, -83, 52, 60, 1, 2, 5, -5, 16, 64, 14, -3, 29, 7, -51], "withholdReward": false, "trial_id": "mdp_trial_9", "block": "test", "trialIndex": 10, "score": 17.6, "costs": -1.4, "simulationMode": [null, null, null, null, null], "rewards": [1, 2, 5, -5, 16], "path": ["0", "0", "23", "24", "25", "26", "27"], "rt": [6295, 332, 78, 671, 396], "actions": ["left", "left", "left", "up", "up"], "actionTimes": [8843, 9724, 10346, 11525, 12448], "queries": {"click": {"state": {"target": ["25"], "time": [5135]}, "edge": {"target": [], "time": []}}, "mouseover": {"state": {"target": ["23", "25", "31"], "time": [4620, 4916, 6304]}, "edge": {"target": [], "time": []}}, "mouseout": {"state": {"target": ["0", "23", "25", "31", "0"], "time": [4602, 4653, 6239, 6370, 17411]}, "edge": {"target": [], "time": []}}}, "displayed_time": "16.55", "trialTime": 19107, "trial_type": "mouselab-mdp", "trial_index": 17, "time_elapsed": 506424, "internal_node_id": "0.0-6.0-1.0-8.0"}}, {"uniqueid": "w13475977:a24338374", "current_trial": 18, "dateTime": 1693565399670, "trialdata": {"revealed_states": [], "clicked_states": [], "num_clicks_accrued": [0, 0, 0, 0, 0, 0, 0, 0, 0, 0, 0, 0, 0], "stateRewards": ["", -2, 1, 6, -2, -10, -78, -69, 14, -15, 7, -1, 1, -1, -2, 13, 77, 32, 87, 5, -74, 30, -26, 1, 3, 4, 12, 39, 54, -43, 2, 10, 23, 13], "withholdReward": false, "trial_id": "mdp_trial_10", "block": "test", "trialIndex": 11, "score": 18, "costs": 0, "simulationMode": [null, null, null, null, null], "rewards": [-2, 1, 6, 14, -1], "path": ["0", "0", "1", "2", "3", "8", "11"], "rt": [1592, 12, 26, 528, 839], "actions": ["up", "up", "up", "left", "left"], "actionTimes": [3583, 4172, 4731, 5787, 7147], "queries": {"click": {"state": {"target": [], "time": []}, "edge": {"target": [], "time": []}}, "mouseover": {"state": {"target": [], "time": []}, "edge": {"target": [], "time": []}}, "mouseout": {"state": {"target": ["0"], "time": [9967]}, "edge": {"target": [], "time": []}}}, "displayed_time": "15.99", "trialTime": 17554, "trial_type": "mouselab-mdp", "trial_index": 18, "time_elapsed": 524631, "internal_node_id": "0.0-6.0-1.0-9.0"}}, {"uniqueid": "w13475977:a24338374", "current_trial": 19, "dateTime": 1693565417739, "trialdata": {"revealed_states": [], "clicked_states": [], "num_clicks_accrued": [0, 0, 0, 0, 0, 0, 0, 0, 0, 0, 0, 0, 0], "stateRewards": ["", -1, 1, 3, -8, -23, -15, -14, -11, -23, 58, 68, 1, 3, 5, 12, -17, -41, -7, -10, -4, 82, 10, 1, 4, -4, 11, 73, 55, -55, -1, -86, -86, 54], "withholdReward": false, "trial_id": "mdp_trial_11", "block": "test", "trialIndex": 12, "score": -20, "costs": 0, "simulationMode": [null, null, null, null, null], "rewards": [-1, 1, 3, -8, -15], "path": ["0", "0", "1", "2", "3", "4", "6"], "rt": [1354, 67, 307, 438, 526], "actions": ["up", "up", "up", "right", "right"], "actionTimes": [2649, 3232, 4056, 5030, 6087], "queries": {"click": {"state": {"target": [], "time": []}, "edge": {"target": [], "time": []}}, "mouseover": {"state": {"target": [], "time": []}, "edge": {"target": [], "time": []}}, "mouseout": {"state": {"target": [], "time": []}, "edge": {"target": [], "time": []}}}, "displayed_time": "15.30", "trialTime": 17264, "trial_type": "mouselab-mdp", "trial_index": 19, "time_elapsed": 542700, "internal_node_id": "0.0-6.0-1.0-10.0"}}, {"uniqueid": "w13475977:a24338374", "current_trial": 20, "dateTime": 1693565437395, "trialdata": {"revealed_states": [], "clicked_states": [], "num_clicks_accrued": [0, 0, 0, 0, 0, 0, 0, 0, 0, 0, 0, 0, 0], "stateRewards": ["", -1, 3, 8, 10, -86, 61, -36, 10, 17, -60, 24, -1, -3, 3, 11, 50, 60, 33, -3, -20, 58, -6, 1, -4, -4, 13, -70, -71, 43, 14, 52, 82, -11], "withholdReward": false, "trial_id": "mdp_trial_12", "block": "test", "trialIndex": 13, "score": 81, "costs": 0, "simulationMode": [null, null, null, null, null], "rewards": [-1, 3, 8, 10, 61], "path": ["0", "0", "1", "2", "3", "4", "6"], "rt": [1783, 76, 111, 518, 412], "actions": ["up", "up", "up", "right", "right"], "actionTimes": [4173, 4785, 5406, 6425, 7338], "queries": {"click": {"state": {"target": [], "time": []}, "edge": {"target": [], "time": []}}, "mouseover": {"state": {"target": [], "time": []}, "edge": {"target": [], "time": []}}, "mouseout": {"state": {"target": ["0"], "time": [10376]}, "edge": {"target": [], "time": []}}}, "displayed_time": "16.41", "trialTime": 18698, "trial_type": "mouselab-mdp", "trial_index": 20, "time_elapsed": 562357, "internal_node_id": "0.0-6.0-1.0-11.0"}}, {"uniqueid": "w13475977:a24338374", "current_trial": 21, "dateTime": 1693565455436, "trialdata": {"revealed_states": [], "clicked_states": [], "num_clicks_accrued": [0, 0, 0, 0, 0, 0, 0, 0, 0, 0, 0, 0, 0], "stateRewards": ["", 2, -3, 5, -14, -63, -9, -24, -11, -54, -43, 68, 2, -2, -4, 7, -64, 30, 47, 12, -74, 11, 86, 1, -3, 3, 10, -71, -42, -52, -1, -29, -16, 69], "withholdReward": false, "trial_id": "mdp_trial_13", "block": "test", "trialIndex": 14, "score": 33, "costs": 0, "simulationMode": [null, null, null, null, null], "rewards": [2, -2, -4, 7, 30], "path": ["0", "0", "12", "13", "14", "15", "17"], "rt": [1753, 63, 105, 625, 251], "actions": ["right", "right", "right", "up", "right"], "actionTimes": [3408, 3990, 4613, 5752, 6527], "queries": {"click": {"state": {"target": [], "time": []}, "edge": {"target": [], "time": []}}, "mouseover": {"state": {"target": [], "time": []}, "edge": {"target": [], "time": []}}, "mouseout": {"state": {"target": [], "time": []}, "edge": {"target": [], "time": []}}}, "displayed_time": "15.66", "trialTime": 17239, "trial_type": "mouselab-mdp", "trial_index": 21, "time_elapsed": 580397, "internal_node_id": "0.0-6.0-1.0-12.0"}}, {"uniqueid": "w13475977:a24338374", "current_trial": 22, "dateTime": 1693565473725, "trialdata": {"revealed_states": [], "clicked_states": [], "num_clicks_accrued": [0, 0, 0, 0, 0, 0, 0, 0, 0, 0, 0, 0, 0], "stateRewards": ["", 2, -1, -1, -9, -81, -30, 55, -6, 78, 25, 62, 2, 4, -1, 9, -85, 1, -19, 1, -60, 12, -34, 1, 4, -1, -13, -24, -16, -83, -8, 16, 43, 9], "withholdReward": false, "trial_id": "mdp_trial_14", "block": "test", "trialIndex": 15, "score": -92, "costs": 0, "simulationMode": [null, null, null, null, null], "rewards": [1, 4, -1, -13, -83], "path": ["0", "0", "23", "24", "25", "26", "29"], "rt": [2526, 75, 466, 700, 96], "actions": ["left", "left", "left", "up", "left"], "actionTimes": [4362, 4952, 5943, 7148, 7792], "queries": {"click": {"state": {"target": [], "time": []}, "edge": {"target": [], "time": []}}, "mouseover": {"state": {"target": [], "time": []}, "edge": {"target": [], "time": []}}, "mouseout": {"state": {"target": ["0", "18", "15", "17"], "time": [11271, 11370, 11388, 11438]}, "edge": {"target": [], "time": []}}}, "displayed_time": "15.84", "trialTime": 17428, "trial_type": "mouselab-mdp", "trial_index": 22, "time_elapsed": 598686, "internal_node_id": "0.0-6.0-1.0-13.0"}}, {"uniqueid": "w13475977:a24338374", "current_trial": 23, "dateTime": 1693565495183, "trialdata": {"revealed_states": [], "clicked_states": [], "num_clicks_accrued": [0, 0, 0, 0, 0, 0, 0, 0, 0, 0, 0, 0, 0], "stateRewards": ["", -2, 2, 8, -6, -25, 3, 87, 2, -62, -2, 74, -2, -1, 2, -1, 79, 49, -37, -14, 5, 67, -9, -1, 2, -2, 5, 15, 38, 32, -14, -38, -38, 30], "withholdReward": false, "trial_id": "mdp_trial_15", "block": "test", "trialIndex": 16, "score": 89, "costs": 0, "simulationMode": [null, null, null, null, null], "rewards": [-2, 2, 8, -6, 87], "path": ["0", "0", "1", "2", "3", "4", "7"], "rt": [2189, 496, 17, 589, 203], "actions": ["up", "up", "up", "right", "down"], "actionTimes": [4515, 5535, 6073, 7189, 7921], "queries": {"click": {"state": {"target": [], "time": []}, "edge": {"target": [], "time": []}}, "mouseover": {"state": {"target": ["12"], "time": [3157]}, "edge": {"target": [], "time": []}}, "mouseout": {"state": {"target": ["15", "13", "12", "0", "12", "18"], "time": [856, 923, 1123, 2492, 3176, 16058]}, "edge": {"target": [], "time": []}}}, "displayed_time": "16.42", "trialTime": 19774, "trial_type": "mouselab-mdp", "trial_index": 23, "time_elapsed": 620144, "internal_node_id": "0.0-6.0-1.0-14.0"}}, {"uniqueid": "w13475977:a24338374", "current_trial": 24, "dateTime": 1693565513994, "trialdata": {"revealed_states": [], "clicked_states": [], "num_clicks_accrued": [0, 0, 0, 0, 0, 0, 0, 0, 0, 0, 0, 0, 0], "stateRewards": ["", 2, -3, -2, 14, -4, 85, 46, 15, -28, 41, 31, -1, -1, -1, 5, 62, 79, 57, 12, -73, -64, 86, -1, 1, -3, -5, 68, 11, -32, 8, -80, -21, -56], "withholdReward": false, "trial_id": "mdp_trial_16", "block": "test", "trialIndex": 17, "score": 53, "costs": 0, "simulationMode": [null, null, null, null, null], "rewards": [2, -3, -2, 15, 41], "path": ["0", "0", "1", "2", "3", "8", "10"], "rt": [1588, 31, 71, 430, 296], "actions": ["up", "up", "up", "left", "down"], "actionTimes": [3655, 4200, 4793, 5756, 6599], "queries": {"click": {"state": {"target": [], "time": []}, "edge": {"target": [], "time": []}}, "mouseover": {"state": {"target": [], "time": []}, "edge": {"target": [], "time": []}}, "mouseout": {"state": {"target": ["15", "12"], "time": [591, 1108]}, "edge": {"target": [], "time": []}}}, "displayed_time": "16.09", "trialTime": 17585, "trial_type": "mouselab-mdp", "trial_index": 24, "time_elapsed": 638955, "internal_node_id": "0.0-6.0-1.0-15.0"}}, {"uniqueid": "w13475977:a24338374", "current_trial": 25, "dateTime": 1693565543844, "trialdata": {"revealed_states": [], "clicked_states": [], "num_clicks_accrued": [0, 0, 0, 0, 0, 0, 0, 0, 0, 0, 0, 0, 0], "stateRewards": ["", -1, -4, -1, -11, 43, 69, 39, 4, 17, -20, -82, -2, -1, 4, 8, -79, 24, -79, 11, 36, 64, 41, 2, 4, -1, 11, -79, -47, 75, -3, 63, -36, -19], "withholdReward": false, "trial_id": "mdp_trial_17", "block": "test", "trialIndex": 18, "score": 48, "costs": 0, "simulationMode": [null, null, null, null, null], "rewards": [-2, -1, 4, 11, 36], "path": ["0", "0", "12", "13", "14", "19", "20"], "rt": [2600, 172, 463, 559, 1350], "actions": ["right", "right", "right", "down", "right"], "actionTimes": [4494, 5196, 6182, 7284, 9138], "queries": {"click": {"state": {"target": [], "time": []}, "edge": {"target": [], "time": []}}, "mouseover": {"state": {"target": [], "time": []}, "edge": {"target": [], "time": []}}, "mouseout": {"state": {"target": ["0", "0", "0"], "time": [1070, 11780, 11819]}, "edge": {"target": [], "time": []}}}, "displayed_time": "15.90", "trialTime": 28288, "trial_type": "mouselab-mdp", "trial_index": 25, "time_elapsed": 668805, "internal_node_id": "0.0-6.0-1.0-16.0"}}, {"uniqueid": "w13475977:a24338374", "current_trial": 26, "dateTime": 1693565562965, "trialdata": {"revealed_states": [], "clicked_states": [], "num_clicks_accrued": [0, 0, 0, 0, 0, 0, 0, 0, 0, 0, 0, 0, 0], "stateRewards": ["", 1, -2, -2, 10, -31, -77, 35, 9, -47, 8, 48, -2, 1, -4, -3, -26, -50, 43, -11, 76, -38, 17, 1, -1, 6, 10, 15, -9, 12, -8, 85, 11, -55], "withholdReward": false, "trial_id": "mdp_trial_18", "block": "test", "trialIndex": 19, "score": -57, "costs": 0, "simulationMode": [null, null, null, null, null], "rewards": [1, -1, 6, -8, -55], "path": ["0", "0", "23", "24", "25", "30", "33"], "rt": [2217, 346, 5, 590, 324], "actions": ["left", "left", "left", "down", "left"], "actionTimes": [4299, 5188, 5710, 6828, 7676], "queries": {"click": {"state": {"target": [], "time": []}, "edge": {"target": [], "time": []}}, "mouseover": {"state": {"target": [], "time": []}, "edge": {"target": [], "time": []}}, "mouseout": {"state": {"target": ["12", "0"], "time": [1147, 10899]}, "edge": {"target": [], "time": []}}}, "displayed_time": "16.09", "trialTime": 17924, "trial_type": "mouselab-mdp", "trial_index": 26, "time_elapsed": 687924, "internal_node_id": "0.0-6.0-1.0-17.0"}}, {"uniqueid": "w13475977:a24338374", "current_trial": 27, "dateTime": 1693565582231, "trialdata": {"revealed_states": [], "clicked_states": [], "num_clicks_accrued": [0, 0, 0, 0, 0, 0, 0, 0, 0, 0, 0, 0, 0], "stateRewards": ["", -1, 4, -5, 9, 29, -75, -42, -16, 24, -28, -41, 2, -3, 1, 10, 60, 47, 55, -1, -53, 22, -40, 2, -3, -6, 4, -26, 44, 54, 15, -76, 42, 14], "withholdReward": false, "trial_id": "mdp_trial_19", "block": "test", "trialIndex": 20, "score": 41, "costs": 0, "simulationMode": [null, null, null, null, null], "rewards": [2, -3, -6, 4, 44], "path": ["0", "0", "23", "24", "25", "26", "28"], "rt": [3318, 218, 347, 793, 147], "actions": ["left", "left", "left", "up", "right"], "actionTimes": [4714, 5457, 6318, 7626, 8336], "queries": {"click": {"state": {"target": [], "time": []}, "edge": {"target": [], "time": []}}, "mouseover": {"state": {"target": [], "time": []}, "edge": {"target": [], "time": []}}, "mouseout": {"state": {"target": ["0", "0"], "time": [714, 11981]}, "edge": {"target": [], "time": []}}}, "displayed_time": "15.40", "trialTime": 17388, "trial_type": "mouselab-mdp", "trial_index": 27, "time_elapsed": 707192, "internal_node_id": "0.0-6.0-1.0-18.0"}}, {"uniqueid": "w13475977:a24338374", "current_trial": 28, "dateTime": 1693565601764, "trialdata": {"revealed_states": [], "clicked_states": [], "num_clicks_accrued": [0, 0, 0, 0, 0, 0, 0, 0, 0, 0, 0, 0, 0], "stateRewards": ["", -1, 3, 1, -7, 56, 76, 57, 3, 11, -9, 14, 1, -2, 2, 8, -77, -3, 79, -5, 88, 24, -66, -2, -1, 7, -7, -30, 14, -76, 11, -36, 28, -6], "withholdReward": false, "trial_id": "mdp_trial_20", "block": "test", "trialIndex": 21, "score": 43, "costs": 0, "simulationMode": [null, null, null, null, null], "rewards": [-2, -1, 7, 11, 28], "path": ["0", "0", "23", "24", "25", "30", "32"], "rt": [2519, 119, 344, 404, 60], "actions": ["left", "left", "left", "down", "down"], "actionTimes": [4461, 5111, 5957, 6905, 7486], "queries": {"click": {"state": {"target": [], "time": []}, "edge": {"target": [], "time": []}}, "mouseover": {"state": {"target": [], "time": []}, "edge": {"target": [], "time": []}}, "mouseout": {"state": {"target": ["0"], "time": [2872]}, "edge": {"target": [], "time": []}}}, "displayed_time": "15.95", "trialTime": 18379, "trial_type": "mouselab-mdp", "trial_index": 28, "time_elapsed": 726725, "internal_node_id": "0.0-6.0-1.0-19.0"}}, {"uniqueid": "w13475977:a24338374", "current_trial": 29, "dateTime": 1693565621489, "trialdata": {"revealed_states": [], "clicked_states": [], "num_clicks_accrued": [0, 0, 0, 0, 0, 0, 0, 0, 0, 0, 0, 0, 0], "stateRewards": ["", -1, -1, 7, -15, -43, -21, -84, -9, -45, -66, 2, 1, -2, 2, 8, -27, 44, -52, -5, -84, 11, 53, 1, 4, -4, 16, 83, -82, -15, -16, 68, -43, 81], "withholdReward": false, "trial_id": "mdp_trial_21", "block": "test", "trialIndex": 22, "score": -88, "costs": 0, "simulationMode": [null, null, null, null, null], "rewards": [1, -2, 2, -5, -84], "path": ["0", "0", "12", "13", "14", "19", "20"], "rt": [1933, 82, 5, 596, 256], "actions": ["right", "right", "right", "down", "right"], "actionTimes": [4294, 4896, 5410, 6530, 7323], "queries": {"click": {"state": {"target": [], "time": []}, "edge": {"target": [], "time": []}}, "mouseover": {"state": {"target": [], "time": []}, "edge": {"target": [], "time": []}}, "mouseout": {"state": {"target": ["0"], "time": [3306]}, "edge": {"target": [], "time": []}}}, "displayed_time": "16.36", "trialTime": 18723, "trial_type": "mouselab-mdp", "trial_index": 29, "time_elapsed": 746450, "internal_node_id": "0.0-6.0-1.0-20.0"}}, {"uniqueid": "w13475977:a24338374", "current_trial": 30, "dateTime": 1693565649564, "trialdata": {"revealed_states": [], "clicked_states": [], "num_clicks_accrued": [0, 0, 0, 0, 0, 0, 0, 0, 0, 0, 0, 0, 0], "stateRewards": ["", 1, 1, -3, 2, 22, -25, -11, -5, 50, 49, 3, 1, -1, 8, 14, -85, -30, 57, -6, -39, -16, 59, -2, -1, 5, 5, 59, -16, 8, 4, 67, 56, -9], "withholdReward": false, "trial_id": "mdp_trial_22", "block": "test", "trialIndex": 23, "score": -14, "costs": 0, "simulationMode": [null, null, null, null, null], "rewards": [1, -1, 8, -6, -16], "path": ["0", "0", "12", "13", "14", "19", "21"], "rt": [1504, 179, 98, 668, 7], "actions": ["right", "right", "right", "down", "down"], "actionTimes": [3464, 4169, 4815, 5996, 6536], "queries": {"click": {"state": {"target": [], "time": []}, "edge": {"target": [], "time": []}}, "mouseover": {"state": {"target": [], "time": []}, "edge": {"target": [], "time": []}}, "mouseout": {"state": {"target": ["0"], "time": [1998]}, "edge": {"target": [], "time": []}}}, "displayed_time": "15.97", "trialTime": 27082, "trial_type": "mouselab-mdp", "trial_index": 30, "time_elapsed": 774525, "internal_node_id": "0.0-6.0-1.0-21.0"}}, {"uniqueid": "w13475977:a24338374", "current_trial": 31, "dateTime": 1693565681372, "trialdata": {"revealed_states": [], "clicked_states": [], "num_clicks_accrued": [0, 0, 0, 0, 0, 0, 0, 0, 0, 0, 0, 0, 0], "stateRewards": ["", 2, 4, 7, 7, -79, -2, -21, -5, -53, 47, -21, 1, -3, -1, 7, 83, 7, 84, -7, 80, -37, 69, 2, -4, 5, 2, 4, -20, -30, 7, 71, 44, -81], "withholdReward": false, "trial_id": "mdp_trial_23", "block": "test", "trialIndex": 24, "score": 81, "costs": 0, "simulationMode": [null, null, null, null, null], "rewards": [2, -4, 5, 7, 71], "path": ["0", "0", "23", "24", "25", "30", "31"], "rt": [2375, 45, 319, 581, 759], "actions": ["left", "left", "left", "down", "right"], "actionTimes": [4689, 5271, 6155, 7262, 8569], "queries": {"click": {"state": {"target": [], "time": []}, "edge": {"target": [], "time": []}}, "mouseover": {"state": {"target": [], "time": []}, "edge": {"target": [], "time": []}}, "mouseout": {"state": {"target": ["0"], "time": [29291]}, "edge": {"target": [], "time": []}}}, "displayed_time": "16.32", "trialTime": 30172, "trial_type": "mouselab-mdp", "trial_index": 31, "time_elapsed": 806333, "internal_node_id": "0.0-6.0-1.0-22.0"}}, {"uniqueid": "w13475977:a24338374", "current_trial": 32, "dateTime": 1693565699990, "trialdata": {"revealed_states": [], "clicked_states": [], "num_clicks_accrued": [0, 0, 0, 0, 0, 0, 0, 0, 0, 0, 0, 0, 0], "stateRewards": ["", -2, -4, -6, 12, -58, -70, -80, 2, 16, -88, -62, 1, 2, -5, 11, 77, -35, -44, -5, 18, -83, 87, 1, -3, -5, 13, -44, -21, -86, 10, -52, 8, 29], "withholdReward": false, "trial_id": "mdp_trial_24", "block": "test", "trialIndex": 25, "score": -35, "costs": 0, "simulationMode": [null, null, null, null, null], "rewards": [1, 2, -5, 11, -44], "path": ["0", "0", "12", "13", "14", "15", "18"], "rt": [1667, 130, 115, 621, 200], "actions": ["right", "right", "right", "up", "left"], "actionTimes": [3401, 4075, 4725, 5870, 6598], "queries": {"click": {"state": {"target": [], "time": []}, "edge": {"target": [], "time": []}}, "mouseover": {"state": {"target": [], "time": []}, "edge": {"target": [], "time": []}}, "mouseout": {"state": {"target": ["0"], "time": [15990]}, "edge": {"target": [], "time": []}}}, "displayed_time": "15.74", "trialTime": 17188, "trial_type": "mouselab-mdp", "trial_index": 32, "time_elapsed": 824951, "internal_node_id": "0.0-6.0-1.0-23.0"}}, {"uniqueid": "w13475977:a24338374", "current_trial": 33, "dateTime": 1693565762928, "trialdata": {"revealed_states": [], "clicked_states": [], "num_clicks_accrued": [0, 0, 0, 0, 0, 0, 0, 0, 0, 0, 0, 0, 0], "stateRewards": ["", -1, 2, -2, 13, -56, -28, 10, 14, 53, -80, -29, 1, -3, -3, -14, 14, 9, -40, -9, 18, 18, 48, 1, 1, 1, -9, 64, -39, -9, 7, -52, -78, 7], "withholdReward": false, "trial_id": "mdp_trial_25", "block": "test", "trialIndex": 26, "score": -16, "costs": 0, "simulationMode": [null, null, null, null, null], "rewards": [-1, 2, -2, 13, -28], "path": ["0", "0", "1", "2", "3", "4", "6"], "rt": [1424, 362, 289, 570, 210], "actions": ["up", "up", "up", "right", "right"], "actionTimes": [2770, 3655, 4471, 5552, 6315], "queries": {"click": {"state": {"target": [], "time": []}, "edge": {"target": [], "time": []}}, "mouseover": {"state": {"target": [], "time": []}, "edge": {"target": [], "time": []}}, "mouseout": {"state": {"target": ["0"], "time": [10641]}, "edge": {"target": [], "time": []}}}, "displayed_time": "15.35", "trialTime": 62109, "trial_type": "mouselab-mdp", "trial_index": 33, "time_elapsed": 887889, "internal_node_id": "0.0-6.0-1.0-24.0"}}, {"uniqueid": "w13475977:a24338374", "current_trial": 34, "dateTime": 1693565790643, "trialdata": {"revealed_states": [], "clicked_states": [], "num_clicks_accrued": [0, 0, 0, 0, 0, 0, 0, 0, 0, 0, 0, 0, 0], "stateRewards": ["", 2, -1, 3, -12, -83, 6, -33, 9, 28, 24, -50, -2, -1, -2, -5, -87, 37, 82, 12, 80, -5, 10, -2, -3, -6, 9, 22, -1, 16, 9, 77, -62, 58], "withholdReward": false, "trial_id": "mdp_trial_26", "block": "test", "trialIndex": 27, "score": -97, "costs": 0, "simulationMode": [null, null, null, null, null], "rewards": [-2, -1, -2, -5, -87], "path": ["0", "0", "12", "13", "14", "15", "16"], "rt": [1310, 113, 31, 607, 976], "actions": ["right", "right", "right", "up", "up"], "actionTimes": [3610, 4255, 4825, 5931, 7461], "queries": {"click": {"state": {"target": [], "time": []}, "edge": {"target": [], "time": []}}, "mouseover": {"state": {"target": [], "time": []}, "edge": {"target": [], "time": []}}, "mouseout": {"state": {"target": ["0"], "time": [2683]}, "edge": {"target": [], "time": []}}}, "displayed_time": "16.30", "trialTime": 26732, "trial_type": "mouselab-mdp", "trial_index": 34, "time_elapsed": 915604, "internal_node_id": "0.0-6.0-1.0-25.0"}}, {"uniqueid": "w13475977:a24338374", "current_trial": 35, "dateTime": 1693565840563, "trialdata": {"revealed_states": [], "clicked_states": [], "num_clicks_accrued": [0, 0, 0, 0, 0, 0, 0, 0, 0, 0, 0, 0, 0], "stateRewards": ["", -2, -1, -4, -15, -14, -67, 32, -3, -59, 63, 31, 2, -1, -7, -15, 71, -66, -27, -3, -54, -39, 72, 2, 1, 1, -13, 77, -40, 35, -9, 35, 75, 57], "withholdReward": false, "trial_id": "mdp_trial_27", "block": "test", "trialIndex": 28, "score": -48, "costs": 0, "simulationMode": [null, null, null, null, null], "rewards": [2, -1, -7, -3, -39], "path": ["0", "0", "12", "13", "14", "19", "21"], "rt": [2586, 34, 222, 586, 168], "actions": ["right", "right", "right", "down", "down"], "actionTimes": [4469, 5031, 5792, 6893, 7618], "queries": {"click": {"state": {"target": [], "time": []}, "edge": {"target": [], "time": []}}, "mouseover": {"state": {"target": [], "time": []}, "edge": {"target": [], "time": []}}, "mouseout": {"state": {"target": ["0"], "time": [47902]}, "edge": {"target": [], "time": []}}}, "displayed_time": "15.90", "trialTime": 48855, "trial_type": "mouselab-mdp", "trial_index": 35, "time_elapsed": 965525, "internal_node_id": "0.0-6.0-1.0-26.0"}}, {"uniqueid": "w13475977:a24338374", "current_trial": 36, "dateTime": 1693565917877, "trialdata": {"revealed_states": [], "clicked_states": [], "num_clicks_accrued": [0, 0, 0, 0, 0, 0, 0, 0, 0, 0, 0, 0, 0], "stateRewards": ["", -2, -3, 4, 1, 33, -53, 15, 9, -12, 61, -6, -2, 4, 6, -11, 47, -43, -7, -11, 46, 23, -28, -1, -1, 3, -10, 11, 76, -76, 10, 18, -38, 87], "withholdReward": false, "trial_id": "mdp_trial_28", "block": "test", "trialIndex": 29, "score": 69, "costs": 0, "simulationMode": [null, null, null, null, null], "rewards": [-2, -3, 4, 9, 61], "path": ["0", "0", "1", "2", "3", "8", "10"], "rt": [1620, 15, 578, 751, 489], "actions": ["up", "up", "up", "left", "down"], "actionTimes": [44771, 45309, 46439, 47699, 48721], "queries": {"click": {"state": {"target": [], "time": []}, "edge": {"target": [], "time": []}}, "mouseover": {"state": {"target": [], "time": []}, "edge": {"target": [], "time": []}}, "mouseout": {"state": {"target": [], "time": []}, "edge": {"target": [], "time": []}}}, "displayed_time": "57.15", "trialTime": 76024, "trial_type": "mouselab-mdp", "trial_index": 36, "time_elapsed": 1042839, "internal_node_id": "0.0-6.0-1.0-27.0"}}, {"uniqueid": "w13475977:a24338374", "current_trial": 37, "dateTime": 1693565998924, "trialdata": {"revealed_states": [], "clicked_states": [], "num_clicks_accrued": [0, 0, 0, 0, 0, 0, 0, 0, 0, 0, 0, 0, 0], "stateRewards": ["", 1, -4, -6, 11, -20, 8, -30, 1, -38, 88, 42, 2, 3, 5, -12, -8, -74, 30, -8, 67, -19, 42, 2, -1, 4, 13, 50, -68, 2, -8, -15, 87, -46], "withholdReward": false, "trial_id": "mdp_trial_29", "block": "test", "trialIndex": 30, "score": -28, "costs": 0, "simulationMode": [null, null, null, null, null], "rewards": [1, -4, -6, 11, -30], "path": ["0", "0", "1", "2", "3", "4", "7"], "rt": [1571, 192, 556, 662, 61], "actions": ["up", "up", "up", "right", "down"], "actionTimes": [2846, 3609, 4699, 5885, 6474], "queries": {"click": {"state": {"target": [], "time": []}, "edge": {"target": [], "time": []}}, "mouseover": {"state": {"target": [], "time": []}, "edge": {"target": [], "time": []}}, "mouseout": {"state": {"target": [], "time": []}, "edge": {"target": [], "time": []}}}, "displayed_time": "15.28", "trialTime": 80444, "trial_type": "mouselab-mdp", "trial_index": 37, "time_elapsed": 1123885, "internal_node_id": "0.0-6.0-1.0-28.0"}}, {"uniqueid": "w13475977:a24338374", "current_trial": 38, "dateTime": 1693566079540, "trialdata": {"revealed_states": [], "clicked_states": [], "num_clicks_accrued": [0, 0, 0, 0, 0, 0, 0, 0, 0, 0, 0, 0, 0], "stateRewards": ["", 1, 2, -3, -6, 50, -7, 7, -7, -80, 21, -1, 2, 2, 4, -1, 33, 84, 1, 14, -53, 81, 6, -2, -2, -3, -9, -87, -38, -59, -5, -74, -3, -71], "withholdReward": false, "trial_id": "mdp_trial_30", "block": "test", "trialIndex": 31, "score": 44, "costs": 0, "simulationMode": [null, null, null, null, null], "rewards": [1, 2, -3, -6, 50], "path": ["0", "0", "1", "2", "3", "4", "5"], "rt": [1787, 202, 380, 431, 509], "actions": ["up", "up", "up", "right", "up"], "actionTimes": [3425, 4143, 5057, 6005, 7045], "queries": {"click": {"state": {"target": [], "time": []}, "edge": {"target": [], "time": []}}, "mouseover": {"state": {"target": [], "time": []}, "edge": {"target": [], "time": []}}, "mouseout": {"state": {"target": ["0"], "time": [78539]}, "edge": {"target": [], "time": []}}}, "displayed_time": "15.64", "trialTime": 79979, "trial_type": "mouselab-mdp", "trial_index": 38, "time_elapsed": 1204502, "internal_node_id": "0.0-6.0-1.0-29.0"}}, {"uniqueid": "w13475977:a24338374", "current_trial": 39, "dateTime": 1693566113357, "trialdata": {"revealed_states": [], "clicked_states": [], "num_clicks_accrued": [0, 0, 0, 0, 0, 0, 0, 0, 0, 0, 0, 0, 0], "stateRewards": ["", 2, -3, 5, 11, -79, 54, 11, -9, -78, 33, 22, -2, -1, 2, 14, 43, 34, 1, 10, 49, -65, 39, -1, 1, -1, 3, -16, -2, 11, 2, 12, 48, -65], "withholdReward": false, "trial_id": "mdp_trial_31", "block": "test", "trialIndex": 32, "score": 47, "costs": 0, "simulationMode": [null, null, null, null, null], "rewards": [-2, -1, 2, 14, 34], "path": ["0", "0", "12", "13", "14", "15", "17"], "rt": [1192, 6, 434, 383, 141], "actions": ["right", "right", "right", "up", "right"], "actionTimes": [3096, 3606, 4576, 5457, 6114], "queries": {"click": {"state": {"target": [], "time": []}, "edge": {"target": [], "time": []}}, "mouseover": {"state": {"target": [], "time": []}, "edge": {"target": [], "time": []}}, "mouseout": {"state": {"target": ["0"], "time": [1929]}, "edge": {"target": [], "time": []}}}, "displayed_time": "15.91", "trialTime": 33154, "trial_type": "mouselab-mdp", "trial_index": 39, "time_elapsed": 1238318, "internal_node_id": "0.0-6.0-1.0-30.0"}}, {"uniqueid": "w13475977:a24338374", "current_trial": 40, "dateTime": 1693566138028, "trialdata": {"revealed_states": [], "clicked_states": [], "num_clicks_accrued": [0, 0, 0, 0, 0, 0, 0, 0, 0, 0, 0, 0, 0], "stateRewards": ["", -2, -4, -8, 8, 63, -50, -19, -7, -17, -31, 31, 1, 3, -5, 12, -35, -63, -29, -4, -17, -75, -79, -2, -3, -2, 8, -3, -85, 10, -2, -82, -82, 56], "withholdReward": false, "trial_id": "mdp_trial_32", "block": "test", "trialIndex": 33, "score": -91, "costs": 0, "simulationMode": [null, null, null, null, null], "rewards": [-2, -3, -2, -2, -82], "path": ["0", "0", "23", "24", "25", "30", "31"], "rt": [2102, 86, 704, 201, 1309], "actions": ["left", "left", "left", "down", "right"], "actionTimes": [4637, 5252, 6447, 7168, 8988], "queries": {"click": {"state": {"target": [], "time": []}, "edge": {"target": [], "time": []}}, "mouseover": {"state": {"target": [], "time": []}, "edge": {"target": [], "time": []}}, "mouseout": {"state": {"target": ["0"], "time": [1472]}, "edge": {"target": [], "time": []}}}, "displayed_time": "16.54", "trialTime": 24035, "trial_type": "mouselab-mdp", "trial_index": 40, "time_elapsed": 1262990, "internal_node_id": "0.0-6.0-1.0-31.0"}}, {"uniqueid": "w13475977:a24338374", "current_trial": 41, "dateTime": 1693566156237, "trialdata": {"revealed_states": [], "clicked_states": [], "num_clicks_accrued": [0, 0, 0, 0, 0, 0, 0, 0, 0, 0, 0, 0, 0], "stateRewards": ["", 1, 2, 7, 13, 88, -71, 27, 3, 60, 5, -53, -2, 2, -6, -1, -30, 79, 47, -4, -14, 46, 68, 1, 1, 8, 10, -14, 86, 48, -11, -67, -44, 5], "withholdReward": false, "trial_id": "mdp_trial_33", "block": "test", "trialIndex": 34, "score": 4, "costs": 0, "simulationMode": [null, null, null, null, null], "rewards": [1, 1, 8, -11, 5], "path": ["0", "0", "23", "24", "25", "30", "33"], "rt": [1208, 185, 329, 563, 295], "actions": ["left", "left", "left", "down", "left"], "actionTimes": [2341, 3036, 3898, 4984, 5794], "queries": {"click": {"state": {"target": [], "time": []}, "edge": {"target": [], "time": []}}, "mouseover": {"state": {"target": [], "time": []}, "edge": {"target": [], "time": []}}, "mouseout": {"state": {"target": ["0"], "time": [12448]}, "edge": {"target": [], "time": []}}}, "displayed_time": "15.13", "trialTime": 17564, "trial_type": "mouselab-mdp", "trial_index": 41, "time_elapsed": 1281199, "internal_node_id": "0.0-6.0-1.0-32.0"}}, {"uniqueid": "w13475977:a24338374", "current_trial": 42, "dateTime": 1693566176168, "trialdata": {"revealed_states": [], "clicked_states": [], "num_clicks_accrued": [0, 0, 0, 0, 0, 0, 0, 0, 0, 0, 0, 0, 0], "stateRewards": ["", -1, 1, 6, -6, 70, 66, 67, -16, -75, -35, 37, -1, 4, 4, -6, 47, -9, 63, 15, 21, -63, 13, 1, 3, -6, 10, 79, -29, 18, -15, 9, -67, -19], "withholdReward": false, "trial_id": "mdp_trial_34", "block": "test", "trialIndex": 35, "score": -41, "costs": 0, "simulationMode": [null, null, null, null, null], "rewards": [-1, 4, 4, 15, -63], "path": ["0", "0", "12", "13", "14", "19", "21"], "rt": [1532, 139, 55, 456, 375], "actions": ["right", "right", "right", "down", "down"], "actionTimes": [3691, 4353, 4913, 5880, 6769], "queries": {"click": {"state": {"target": [], "time": []}, "edge": {"target": [], "time": []}}, "mouseover": {"state": {"target": [], "time": []}, "edge": {"target": [], "time": []}}, "mouseout": {"state": {"target": ["0"], "time": [1270]}, "edge": {"target": [], "time": []}}}, "displayed_time": "16.16", "trialTime": 19254, "trial_type": "mouselab-mdp", "trial_index": 42, "time_elapsed": 1301130, "internal_node_id": "0.0-6.0-1.0-33.0"}}, {"uniqueid": "w13475977:a24338374", "current_trial": 43, "dateTime": 1693566194956, "trialdata": {"revealed_states": [], "clicked_states": [], "num_clicks_accrued": [0, 0, 0, 0, 0, 0, 0, 0, 0, 0, 0, 0, 0], "stateRewards": ["", -2, 2, 3, -7, 76, 63, 21, 15, 35, -8, -44, 1, 1, -2, -12, 23, 24, 76, -9, 46, 66, -49, -2, -1, 7, 12, 40, -71, -45, -6, 38, -49, 46], "withholdReward": false, "trial_id": "mdp_trial_35", "block": "test", "trialIndex": 36, "score": 12, "costs": 0, "simulationMode": [null, null, null, null, null], "rewards": [1, 1, -2, -12, 24], "path": ["0", "0", "12", "13", "14", "15", "17"], "rt": [1251, 7, 415, 394, 218], "actions": ["right", "right", "right", "up", "right"], "actionTimes": [3483, 4008, 4963, 5859, 6595], "queries": {"click": {"state": {"target": [], "time": []}, "edge": {"target": [], "time": []}}, "mouseover": {"state": {"target": [], "time": []}, "edge": {"target": [], "time": []}}, "mouseout": {"state": {"target": ["0"], "time": [14558]}, "edge": {"target": [], "time": []}}}, "displayed_time": "16.23", "trialTime": 18092, "trial_type": "mouselab-mdp", "trial_index": 43, "time_elapsed": 1319917, "internal_node_id": "0.0-6.0-1.0-34.0"}}, {"uniqueid": "w13475977:a24338374", "current_trial": 44, "dateTime": 1693566214145, "trialdata": {"revealed_states": [], "clicked_states": [], "num_clicks_accrued": [0, 0, 0, 0, 0, 0, 0, 0, 0, 0, 0, 0, 0], "stateRewards": ["", 1, 2, -5, 14, 54, -14, -25, 16, -5, -87, 78, -1, 1, 3, -3, 52, 53, 53, -10, 73, -69, -48, 2, 3, 1, 8, -62, -7, 85, 7, 82, 52, -28], "withholdReward": false, "trial_id": "mdp_trial_36", "block": "test", "trialIndex": 37, "score": 53, "costs": 0, "simulationMode": [null, null, null, null, null], "rewards": [-1, 1, 3, -3, 53], "path": ["0", "0", "12", "13", "14", "15", "18"], "rt": [1401, 156, 179, 491, 148], "actions": ["right", "right", "right", "up", "left"], "actionTimes": [3017, 3695, 4387, 5398, 6055], "queries": {"click": {"state": {"target": [], "time": []}, "edge": {"target": [], "time": []}}, "mouseover": {"state": {"target": [], "time": []}, "edge": {"target": [], "time": []}}, "mouseout": {"state": {"target": [], "time": []}, "edge": {"target": [], "time": []}}}, "displayed_time": "15.62", "trialTime": 18545, "trial_type": "mouselab-mdp", "trial_index": 44, "time_elapsed": 1339106, "internal_node_id": "0.0-6.0-1.0-35.0"}}, {"uniqueid": "w13475977:a24338374", "current_trial": 45, "dateTime": 1693566239246, "trialdata": {"revealed_states": [], "clicked_states": [], "num_clicks_accrued": [0, 0, 0, 0, 0, 0, 0, 0, 0, 0, 0, 0, 0], "stateRewards": ["", -2, 3, 8, -9, 59, 41, -50, -1, 82, 66, 33, 2, -2, 7, 8, 1, -38, 12, -16, 24, -37, 67, 1, 4, -2, 5, 35, -83, 28, 8, -27, 69, -64], "withholdReward": false, "trial_id": "mdp_trial_37", "block": "test", "trialIndex": 38, "score": 41, "costs": 0, "simulationMode": [null, null, null, null, null], "rewards": [-2, 3, 8, -1, 33], "path": ["0", "0", "1", "2", "3", "8", "11"], "rt": [1469, 9, 84, 510, 142], "actions": ["up", "up", "up", "left", "left"], "actionTimes": [2875, 3406, 4000, 5027, 5674], "queries": {"click": {"state": {"target": [], "time": []}, "edge": {"target": [], "time": []}}, "mouseover": {"state": {"target": [], "time": []}, "edge": {"target": [], "time": []}}, "mouseout": {"state": {"target": ["0"], "time": [11028]}, "edge": {"target": [], "time": []}}}, "displayed_time": "15.41", "trialTime": 24470, "trial_type": "mouselab-mdp", "trial_index": 45, "time_elapsed": 1364207, "internal_node_id": "0.0-6.0-1.0-36.0"}}, {"uniqueid": "w13475977:a24338374", "current_trial": 46, "dateTime": 1693566267456, "trialdata": {"revealed_states": [], "clicked_states": [], "num_clicks_accrued": [0, 0, 0, 0, 0, 0, 0, 0, 0, 0, 0, 0, 0], "stateRewards": ["", 2, -1, 5, 6, 10, 86, 55, 10, -45, 63, -71, 1, -2, 5, -8, -50, -72, 36, 15, 61, 12, 33, -1, -4, 6, 5, 79, -56, -21, -16, -87, 60, -81], "withholdReward": false, "trial_id": "mdp_trial_38", "block": "test", "trialIndex": 39, "score": 98, "costs": 0, "simulationMode": [null, null, null, null, null], "rewards": [2, -1, 5, 6, 86], "path": ["0", "0", "1", "2", "3", "4", "6"], "rt": [1274, 626, 240, 1060, 224], "actions": ["up", "up", "up", "right", "right"], "actionTimes": [3108, 4260, 5023, 6617, 7354], "queries": {"click": {"state": {"target": [], "time": []}, "edge": {"target": [], "time": []}}, "mouseover": {"state": {"target": [], "time": []}, "edge": {"target": [], "time": []}}, "mouseout": {"state": {"target": ["0"], "time": [26594]}, "edge": {"target": [], "time": []}}}, "displayed_time": "15.84", "trialTime": 27593, "trial_type": "mouselab-mdp", "trial_index": 46, "time_elapsed": 1392417, "internal_node_id": "0.0-6.0-1.0-37.0"}}, {"uniqueid": "w13475977:a24338374", "current_trial": 47, "dateTime": 1693566285259, "trialdata": {"revealed_states": [], "clicked_states": [], "num_clicks_accrued": [0, 0, 0, 0, 0, 0, 0, 0, 0, 0, 0, 0, 0], "stateRewards": ["", -1, 1, -5, -6, -78, 47, -13, 12, 48, -88, 20, 2, -3, -2, 13, -20, 37, -57, 14, -38, 30, 31, -2, -2, 8, 2, -23, 78, 28, 12, -74, -88, 8], "withholdReward": false, "trial_id": "mdp_trial_39", "block": "test", "trialIndex": 40, "score": -81, "costs": 0, "simulationMode": [null, null, null, null, null], "rewards": [-1, 1, -5, 12, -88], "path": ["0", "0", "1", "2", "3", "8", "10"], "rt": [1045, 148, 390, 463, 317], "actions": ["up", "up", "up", "left", "down"], "actionTimes": [2144, 2815, 3723, 4696, 5534], "queries": {"click": {"state": {"target": [], "time": []}, "edge": {"target": [], "time": []}}, "mouseover": {"state": {"target": [], "time": []}, "edge": {"target": [], "time": []}}, "mouseout": {"state": {"target": ["0", "0"], "time": [755, 8417]}, "edge": {"target": [], "time": []}}}, "displayed_time": "15.10", "trialTime": 17117, "trial_type": "mouselab-mdp", "trial_index": 47, "time_elapsed": 1410221, "internal_node_id": "0.0-6.0-1.0-38.0"}}, {"uniqueid": "w13475977:a24338374", "current_trial": 48, "dateTime": 1693566307115, "trialdata": {"revealed_states": [], "clicked_states": [], "num_clicks_accrued": [0, 0, 0, 0, 0, 0, 0, 0, 0, 0, 0, 0, 0], "stateRewards": ["", 1, 1, 6, -14, -40, 37, 16, -13, 33, -68, 49, 2, 4, 3, 6, 55, 27, 32, 10, -65, 20, -87, 2, 1, -6, -5, -42, 12, 29, -8, 16, 76, -33], "withholdReward": false, "trial_id": "mdp_trial_40", "block": "test", "trialIndex": 41, "score": 42, "costs": 0, "simulationMode": [null, null, null, null, null], "rewards": [2, 4, 3, 6, 27], "path": ["0", "0", "12", "13", "14", "15", "17"], "rt": [1392, 516, 174, 668, 205], "actions": ["right", "right", "right", "up", "right"], "actionTimes": [3174, 4211, 4903, 6096, 6812], "queries": {"click": {"state": {"target": [], "time": []}, "edge": {"target": [], "time": []}}, "mouseover": {"state": {"target": [], "time": []}, "edge": {"target": [], "time": []}}, "mouseout": {"state": {"target": ["0"], "time": [19609]}, "edge": {"target": [], "time": []}}}, "displayed_time": "15.78", "trialTime": 21181, "trial_type": "mouselab-mdp", "trial_index": 48, "time_elapsed": 1432077, "internal_node_id": "0.0-6.0-1.0-39.0"}}, {"uniqueid": "w13475977:a24338374", "current_trial": 49, "dateTime": 1693566359221, "trialdata": {"rt": 52100, "response": {"Q0": "$-2 to $2", "Q1": "$-4 to $4", "Q2": "$-16 to $16", "Q3": "The cost was always $1.4.", "Q4": "Very motivated"}, "question_order": [0, 1, 2, 3, 4], "trial_id": "final_quiz_control", "trial_type": "survey-multi-choice", "trial_index": 49, "time_elapsed": 1484182, "internal_node_id": "0.0-6.0-2.0"}}, {"uniqueid": "w13475977:a24338374", "current_trial": 50, "dateTime": 1693566421732, "trialdata": {"rt": 62500, "response": {"Q0": "I just used random pathways each time to see what score I would get.", "Q1": "Not sure about that one ", "Q2": "It was very tricky "}, "trial_id": "self_report_control", "trial_type": "survey-text", "trial_index": 50, "time_elapsed": 1546694, "internal_node_id": "0.0-6.0-3.0"}}, {"uniqueid": "w13475977:a24338374", "current_trial": 51, "dateTime": 1693566444364, "trialdata": {"rt": 22628, "response": {"gender": "female", "age": "50", "colorblind": "0", "effort": "0"}, "trial_type": "survey-html-form", "trial_index": 51, "time_elapsed": 1569326, "internal_node_id": "0.0-6.0-4.0"}}, {"uniqueid": "w13475977:a24338374", "current_trial": 52, "dateTime": 1693566497443, "trialdata": {"rt": 53072, "response": {"Q0": "No all very straightforward", "Q1": "No pretty certain I have never played it ", "Q2": ""}, "trial_type": "survey-text", "trial_index": 52, "time_elapsed": 1622405, "internal_node_id": "0.0-6.0-5.0"}}, {"uniqueid": "w13475977:a24338374", "current_trial": 53, "dateTime": 1693566515124, "trialdata": {"rt": 17676, "stimulus": "<h1>Completion Code Instructions (1/2)</h1>\n<br><br><br><br>\nYou have reached the end of the experiment! The completion code consists of two parts: (1) a code with 2 characters (2) a code with 6 characters. On this page, you will receive the second part of the code. The first part of the completion code will be on the next page.\n<br><br>\nThe second part of your completion code is: <b>EWEK22</b>\n<br><br>\nPlease note this down. Then, press 'Finish HIT' in order to find the first part of your completion code. Once the data has been saved, you will receive this code either in this window or in the original browser window where you started the experiment.\n", "response": 0, "trial_type": "html-button-response", "trial_index": 53, "time_elapsed": 1640086, "internal_node_id": "0.0-6.0-6.0"}}, {"uniqueid": "w13475977:a24338374", "current_trial": 54, "dateTime": 1693566516131, "trialdata": {"success": true, "trial_type": "fullscreen", "trial_index": 54, "time_elapsed": 1641093, "internal_node_id": "0.0-7.0"}}], "questiondata": {"params": {"CODE": "C6DMOQA6", "MIN_TIME": 14, "inspectCost": 1, "startTime": "Fri Sep 01 2023 11:41:14 GMT+0100 (British Summer Time)", "bonusRate": 0.002, "variance": "1_2_4_8_44", "branching": "31123"}, "final_score": 119.2}, "eventdata": [{"eventtype": "initialized", "value": null, "timestamp": 1693564874006, "interval": 0}, {"eventtype": "window_resize", "value": [1024, 654], "timestamp": 1693564874006, "interval": 0}, {"eventtype": "window_resize", "value": [1024, 654], "timestamp": 1693564874343, "interval": 337}, {"eventtype": "window_resize", "value": [1366, 768], "timestamp": 1693564880682, "interval": 6339}, {"eventtype": "window_resize", "value": [1024, 654], "timestamp": 1693566515376, "interval": 1634694}], "useragent": "Mozilla/5.0 (Windows NT 10.0; Win64; x64) AppleWebKit/537.36 (KHTML, like Gecko) Chrome/115.0.0.0 Safari/537.36", "mode": "live", "id": "w13475977:a24338374", "status": "user data saved", "Beginhit": "2023-09-01 10:37:33.635188", "Beginexp": "2023-09-01 10:37:42.207087", "Endhit": "2023-09-01 11:04:57.212875", "psiturkStatus": 3, "browser": "<redacted>", "platform": "windows", "language": "en-US"}