{"condition": 0, "counterbalance": 0, "assignmentId": "a64926463", "workerId": "w11243396", "hitId": "h96821017", "currenttrial": 61, "bonus": 0, "data": [{"uniqueid": "w11243396:a64926463", "current_trial": 0, "dateTime": 1691141802010, "trialdata": {"success": true, "trial_type": "fullscreen", "trial_index": 0, "time_elapsed": 3499, "internal_node_id": "0.0-0.0"}}, {"uniqueid": "w11243396:a64926463", "current_trial": 1, "dateTime": 1691141820256, "trialdata": {"view_history": [{"page_index": 0, "viewing_time": 18244}], "rt": 18244, "trial_id": "exp_instructions_control", "trial_type": "instructions", "trial_index": 1, "time_elapsed": 21746, "internal_node_id": "0.0-1.0"}}, {"uniqueid": "w11243396:a64926463", "current_trial": 2, "dateTime": 1691141823226, "trialdata": {"success": true, "trial_type": "fullscreen", "trial_index": 2, "time_elapsed": 24716, "internal_node_id": "0.0-2.0-0.0"}}, {"uniqueid": "w11243396:a64926463", "current_trial": 3, "dateTime": 1691141931224, "trialdata": {"view_history": [{"page_index": 0, "viewing_time": 43533}, {"page_index": 1, "viewing_time": 33376}, {"page_index": 2, "viewing_time": 11704}, {"page_index": 3, "viewing_time": 19384}], "rt": 107997, "trial_id": "mouselab_instructions_1_control", "trial_type": "instructions", "trial_index": 3, "time_elapsed": 132714, "internal_node_id": "0.0-2.0-1.0"}}, {"uniqueid": "w11243396:a64926463", "current_trial": 4, "dateTime": 1691141954478, "trialdata": {"revealed_states": [], "clicked_states": ["1", "23", "12"], "num_clicks_accrued": [0, 0, 0, 0, 0, 0, 0, 0, 0, 0, 0, 0, 0], "stateRewards": ["", -10, -10, 10, 10, 10, -10, 10, 10, 10, 10, -10, 10, -10, 10, -10, -10, -10, 10, 10, 10, -10, -10, -10, 10, 10, 10, -10, -10, -10, 10, 10, -10, -10], "withholdReward": false, "trial_id": "practice_1", "block": "test", "trialIndex": 0, "score": -8, "costs": -1.5, "simulationMode": [null, null, null, null, null], "rewards": [10, -10, 10, -10, -10], "path": ["0", "0", "12", "13", "14", "15", "17"], "rt": [8890, 3618, 398, 1433, 177], "actions": ["right", "right", "right", "up", "right"], "actionTimes": [10711, 14847, 15749, 17701, 18397], "queries": {"click": {"state": {"target": ["1", "23", "12"], "time": [3096, 6397, 8262]}, "edge": {"target": [], "time": []}}, "mouseover": {"state": {"target": ["1", "1", "23", "0", "12", "13"], "time": [2452, 2710, 4182, 6691, 8188, 8877]}, "edge": {"target": [], "time": []}}, "mouseout": {"state": {"target": ["12", "0", "1", "1", "23", "0", "12", "13", "14", "19"], "time": [1084, 1381, 2493, 3887, 6640, 7757, 8709, 13228, 13315, 20835]}, "edge": {"target": [], "time": []}}}, "displayed_time": "18.92", "trialTime": 22904, "trial_type": "mouselab-mdp", "trial_index": 4, "time_elapsed": 155968, "internal_node_id": "0.0-2.0-2.0-0.0"}}, {"uniqueid": "w11243396:a64926463", "current_trial": 5, "dateTime": 1691141984403, "trialdata": {"revealed_states": [], "clicked_states": ["1", "2", "23", "24", "31", "25"], "num_clicks_accrued": [0, 0, 0, 0, 0, 0, 0, 0, 0, 0, 0, 0, 0], "stateRewards": ["", 10, -10, 10, 10, -10, 10, -10, -10, -10, 10, -10, 10, 10, -10, -10, -10, -10, 10, 10, -10, 10, 10, 10, -10, 10, 10, -10, 10, 10, 10, -10, -10, -10], "withholdReward": false, "trial_id": "practice_2", "block": "test", "trialIndex": 1, "score": 10.5, "costs": -3, "simulationMode": [null, null, null, null, null], "rewards": [10, -10, 10, 10, -10], "path": ["0", "0", "23", "24", "25", "26", "27"], "rt": [17902, 766, 806, 3625, 363], "actions": ["left", "left", "left", "up", "up"], "actionTimes": [19764, 21046, 22371, 26507, 27384], "queries": {"click": {"state": {"target": ["1", "2", "23", "24", "31", "25"], "time": [3807, 5078, 8190, 11976, 13030, 15206]}, "edge": {"target": [], "time": []}}, "mouseover": {"state": {"target": ["1", "2", "3", "0", "23", "24", "31", "23", "25", "0", "23"], "time": [3646, 4296, 5998, 7669, 7965, 10470, 12421, 14773, 14956, 18014, 18101]}, "edge": {"target": [], "time": []}}, "mouseout": {"state": {"target": ["0", "1", "2", "3", "2", "1", "0", "23", "24", "31", "23", "24", "25", "25", "24", "0", "23"], "time": [3001, 4162, 5797, 7309, 7517, 7632, 7693, 8550, 12354, 13321, 14797, 14909, 15285, 15390, 15424, 18049, 18541]}, "edge": {"target": [], "time": []}}}, "displayed_time": "27.90", "trialTime": 29814, "trial_type": "mouselab-mdp", "trial_index": 5, "time_elapsed": 185893, "internal_node_id": "0.0-2.0-2.0-1.0"}}, {"uniqueid": "w11243396:a64926463", "current_trial": 6, "dateTime": 1691142004336, "trialdata": {"view_history": [{"page_index": 0, "viewing_time": 11972}, {"page_index": 1, "viewing_time": 7960}], "rt": 19932, "trial_id": "mouselab_instructions_2_control", "trial_type": "instructions", "trial_index": 6, "time_elapsed": 205826, "internal_node_id": "0.0-2.0-3.0"}}, {"uniqueid": "w11243396:a64926463", "current_trial": 7, "dateTime": 1691142030512, "trialdata": {"rt": 26174, "response": {"Q0": "The cost for clicking on nodes may vary between nodes.", "Q1": "The better I perform the higher my bonus will be.", "Q2": "No, the amount of cash at each node of the web may be different each time.", "Q3": "To get the highest total score.", "Q4": "Only before moving the spider.", "Q5": "10 seconds"}, "question_order": [0, 1, 2, 3, 4, 5], "correct": {"Q0": "The cost for clicking on nodes may vary between nodes.", "Q1": "The better I perform the higher my bonus will be.", "Q2": "No, the amount of cash at each node of the web may be different each time.", "Q3": "To get the highest total score.", "Q4": "Only before moving the spider.", "Q5": "3 seconds"}, "trial_id": "mouselab_quiz_control", "trial_type": "survey-multi-choice", "trial_index": 7, "time_elapsed": 232002, "internal_node_id": "0.0-2.0-4.0"}}, {"uniqueid": "w11243396:a64926463", "current_trial": 8, "dateTime": 1691142036247, "trialdata": {"success": true, "trial_type": "fullscreen", "trial_index": 8, "time_elapsed": 237737, "internal_node_id": "0.0-2.1-0.1"}}, {"uniqueid": "w11243396:a64926463", "current_trial": 9, "dateTime": 1691142165752, "trialdata": {"view_history": [{"page_index": 0, "viewing_time": 42855}, {"page_index": 1, "viewing_time": 53825}, {"page_index": 2, "viewing_time": 6423}, {"page_index": 3, "viewing_time": 26400}], "rt": 129503, "trial_id": "mouselab_instructions_1_control", "trial_type": "instructions", "trial_index": 9, "time_elapsed": 367242, "internal_node_id": "0.0-2.1-1.1"}}, {"uniqueid": "w11243396:a64926463", "current_trial": 10, "dateTime": 1691142184421, "trialdata": {"revealed_states": [], "clicked_states": ["12", "13", "14", "20"], "num_clicks_accrued": [0, 0, 0, 0, 0, 0, 0, 0, 0, 0, 0, 0, 0], "stateRewards": ["", -10, -10, 10, 10, 10, -10, 10, 10, 10, 10, -10, 10, -10, 10, -10, -10, -10, 10, 10, 10, -10, -10, -10, 10, 10, 10, -10, -10, -10, 10, 10, -10, -10], "withholdReward": false, "trial_id": "practice_1", "block": "test", "trialIndex": 2, "score": 31.5, "costs": -2, "simulationMode": [null, null, null, null, null], "rewards": [10, -10, 10, 10, 10], "path": ["0", "0", "12", "13", "14", "19", "20"], "rt": [11866, 266, 242, 80, 488], "actions": ["right", "right", "right", "down", "right"], "actionTimes": [13056, 13846, 14604, 15193, 16185], "queries": {"click": {"state": {"target": ["12", "13", "14", "20"], "time": [2765, 4748, 7164, 9412]}, "edge": {"target": [], "time": []}}, "mouseover": {"state": {"target": ["0", "12", "13", "13", "14", "19", "20", "21", "13", "14", "13"], "time": [1404, 2048, 3433, 3854, 4986, 7771, 9058, 9674, 11444, 11675, 12083]}, "edge": {"target": [], "time": []}}, "mouseout": {"state": {"target": ["0", "0", "12", "13", "13", "14", "19", "20", "21", "13", "14", "13"], "time": [1055, 1483, 3383, 3534, 4951, 7704, 9034, 9623, 9690, 11590, 12041, 12195]}, "edge": {"target": [], "time": []}}}, "displayed_time": "16.70", "trialTime": 18526, "trial_type": "mouselab-mdp", "trial_index": 10, "time_elapsed": 385911, "internal_node_id": "0.0-2.1-2.1-0.1"}}, {"uniqueid": "w11243396:a64926463", "current_trial": 11, "dateTime": 1691142207890, "trialdata": {"revealed_states": [], "clicked_states": ["23", "25", "33", "32", "31", "29"], "num_clicks_accrued": [0, 0, 0, 0, 0, 0, 0, 0, 0, 0, 0, 0, 0], "stateRewards": ["", 10, -10, 10, 10, -10, 10, -10, -10, -10, 10, -10, 10, 10, -10, -10, -10, -10, 10, 10, -10, 10, 10, 10, -10, 10, 10, -10, 10, 10, 10, -10, -10, -10], "withholdReward": false, "trial_id": "practice_2", "block": "test", "trialIndex": 3, "score": 30.5, "costs": -3, "simulationMode": [null, null, null, null, null], "rewards": [10, -10, 10, 10, 10], "path": ["0", "0", "23", "24", "25", "26", "29"], "rt": [12912, 88, 138, 594, 769], "actions": ["left", "left", "left", "up", "left"], "actionTimes": [16955, 17555, 18205, 19312, 20588], "queries": {"click": {"state": {"target": ["23", "25", "33", "32", "31", "29"], "time": [5708, 7106, 8611, 10626, 12546, 14930]}, "edge": {"target": [], "time": []}}, "mouseover": {"state": {"target": ["12", "0", "23", "24", "25", "30", "30", "33", "30", "31", "31", "30", "32", "31", "23", "24", "26", "29", "24", "23"], "time": [4738, 5121, 5176, 5922, 6021, 7505, 8089, 8496, 9024, 9057, 10169, 10238, 10377, 12448, 14321, 14368, 14467, 14777, 15180, 15280]}, "edge": {"target": [], "time": []}}, "mouseout": {"state": {"target": ["0", "12", "0", "23", "24", "25", "30", "30", "33", "30", "31", "31", "30", "32", "31", "23", "24", "26", "29", "24", "23", "22", "21"], "time": [3509, 5093, 5160, 5905, 5971, 7456, 7940, 8440, 9007, 9041, 9074, 10201, 10266, 10859, 12761, 14345, 14408, 14488, 15113, 15197, 21753, 21856, 21888]}, "edge": {"target": [], "time": []}}}, "displayed_time": "21.09", "trialTime": 23345, "trial_type": "mouselab-mdp", "trial_index": 11, "time_elapsed": 409380, "internal_node_id": "0.0-2.1-2.1-1.1"}}, {"uniqueid": "w11243396:a64926463", "current_trial": 12, "dateTime": 1691142222111, "trialdata": {"view_history": [{"page_index": 0, "viewing_time": 12860}, {"page_index": 1, "viewing_time": 1360}], "rt": 14219, "trial_id": "mouselab_instructions_2_control", "trial_type": "instructions", "trial_index": 12, "time_elapsed": 423601, "internal_node_id": "0.0-2.1-3.1"}}, {"uniqueid": "w11243396:a64926463", "current_trial": 13, "dateTime": 1691142249400, "trialdata": {"rt": 27287, "response": {"Q0": "The cost for clicking on nodes may vary between nodes.", "Q1": "The better I perform the higher my bonus will be.", "Q2": "No, the amount of cash at each node of the web may be different each time.", "Q3": "To get the highest total score.", "Q4": "Only before moving the spider.", "Q5": "3 seconds"}, "question_order": [0, 1, 2, 3, 4, 5], "correct": {"Q0": "The cost for clicking on nodes may vary between nodes.", "Q1": "The better I perform the higher my bonus will be.", "Q2": "No, the amount of cash at each node of the web may be different each time.", "Q3": "To get the highest total score.", "Q4": "Only before moving the spider.", "Q5": "3 seconds"}, "trial_id": "mouselab_quiz_control", "trial_type": "survey-multi-choice", "trial_index": 13, "time_elapsed": 450890, "internal_node_id": "0.0-2.1-4.1"}}, {"uniqueid": "w11243396:a64926463", "current_trial": 14, "dateTime": 1691142257809, "trialdata": {"rt": 8403, "stimulus": "\n<h1> Get ready to start the game! </h1>\n\nThank you for reading the instructions. Get ready start with the 40 rounds of this game.\n<br><br>\nIf you need to take a break, feel free to take one after the end of a round, before continuing to the next one.\n<br><br>\nRemember, the more money the spider gets, the bigger your bonus will be!\n<br><br>\n<div style='text-align: center;'>Press <code>space</code> to begin.</div>\n\n<br><br>\n(If, at any point, the <code>space</code> key does not take you to the next page, click once on the text and try again.)", "response": " ", "trial_id": "mdp_ready", "trial_type": "html-keyboard-response", "trial_index": 14, "time_elapsed": 459299, "internal_node_id": "0.0-4.0-0.0"}}, {"uniqueid": "w11243396:a64926463", "current_trial": 15, "dateTime": 1691142278970, "trialdata": {"revealed_states": [], "clicked_states": ["23", "29", "25", "32"], "num_clicks_accrued": [0, 0, 0, 0, 0, 0, 0, 0, 0, 0, 0, 0, 0], "stateRewards": ["", 1, -2, -8, -3, 31, -84, -55, -14, 15, -58, 17, -2, -3, 7, 7, -12, 48, 67, 4, -44, -68, 46, 2, 3, -5, -7, 76, 27, 5, 11, 57, 52, 59], "withholdReward": false, "trial_id": "mdp_trial_1", "block": "test", "trialIndex": 4, "score": 57.4, "costs": -5.6, "simulationMode": [null, null, null, null, null], "rewards": [2, 3, -5, 11, 52], "path": ["0", "0", "23", "24", "25", "30", "32"], "rt": [13836, 20, 92, 832, 261], "actions": ["left", "left", "left", "down", "down"], "actionTimes": [15146, 15671, 16277, 17634, 18415], "queries": {"click": {"state": {"target": ["23", "29", "25", "32"], "time": [2862, 6087, 8182, 11935]}, "edge": {"target": [], "time": []}}, "mouseover": {"state": {"target": ["0", "0", "23", "24", "23", "24", "25", "29", "25", "24", "23", "23", "24", "26", "30", "33", "32"], "time": [1480, 1945, 2077, 2548, 2730, 3087, 3605, 5973, 6390, 8409, 8442, 10261, 10327, 10508, 11216, 11404, 11667]}, "edge": {"target": [], "time": []}}, "mouseout": {"state": {"target": ["6", "0", "0", "23", "24", "23", "24", "25", "29", "25", "24", "23", "23", "24", "26", "25", "30", "33", "32", "12"], "time": [572, 1821, 2004, 2284, 2668, 3054, 3154, 5757, 6291, 8376, 8426, 8476, 10306, 10341, 11076, 11164, 11356, 11572, 12146, 20581]}, "edge": {"target": [], "time": []}}}, "displayed_time": "18.92", "trialTime": 21022, "trial_type": "mouselab-mdp", "trial_index": 15, "time_elapsed": 480460, "internal_node_id": "0.0-4.0-1.0-0.0"}}, {"uniqueid": "w11243396:a64926463", "current_trial": 16, "dateTime": 1691142295436, "trialdata": {"revealed_states": [], "clicked_states": ["12", "21", "20"], "num_clicks_accrued": [0, 0, 0, 0, 0, 0, 0, 0, 0, 0, 0, 0, 0], "stateRewards": ["", 1, -2, 4, 7, -43, -83, -60, -5, -86, -80, 83, -1, -2, 6, 11, -15, 21, 13, 9, 29, -49, 11, -1, 4, -6, -11, 87, 40, 63, -8, -39, -11, 62], "withholdReward": false, "trial_id": "mdp_trial_2", "block": "test", "trialIndex": 5, "score": 36.8, "costs": -4.199999999999999, "simulationMode": [null, null, null, null, null], "rewards": [-1, -2, 6, 9, 29], "path": ["0", "0", "12", "13", "14", "19", "20"], "rt": [9912, 1, 647, 214, 168], "actions": ["right", "right", "right", "down", "right"], "actionTimes": [11272, 11787, 12966, 13701, 14372], "queries": {"click": {"state": {"target": ["12", "21", "20"], "time": [3256, 5736, 8248]}, "edge": {"target": [], "time": []}}, "mouseover": {"state": {"target": ["12", "13", "12", "13", "19", "21", "19", "14", "20"], "time": [2386, 2622, 2885, 3492, 3725, 5517, 5911, 5994, 7894]}, "edge": {"target": [], "time": []}}, "mouseout": {"state": {"target": ["0", "12", "13", "12", "13", "19", "21", "19", "14", "20", "14", "22"], "time": [913, 2542, 2854, 3475, 3559, 5446, 5878, 5962, 7806, 8397, 15527, 15670]}, "edge": {"target": [], "time": []}}}, "displayed_time": "15.36", "trialTime": 16338, "trial_type": "mouselab-mdp", "trial_index": 16, "time_elapsed": 496926, "internal_node_id": "0.0-4.0-1.0-1.0"}}, {"uniqueid": "w11243396:a64926463", "current_trial": 17, "dateTime": 1691142313206, "trialdata": {"revealed_states": [], "clicked_states": ["29", "23"], "num_clicks_accrued": [0, 0, 0, 0, 0, 0, 0, 0, 0, 0, 0, 0, 0], "stateRewards": ["", 1, -1, -7, -7, -22, 15, -13, 13, 26, -32, 38, -1, 1, -7, -4, 16, -62, 86, 12, -54, 56, 64, -2, -1, 6, 14, -57, 37, 62, -6, -25, 50, -70], "withholdReward": false, "trial_id": "mdp_trial_3", "block": "test", "trialIndex": 6, "score": 76.2, "costs": -2.8, "simulationMode": [null, null, null, null, null], "rewards": [-2, -1, 6, 14, 62], "path": ["0", "0", "23", "24", "25", "26", "29"], "rt": [6832, 384, 199, 160, 148], "actions": ["left", "left", "left", "up", "left"], "actionTimes": [9628, 10525, 11240, 11903, 12558], "queries": {"click": {"state": {"target": ["29", "23"], "time": [4534, 6551]}, "edge": {"target": [], "time": []}}, "mouseover": {"state": {"target": ["12", "13", "14", "1", "29", "25", "23", "24", "26"], "time": [3267, 3426, 3548, 3844, 4308, 4784, 4968, 6803, 8828]}, "edge": {"target": [], "time": []}}, "mouseout": {"state": {"target": ["0", "12", "13", "14", "1", "29", "25", "23", "24", "29", "29", "26", "25"], "time": [1524, 3379, 3461, 3627, 3883, 4734, 4835, 6769, 6836, 7020, 8803, 8859, 14836]}, "edge": {"target": [], "time": []}}}, "displayed_time": "16.80", "trialTime": 17648, "trial_type": "mouselab-mdp", "trial_index": 17, "time_elapsed": 514695, "internal_node_id": "0.0-4.0-1.0-2.0"}}, {"uniqueid": "w11243396:a64926463", "current_trial": 18, "dateTime": 1691142329661, "trialdata": {"revealed_states": [], "clicked_states": [], "num_clicks_accrued": [0, 0, 0, 0, 0, 0, 0, 0, 0, 0, 0, 0, 0], "stateRewards": ["", -2, 2, -5, 1, 42, -63, -58, -6, 2, 16, 81, -2, 4, 7, -10, 33, 3, -33, -2, -52, -84, -27, 2, -3, -3, 15, -74, -14, -5, -5, -84, 79, -31], "withholdReward": false, "trial_id": "mdp_trial_4", "block": "test", "trialIndex": 7, "score": -93, "costs": 0, "simulationMode": [null, null, null, null, null], "rewards": [2, -3, -3, -5, -84], "path": ["0", "0", "23", "24", "25", "30", "31"], "rt": [10260, 2, 114, 11, 188], "actions": ["left", "left", "left", "down", "right"], "actionTimes": [11310, 11835, 12455, 12986, 13697], "queries": {"click": {"state": {"target": [], "time": []}, "edge": {"target": [], "time": []}}, "mouseover": {"state": {"target": ["12", "13", "14", "12", "23", "24", "30", "25", "24", "23", "0", "23", "24", "25", "29", "25", "24", "25", "25", "24", "23", "12", "13", "14"], "time": [1414, 1443, 1466, 2098, 3394, 3554, 3873, 4074, 4450, 4692, 7075, 7482, 7714, 7818, 8018, 8338, 8370, 8746, 9027, 9394, 9463, 9506, 9530, 9578]}, "edge": {"target": [], "time": []}}, "mouseout": {"state": {"target": ["29", "23", "12", "13", "14", "12", "23", "24", "30", "25", "24", "23", "0", "23", "24", "25", "29", "25", "24", "25", "25", "24", "23", "12", "13", "14"], "time": [594, 762, 1428, 1450, 1474, 3346, 3418, 3634, 3978, 4426, 4498, 5032, 7346, 7658, 7762, 7880, 8307, 8354, 8380, 8802, 9166, 9449, 9477, 9522, 9554, 9626]}, "edge": {"target": [], "time": []}}}, "displayed_time": "15.05", "trialTime": 16334, "trial_type": "mouselab-mdp", "trial_index": 18, "time_elapsed": 531151, "internal_node_id": "0.0-4.0-1.0-3.0"}}, {"uniqueid": "w11243396:a64926463", "current_trial": 19, "dateTime": 1691142353245, "trialdata": {"revealed_states": [], "clicked_states": ["25", "32", "29", "27", "21", "20", "17"], "num_clicks_accrued": [0, 0, 0, 0, 0, 0, 0, 0, 0, 0, 0, 0, 0], "stateRewards": ["", -2, -4, 2, 10, -17, 18, 73, 11, -32, 23, -13, -2, -4, 7, 12, -25, 66, -23, 15, 40, -76, -9, 1, 2, -7, -5, -20, 24, 3, -5, 16, -73, 70], "withholdReward": false, "trial_id": "mdp_trial_5", "block": "test", "trialIndex": 8, "score": 69.2, "costs": -9.8, "simulationMode": [null, null, null, null, null], "rewards": [-2, -4, 7, 12, 66], "path": ["0", "0", "12", "13", "14", "15", "17"], "rt": [17021, 483, 209, 53, 41], "actions": ["right", "right", "right", "up", "right"], "actionTimes": [18485, 19485, 20212, 20773, 21328], "queries": {"click": {"state": {"target": ["25", "32", "29", "27", "21", "20", "17"], "time": [1989, 4285, 6566, 8653, 10909, 12860, 15309]}, "edge": {"target": [], "time": []}}, "mouseover": {"state": {"target": ["23", "24", "25", "24", "32", "24", "28", "26", "29", "27", "1", "12", "13", "19", "21", "20", "14", "15", "17", "16"], "time": [1708, 1755, 1819, 2701, 3798, 5804, 6131, 6215, 6500, 7005, 10539, 10555, 10565, 10587, 10852, 12094, 13278, 13796, 14708, 17419]}, "edge": {"target": [], "time": []}}, "mouseout": {"state": {"target": ["23", "23", "24", "25", "25", "24", "32", "24", "28", "26", "29", "27", "1", "12", "13", "19", "21", "20", "14", "15", "17", "20", "16", "17", "20", "21"], "time": [971, 1739, 1787, 2000, 2668, 3419, 4653, 6027, 6163, 6229, 6651, 10327, 10549, 10563, 10572, 10604, 11660, 13128, 13628, 13812, 15780, 17115, 17668, 22883, 22958, 22979]}, "edge": {"target": [], "time": []}}}, "displayed_time": "21.84", "trialTime": 23455, "trial_type": "mouselab-mdp", "trial_index": 19, "time_elapsed": 554734, "internal_node_id": "0.0-4.0-1.0-4.0"}}, {"uniqueid": "w11243396:a64926463", "current_trial": 20, "dateTime": 1691142372621, "trialdata": {"revealed_states": [], "clicked_states": ["17", "20", "12"], "num_clicks_accrued": [0, 0, 0, 0, 0, 0, 0, 0, 0, 0, 0, 0, 0], "stateRewards": ["", 1, 3, 1, -13, 52, -28, 67, -14, 3, 63, -70, -1, -4, 7, -11, -10, 47, -18, 6, 69, -9, -61, 2, 3, -6, 10, 63, -34, 40, -6, -79, -35, -32], "withholdReward": false, "trial_id": "mdp_trial_6", "block": "test", "trialIndex": 9, "score": 72.8, "costs": -4.199999999999999, "simulationMode": [null, null, null, null, null], "rewards": [-1, -4, 7, 6, 69], "path": ["0", "0", "12", "13", "14", "19", "20"], "rt": [8719, 691, 497, 202, 275], "actions": ["right", "right", "right", "down", "right"], "actionTimes": [13233, 14429, 15436, 16142, 16932], "queries": {"click": {"state": {"target": ["17", "20", "12"], "time": [5528, 7863, 10471]}, "edge": {"target": [], "time": []}}, "mouseover": {"state": {"target": ["12", "13", "14", "17", "14", "13", "12", "13", "20", "20", "13", "12", "13", "19", "12", "19", "19"], "time": [5013, 5037, 5062, 5362, 6046, 6162, 6314, 7365, 7397, 7682, 8148, 8448, 9846, 10078, 10157, 10685, 12429]}, "edge": {"target": [], "time": []}}, "mouseout": {"state": {"target": ["0", "12", "13", "14", "17", "14", "13", "12", "13", "20", "20", "13", "12", "13", "19", "12", "19", "20", "20", "19"], "time": [3571, 5022, 5053, 5071, 5879, 6129, 6213, 7357, 7373, 7437, 8031, 8415, 9693, 9877, 10101, 10617, 10718, 10767, 12413, 12445]}, "edge": {"target": [], "time": []}}}, "displayed_time": "18.51", "trialTime": 19249, "trial_type": "mouselab-mdp", "trial_index": 20, "time_elapsed": 574111, "internal_node_id": "0.0-4.0-1.0-5.0"}}, {"uniqueid": "w11243396:a64926463", "current_trial": 21, "dateTime": 1691142394644, "trialdata": {"revealed_states": [], "clicked_states": ["9", "5", "1", "29", "33"], "num_clicks_accrued": [0, 0, 0, 0, 0, 0, 0, 0, 0, 0, 0, 0, 0], "stateRewards": ["", 2, -1, 5, 8, 75, -35, -77, 1, -9, -81, -58, 1, 2, -7, 5, 77, -16, 19, 16, -10, -18, 40, -2, 3, 7, -5, 64, 1, -62, 10, 27, 10, 65], "withholdReward": false, "trial_id": "mdp_trial_7", "block": "test", "trialIndex": 10, "score": 82, "costs": -7, "simulationMode": [null, null, null, null, null], "rewards": [2, -1, 5, 8, 75], "path": ["0", "0", "1", "2", "3", "4", "5"], "rt": [15014, 148, 93, 301, 200], "actions": ["up", "up", "up", "right", "up"], "actionTimes": [16915, 17566, 18161, 18969, 19669], "queries": {"click": {"state": {"target": ["9", "5", "1", "29", "33"], "time": [3430, 5765, 8806, 11382, 13629]}, "edge": {"target": [], "time": []}}, "mouseover": {"state": {"target": ["0", "12", "13", "13", "12", "10", "10", "8", "9", "3", "2", "7", "5", "4", "7", "1", "2", "8", "7", "2", "1", "18", "15", "4", "5", "3", "26", "29", "27", "3", "5", "5", "3", "28", "25", "30", "33", "30", "5", "3", "2", "1"], "time": [2103, 2180, 2220, 2404, 2414, 2513, 2805, 2892, 3196, 4003, 4021, 5340, 5541, 5971, 6021, 6104, 7796, 7917, 8204, 8396, 8652, 9008, 9041, 10836, 10892, 10980, 11060, 11116, 11577, 11710, 11945, 13021, 13060, 13108, 13180, 13292, 13429, 13798, 14079, 15980, 16013, 16228]}, "edge": {"target": [], "time": []}}, "mouseout": {"state": {"target": ["0", "0", "12", "13", "13", "12", "10", "10", "8", "9", "3", "2", "7", "5", "4", "7", "1", "2", "8", "7", "2", "1", "18", "15", "4", "5", "3", "26", "29", "27", "3", "5", "5", "3", "28", "25", "30", "33", "30", "5", "3", "2", "1", "1"], "time": [1780, 2159, 2204, 2260, 2412, 2430, 2534, 2868, 3048, 3969, 4019, 4036, 5357, 5955, 6006, 6038, 7645, 7852, 8093, 8316, 8612, 8974, 9024, 10758, 10861, 10956, 10988, 11076, 11477, 11628, 11743, 12028, 13044, 13068, 13132, 13196, 13309, 13796, 13812, 15948, 15996, 16028, 16276, 21020]}, "edge": {"target": [], "time": []}}}, "displayed_time": "20.17", "trialTime": 21895, "trial_type": "mouselab-mdp", "trial_index": 21, "time_elapsed": 596134, "internal_node_id": "0.0-4.0-1.0-6.0"}}, {"uniqueid": "w11243396:a64926463", "current_trial": 22, "dateTime": 1691142430720, "trialdata": {"revealed_states": [], "clicked_states": ["9", "5", "27", "29", "33", "32", "31", "21", "22", "20", "17", "16", "18", "12"], "num_clicks_accrued": [0, 0, 0, 0, 0, 0, 0, 0, 0, 0, 0, 0, 0], "stateRewards": ["", -2, 1, -7, -8, -37, -76, -87, 11, 30, -63, 80, -1, 4, 2, -1, 42, 17, 52, -3, -75, -80, -68, 2, -3, -5, -15, -48, 82, 24, -7, 5, -22, -71], "withholdReward": false, "trial_id": "mdp_trial_8", "block": "test", "trialIndex": 11, "score": 36.400000000000006, "costs": -19.599999999999998, "simulationMode": [null, null, null, null, null], "rewards": [-1, 4, 2, -1, 52], "path": ["0", "0", "12", "13", "14", "15", "18"], "rt": [29430, 334, 244, 115, 17], "actions": ["right", "right", "right", "up", "left"], "actionTimes": [31467, 32311, 33072, 33694, 34230], "queries": {"click": {"state": {"target": ["9", "5", "27", "29", "33", "32", "31", "21", "22", "20", "17", "16", "18", "12"], "time": [2852, 5243, 7124, 9124, 11092, 12996, 14876, 16829, 18701, 20556, 22501, 24564, 26547, 28644]}, "edge": {"target": [], "time": []}}, "mouseover": {"state": {"target": ["1", "10", "8", "9", "2", "1", "4", "5", "3", "8", "27", "29", "25", "30", "33", "32", "31", "21", "21", "22", "19", "20", "20", "14", "17", "16", "18", "1", "18", "18", "14", "14", "13", "12", "13", "15", "13"], "time": [2451, 2490, 2514, 2610, 3181, 3465, 4848, 5082, 5500, 5533, 5617, 7518, 9421, 9504, 10004, 11339, 13408, 15143, 15443, 17212, 18932, 18997, 19213, 20899, 22100, 22801, 24954, 25136, 25704, 26419, 26905, 27222, 28056, 28298, 28874, 29041, 30562]}, "edge": {"target": [], "time": []}}, "mouseout": {"state": {"target": ["0", "1", "10", "8", "9", "2", "1", "4", "5", "3", "8", "27", "29", "25", "30", "33", "32", "31", "21", "21", "22", "19", "20", "20", "14", "17", "16", "18", "1", "18", "18", "14", "14", "13", "12", "13", "15", "18", "13"], "time": [1553, 2466, 2498, 2562, 3148, 3198, 4778, 4890, 5467, 5516, 5550, 7368, 9355, 9454, 9587, 11307, 13175, 15043, 15159, 17011, 18914, 18963, 19015, 20748, 21733, 22667, 24886, 24987, 25620, 25753, 26838, 27038, 27956, 28186, 28857, 28906, 29140, 30522, 30634]}, "edge": {"target": [], "time": []}}}, "displayed_time": "34.75", "trialTime": 35945, "trial_type": "mouselab-mdp", "trial_index": 22, "time_elapsed": 632210, "internal_node_id": "0.0-4.0-1.0-7.0"}}, {"uniqueid": "w11243396:a64926463", "current_trial": 23, "dateTime": 1691142450809, "trialdata": {"revealed_states": [], "clicked_states": ["9", "5", "17", "20"], "num_clicks_accrued": [0, 0, 0, 0, 0, 0, 0, 0, 0, 0, 0, 0, 0], "stateRewards": ["", 1, 1, 1, 15, -76, 52, -32, 14, -57, 37, 49, 1, -4, -3, 6, 83, -76, 25, 9, 36, -1, -17, -1, 4, 4, -2, -22, -21, 58, -15, -57, 49, -24], "withholdReward": false, "trial_id": "mdp_trial_9", "block": "test", "trialIndex": 12, "score": 33.4, "costs": -5.6, "simulationMode": [null, null, null, null, null], "rewards": [1, -4, -3, 9, 36], "path": ["0", "0", "12", "13", "14", "19", "20"], "rt": [10592, 400, 205, 870, 107], "actions": ["right", "right", "right", "down", "right"], "actionTimes": [14908, 15825, 16531, 17914, 18534], "queries": {"click": {"state": {"target": ["9", "5", "17", "20"], "time": [5332, 7220, 9115, 11395]}, "edge": {"target": [], "time": []}}, "mouseover": {"state": {"target": ["1", "10", "8", "9", "4", "5", "6", "15", "17", "20", "20", "20", "21"], "time": [4890, 4929, 4947, 5194, 5581, 5948, 7450, 7533, 7934, 9419, 9786, 11306, 11604]}, "edge": {"target": [], "time": []}}, "mouseout": {"state": {"target": ["0", "1", "10", "8", "9", "4", "5", "6", "15", "17", "20", "20", "20", "21"], "time": [3891, 4914, 4940, 4969, 5498, 5598, 7417, 7466, 7566, 9301, 9451, 11177, 11555, 14226]}, "edge": {"target": [], "time": []}}}, "displayed_time": "19.05", "trialTime": 19946, "trial_type": "mouselab-mdp", "trial_index": 23, "time_elapsed": 652298, "internal_node_id": "0.0-4.0-1.0-8.0"}}, {"uniqueid": "w11243396:a64926463", "current_trial": 24, "dateTime": 1691142482828, "trialdata": {"revealed_states": [], "clicked_states": ["32", "33", "31", "29", "27", "28", "11", "9", "5"], "num_clicks_accrued": [0, 0, 0, 0, 0, 0, 0, 0, 0, 0, 0, 0, 0], "stateRewards": ["", 2, 3, -1, 6, 44, -4, -59, -14, -3, 64, 16, 1, -3, 3, 6, 3, 49, 19, 3, -49, -14, -86, 1, 2, -3, -8, -33, 14, 32, -13, -77, -47, -67], "withholdReward": false, "trial_id": "mdp_trial_10", "block": "test", "trialIndex": 13, "score": 41.4, "costs": -12.600000000000001, "simulationMode": [null, null, null, null, null], "rewards": [2, 3, -1, 6, 44], "path": ["0", "0", "1", "2", "3", "4", "5"], "rt": [21609, 371, 270, 672, 57], "actions": ["up", "up", "up", "right", "up"], "actionTimes": [27286, 28174, 28947, 30134, 30704], "queries": {"click": {"state": {"target": ["32", "33", "31", "29", "27", "28", "11", "9", "5"], "time": [6538, 8779, 10658, 12962, 15410, 17378, 19995, 22242, 24242]}, "edge": {"target": [], "time": []}}, "mouseover": {"state": {"target": ["0", "23", "31", "32", "31", "30", "33", "30", "31", "31", "24", "26", "29", "26", "23", "23", "28", "26", "27", "28", "23", "1", "10", "11", "27", "29", "27", "9", "5", "5", "11", "27", "29", "26", "28", "1", "18", "7"], "time": [5848, 5880, 5985, 6428, 8457, 8505, 8632, 8990, 9040, 10308, 10975, 11142, 11259, 13177, 13311, 13595, 15049, 15081, 15289, 15713, 19401, 19521, 19656, 19866, 20368, 20618, 21894, 22000, 22504, 22804, 24506, 24605, 24990, 26394, 26408, 26433, 26552, 26704]}, "edge": {"target": [], "time": []}}, "mouseout": {"state": {"target": ["13", "12", "23", "23", "0", "0", "23", "31", "32", "31", "30", "33", "30", "31", "31", "24", "26", "29", "26", "23", "23", "28", "26", "27", "28", "23", "1", "10", "11", "27", "29", "27", "11", "9", "5", "5", "11", "27", "29", "26", "28", "1", "18", "7"], "time": [539, 553, 664, 1896, 5552, 5859, 5912, 6080, 6689, 8489, 8585, 8957, 9024, 9090, 10908, 11075, 11210, 13161, 13195, 13428, 15024, 15056, 15161, 15630, 17999, 19417, 19624, 19704, 20251, 20401, 21865, 21907, 21944, 22453, 22521, 24439, 24522, 24639, 26384, 26401, 26416, 26442, 26632, 26721]}, "edge": {"target": [], "time": []}}}, "displayed_time": "31.21", "trialTime": 31884, "trial_type": "mouselab-mdp", "trial_index": 24, "time_elapsed": 684318, "internal_node_id": "0.0-4.0-1.0-9.0"}}, {"uniqueid": "w11243396:a64926463", "current_trial": 25, "dateTime": 1691142499574, "trialdata": {"revealed_states": [], "clicked_states": ["21", "22"], "num_clicks_accrued": [0, 0, 0, 0, 0, 0, 0, 0, 0, 0, 0, 0, 0], "stateRewards": ["", 1, 1, 4, 11, 83, -66, 18, -16, -23, 5, 25, 1, -3, 1, -12, 18, 24, -86, -11, -64, 36, 40, 2, 1, -6, 13, 55, 29, 72, -2, 81, -72, -41], "withholdReward": false, "trial_id": "mdp_trial_11", "block": "test", "trialIndex": 14, "score": 25.2, "costs": -2.8, "simulationMode": [null, null, null, null, null], "rewards": [1, -3, 1, -11, 40], "path": ["0", "0", "12", "13", "14", "19", "22"], "rt": [7909, 281, 354, 57, 216], "actions": ["right", "right", "right", "down", "left"], "actionTimes": [9159, 9954, 10811, 11382, 12108], "queries": {"click": {"state": {"target": ["21", "22"], "time": [3456, 5969]}, "edge": {"target": [], "time": []}}, "mouseover": {"state": {"target": ["12", "19", "19", "22", "24", "26", "0", "19", "20", "21", "22", "22", "19", "20", "20", "17"], "time": [1351, 1406, 1619, 1863, 2670, 2863, 2998, 3046, 3095, 3286, 3950, 5815, 6168, 6219, 6619, 7120]}, "edge": {"target": [], "time": []}}, "mouseout": {"state": {"target": ["7", "0", "12", "19", "19", "22", "24", "26", "0", "19", "20", "21", "22", "22", "19", "20", "20", "17", "20", "21"], "time": [662, 1102, 1366, 1479, 1847, 1886, 2758, 2958, 3008, 3071, 3190, 3615, 3966, 6047, 6203, 6252, 6786, 8440, 14767, 15654]}, "edge": {"target": [], "time": []}}}, "displayed_time": "15.25", "trialTime": 16612, "trial_type": "mouselab-mdp", "trial_index": 25, "time_elapsed": 701064, "internal_node_id": "0.0-4.0-1.0-10.0"}}, {"uniqueid": "w11243396:a64926463", "current_trial": 26, "dateTime": 1691142525028, "trialdata": {"revealed_states": [], "clicked_states": ["9", "5", "16", "17", "20", "14", "13", "12"], "num_clicks_accrued": [0, 0, 0, 0, 0, 0, 0, 0, 0, 0, 0, 0, 0], "stateRewards": ["", -1, 4, 3, 12, -27, 34, -33, 3, -63, 1, 6, 2, 2, -6, -11, -77, -85, 68, -6, 51, 81, -60, -2, -2, 1, 15, 20, 15, 68, -10, -14, 6, -4], "withholdReward": false, "trial_id": "mdp_trial_12", "block": "test", "trialIndex": 15, "score": 31.799999999999997, "costs": -11.200000000000001, "simulationMode": [null, null, null, null, null], "rewards": [2, 2, -6, -6, 51], "path": ["0", "0", "12", "13", "14", "19", "20"], "rt": [19426, 332, 22, 291, 131], "actions": ["right", "right", "right", "down", "right"], "actionTimes": [20995, 21841, 22382, 23184, 23825], "queries": {"click": {"state": {"target": ["9", "5", "16", "17", "20", "14", "13", "12"], "time": [2384, 4897, 7304, 9617, 11920, 14744, 16825, 18560]}, "edge": {"target": [], "time": []}}, "mouseover": {"state": {"target": ["12", "13", "18", "4", "3", "9", "4", "5", "6", "16", "2", "16", "16", "14", "13", "17", "13", "20", "20", "19", "21", "22", "14", "19", "21", "19", "13", "12"], "time": [1799, 1847, 1887, 2015, 2103, 2271, 4687, 4791, 5158, 5224, 5776, 6950, 7111, 7626, 9144, 9367, 10746, 11575, 11751, 12132, 13607, 14054, 14637, 15051, 15784, 16018, 16343, 17103]}, "edge": {"target": [], "time": []}}, "mouseout": {"state": {"target": ["0", "12", "13", "18", "4", "3", "9", "4", "5", "6", "16", "2", "16", "16", "14", "13", "17", "13", "20", "20", "19", "21", "22", "14", "19", "21", "19", "14", "13", "12", "13"], "time": [1326, 1831, 1863, 1911, 2026, 2134, 2605, 4727, 5124, 5174, 5291, 5891, 6983, 7494, 7760, 9248, 9879, 11543, 11607, 12098, 12165, 13975, 14479, 14984, 15568, 15985, 16168, 16304, 17069, 18872, 18904]}, "edge": {"target": [], "time": []}}}, "displayed_time": "24.34", "trialTime": 25306, "trial_type": "mouselab-mdp", "trial_index": 26, "time_elapsed": 726517, "internal_node_id": "0.0-4.0-1.0-11.0"}}, {"uniqueid": "w11243396:a64926463", "current_trial": 27, "dateTime": 1691142543235, "trialdata": {"revealed_states": [], "clicked_states": ["29", "25", "23"], "num_clicks_accrued": [0, 0, 0, 0, 0, 0, 0, 0, 0, 0, 0, 0, 0], "stateRewards": ["", -2, 2, 5, -14, -56, 64, 84, -5, 52, 39, 85, -2, 1, 7, 8, 21, 29, -78, -9, -10, -69, 10, -2, -1, -7, 15, 72, 20, 41, -2, 52, 80, 22], "withholdReward": false, "trial_id": "mdp_trial_13", "block": "test", "trialIndex": 16, "score": 41.8, "costs": -4.199999999999999, "simulationMode": [null, null, null, null, null], "rewards": [-2, -1, -7, 15, 41], "path": ["0", "0", "23", "24", "25", "26", "29"], "rt": [8195, 367, 205, 117, 140], "actions": ["left", "left", "left", "up", "left"], "actionTimes": [11719, 12600, 13323, 13953, 14609], "queries": {"click": {"state": {"target": ["29", "25", "23"], "time": [4544, 8263, 9799]}, "edge": {"target": [], "time": []}}, "mouseover": {"state": {"target": ["28", "26", "29", "26", "24", "24", "25", "26", "25", "24", "23", "0", "12"], "time": [4230, 4294, 4398, 4825, 4909, 7286, 7598, 7982, 8165, 8445, 8480, 10263, 10314]}, "edge": {"target": [], "time": []}}, "mouseout": {"state": {"target": ["13", "12", "1", "28", "26", "29", "26", "24", "24", "25", "26", "25", "24", "23", "0"], "time": [390, 429, 717, 4254, 4358, 4792, 4842, 6942, 7494, 7897, 8126, 8429, 8478, 10247, 10297]}, "edge": {"target": [], "time": []}}}, "displayed_time": "17.53", "trialTime": 18073, "trial_type": "mouselab-mdp", "trial_index": 27, "time_elapsed": 744725, "internal_node_id": "0.0-4.0-1.0-12.0"}}, {"uniqueid": "w11243396:a64926463", "current_trial": 28, "dateTime": 1691142560050, "trialdata": {"revealed_states": [], "clicked_states": ["32", "33", "25", "23"], "num_clicks_accrued": [0, 0, 0, 0, 0, 0, 0, 0, 0, 0, 0, 0, 0], "stateRewards": ["", -1, -1, 7, -15, -43, -21, -84, -9, -45, -66, 2, 1, -2, 2, 8, -27, 44, -52, -5, -84, 11, 53, 1, 4, -4, 16, 83, -82, -15, -16, 68, -43, 81], "withholdReward": false, "trial_id": "mdp_trial_14", "block": "test", "trialIndex": 17, "score": 60.4, "costs": -5.6, "simulationMode": [null, null, null, null, null], "rewards": [1, 4, -4, -16, 81], "path": ["0", "0", "23", "24", "25", "30", "33"], "rt": [9689, 87, 134, 478, 114], "actions": ["left", "left", "left", "down", "left"], "actionTimes": [11762, 12352, 13000, 13996, 14632], "queries": {"click": {"state": {"target": ["32", "33", "25", "23"], "time": [2853, 5020, 7973, 9908]}, "edge": {"target": [], "time": []}}, "mouseover": {"state": {"target": ["0", "31", "32", "33", "25", "26", "29", "25", "24", "25", "25", "24", "23", "0"], "time": [2436, 2586, 2738, 3223, 5357, 5424, 5658, 7282, 7354, 7490, 7866, 8178, 8377, 10346]}, "edge": {"target": [], "time": []}}, "mouseout": {"state": {"target": ["12", "0", "0", "31", "32", "33", "25", "26", "29", "25", "24", "25", "25", "24", "23", "0"], "time": [643, 803, 2459, 2634, 2947, 5191, 5390, 5491, 7258, 7330, 7466, 7690, 8144, 8227, 10296, 10579]}, "edge": {"target": [], "time": []}}}, "displayed_time": "16.07", "trialTime": 16668, "trial_type": "mouselab-mdp", "trial_index": 28, "time_elapsed": 761540, "internal_node_id": "0.0-4.0-1.0-13.0"}}, {"uniqueid": "w11243396:a64926463", "current_trial": 29, "dateTime": 1691142585718, "trialdata": {"revealed_states": [], "clicked_states": ["20", "13", "14", "19", "12"], "num_clicks_accrued": [0, 0, 0, 0, 0, 0, 0, 0, 0, 0, 0, 0, 0], "stateRewards": ["", -2, -1, -1, 5, -54, -87, 35, 2, -8, 20, -22, 1, 3, 6, 13, -75, -32, -55, -3, 56, 62, -22, -1, -4, -1, -7, -51, 84, 70, 7, -15, 5, 55], "withholdReward": false, "trial_id": "mdp_trial_15", "block": "test", "trialIndex": 18, "score": 56, "costs": -7, "simulationMode": [null, null, null, null, null], "rewards": [1, 3, 6, -3, 56], "path": ["0", "0", "12", "13", "14", "19", "20"], "rt": [11450, 310, 139, 370, 107], "actions": ["right", "right", "right", "down", "right"], "actionTimes": [20393, 21204, 21851, 22732, 23354], "queries": {"click": {"state": {"target": ["20", "13", "14", "19", "12"], "time": [9551, 12503, 14887, 16743, 18528]}, "edge": {"target": [], "time": []}}, "mouseover": {"state": {"target": ["0", "21", "20", "21", "19", "13", "19", "14", "19", "12"], "time": [9109, 9288, 9461, 9832, 12205, 12376, 14086, 14734, 15121, 17173]}, "edge": {"target": [], "time": []}}, "mouseout": {"state": {"target": ["0", "0", "0", "21", "20", "21", "19", "13", "19", "14", "19", "13", "12", "19"], "time": [8109, 8789, 9141, 9341, 9749, 12157, 12237, 12802, 14678, 15054, 16889, 17006, 18774, 18958]}, "edge": {"target": [], "time": []}}}, "displayed_time": "23.86", "trialTime": 25523, "trial_type": "mouselab-mdp", "trial_index": 29, "time_elapsed": 787208, "internal_node_id": "0.0-4.0-1.0-14.0"}}, {"uniqueid": "w11243396:a64926463", "current_trial": 30, "dateTime": 1691142607799, "trialdata": {"revealed_states": [], "clicked_states": ["29", "25", "23"], "num_clicks_accrued": [0, 0, 0, 0, 0, 0, 0, 0, 0, 0, 0, 0, 0], "stateRewards": ["", -2, -3, 8, -4, -30, 31, 69, 9, 66, 87, 64, -2, 2, 8, 5, 47, 16, -39, -8, -54, 51, -19, 1, -2, -2, -11, -25, -26, 43, -9, 19, -84, 86], "withholdReward": false, "trial_id": "mdp_trial_16", "block": "test", "trialIndex": 19, "score": 24.8, "costs": -4.199999999999999, "simulationMode": [null, null, null, null, null], "rewards": [1, -2, -2, -11, 43], "path": ["0", "0", "23", "24", "25", "26", "29"], "rt": [7933, 377, 209, 569, 2600], "actions": ["left", "left", "left", "up", "left"], "actionTimes": [9187, 10068, 10800, 11877, 14977], "queries": {"click": {"state": {"target": ["29", "25", "23"], "time": [2618, 5467, 7298]}, "edge": {"target": [], "time": []}}, "mouseover": {"state": {"target": ["12", "13", "12", "28", "26", "29", "25", "31", "31", "25", "25", "24", "25", "24", "23", "0"], "time": [1368, 2168, 2194, 2297, 2344, 2392, 2882, 2949, 4280, 4368, 4872, 4960, 5248, 5668, 6104, 7487]}, "edge": {"target": [], "time": []}}, "mouseout": {"state": {"target": ["19", "12", "12", "13", "12", "28", "26", "29", "29", "25", "31", "31", "25", "25", "24", "25", "25", "24", "23", "0"], "time": [840, 1024, 1384, 2184, 2201, 2328, 2368, 2627, 2849, 2899, 2966, 4320, 4408, 4904, 5200, 5528, 5653, 5886, 7471, 7505]}, "edge": {"target": [], "time": []}}}, "displayed_time": "15.50", "trialTime": 21919, "trial_type": "mouselab-mdp", "trial_index": 30, "time_elapsed": 809289, "internal_node_id": "0.0-4.0-1.0-15.0"}}, {"uniqueid": "w11243396:a64926463", "current_trial": 31, "dateTime": 1691142636034, "trialdata": {"revealed_states": [], "clicked_states": ["12", "21", "20", "16", "5", "9", "27", "29", "33", "25"], "num_clicks_accrued": [0, 0, 0, 0, 0, 0, 0, 0, 0, 0, 0, 0, 0], "stateRewards": ["", -1, 2, -6, 6, -82, -19, -39, -16, -83, 11, -33, -2, -2, 4, -6, -82, -1, -19, -6, -10, -67, -41, -2, 1, -7, 16, -23, -78, -52, 14, 31, -71, 74], "withholdReward": false, "trial_id": "mdp_trial_17", "block": "test", "trialIndex": 20, "score": 66, "costs": -14.000000000000002, "simulationMode": [null, null, null, null, null], "rewards": [-2, 1, -7, 14, 74], "path": ["0", "0", "23", "24", "25", "30", "33"], "rt": [22504, 120, 199, 79, 157], "actions": ["left", "left", "left", "down", "left"], "actionTimes": [24168, 24804, 25516, 26096, 26758], "queries": {"click": {"state": {"target": ["12", "21", "20", "16", "5", "9", "27", "29", "33", "25"], "time": [2869, 5372, 7323, 9365, 11411, 13571, 15603, 17484, 19355, 22293]}, "edge": {"target": [], "time": []}}, "mouseover": {"state": {"target": ["12", "12", "13", "14", "20", "21", "20", "20", "15", "16", "15", "7", "4", "5", "5", "11", "27", "4", "6", "6", "9", "27", "27", "29", "33", "33", "32", "31", "24", "25", "24"], "time": [2586, 2818, 3461, 4028, 4698, 5274, 5780, 7162, 8499, 8683, 9717, 10635, 10785, 10870, 11138, 11936, 12503, 12537, 12555, 12887, 13394, 14089, 14388, 17370, 17843, 18176, 19660, 21706, 21947, 22276, 22631]}, "edge": {"target": [], "time": []}}, "mouseout": {"state": {"target": ["0", "12", "12", "13", "14", "20", "21", "20", "20", "15", "16", "15", "7", "4", "5", "5", "11", "27", "4", "6", "6", "9", "27", "27", "29", "29", "33", "33", "32", "31", "24", "25"], "time": [1346, 2620, 3395, 4012, 4538, 5146, 5697, 5880, 7699, 8650, 9683, 9934, 10685, 10834, 10939, 11787, 11953, 12520, 12554, 12570, 12937, 13821, 14139, 16974, 17496, 17759, 17893, 19544, 21626, 21754, 22074, 22597]}, "edge": {"target": [], "time": []}}}, "displayed_time": "27.27", "trialTime": 28059, "trial_type": "mouselab-mdp", "trial_index": 31, "time_elapsed": 837524, "internal_node_id": "0.0-4.0-1.0-16.0"}}, {"uniqueid": "w11243396:a64926463", "current_trial": 32, "dateTime": 1691142652226, "trialdata": {"revealed_states": [], "clicked_states": ["21", "20", "12"], "num_clicks_accrued": [0, 0, 0, 0, 0, 0, 0, 0, 0, 0, 0, 0, 0], "stateRewards": ["", 2, -1, 5, 6, 10, 86, 55, 10, -45, 63, -71, 1, -2, 5, -8, -50, -72, 36, 15, 61, 12, 33, -1, -4, 6, 5, 79, -56, -21, -16, -87, 60, -81], "withholdReward": false, "trial_id": "mdp_trial_18", "block": "test", "trialIndex": 21, "score": 75.8, "costs": -4.199999999999999, "simulationMode": [null, null, null, null, null], "rewards": [1, -2, 5, 15, 61], "path": ["0", "0", "12", "13", "14", "19", "20"], "rt": [9542, 161, 100, 340, 90], "actions": ["right", "right", "right", "down", "right"], "actionTimes": [10948, 11614, 12221, 13077, 13678], "queries": {"click": {"state": {"target": ["21", "20", "12"], "time": [2063, 4304, 8513]}, "edge": {"target": [], "time": []}}, "mouseover": {"state": {"target": ["12", "22", "19", "21", "20", "17", "16", "25", "33", "30", "31", "22", "13", "12", "12", "13", "13"], "time": [1646, 1742, 1783, 1957, 3512, 4728, 4912, 5713, 5829, 6078, 6902, 7637, 7839, 8078, 8350, 8732, 10034]}, "edge": {"target": [], "time": []}}, "mouseout": {"state": {"target": ["24", "23", "12", "22", "19", "21", "20", "17", "16", "25", "33", "30", "31", "22", "13", "12", "12", "13"], "time": [542, 598, 1678, 1758, 1829, 2226, 4528, 4795, 5413, 5746, 6038, 6637, 7526, 7686, 8054, 8238, 8716, 8766]}, "edge": {"target": [], "time": []}}}, "displayed_time": "15.41", "trialTime": 16038, "trial_type": "mouselab-mdp", "trial_index": 32, "time_elapsed": 853716, "internal_node_id": "0.0-4.0-1.0-17.0"}}, {"uniqueid": "w11243396:a64926463", "current_trial": 33, "dateTime": 1691142677817, "trialdata": {"revealed_states": [], "clicked_states": ["32", "33", "29", "11", "5", "18", "22", "21"], "num_clicks_accrued": [0, 0, 0, 0, 0, 0, 0, 0, 0, 0, 0, 0, 0], "stateRewards": ["", -2, 1, -3, -16, -39, -52, 30, -7, -41, -59, 11, 2, 1, 8, 2, -11, -26, -42, -13, 87, -59, -48, -1, -1, -1, 16, -79, 31, 50, -1, -84, 34, -82], "withholdReward": false, "trial_id": "mdp_trial_19", "block": "test", "trialIndex": 22, "score": 51.8, "costs": -11.200000000000001, "simulationMode": [null, null, null, null, null], "rewards": [-1, -1, -1, 16, 50], "path": ["0", "0", "23", "24", "25", "26", "29"], "rt": [20104, 17, 64, 424, 56], "actions": ["left", "left", "left", "up", "left"], "actionTimes": [21350, 21881, 22461, 23388, 23955], "queries": {"click": {"state": {"target": ["32", "33", "29", "11", "5", "18", "22", "21"], "time": [3240, 5352, 7656, 9489, 11769, 13728, 16304, 18402]}, "edge": {"target": [], "time": []}}, "mouseover": {"state": {"target": ["0", "32", "31", "30", "33", "29", "27", "11", "9", "5", "3", "10", "16", "15", "18", "23", "24", "25", "29", "29", "24", "23", "19", "19", "22", "24", "29", "26", "0", "21", "0", "26", "29", "26", "24", "24"], "time": [1879, 2631, 4412, 4479, 4746, 6347, 7915, 8366, 10552, 11583, 12104, 12170, 12470, 12803, 12904, 14122, 14174, 14239, 14455, 15744, 15775, 15786, 15855, 16031, 16104, 16490, 16624, 17903, 17943, 18222, 18609, 18642, 18876, 20362, 20455, 20710]}, "edge": {"target": [], "time": []}}, "mouseout": {"state": {"target": ["13", "22", "0", "32", "31", "30", "33", "29", "27", "11", "9", "5", "3", "10", "16", "15", "18", "23", "24", "25", "29", "29", "24", "23", "19", "19", "22", "24", "29", "26", "0", "22", "21", "0", "26", "29", "26", "24"], "time": [119, 342, 1903, 3428, 4428, 4595, 5630, 7865, 7982, 10201, 11495, 12036, 12120, 12203, 12737, 12837, 13938, 14155, 14205, 14338, 15156, 15751, 15785, 15792, 15863, 16079, 16440, 16507, 17897, 17910, 17952, 17975, 18559, 18626, 18661, 20343, 20383, 20466]}, "edge": {"target": [], "time": []}}}, "displayed_time": "24.48", "trialTime": 25431, "trial_type": "mouselab-mdp", "trial_index": 33, "time_elapsed": 879307, "internal_node_id": "0.0-4.0-1.0-18.0"}}, {"uniqueid": "w11243396:a64926463", "current_trial": 34, "dateTime": 1691142693991, "trialdata": {"revealed_states": [], "clicked_states": ["17", "21", "32"], "num_clicks_accrued": [0, 0, 0, 0, 0, 0, 0, 0, 0, 0, 0, 0, 0], "stateRewards": ["", 1, 1, -6, -2, 7, 77, 3, 16, -16, 66, 31, -1, 3, -8, -6, 33, -50, -48, 7, -60, -66, 36, 2, -3, 3, -7, -12, -61, -79, -4, 8, 74, -70], "withholdReward": false, "trial_id": "mdp_trial_20", "block": "test", "trialIndex": 23, "score": 67.8, "costs": -4.199999999999999, "simulationMode": [null, null, null, null, null], "rewards": [2, -3, 3, -4, 74], "path": ["0", "0", "23", "24", "25", "30", "32"], "rt": [7801, 519, 1017, 844, 685], "actions": ["left", "left", "left", "down", "down"], "actionTimes": [8829, 9860, 11392, 12754, 13946], "queries": {"click": {"state": {"target": ["17", "21", "32"], "time": [1854, 4118, 5926]}, "edge": {"target": [], "time": []}}, "mouseover": {"state": {"target": ["12", "15", "17", "17", "14", "19", "21", "19", "13", "12", "24", "25", "33", "32", "33", "29", "26", "28", "1"], "time": [1420, 1517, 1548, 1748, 2199, 3429, 3965, 4385, 4452, 4535, 4635, 4653, 4702, 4918, 6303, 6771, 8165, 8192, 8236]}, "edge": {"target": [], "time": []}}, "mouseout": {"state": {"target": ["24", "23", "0", "12", "15", "17", "17", "17", "14", "19", "21", "19", "13", "12", "24", "25", "33", "32", "33", "29", "26", "28", "1"], "time": [613, 685, 844, 1453, 1533, 1581, 1925, 2151, 2349, 3478, 4335, 4418, 4502, 4551, 4652, 4685, 4769, 6203, 6387, 8148, 8181, 8206, 8248]}, "edge": {"target": [], "time": []}}}, "displayed_time": "15.03", "trialTime": 16019, "trial_type": "mouselab-mdp", "trial_index": 34, "time_elapsed": 895480, "internal_node_id": "0.0-4.0-1.0-19.0"}}, {"uniqueid": "w11243396:a64926463", "current_trial": 35, "dateTime": 1691142710510, "trialdata": {"revealed_states": [], "clicked_states": ["11", "5", "18", "31"], "num_clicks_accrued": [0, 0, 0, 0, 0, 0, 0, 0, 0, 0, 0, 0, 0], "stateRewards": ["", -2, 2, 2, -6, 9, 37, 50, -13, -7, -18, -75, -2, -4, 4, 7, 23, -57, -66, -7, -81, -48, -76, 1, 1, -8, 1, 51, -2, 70, 14, 59, 71, -37], "withholdReward": false, "trial_id": "mdp_trial_21", "block": "test", "trialIndex": 24, "score": 61.4, "costs": -5.6, "simulationMode": [null, null, null, null, null], "rewards": [1, 1, -8, 14, 59], "path": ["0", "0", "23", "24", "25", "30", "31"], "rt": [10383, 692, 217, 111, 10], "actions": ["left", "left", "left", "down", "right"], "actionTimes": [11911, 13117, 13844, 14471, 14988], "queries": {"click": {"state": {"target": ["11", "5", "18", "31"], "time": [2469, 4743, 6813, 9133]}, "edge": {"target": [], "time": []}}, "mouseover": {"state": {"target": ["23", "26", "27", "11", "1", "6", "5", "16", "17", "15", "18", "13", "22", "31"], "time": [1604, 1987, 2099, 2371, 3216, 4476, 4635, 5083, 5116, 5367, 5467, 7135, 7202, 8924]}, "edge": {"target": [], "time": []}}, "mouseout": {"state": {"target": ["12", "0", "23", "26", "27", "11", "1", "6", "5", "5", "16", "17", "15", "18", "13", "22", "31"], "time": [988, 1588, 1620, 2060, 2156, 2765, 3281, 4516, 4828, 5033, 5100, 5333, 5417, 7102, 7168, 7236, 9338]}, "edge": {"target": [], "time": []}}}, "displayed_time": "15.53", "trialTime": 16354, "trial_type": "mouselab-mdp", "trial_index": 35, "time_elapsed": 912000, "internal_node_id": "0.0-4.0-1.0-20.0"}}, {"uniqueid": "w11243396:a64926463", "current_trial": 36, "dateTime": 1691142735529, "trialdata": {"revealed_states": [], "clicked_states": ["21", "17", "32", "29", "11", "5", "18", "20"], "num_clicks_accrued": [0, 0, 0, 0, 0, 0, 0, 0, 0, 0, 0, 0, 0], "stateRewards": ["", -1, 4, -6, -5, -22, -38, -38, -2, -56, 88, 14, -1, -1, -7, -6, 61, -60, 21, 11, 57, 31, -30, -2, -2, 6, -9, -44, -70, -44, -15, 34, 16, -78], "withholdReward": false, "trial_id": "mdp_trial_22", "block": "test", "trialIndex": 25, "score": 47.8, "costs": -11.200000000000001, "simulationMode": [null, null, null, null, null], "rewards": [-1, -1, -7, 11, 57], "path": ["0", "0", "12", "13", "14", "19", "20"], "rt": [19508, 329, 155, 98, 44], "actions": ["right", "right", "right", "down", "right"], "actionTimes": [20655, 21500, 22177, 22788, 23351], "queries": {"click": {"state": {"target": ["21", "17", "32", "29", "11", "5", "18", "20"], "time": [1869, 4365, 6605, 9005, 11485, 13493, 15541, 17605]}, "edge": {"target": [], "time": []}}, "mouseover": {"state": {"target": ["0", "21", "20", "17", "14", "13", "12", "32", "30", "29", "26", "23", "0", "1", "8", "11", "2", "2", "3", "9", "5", "6", "15", "18", "13", "19", "20", "19"], "time": [1548, 1676, 3988, 4204, 5005, 6211, 6259, 6428, 6890, 8836, 9992, 10027, 10044, 10924, 11172, 11372, 11728, 12095, 12181, 12678, 13075, 13780, 14430, 15404, 15965, 16148, 17412, 19667]}, "edge": {"target": [], "time": []}}, "mouseout": {"state": {"target": ["0", "0", "21", "20", "17", "14", "13", "12", "32", "30", "29", "26", "23", "0", "1", "8", "11", "2", "2", "3", "9", "5", "5", "6", "15", "18", "13", "19", "20", "19"], "time": [967, 1557, 2069, 4084, 4854, 6149, 6244, 6268, 6806, 6940, 9976, 10010, 10043, 10060, 10956, 11339, 11677, 11761, 12145, 12211, 12979, 13583, 13746, 13813, 14714, 15933, 15998, 16282, 18784, 19691]}, "edge": {"target": [], "time": []}}}, "displayed_time": "23.86", "trialTime": 24861, "trial_type": "mouselab-mdp", "trial_index": 36, "time_elapsed": 937019, "internal_node_id": "0.0-4.0-1.0-21.0"}}, {"uniqueid": "w11243396:a64926463", "current_trial": 37, "dateTime": 1691142762715, "trialdata": {"revealed_states": [], "clicked_states": ["24", "32"], "num_clicks_accrued": [0, 0, 0, 0, 0, 0, 0, 0, 0, 0, 0, 0, 0], "stateRewards": ["", 2, -2, 7, -11, -76, -65, -23, 16, -58, 30, 81, 1, 2, 7, 14, 9, 55, -2, 6, 11, -15, 31, -1, -1, -3, 2, 15, 2, 46, 15, 18, 45, -34], "withholdReward": false, "trial_id": "mdp_trial_23", "block": "test", "trialIndex": 26, "score": 52.2, "costs": -2.8, "simulationMode": [null, null, null, null, null], "rewards": [-1, -1, -3, 15, 45], "path": ["0", "0", "23", "24", "25", "30", "32"], "rt": [7737, 64, 42, 2, 137], "actions": ["left", "left", "left", "down", "down"], "actionTimes": [11100, 11675, 12236, 12747, 13399], "queries": {"click": {"state": {"target": ["24", "32"], "time": [5805, 7747]}, "edge": {"target": [], "time": []}}, "mouseover": {"state": {"target": ["0", "24", "24", "32", "33", "30", "31"], "time": [3649, 5481, 5738, 6905, 8240, 10409, 10473]}, "edge": {"target": [], "time": []}}, "mouseout": {"state": {"target": ["20", "14", "13", "7", "7", "1", "0", "0", "1", "1", "0", "0", "24", "24", "32", "33", "30", "31", "31", "30", "33", "32"], "time": [914, 961, 1009, 1538, 2241, 2449, 2617, 2881, 2945, 3113, 3387, 3857, 5505, 6237, 8140, 10393, 10442, 10529, 14250, 14267, 14275, 19170]}, "edge": {"target": [], "time": []}}}, "displayed_time": "17.36", "trialTime": 27021, "trial_type": "mouselab-mdp", "trial_index": 37, "time_elapsed": 964205, "internal_node_id": "0.0-4.0-1.0-22.0"}}, {"uniqueid": "w11243396:a64926463", "current_trial": 38, "dateTime": 1691142780945, "trialdata": {"revealed_states": [], "clicked_states": ["25", "33", "21", "5", "11"], "num_clicks_accrued": [0, 0, 0, 0, 0, 0, 0, 0, 0, 0, 0, 0, 0], "stateRewards": ["", 1, -2, -2, 10, -31, -77, 35, 9, -47, 8, 48, -2, 1, -4, -3, -26, -50, 43, -11, 76, -38, 17, 1, -1, 6, 10, 15, -9, 12, -8, 85, 11, -55], "withholdReward": false, "trial_id": "mdp_trial_24", "block": "test", "trialIndex": 27, "score": 47, "costs": -7, "simulationMode": [null, null, null, null, null], "rewards": [1, -2, -2, 9, 48], "path": ["0", "0", "1", "2", "3", "8", "11"], "rt": [11931, 361, 94, 235, 175], "actions": ["up", "up", "up", "left", "left"], "actionTimes": [13060, 13936, 14537, 15279, 15970], "queries": {"click": {"state": {"target": ["25", "33", "21", "5", "11"], "time": [2127, 4157, 5989, 7861, 9853]}, "edge": {"target": [], "time": []}}, "mouseover": {"state": {"target": ["1", "28", "25", "30", "33", "33", "32", "21", "21", "16", "4", "5", "9", "11", "8", "3", "4", "3", "9", "3", "4", "16", "7", "2", "2"], "time": [1590, 1827, 1939, 2580, 2696, 3214, 4499, 5382, 5667, 6517, 7068, 7284, 8736, 9086, 10037, 10087, 10154, 10389, 10771, 11907, 11931, 12011, 12163, 12195, 12492]}, "edge": {"target": [], "time": []}}, "mouseout": {"state": {"target": ["0", "1", "28", "25", "30", "33", "33", "32", "21", "21", "16", "4", "5", "9", "11", "8", "3", "4", "3", "9", "3", "4", "16", "7", "2", "2", "1", "0"], "time": [939, 1747, 1835, 2547, 2680, 2764, 4432, 5015, 5433, 6059, 6550, 7201, 8152, 8987, 9916, 10070, 10120, 10354, 10404, 11859, 11917, 11940, 12099, 12182, 12204, 17259, 17284, 17307]}, "edge": {"target": [], "time": []}}}, "displayed_time": "16.48", "trialTime": 18052, "trial_type": "mouselab-mdp", "trial_index": 38, "time_elapsed": 982434, "internal_node_id": "0.0-4.0-1.0-23.0"}}, {"uniqueid": "w11243396:a64926463", "current_trial": 39, "dateTime": 1691142804500, "trialdata": {"revealed_states": [], "clicked_states": ["21", "17", "5", "27", "26", "25"], "num_clicks_accrued": [0, 0, 0, 0, 0, 0, 0, 0, 0, 0, 0, 0, 0], "stateRewards": ["", -2, 2, -1, -6, 22, 6, 6, -5, 70, -42, 65, 1, 3, 5, -6, -67, -9, 3, 14, 7, -62, -13, -2, 4, 1, 16, 42, -21, -52, -8, 32, 53, 81], "withholdReward": false, "trial_id": "mdp_trial_25", "block": "test", "trialIndex": 28, "score": 52.6, "costs": -8.4, "simulationMode": [null, null, null, null, null], "rewards": [-2, 4, 1, 16, 42], "path": ["0", "0", "23", "24", "25", "26", "27"], "rt": [13981, 70, 373, 106, 120], "actions": ["left", "left", "left", "up", "up"], "actionTimes": [19214, 19805, 20692, 21308, 21939], "queries": {"click": {"state": {"target": ["21", "17", "5", "27", "26", "25"], "time": [6037, 7909, 9757, 11766, 15637, 17285]}, "edge": {"target": [], "time": []}}, "mouseover": {"state": {"target": ["22", "19", "21", "17", "16", "6", "4", "5", "11", "27", "26", "29", "29", "26", "24", "24", "25", "24"], "time": [5555, 5612, 5827, 6804, 8255, 8372, 8539, 8855, 10325, 10608, 14779, 14891, 15052, 15566, 15946, 16597, 16931, 17765]}, "edge": {"target": [], "time": []}}, "mouseout": {"state": {"target": ["0", "1", "13", "13", "12", "0", "22", "19", "21", "17", "16", "6", "4", "5", "11", "27", "26", "29", "29", "26", "24", "24", "25", "24"], "time": [723, 1403, 1515, 4979, 5043, 5484, 5587, 5692, 6269, 8188, 8272, 8405, 8622, 10074, 10458, 14740, 14820, 14955, 15171, 15913, 15996, 16680, 17732, 23251]}, "edge": {"target": [], "time": []}}}, "displayed_time": "22.45", "trialTime": 23375, "trial_type": "mouselab-mdp", "trial_index": 39, "time_elapsed": 1005989, "internal_node_id": "0.0-4.0-1.0-24.0"}}, {"uniqueid": "w11243396:a64926463", "current_trial": 40, "dateTime": 1691142828421, "trialdata": {"revealed_states": [], "clicked_states": ["32", "33", "29", "11", "5", "6", "16", "14"], "num_clicks_accrued": [0, 0, 0, 0, 0, 0, 0, 0, 0, 0, 0, 0, 0], "stateRewards": ["", 2, 3, 3, 10, 19, -21, 6, 9, 54, 68, 16, 2, 2, -6, -8, 40, -2, -75, -2, -42, 55, 59, -1, 2, 4, -14, 11, -34, -30, -6, 61, -53, 13], "withholdReward": false, "trial_id": "mdp_trial_26", "block": "test", "trialIndex": 29, "score": 18.799999999999997, "costs": -11.200000000000001, "simulationMode": [null, null, null, null, null], "rewards": [2, 2, -6, -8, 40], "path": ["0", "0", "12", "13", "14", "15", "16"], "rt": [18688, 305, 265, 27, 93], "actions": ["right", "right", "right", "up", "up"], "actionTimes": [19821, 20636, 21413, 21959, 22575], "queries": {"click": {"state": {"target": ["32", "33", "29", "11", "5", "6", "16", "14"], "time": [1896, 4209, 6125, 8525, 10893, 13054, 15453, 18005]}, "edge": {"target": [], "time": []}}, "mouseover": {"state": {"target": ["23", "31", "32", "31", "33", "29", "29", "26", "11", "8", "4", "5", "6", "16", "17", "14", "15"], "time": [1509, 1531, 1764, 3330, 3995, 4515, 4915, 6867, 8411, 9052, 10516, 10759, 11437, 15187, 15843, 17707, 18278]}, "edge": {"target": [], "time": []}}, "mouseout": {"state": {"target": ["0", "23", "31", "32", "31", "32", "33", "29", "29", "29", "26", "11", "8", "4", "5", "6", "16", "16", "17", "14"], "time": [1500, 1516, 1587, 2079, 3402, 3884, 4398, 4665, 6253, 6767, 8068, 9036, 9085, 10620, 11288, 13641, 15548, 15826, 15859, 18195]}, "edge": {"target": [], "time": []}}}, "displayed_time": "23.08", "trialTime": 23752, "trial_type": "mouselab-mdp", "trial_index": 40, "time_elapsed": 1029911, "internal_node_id": "0.0-4.0-1.0-25.0"}}, {"uniqueid": "w11243396:a64926463", "current_trial": 41, "dateTime": 1691142850639, "trialdata": {"revealed_states": [], "clicked_states": ["21", "17", "29", "26", "24", "23", "25"], "num_clicks_accrued": [0, 0, 0, 0, 0, 0, 0, 0, 0, 0, 0, 0, 0], "stateRewards": ["", 1, -3, 4, 13, -72, 52, 5, 5, -58, 5, 14, 2, 1, 3, -14, -86, -4, 73, 6, -58, -50, 49, 2, -3, -4, 2, 33, -41, 42, -11, 81, 45, 53], "withholdReward": false, "trial_id": "mdp_trial_27", "block": "test", "trialIndex": 30, "score": 29.2, "costs": -9.8, "simulationMode": [null, null, null, null, null], "rewards": [2, -3, -4, 2, 42], "path": ["0", "0", "23", "24", "25", "26", "29"], "rt": [15953, 329, 44, 557, 62], "actions": ["left", "left", "left", "up", "left"], "actionTimes": [17822, 18678, 19244, 20307, 20880], "queries": {"click": {"state": {"target": ["21", "17", "29", "26", "24", "23", "25"], "time": [2668, 4854, 7188, 10031, 12140, 14092, 15964]}, "edge": {"target": [], "time": []}}, "mouseover": {"state": {"target": ["22", "21", "17", "17", "15", "18", "1", "29", "33", "33", "25", "26", "25", "26", "25", "24", "23", "25", "0"], "time": [2346, 2483, 2982, 4610, 5151, 5201, 6786, 7051, 7570, 7887, 9387, 9643, 9738, 9970, 10324, 11987, 12575, 14744, 16262]}, "edge": {"target": [], "time": []}}, "mouseout": {"state": {"target": ["15", "18", "0", "0", "22", "21", "17", "17", "15", "18", "1", "29", "33", "33", "25", "26", "25", "26", "25", "24", "23", "24", "25", "24", "23"], "time": [554, 906, 1202, 2227, 2395, 2676, 2999, 5134, 5168, 6755, 6803, 7470, 7587, 9331, 9490, 9699, 9899, 10223, 11915, 12558, 14494, 14543, 16146, 16195, 16245]}, "edge": {"target": [], "time": []}}}, "displayed_time": "21.40", "trialTime": 22049, "trial_type": "mouselab-mdp", "trial_index": 41, "time_elapsed": 1052128, "internal_node_id": "0.0-4.0-1.0-26.0"}}, {"uniqueid": "w11243396:a64926463", "current_trial": 42, "dateTime": 1691142866834, "trialdata": {"revealed_states": [], "clicked_states": ["29", "33", "21"], "num_clicks_accrued": [0, 0, 0, 0, 0, 0, 0, 0, 0, 0, 0, 0, 0], "stateRewards": ["", 1, 3, -2, 15, 51, 15, -19, 11, 67, -45, -73, 2, 4, -2, -13, 36, 9, -28, 10, -30, 31, 16, 1, 2, -1, -16, 14, -22, 36, -1, 88, -5, 45], "withholdReward": false, "trial_id": "mdp_trial_28", "block": "test", "trialIndex": 31, "score": 41.8, "costs": -4.199999999999999, "simulationMode": [null, null, null, null, null], "rewards": [1, 2, -1, -1, 45], "path": ["0", "0", "23", "24", "25", "30", "33"], "rt": [7727, 3, 198, 141, 192], "actions": ["left", "left", "left", "down", "left"], "actionTimes": [9212, 9727, 10438, 11099, 11801], "queries": {"click": {"state": {"target": ["29", "33", "21"], "time": [2360, 4485, 6309]}, "edge": {"target": [], "time": []}}, "mouseover": {"state": {"target": ["12", "13", "28", "26", "29", "26", "23", "0", "31", "33", "33", "32", "19", "21", "30", "30", "25"], "time": [1859, 1955, 2115, 2156, 2235, 2532, 2565, 2583, 3399, 3917, 4217, 4734, 5051, 5502, 6919, 7320, 7488]}, "edge": {"target": [], "time": []}}, "mouseout": {"state": {"target": ["0", "0", "12", "13", "28", "26", "29", "26", "23", "0", "31", "33", "33", "32", "19", "21", "30", "30"], "time": [468, 1323, 1916, 1988, 2141, 2203, 2436, 2548, 2581, 2599, 3415, 4064, 4684, 4767, 5134, 6736, 7053, 7436]}, "edge": {"target": [], "time": []}}}, "displayed_time": "15.49", "trialTime": 16005, "trial_type": "mouselab-mdp", "trial_index": 42, "time_elapsed": 1068324, "internal_node_id": "0.0-4.0-1.0-27.0"}}, {"uniqueid": "w11243396:a64926463", "current_trial": 43, "dateTime": 1691142885290, "trialdata": {"revealed_states": [], "clicked_states": ["21", "16", "17", "18", "14"], "num_clicks_accrued": [0, 0, 0, 0, 0, 0, 0, 0, 0, 0, 0, 0, 0], "stateRewards": ["", 2, -3, -8, 14, -7, -51, 73, 2, 36, 36, -43, -1, 3, -4, 1, 6, 87, -65, 15, 61, -42, -83, -1, 3, -2, -7, 30, -48, 35, 13, 26, 60, 78], "withholdReward": false, "trial_id": "mdp_trial_29", "block": "test", "trialIndex": 32, "score": 79, "costs": -7, "simulationMode": [null, null, null, null, null], "rewards": [-1, 3, -4, 1, 87], "path": ["0", "0", "12", "13", "14", "15", "17"], "rt": [11914, 37, 84, 843, 97], "actions": ["right", "right", "right", "up", "right"], "actionTimes": [13748, 14298, 14894, 16238, 16844], "queries": {"click": {"state": {"target": ["21", "16", "17", "18", "14"], "time": [2725, 4976, 6917, 10029, 11829]}, "edge": {"target": [], "time": []}}, "mouseover": {"state": {"target": ["12", "22", "19", "21", "17", "16", "17", "15", "18", "1", "29", "29", "26", "13", "18", "14"], "time": [2267, 2308, 2324, 2652, 4715, 4844, 5384, 7103, 7120, 7152, 7386, 7587, 9086, 9380, 9635, 10556]}, "edge": {"target": [], "time": []}}, "mouseout": {"state": {"target": ["25", "24", "23", "0", "12", "22", "19", "21", "17", "16", "17", "15", "18", "1", "29", "29", "26", "13", "18", "14"], "time": [499, 547, 580, 627, 2283, 2316, 2343, 3582, 4725, 5301, 7086, 7119, 7136, 7171, 7419, 9076, 9093, 9433, 10506, 12325]}, "edge": {"target": [], "time": []}}}, "displayed_time": "17.36", "trialTime": 18261, "trial_type": "mouselab-mdp", "trial_index": 43, "time_elapsed": 1086779, "internal_node_id": "0.0-4.0-1.0-28.0"}}, {"uniqueid": "w11243396:a64926463", "current_trial": 44, "dateTime": 1691142913206, "trialdata": {"revealed_states": [], "clicked_states": ["13", "21", "16", "32"], "num_clicks_accrued": [0, 0, 0, 0, 0, 0, 0, 0, 0, 0, 0, 0, 0], "stateRewards": ["", -2, 4, -3, -13, 63, -36, 62, 11, 78, 34, -51, 2, -2, 8, -6, -40, -18, 31, 9, 64, 39, 79, 1, 4, -4, 15, -12, 76, 73, -10, -77, 86, -4], "withholdReward": false, "trial_id": "mdp_trial_30", "block": "test", "trialIndex": 33, "score": 71.4, "costs": -5.6, "simulationMode": [null, null, null, null, null], "rewards": [1, 4, -4, -10, 86], "path": ["0", "0", "23", "24", "25", "30", "32"], "rt": [11973, 51, 89, 11, 135], "actions": ["left", "left", "left", "down", "down"], "actionTimes": [15923, 16478, 17084, 17607, 18247], "queries": {"click": {"state": {"target": ["13", "21", "16", "32"], "time": [6338, 8586, 10672, 12600]}, "edge": {"target": [], "time": []}}, "mouseover": {"state": {"target": ["0", "12", "12", "13", "19", "21", "20", "20", "21", "20", "16", "7", "7", "16", "18", "0", "32", "21", "31", "30", "25", "24", "23"], "time": [5162, 5230, 5625, 6270, 6717, 6851, 7851, 8039, 8247, 8852, 9219, 9253, 9402, 9586, 10937, 11021, 11605, 13724, 14694, 14879, 15071, 15327, 15367]}, "edge": {"target": [], "time": []}}, "mouseout": {"state": {"target": ["14", "13", "12", "0", "0", "12", "12", "13", "19", "21", "20", "20", "21", "20", "16", "7", "7", "16", "18", "0", "32", "21", "31", "30", "25", "24", "23", "30", "33", "25", "1"], "time": [702, 758, 863, 4455, 5184, 5319, 5888, 6616, 6767, 7818, 7934, 8094, 8785, 8885, 9236, 9270, 9436, 10888, 10955, 11054, 13306, 14463, 14712, 14990, 15303, 15351, 19094, 19126, 19135, 25014, 25031]}, "edge": {"target": [], "time": []}}}, "displayed_time": "18.76", "trialTime": 27741, "trial_type": "mouselab-mdp", "trial_index": 44, "time_elapsed": 1114696, "internal_node_id": "0.0-4.0-1.0-29.0"}}, {"uniqueid": "w11243396:a64926463", "current_trial": 45, "dateTime": 1691142929720, "trialdata": {"revealed_states": [], "clicked_states": ["32"], "num_clicks_accrued": [0, 0, 0, 0, 0, 0, 0, 0, 0, 0, 0, 0, 0], "stateRewards": ["", 2, 3, 8, 11, 25, -80, 6, -4, -56, 84, -23, -2, -4, -3, 4, -51, -9, -61, -15, -64, 67, -35, 1, -1, -7, -6, 83, 59, -15, 12, -79, 56, 41], "withholdReward": false, "trial_id": "mdp_trial_31", "block": "test", "trialIndex": 34, "score": 59.6, "costs": -1.4, "simulationMode": [null, null, null, null, null], "rewards": [1, -1, -7, 12, 56], "path": ["0", "0", "23", "24", "25", "30", "32"], "rt": [5511, 1408, 292, 339, 730], "actions": ["left", "left", "left", "down", "down"], "actionTimes": [7170, 9096, 9898, 10746, 11987], "queries": {"click": {"state": {"target": ["32"], "time": [3354]}, "edge": {"target": [], "time": []}}, "mouseover": {"state": {"target": ["0", "23", "24", "32", "31", "24", "10", "8", "9", "28", "31"], "time": [2553, 2794, 2857, 3168, 3681, 3700, 4416, 4451, 4683, 5816, 6201]}, "edge": {"target": [], "time": []}}, "mouseout": {"state": {"target": ["0", "0", "23", "24", "32", "31", "24", "10", "8", "9", "28", "31"], "time": [2449, 2723, 2841, 2869, 3616, 3698, 3716, 4433, 4483, 5746, 5827, 6256]}, "edge": {"target": [], "time": []}}}, "displayed_time": "15.66", "trialTime": 16328, "trial_type": "mouselab-mdp", "trial_index": 45, "time_elapsed": 1131209, "internal_node_id": "0.0-4.0-1.0-30.0"}}, {"uniqueid": "w11243396:a64926463", "current_trial": 46, "dateTime": 1691142947463, "trialdata": {"revealed_states": [], "clicked_states": ["20", "16", "5"], "num_clicks_accrued": [0, 0, 0, 0, 0, 0, 0, 0, 0, 0, 0, 0, 0], "stateRewards": ["", -2, 1, -5, 2, -68, 80, 33, 10, 67, -59, 20, -1, -3, 3, 14, 74, -2, 24, -16, 63, 80, 46, -1, 4, 6, 12, 83, -38, -43, -4, 43, 14, -79], "withholdReward": false, "trial_id": "mdp_trial_32", "block": "test", "trialIndex": 35, "score": 82.8, "costs": -4.199999999999999, "simulationMode": [null, null, null, null, null], "rewards": [-1, -3, 3, 14, 74], "path": ["0", "0", "12", "13", "14", "15", "16"], "rt": [11389, 220, 103, 296, 382], "actions": ["right", "right", "right", "up", "up"], "actionTimes": [12252, 12978, 13594, 14406, 15292], "queries": {"click": {"state": {"target": ["20", "16", "5"], "time": [2349, 6286, 9485]}, "edge": {"target": [], "time": []}}, "mouseover": {"state": {"target": ["12", "19", "20", "20", "19", "22", "31", "30", "33", "30", "31", "22", "13", "12", "18", "16", "20", "14", "7", "4", "5", "6", "15", "14", "14"], "time": [1779, 1868, 1947, 2116, 2697, 2730, 2913, 2982, 3247, 4828, 4847, 5011, 5171, 5284, 5979, 6107, 7034, 8739, 8995, 9131, 9332, 9720, 10137, 10204, 10521]}, "edge": {"target": [], "time": []}}, "mouseout": {"state": {"target": ["0", "12", "19", "20", "20", "19", "22", "31", "30", "33", "30", "31", "22", "13", "12", "18", "16", "20", "14", "7", "4", "5", "6", "15", "14"], "time": [595, 1812, 1899, 1995, 2663, 2713, 2764, 2964, 3013, 4812, 4840, 4854, 5028, 5180, 5883, 6035, 6500, 8651, 8787, 9075, 9243, 9687, 9737, 10187, 10237]}, "edge": {"target": [], "time": []}}}, "displayed_time": "15.81", "trialTime": 17570, "trial_type": "mouselab-mdp", "trial_index": 46, "time_elapsed": 1148953, "internal_node_id": "0.0-4.0-1.0-31.0"}}, {"uniqueid": "w11243396:a64926463", "current_trial": 47, "dateTime": 1691142968972, "trialdata": {"revealed_states": [], "clicked_states": ["9", "5", "17", "21", "32", "33"], "num_clicks_accrued": [0, 0, 0, 0, 0, 0, 0, 0, 0, 0, 0, 0, 0], "stateRewards": ["", 2, -1, -2, -5, -47, -57, -33, -11, 31, -18, -72, -2, 1, -4, -8, -46, -53, -50, 15, -85, -9, 39, -2, -2, 1, 14, -1, -8, 53, -12, -41, -74, 62], "withholdReward": false, "trial_id": "mdp_trial_33", "block": "test", "trialIndex": 36, "score": 38.6, "costs": -8.4, "simulationMode": [null, null, null, null, null], "rewards": [-2, -2, 1, -12, 62], "path": ["0", "0", "23", "24", "25", "30", "33"], "rt": [15226, 109, 106, 487, 187], "actions": ["left", "left", "left", "down", "left"], "actionTimes": [16593, 17212, 17843, 18841, 19541], "queries": {"click": {"state": {"target": ["9", "5", "17", "21", "32", "33"], "time": [2333, 4506, 6534, 8837, 10734, 12901]}, "edge": {"target": [], "time": []}}, "mouseover": {"state": {"target": ["10", "8", "9", "5", "17", "20", "21", "32", "25", "29", "33", "29", "25", "24", "23", "24", "25", "24", "23", "0"], "time": [1852, 1909, 2123, 4027, 5172, 6891, 8515, 9360, 11129, 11346, 11930, 13348, 15211, 15249, 15315, 15429, 15500, 15957, 15999, 16059]}, "edge": {"target": [], "time": []}}, "mouseout": {"state": {"target": ["14", "13", "12", "10", "8", "9", "5", "17", "20", "21", "32", "25", "29", "33", "29", "25", "24", "23", "24", "25", "24", "23", "0"], "time": [723, 787, 819, 1884, 1972, 3170, 4756, 6791, 8387, 9027, 11045, 11162, 11546, 13047, 15171, 15228, 15277, 15402, 15459, 15947, 15980, 16013, 16107]}, "edge": {"target": [], "time": []}}}, "displayed_time": "20.05", "trialTime": 21334, "trial_type": "mouselab-mdp", "trial_index": 47, "time_elapsed": 1170461, "internal_node_id": "0.0-4.0-1.0-32.0"}}, {"uniqueid": "w11243396:a64926463", "current_trial": 48, "dateTime": 1691142992631, "trialdata": {"revealed_states": [], "clicked_states": ["29", "9", "16", "21", "22", "32", "31"], "num_clicks_accrued": [0, 0, 0, 0, 0, 0, 0, 0, 0, 0, 0, 0, 0], "stateRewards": ["", 2, -1, 1, 10, -52, 86, -22, -2, -14, -63, 38, 1, 3, 7, -8, 11, -32, -27, 9, -71, 40, -87, -2, -1, 5, -7, 12, 31, -57, 13, 86, -58, 29], "withholdReward": false, "trial_id": "mdp_trial_34", "block": "test", "trialIndex": 37, "score": 91.2, "costs": -9.8, "simulationMode": [null, null, null, null, null], "rewards": [-2, -1, 5, 13, 86], "path": ["0", "0", "23", "24", "25", "30", "31"], "rt": [17570, 85, 51, 15, 253], "actions": ["left", "left", "left", "down", "right"], "actionTimes": [18922, 19513, 20079, 20610, 21382], "queries": {"click": {"state": {"target": ["29", "9", "16", "21", "22", "32", "31"], "time": [2250, 4241, 6601, 8809, 11188, 13265, 15817]}, "edge": {"target": [], "time": []}}, "mouseover": {"state": {"target": ["23", "30", "29", "26", "12", "7", "4", "9", "6", "16", "6", "5", "6", "16", "17", "20", "21", "20", "19", "22", "31", "32", "21", "33", "24", "31", "19", "22", "23", "24", "25"], "time": [1844, 1951, 2127, 2459, 2577, 3144, 3193, 4056, 4611, 4928, 5412, 5680, 5992, 6505, 7265, 7898, 8241, 9516, 9801, 9900, 11435, 11618, 14004, 14621, 15384, 15728, 16289, 17920, 18175, 18215, 18330]}, "edge": {"target": [], "time": []}}, "mouseout": {"state": {"target": ["0", "23", "30", "29", "26", "12", "7", "4", "9", "6", "16", "6", "5", "6", "16", "17", "20", "21", "20", "19", "22", "31", "32", "22", "21", "33", "24", "31", "19", "22", "23", "24", "25", "24"], "time": [1159, 1858, 1999, 2442, 2476, 2860, 3177, 3444, 4478, 4628, 5379, 5463, 5921, 6072, 6980, 7815, 7964, 9066, 9783, 9850, 11318, 11501, 13453, 13737, 14488, 15223, 15568, 16089, 17896, 17951, 18192, 18279, 22704, 22784]}, "edge": {"target": [], "time": []}}}, "displayed_time": "21.90", "trialTime": 23479, "trial_type": "mouselab-mdp", "trial_index": 48, "time_elapsed": 1194120, "internal_node_id": "0.0-4.0-1.0-33.0"}}, {"uniqueid": "w11243396:a64926463", "current_trial": 49, "dateTime": 1691143015080, "trialdata": {"revealed_states": [], "clicked_states": ["32", "29", "21", "17"], "num_clicks_accrued": [0, 0, 0, 0, 0, 0, 0, 0, 0, 0, 0, 0, 0], "stateRewards": ["", 1, 2, 7, 13, 88, -71, 27, 3, 60, 5, -53, -2, 2, -6, -1, -30, 79, 47, -4, -14, 46, 68, 1, 1, 8, 10, -14, 86, 48, -11, -67, -44, 5], "withholdReward": false, "trial_id": "mdp_trial_35", "block": "test", "trialIndex": 38, "score": 66.4, "costs": -5.6, "simulationMode": [null, null, null, null, null], "rewards": [-2, 2, -6, -1, 79], "path": ["0", "0", "12", "13", "14", "15", "17"], "rt": [12667, 330, 107, 1033, 107], "actions": ["right", "right", "right", "up", "right"], "actionTimes": [13943, 14779, 15391, 16934, 17560], "queries": {"click": {"state": {"target": ["32", "29", "21", "17"], "time": [2098, 4570, 7931, 10626]}, "edge": {"target": [], "time": []}}, "mouseover": {"state": {"target": ["0", "31", "32", "23", "24", "25", "26", "29", "23", "0", "22", "31", "30", "33", "30", "31", "21", "25", "29", "26", "28", "1", "18", "15", "17", "17", "15", "6", "5", "6", "16", "15"], "time": [1745, 1825, 1953, 4144, 4168, 4265, 4377, 4496, 4890, 4924, 4973, 6140, 6157, 6640, 7514, 7529, 7712, 8159, 9601, 9924, 9952, 9986, 10033, 10097, 10265, 10489, 10961, 11279, 11846, 12785, 12848, 13139]}, "edge": {"target": [], "time": []}}, "mouseout": {"state": {"target": ["0", "0", "31", "32", "23", "24", "25", "26", "29", "23", "0", "22", "31", "30", "33", "30", "31", "21", "25", "29", "26", "28", "1", "18", "15", "17", "17", "15", "6", "5", "6", "16", "15", "13", "32"], "time": [1129, 1758, 1834, 2253, 4153, 4232, 4273, 4396, 4789, 4906, 4939, 4989, 6146, 6163, 7512, 7521, 7537, 8092, 8176, 9913, 9938, 9959, 9994, 10064, 10137, 10304, 10945, 11096, 11463, 12753, 12817, 12890, 13241, 18449, 18489]}, "edge": {"target": [], "time": []}}}, "displayed_time": "18.07", "trialTime": 22266, "trial_type": "mouselab-mdp", "trial_index": 49, "time_elapsed": 1216570, "internal_node_id": "0.0-4.0-1.0-34.0"}}, {"uniqueid": "w11243396:a64926463", "current_trial": 50, "dateTime": 1691143030981, "trialdata": {"revealed_states": [], "clicked_states": ["17", "20", "32"], "num_clicks_accrued": [0, 0, 0, 0, 0, 0, 0, 0, 0, 0, 0, 0, 0], "stateRewards": ["", 2, 3, 6, -12, -29, 12, 87, 4, 35, -30, 67, 2, 3, -5, -9, 44, 69, -8, 1, 45, -8, 28, -2, -1, -8, 11, -12, -5, 81, 9, 87, 82, 88], "withholdReward": false, "trial_id": "mdp_trial_36", "block": "test", "trialIndex": 39, "score": 75.8, "costs": -4.199999999999999, "simulationMode": [null, null, null, null, null], "rewards": [-2, -1, -8, 9, 82], "path": ["0", "0", "23", "24", "25", "30", "32"], "rt": [9342, 91, 201, 536, 280], "actions": ["left", "left", "left", "down", "down"], "actionTimes": [10401, 11011, 11718, 12770, 13566], "queries": {"click": {"state": {"target": ["17", "20", "32"], "time": [1965, 4085, 6741]}, "edge": {"target": [], "time": []}}, "mouseover": {"state": {"target": ["0", "12", "15", "17", "20", "20", "14", "22", "32", "31", "15", "17", "15", "0", "23", "31", "30", "25", "25", "24", "23", "0"], "time": [1211, 1582, 1667, 1876, 2356, 3090, 6044, 6107, 6612, 6877, 6944, 7244, 8902, 8971, 8999, 9044, 9140, 9270, 9628, 9700, 9728, 9756]}, "edge": {"target": [], "time": []}}, "mouseout": {"state": {"target": ["0", "12", "15", "17", "20", "20", "17", "14", "22", "32", "31", "15", "17", "15", "0", "23", "31", "30", "25", "25", "24", "23", "0"], "time": [1556, 1596, 1700, 2222, 2439, 4558, 5996, 6061, 6156, 6860, 6895, 6960, 8883, 8916, 8980, 9006, 9076, 9236, 9277, 9684, 9716, 9742, 14821]}, "edge": {"target": [], "time": []}}}, "displayed_time": "15.06", "trialTime": 15713, "trial_type": "mouselab-mdp", "trial_index": 50, "time_elapsed": 1232471, "internal_node_id": "0.0-4.0-1.0-35.0"}}, {"uniqueid": "w11243396:a64926463", "current_trial": 51, "dateTime": 1691143056107, "trialdata": {"revealed_states": [], "clicked_states": ["9", "29", "33", "32", "21", "20"], "num_clicks_accrued": [0, 0, 0, 0, 0, 0, 0, 0, 0, 0, 0, 0, 0], "stateRewards": ["", 1, 1, 5, 6, -29, -7, 3, -16, 9, -46, 65, -1, 4, -1, -16, -63, -77, -87, 8, 80, -50, 43, -1, -1, -5, 5, -38, -71, -62, 9, 81, -50, -52], "withholdReward": false, "trial_id": "mdp_trial_37", "block": "test", "trialIndex": 40, "score": 81.6, "costs": -8.4, "simulationMode": [null, null, null, null, null], "rewards": [-1, 4, -1, 8, 80], "path": ["0", "0", "12", "13", "14", "19", "20"], "rt": [14900, 73, 190, 268, 120], "actions": ["right", "right", "right", "down", "right"], "actionTimes": [20631, 21227, 21939, 22715, 23352], "queries": {"click": {"state": {"target": ["9", "29", "33", "32", "21", "20"], "time": [6246, 9406, 11454, 13398, 15263, 17189]}, "edge": {"target": [], "time": []}}, "mouseover": {"state": {"target": ["1", "10", "11", "9", "8", "10", "29", "33", "30", "32", "21", "20", "17", "14"], "time": [5828, 5868, 5932, 6156, 6514, 6581, 9228, 10551, 11719, 11986, 14038, 15940, 17607, 19757]}, "edge": {"target": [], "time": []}}, "mouseout": {"state": {"target": ["23", "28", "8", "11", "10", "2", "1", "1", "10", "11", "9", "8", "10", "29", "33", "30", "32", "21", "20", "17", "14", "14", "13"], "time": [268, 291, 1012, 4972, 5044, 5084, 5156, 5840, 5902, 6055, 6481, 6547, 6714, 10485, 11702, 11802, 13554, 15557, 17391, 19668, 19854, 24580, 24597]}, "edge": {"target": [], "time": []}}}, "displayed_time": "23.88", "trialTime": 24943, "trial_type": "mouselab-mdp", "trial_index": 51, "time_elapsed": 1257597, "internal_node_id": "0.0-4.0-1.0-36.0"}}, {"uniqueid": "w11243396:a64926463", "current_trial": 52, "dateTime": 1691143074231, "trialdata": {"revealed_states": [], "clicked_states": ["29", "25", "23", "26", "24"], "num_clicks_accrued": [0, 0, 0, 0, 0, 0, 0, 0, 0, 0, 0, 0, 0], "stateRewards": ["", 1, 2, 2, -15, -84, 28, -26, 13, 31, 86, 30, -2, 1, -1, -8, 66, -40, -1, -10, -32, 57, -17, 1, 2, -2, 9, -23, 77, 85, 12, -32, -62, -35], "withholdReward": false, "trial_id": "mdp_trial_38", "block": "test", "trialIndex": 41, "score": 88, "costs": -7, "simulationMode": [null, null, null, null, null], "rewards": [1, 2, -2, 9, 85], "path": ["0", "0", "23", "24", "25", "26", "29"], "rt": [11829, 118, 51, 472, 85], "actions": ["left", "left", "left", "up", "left"], "actionTimes": [12958, 13592, 14158, 15131, 15727], "queries": {"click": {"state": {"target": ["29", "25", "23", "26", "24"], "time": [1859, 5603, 7187, 9075, 10995]}, "edge": {"target": [], "time": []}}, "mouseover": {"state": {"target": ["23", "26", "29", "26", "23", "12", "22", "22", "21", "0", "23", "26", "25", "24", "23", "23", "26", "24", "12", "13", "14"], "time": [1513, 1569, 1681, 2044, 2078, 2128, 2178, 2662, 2963, 4682, 5017, 5233, 5457, 5782, 5815, 6174, 7850, 9335, 11238, 11271, 11321]}, "edge": {"target": [], "time": []}}, "mouseout": {"state": {"target": ["0", "23", "26", "29", "26", "23", "12", "22", "22", "21", "0", "23", "26", "25", "24", "23", "23", "26", "24", "23", "12", "13", "14"], "time": [1002, 1529, 1625, 2029, 2061, 2095, 2145, 2279, 2930, 3012, 4985, 5057, 5394, 5765, 5798, 5849, 7289, 9252, 11170, 11220, 11253, 11288, 11338]}, "edge": {"target": [], "time": []}}}, "displayed_time": "16.23", "trialTime": 17944, "trial_type": "mouselab-mdp", "trial_index": 52, "time_elapsed": 1275721, "internal_node_id": "0.0-4.0-1.0-37.0"}}, {"uniqueid": "w11243396:a64926463", "current_trial": 53, "dateTime": 1691143095401, "trialdata": {"revealed_states": [], "clicked_states": ["9", "5", "16", "17", "20", "14"], "num_clicks_accrued": [0, 0, 0, 0, 0, 0, 0, 0, 0, 0, 0, 0, 0], "stateRewards": ["", 1, -4, -6, 11, -20, 8, -30, 1, -38, 88, 42, 2, 3, 5, -12, -8, -74, 30, -8, 67, -19, 42, 2, -1, 4, 13, 50, -68, 2, -8, -15, 87, -46], "withholdReward": false, "trial_id": "mdp_trial_39", "block": "test", "trialIndex": 42, "score": 60.6, "costs": -8.4, "simulationMode": [null, null, null, null, null], "rewards": [2, 3, 5, -8, 67], "path": ["0", "0", "12", "13", "14", "19", "20"], "rt": [14597, 3, 57, 1252, 221], "actions": ["right", "right", "right", "down", "right"], "actionTimes": [15964, 16483, 17070, 18832, 19570], "queries": {"click": {"state": {"target": ["9", "5", "16", "17", "20", "14"], "time": [2182, 4175, 6016, 7926, 9775, 12599]}, "edge": {"target": [], "time": []}}, "mouseover": {"state": {"target": ["1", "2", "8", "9", "5", "6", "16", "16", "17", "20", "21", "19", "14", "19", "13", "12", "13"], "time": [1622, 1696, 1845, 1997, 2514, 4484, 4550, 4734, 6318, 8454, 10289, 12309, 12453, 12941, 14294, 14646, 14904]}, "edge": {"target": [], "time": []}}, "mouseout": {"state": {"target": ["14", "13", "12", "0", "1", "2", "8", "9", "5", "6", "16", "16", "17", "20", "21", "19", "14", "14", "19", "13", "12", "13", "19"], "time": [934, 980, 1125, 1221, 1669, 1741, 1893, 2415, 4417, 4534, 4600, 6268, 8221, 10173, 12261, 12357, 12679, 12908, 14110, 14309, 14877, 14933, 20893]}, "edge": {"target": [], "time": []}}}, "displayed_time": "20.08", "trialTime": 20982, "trial_type": "mouselab-mdp", "trial_index": 53, "time_elapsed": 1296891, "internal_node_id": "0.0-4.0-1.0-38.0"}}, {"uniqueid": "w11243396:a64926463", "current_trial": 54, "dateTime": 1691143128519, "trialdata": {"revealed_states": [], "clicked_states": ["32", "33", "29", "27", "11", "10", "7", "18", "17", "22", "20"], "num_clicks_accrued": [0, 0, 0, 0, 0, 0, 0, 0, 0, 0, 0, 0, 0], "stateRewards": ["", -2, 4, -7, -3, -76, 39, -28, 10, 14, 12, 60, 2, -3, 6, -10, 88, -34, -41, -3, 72, -13, -56, 1, 3, 2, 8, -51, 23, -57, 1, 14, -46, -16], "withholdReward": false, "trial_id": "mdp_trial_40", "block": "test", "trialIndex": 43, "score": 58.599999999999994, "costs": -15.400000000000002, "simulationMode": [null, null, null, null, null], "rewards": [2, -3, 6, -3, 72], "path": ["0", "0", "12", "13", "14", "19", "20"], "rt": [24893, 314, 184, 350, 140], "actions": ["right", "right", "right", "down", "right"], "actionTimes": [26047, 26869, 27555, 28422, 29063], "queries": {"click": {"state": {"target": ["32", "33", "29", "27", "11", "10", "7", "18", "17", "22", "20"], "time": [2202, 4137, 6002, 7858, 10161, 12378, 14362, 16306, 18137, 20225, 22655]}, "edge": {"target": [], "time": []}}, "mouseover": {"state": {"target": ["0", "31", "32", "31", "30", "33", "33", "29", "27", "27", "11", "10", "11", "10", "2", "2", "7", "18", "18", "16", "17", "19", "22", "12", "10", "18", "20", "13", "1", "11", "10", "2", "7", "15", "14", "19", "19"], "time": [1672, 1824, 2056, 3397, 3464, 3564, 3973, 4465, 6249, 6566, 8635, 9665, 10048, 11905, 12789, 13456, 13640, 14625, 14925, 16576, 17377, 18512, 18681, 20447, 22113, 22161, 22504, 22832, 22866, 23150, 23812, 25008, 25029, 25088, 25168, 25255, 25432]}, "edge": {"target": [], "time": []}}, "mouseout": {"state": {"target": ["0", "0", "31", "32", "31", "30", "33", "33", "29", "27", "27", "11", "10", "11", "10", "2", "11", "2", "7", "18", "18", "16", "17", "19", "22", "12", "10", "18", "20", "13", "1", "11", "10", "2", "7", "15", "14", "19", "19"], "time": [895, 1696, 1848, 2463, 3447, 3513, 3680, 4348, 6166, 6483, 7928, 9386, 9816, 11555, 12739, 12940, 13424, 13490, 14591, 14708, 16476, 17227, 18345, 18561, 20397, 20464, 22128, 22175, 22816, 22849, 22884, 23433, 24992, 25016, 25043, 25144, 25216, 25272, 30169]}, "edge": {"target": [], "time": []}}}, "displayed_time": "29.57", "trialTime": 32927, "trial_type": "mouselab-mdp", "trial_index": 54, "time_elapsed": 1330009, "internal_node_id": "0.0-4.0-1.0-39.0"}}, {"uniqueid": "w11243396:a64926463", "current_trial": 55, "dateTime": 1691143168255, "trialdata": {"rt": 39732, "response": {"Q0": "$-2 to $2", "Q1": "$-16 to $16", "Q2": "$-88 to $88", "Q3": "The cost was always $1.4.", "Q4": "Slightly motivated"}, "question_order": [0, 1, 2, 3, 4], "trial_id": "final_quiz_control", "trial_type": "survey-multi-choice", "trial_index": 55, "time_elapsed": 1369744, "internal_node_id": "0.0-4.0-2.0"}}, {"uniqueid": "w11243396:a64926463", "current_trial": 56, "dateTime": 1691143224246, "trialdata": {"rt": 55987, "response": {"Q0": "I revealed the value of the last node as it was the highest value and then worked from there. If it had a high last value, then I went with it (rather than revealing the whole path)", "Q1": "My strategy stayed the same throughout!", "Q2": "Not too difficult, mostly the speed of things"}, "trial_id": "self_report_control", "trial_type": "survey-text", "trial_index": 56, "time_elapsed": 1425736, "internal_node_id": "0.0-4.0-3.0"}}, {"uniqueid": "w11243396:a64926463", "current_trial": 57, "dateTime": 1691143249702, "trialdata": {"rt": 25454, "response": {"gender": "female", "age": "26", "colorblind": "0", "effort": "1"}, "trial_type": "survey-html-form", "trial_index": 57, "time_elapsed": 1451192, "internal_node_id": "0.0-4.0-4.0"}}, {"uniqueid": "w11243396:a64926463", "current_trial": 58, "dateTime": 1691143291038, "trialdata": {"rt": 41332, "response": {"Q0": "The instructions were very detailed and although I read them carefully, it still meant I got a question wrong. I think simplifying them would help a bit! ", "Q1": "Nope, I haven't.", "Q2": ""}, "trial_type": "survey-text", "trial_index": 58, "time_elapsed": 1492528, "internal_node_id": "0.0-4.0-5.0"}}, {"uniqueid": "w11243396:a64926463", "current_trial": 59, "dateTime": 1691143293118, "trialdata": {"rt": 2078, "stimulus": "Press 'Finish HIT' in order to reach the completion code. Once the data has been saved, you will receive the code either in this window or in the original browser window where you started the experiment.\n", "response": 0, "trial_type": "html-button-response", "trial_index": 59, "time_elapsed": 1494608, "internal_node_id": "0.0-5.0"}}, {"uniqueid": "w11243396:a64926463", "current_trial": 60, "dateTime": 1691143294121, "trialdata": {"success": true, "trial_type": "fullscreen", "trial_index": 60, "time_elapsed": 1495611, "internal_node_id": "0.0-6.0"}}], "questiondata": {"params": {"CODE": "C6DMOQA6", "MIN_TIME": 14, "inspectCost": 1, "startTime": "Fri Aug 04 2023 10:36:37 GMT+0100 (British Summer Time)", "bonusRate": 0.002, "variance": "1_2_4_8_44", "branching": "31123"}, "final_score": 2118.4}, "eventdata": [{"eventtype": "initialized", "value": null, "timestamp": 1691141797273, "interval": 0}, {"eventtype": "window_resize", "value": [1022, 767], "timestamp": 1691141797273, "interval": 0}, {"eventtype": "window_resize", "value": [1022, 767], "timestamp": 1691141797598, "interval": 325}, {"eventtype": "window_resize", "value": [1920, 1080], "timestamp": 1691141801239, "interval": 3641}, {"eventtype": "focus", "value": "off", "timestamp": 1691142032961, "interval": 231722}, {"eventtype": "focus", "value": "on", "timestamp": 1691142032961, "interval": 0}, {"eventtype": "window_resize", "value": [1022, 767], "timestamp": 1691142033165, "interval": 204}, {"eventtype": "window_resize", "value": [1920, 978], "timestamp": 1691142034375, "interval": 1210}, {"eventtype": "window_resize", "value": [1920, 1080], "timestamp": 1691142035475, "interval": 1100}, {"eventtype": "focus", "value": "off", "timestamp": 1691142061055, "interval": 25580}, {"eventtype": "focus", "value": "on", "timestamp": 1691142079032, "interval": 17977}, {"eventtype": "focus", "value": "off", "timestamp": 1691142087197, "interval": 8165}, {"eventtype": "focus", "value": "on", "timestamp": 1691142132815, "interval": 45618}, {"eventtype": "focus", "value": "off", "timestamp": 1691142145394, "interval": 12579}, {"eventtype": "focus", "value": "on", "timestamp": 1691142165673, "interval": 20279}, {"eventtype": "focus", "value": "off", "timestamp": 1691142213339, "interval": 47666}, {"eventtype": "focus", "value": "on", "timestamp": 1691142220671, "interval": 7332}, {"eventtype": "focus", "value": "off", "timestamp": 1691142251522, "interval": 30851}, {"eventtype": "focus", "value": "on", "timestamp": 1691142252450, "interval": 928}, {"eventtype": "focus", "value": "off", "timestamp": 1691142252453, "interval": 3}, {"eventtype": "focus", "value": "on", "timestamp": 1691142257348, "interval": 4895}, {"eventtype": "focus", "value": "off", "timestamp": 1691142604069, "interval": 346721}, {"eventtype": "focus", "value": "on", "timestamp": 1691142606253, "interval": 2184}, {"eventtype": "focus", "value": "off", "timestamp": 1691142750829, "interval": 144576}, {"eventtype": "focus", "value": "on", "timestamp": 1691142754788, "interval": 3959}, {"eventtype": "focus", "value": "off", "timestamp": 1691142756394, "interval": 1606}, {"eventtype": "focus", "value": "on", "timestamp": 1691142761349, "interval": 4955}, {"eventtype": "focus", "value": "off", "timestamp": 1691142905753, "interval": 144404}, {"eventtype": "focus", "value": "on", "timestamp": 1691142911061, "interval": 5308}, {"eventtype": "focus", "value": "off", "timestamp": 1691143012049, "interval": 100988}, {"eventtype": "focus", "value": "on", "timestamp": 1691143014043, "interval": 1994}, {"eventtype": "window_resize", "value": [1920, 978], "timestamp": 1691143293333, "interval": 279290}], "useragent": "Mozilla/5.0 (Windows NT 10.0; Win64; x64) AppleWebKit/537.36 (KHTML, like Gecko) Chrome/115.0.0.0 Safari/537.36 Edg/115.0.1901.188", "mode": "live", "id": "w11243396:a64926463", "status": "user data saved", "Beginhit": "2023-08-04 09:36:35.031469", "Beginexp": "2023-08-04 09:36:40.924982", "Endhit": "2023-08-04 10:01:33.671223", "psiturkStatus": 3, "browser": "<redacted>", "platform": "windows", "language": "en"}