{"condition": 0, "counterbalance": 0, "assignmentId": "a85434691", "workerId": "w16485452", "hitId": "h47984259", "currenttrial": 55, "bonus": 0, "data": [{"uniqueid": "w16485452:a85434691", "current_trial": 0, "dateTime": 1691143266246, "trialdata": {"success": true, "trial_type": "fullscreen", "trial_index": 0, "time_elapsed": 3176, "internal_node_id": "0.0-0.0"}}, {"uniqueid": "w16485452:a85434691", "current_trial": 1, "dateTime": 1691143284944, "trialdata": {"view_history": [{"page_index": 0, "viewing_time": 18692}], "rt": 18693, "trial_id": "exp_instructions_control", "trial_type": "instructions", "trial_index": 1, "time_elapsed": 21873, "internal_node_id": "0.0-1.0"}}, {"uniqueid": "w16485452:a85434691", "current_trial": 2, "dateTime": 1691143290110, "trialdata": {"success": true, "trial_type": "fullscreen", "trial_index": 2, "time_elapsed": 27039, "internal_node_id": "0.0-2.0-0.0"}}, {"uniqueid": "w16485452:a85434691", "current_trial": 3, "dateTime": 1691143522197, "trialdata": {"view_history": [{"page_index": 0, "viewing_time": 92505}, {"page_index": 1, "viewing_time": 69760}, {"page_index": 2, "viewing_time": 38737}, {"page_index": 3, "viewing_time": 31082}], "rt": 232084, "trial_id": "mouselab_instructions_1_control", "trial_type": "instructions", "trial_index": 3, "time_elapsed": 259127, "internal_node_id": "0.0-2.0-1.0"}}, {"uniqueid": "w16485452:a85434691", "current_trial": 4, "dateTime": 1691143551299, "trialdata": {"revealed_states": [], "clicked_states": ["12", "14", "19", "20", "17", "16", "6", "25", "32", "27", "28"], "num_clicks_accrued": [0, 0, 0, 0, 0, 0, 0, 0, 0, 0, 0, 0, 0], "stateRewards": ["", 10, -10, -10, -10, -10, -10, 10, 10, 10, 10, 10, 10, 10, 10, 10, -10, -10, 10, 10, -10, -10, 10, 10, 10, -10, 10, 10, 10, 10, -10, 10, -10, 10], "withholdReward": false, "trial_id": "practice_1", "block": "test", "trialIndex": 0, "score": 28, "costs": -5.5, "simulationMode": [null, null, null, null, null], "rewards": [10, 10, -10, 10, 10], "path": ["0", "0", "23", "24", "25", "26", "29"], "rt": [20798, 342, 303, 441, 562], "actions": ["left", "left", "left", "up", "left"], "actionTimes": [22169, 23016, 23826, 24772, 25844], "queries": {"click": {"state": {"target": ["12", "14", "19", "20", "17", "16", "6", "25", "32", "27", "28"], "time": [2455, 4535, 5810, 7161, 9214, 10760, 12307, 15782, 16878, 18089, 19908]}, "edge": {"target": [], "time": []}}, "mouseover": {"state": {"target": ["12", "13", "22", "14", "19", "20", "17", "17", "16", "6", "7", "2", "10", "28", "26", "25", "30", "32", "30", "26", "27", "28"], "time": [2101, 2915, 4015, 4242, 5264, 6864, 8624, 8877, 10264, 12032, 15177, 15198, 15215, 15247, 15282, 15593, 16356, 16665, 17480, 17664, 17895, 18914]}, "edge": {"target": [], "time": []}}, "mouseout": {"state": {"target": ["0", "12", "13", "22", "14", "19", "20", "17", "17", "16", "6", "7", "2", "10", "28", "26", "25", "25", "30", "32", "30", "25", "26", "27", "27"], "time": [2028, 2864, 3954, 4137, 5190, 6765, 8388, 8719, 9898, 11865, 14017, 15182, 15205, 15224, 15257, 15307, 15868, 16297, 16613, 17439, 17507, 17564, 17797, 18092, 18647]}, "edge": {"target": [], "time": []}}}, "displayed_time": "26.35", "trialTime": 28198, "trial_type": "mouselab-mdp", "trial_index": 4, "time_elapsed": 288228, "internal_node_id": "0.0-2.0-2.0-0.0"}}, {"uniqueid": "w16485452:a85434691", "current_trial": 5, "dateTime": 1691143582042, "trialdata": {"revealed_states": [], "clicked_states": ["1", "2", "3", "4", "5", "7", "8", "11", "9", "29", "33"], "num_clicks_accrued": [0, 0, 0, 0, 0, 0, 0, 0, 0, 0, 0, 0, 0], "stateRewards": ["", -10, 10, 10, -10, -10, -10, 10, -10, -10, 10, 10, 10, -10, 10, 10, 10, 10, -10, -10, 10, 10, 10, -10, 10, 10, -10, 10, -10, -10, -10, 10, 10, 10], "withholdReward": false, "trial_id": "practice_2", "block": "test", "trialIndex": 1, "score": 8, "costs": -5.5, "simulationMode": [null, null, null, null, null], "rewards": [-10, 10, 10, -10, 10], "path": ["0", "0", "23", "24", "25", "30", "33"], "rt": [23003, 286, 223, 381, 344], "actions": ["left", "left", "left", "down", "left"], "actionTimes": [25196, 25991, 26720, 27610, 28465], "queries": {"click": {"state": {"target": ["1", "2", "3", "4", "5", "7", "8", "11", "9", "29", "33"], "time": [4004, 5905, 7393, 9371, 10966, 12962, 15412, 16754, 18833, 20924, 22441]}, "edge": {"target": [], "time": []}}, "mouseover": {"state": {"target": ["1", "2", "3", "4", "5", "7", "3", "8", "8", "11", "9", "26", "29", "33", "32"], "time": [3691, 4587, 6563, 9147, 10622, 12784, 14243, 14805, 15285, 16216, 18437, 20655, 20751, 22080, 23045]}, "edge": {"target": [], "time": []}}, "mouseout": {"state": {"target": ["28", "0", "12", "0", "1", "2", "3", "4", "5", "4", "7", "3", "8", "8", "11", "9", "26", "29", "29", "33"], "time": [1480, 1641, 1800, 3599, 4497, 6438, 9073, 10462, 12471, 12563, 14134, 14259, 14868, 16000, 16860, 20321, 20701, 20928, 21721, 22946]}, "edge": {"target": [], "time": []}}}, "displayed_time": "28.97", "trialTime": 30657, "trial_type": "mouselab-mdp", "trial_index": 5, "time_elapsed": 318972, "internal_node_id": "0.0-2.0-2.0-1.0"}}, {"uniqueid": "w16485452:a85434691", "current_trial": 6, "dateTime": 1691143620581, "trialdata": {"view_history": [{"page_index": 0, "viewing_time": 29680}, {"page_index": 1, "viewing_time": 8855}], "rt": 38536, "trial_id": "mouselab_instructions_2_control", "trial_type": "instructions", "trial_index": 6, "time_elapsed": 357511, "internal_node_id": "0.0-2.0-3.0"}}, {"uniqueid": "w16485452:a85434691", "current_trial": 7, "dateTime": 1691143655762, "trialdata": {"rt": 35177, "response": {"Q0": "The cost for clicking on nodes may vary between nodes.", "Q1": "The better I perform the higher my bonus will be.", "Q2": "No, the amount of cash at each node of the web may be different each time.", "Q3": "To get the highest total score.", "Q4": "Only before moving the spider.", "Q5": "3 seconds"}, "question_order": [0, 1, 2, 3, 4, 5], "correct": {"Q0": "The cost for clicking on nodes may vary between nodes.", "Q1": "The better I perform the higher my bonus will be.", "Q2": "No, the amount of cash at each node of the web may be different each time.", "Q3": "To get the highest total score.", "Q4": "Only before moving the spider.", "Q5": "3 seconds"}, "trial_id": "mouselab_quiz_control", "trial_type": "survey-multi-choice", "trial_index": 7, "time_elapsed": 392692, "internal_node_id": "0.0-2.0-4.0"}}, {"uniqueid": "w16485452:a85434691", "current_trial": 8, "dateTime": 1691143665172, "trialdata": {"rt": 9400, "stimulus": "\n<h1> Get ready to start the game! </h1>\n\nThank you for reading the instructions. Get ready start with the 40 rounds of this game.\n<br><br>\nIf you need to take a break, feel free to take one after the end of a round, before continuing to the next one.\n<br><br>\nRemember, the more money the spider gets, the bigger your bonus will be!\n<br><br>\n<div style='text-align: center;'>Press <code>space</code> to begin.</div>\n\n<br><br>\n(If, at any point, the <code>space</code> key does not take you to the next page, click once on the text and try again.)", "response": " ", "trial_id": "mdp_ready", "trial_type": "html-keyboard-response", "trial_index": 8, "time_elapsed": 402102, "internal_node_id": "0.0-4.0-0.0"}}, {"uniqueid": "w16485452:a85434691", "current_trial": 9, "dateTime": 1691143685250, "trialdata": {"revealed_states": [], "clicked_states": ["23", "25", "33", "32", "27", "9"], "num_clicks_accrued": [0, 0, 0, 0, 0, 0, 0, 0, 0, 0, 0, 0, 0], "stateRewards": ["", -1, 3, 8, 10, -86, 61, -36, 10, 17, -60, 24, -1, -3, 3, 11, 50, 60, 33, -3, -20, 58, -6, 1, -4, -4, 13, -70, -71, 43, 14, 52, 82, -11], "withholdReward": false, "trial_id": "mdp_trial_1", "block": "test", "trialIndex": 2, "score": -74.4, "costs": -8.4, "simulationMode": [null, null, null, null, null], "rewards": [-1, 3, 8, 10, -86], "path": ["0", "0", "1", "2", "3", "4", "5"], "rt": [12998, 246, 211, 199, 256], "actions": ["up", "up", "up", "right", "up"], "actionTimes": [14662, 15413, 16136, 16842, 17606], "queries": {"click": {"state": {"target": ["23", "25", "33", "32", "27", "9"], "time": [2554, 4350, 7081, 9020, 10737, 12504]}, "edge": {"target": [], "time": []}}, "mouseover": {"state": {"target": ["23", "24", "25", "30", "33", "32", "30", "25", "26", "27", "11", "9", "8", "2", "1"], "time": [2271, 3020, 3169, 4911, 5202, 8121, 9999, 10049, 10141, 10390, 11699, 11857, 13516, 13599, 13866]}, "edge": {"target": [], "time": []}}, "mouseout": {"state": {"target": ["23", "0", "23", "24", "25", "30", "33", "32", "30", "25", "26", "27", "11", "9", "8", "2"], "time": [1003, 2198, 2978, 3095, 4861, 5028, 7953, 9940, 10024, 10074, 10358, 11549, 11773, 13490, 13524, 13732]}, "edge": {"target": [], "time": []}}}, "displayed_time": "18.12", "trialTime": 19985, "trial_type": "mouselab-mdp", "trial_index": 9, "time_elapsed": 422179, "internal_node_id": "0.0-4.0-1.0-0.0"}}, {"uniqueid": "w16485452:a85434691", "current_trial": 10, "dateTime": 1691143704907, "trialdata": {"revealed_states": [], "clicked_states": ["14", "9", "27", "33", "32"], "num_clicks_accrued": [0, 0, 0, 0, 0, 0, 0, 0, 0, 0, 0, 0, 0], "stateRewards": ["", 1, 2, 2, -15, -84, 28, -26, 13, 31, 86, 30, -2, 1, -1, -8, 66, -40, -1, -10, -32, 57, -17, 1, 2, -2, 9, -23, 77, 85, 12, -32, -62, -35], "withholdReward": false, "trial_id": "mdp_trial_2", "block": "test", "trialIndex": 3, "score": -51, "costs": -7, "simulationMode": [null, null, null, null, null], "rewards": [-2, 1, -1, -10, -32], "path": ["0", "0", "12", "13", "14", "19", "20"], "rt": [12312, 270, 322, 369, 281], "actions": ["right", "right", "right", "down", "right"], "actionTimes": [14249, 15027, 15855, 16736, 17523], "queries": {"click": {"state": {"target": ["14", "9", "27", "33", "32"], "time": [3567, 6689, 8301, 10757, 12508]}, "edge": {"target": [], "time": []}}, "mouseover": {"state": {"target": ["12", "13", "14", "2", "8", "3", "8", "9", "11", "27", "26", "33", "30", "32"], "time": [3007, 3070, 3188, 4861, 4953, 5170, 6020, 6516, 7370, 7494, 9220, 9378, 11682, 12032]}, "edge": {"target": [], "time": []}}, "mouseout": {"state": {"target": ["1", "0", "12", "13", "14", "2", "8", "3", "8", "9", "11", "27", "26", "33", "30"], "time": [1531, 1838, 3045, 3120, 4461, 4869, 5045, 5963, 6038, 7336, 7420, 9194, 9243, 11624, 11749]}, "edge": {"target": [], "time": []}}}, "displayed_time": "18.03", "trialTime": 19572, "trial_type": "mouselab-mdp", "trial_index": 10, "time_elapsed": 441837, "internal_node_id": "0.0-4.0-1.0-1.0"}}, {"uniqueid": "w16485452:a85434691", "current_trial": 11, "dateTime": 1691143722557, "trialdata": {"revealed_states": [], "clicked_states": ["1", "3", "6", "11"], "num_clicks_accrued": [0, 0, 0, 0, 0, 0, 0, 0, 0, 0, 0, 0, 0], "stateRewards": ["", 1, -1, -7, -7, -22, 15, -13, 13, 26, -32, 38, -1, 1, -7, -4, 16, -62, 86, 12, -54, 56, 64, -2, -1, 6, 14, -57, 37, 62, -6, -25, 50, -70], "withholdReward": false, "trial_id": "mdp_trial_3", "block": "test", "trialIndex": 4, "score": 38.4, "costs": -5.6, "simulationMode": [null, null, null, null, null], "rewards": [1, -1, -7, 13, 38], "path": ["0", "0", "1", "2", "3", "8", "11"], "rt": [9741, 255, 161, 155, 118], "actions": ["up", "up", "up", "left", "left"], "actionTimes": [12144, 12904, 13577, 14237, 14866], "queries": {"click": {"state": {"target": ["1", "3", "6", "11"], "time": [3521, 5145, 6814, 8777]}, "edge": {"target": [], "time": []}}, "mouseover": {"state": {"target": ["1", "4", "4", "3", "4", "6", "4", "8", "11", "9", "9", "3", "2"], "time": [3155, 4369, 4761, 4952, 5735, 5843, 8253, 8495, 8595, 9885, 10269, 11495, 11520]}, "edge": {"target": [], "time": []}}, "mouseout": {"state": {"target": ["32", "31", "0", "1", "4", "4", "3", "4", "6", "4", "3", "8", "11", "9", "9", "3", "2"], "time": [1821, 1897, 2255, 4277, 4436, 4793, 5701, 5785, 8228, 8301, 8386, 8546, 8859, 9993, 11448, 11503, 11543]}, "edge": {"target": [], "time": []}}}, "displayed_time": "16.41", "trialTime": 17558, "trial_type": "mouselab-mdp", "trial_index": 11, "time_elapsed": 459486, "internal_node_id": "0.0-4.0-1.0-2.0"}}, {"uniqueid": "w16485452:a85434691", "current_trial": 12, "dateTime": 1691143748245, "trialdata": {"revealed_states": [], "clicked_states": ["20", "17", "5", "11", "29", "32"], "num_clicks_accrued": [0, 0, 0, 0, 0, 0, 0, 0, 0, 0, 0, 0, 0], "stateRewards": ["", 2, -1, -3, 16, -3, -16, -62, -1, 13, -26, 43, -1, 4, 3, -9, -54, -37, -3, -12, -71, -68, -57, 1, -3, 2, -9, 2, -2, -9, -11, 84, -52, 55], "withholdReward": false, "trial_id": "mdp_trial_4", "block": "test", "trialIndex": 5, "score": 31.6, "costs": -8.4, "simulationMode": [null, null, null, null, null], "rewards": [2, -1, -3, -1, 43], "path": ["0", "0", "1", "2", "3", "8", "11"], "rt": [19417, 148, 191, 204, 146], "actions": ["up", "up", "up", "left", "left"], "actionTimes": [21206, 21866, 22567, 23280, 23930], "queries": {"click": {"state": {"target": ["20", "17", "5", "11", "29", "32"], "time": [4646, 7396, 10132, 12517, 15290, 17705]}, "edge": {"target": [], "time": []}}, "mouseover": {"state": {"target": ["12", "13", "14", "14", "19", "20", "17", "15", "4", "5", "3", "8", "11", "29", "33", "30", "32"], "time": [2602, 2685, 3113, 3555, 3877, 4494, 7099, 9358, 9479, 9900, 11147, 12125, 12373, 14753, 17255, 17410, 17671]}, "edge": {"target": [], "time": []}}, "mouseout": {"state": {"target": ["12", "13", "14", "14", "19", "20", "20", "17", "15", "4", "5", "3", "8", "11", "29", "33", "30", "32"], "time": [2652, 2768, 3312, 3811, 4436, 4769, 5655, 9252, 9362, 9523, 11063, 11238, 12300, 14327, 17102, 17345, 17416, 17710]}, "edge": {"target": [], "time": []}}}, "displayed_time": "24.43", "trialTime": 25599, "trial_type": "mouselab-mdp", "trial_index": 12, "time_elapsed": 485174, "internal_node_id": "0.0-4.0-1.0-3.0"}}, {"uniqueid": "w16485452:a85434691", "current_trial": 13, "dateTime": 1691143768179, "trialdata": {"revealed_states": [], "clicked_states": ["32", "33"], "num_clicks_accrued": [0, 0, 0, 0, 0, 0, 0, 0, 0, 0, 0, 0, 0], "stateRewards": ["", -2, 2, 2, -6, 9, 37, 50, -13, -7, -18, -75, -2, -4, 4, 7, 23, -57, -66, -7, -81, -48, -76, 1, 1, -8, 1, 51, -2, 70, 14, 59, 71, -37], "withholdReward": false, "trial_id": "mdp_trial_5", "block": "test", "trialIndex": 6, "score": 76.2, "costs": -2.8, "simulationMode": [null, null, null, null, null], "rewards": [1, 1, -8, 14, 71], "path": ["0", "0", "23", "24", "25", "30", "32"], "rt": [6508, 271, 246, 201, 205], "actions": ["left", "left", "left", "down", "down"], "actionTimes": [10207, 10981, 11738, 12451, 13164], "queries": {"click": {"state": {"target": ["32", "33"], "time": [5055, 7221]}, "edge": {"target": [], "time": []}}, "mouseover": {"state": {"target": ["30", "32", "33", "29", "26", "29"], "time": [4476, 4811, 5816, 7966, 8400, 8808]}, "edge": {"target": [], "time": []}}, "mouseout": {"state": {"target": ["32", "0", "30", "32", "33", "29", "26"], "time": [2901, 4404, 4500, 5458, 7658, 8317, 8442]}, "edge": {"target": [], "time": []}}}, "displayed_time": "17.70", "trialTime": 19845, "trial_type": "mouselab-mdp", "trial_index": 13, "time_elapsed": 505108, "internal_node_id": "0.0-4.0-1.0-4.0"}}, {"uniqueid": "w16485452:a85434691", "current_trial": 14, "dateTime": 1691143786945, "trialdata": {"revealed_states": [], "clicked_states": ["5", "9", "11", "10"], "num_clicks_accrued": [0, 0, 0, 0, 0, 0, 0, 0, 0, 0, 0, 0, 0], "stateRewards": ["", -1, -4, -1, -5, -28, -23, -15, -15, -38, 59, -87, 2, 2, -5, 9, -55, -39, -71, -6, 85, -85, -11, -1, -2, 5, -10, 1, 25, 41, -4, 69, -35, 86], "withholdReward": false, "trial_id": "mdp_trial_6", "block": "test", "trialIndex": 7, "score": 32.4, "costs": -5.6, "simulationMode": [null, null, null, null, null], "rewards": [-1, -4, -1, -15, 59], "path": ["0", "0", "1", "2", "3", "8", "10"], "rt": [12229, 175, 250, 335, 330], "actions": ["up", "up", "up", "left", "down"], "actionTimes": [13553, 14234, 14992, 15836, 16672], "queries": {"click": {"state": {"target": ["5", "9", "11", "10"], "time": [2896, 5320, 7629, 10270]}, "edge": {"target": [], "time": []}}, "mouseover": {"state": {"target": ["1", "4", "5", "4", "4", "3", "8", "9", "8", "11", "10", "26", "29"], "time": [1860, 2029, 2134, 3767, 3967, 4618, 5028, 5118, 6016, 7400, 10028, 11309, 11609]}, "edge": {"target": [], "time": []}}, "mouseout": {"state": {"target": ["29", "26", "28", "0", "1", "4", "5", "4", "4", "3", "8", "9", "8", "11", "10", "26"], "time": [712, 767, 809, 1781, 1907, 2084, 3725, 3866, 4583, 4658, 5033, 5967, 7328, 9134, 11217, 11383]}, "edge": {"target": [], "time": []}}}, "displayed_time": "17.18", "trialTime": 18666, "trial_type": "mouselab-mdp", "trial_index": 14, "time_elapsed": 523874, "internal_node_id": "0.0-4.0-1.0-5.0"}}, {"uniqueid": "w16485452:a85434691", "current_trial": 15, "dateTime": 1691143808266, "trialdata": {"revealed_states": [], "clicked_states": ["20", "21", "32", "33"], "num_clicks_accrued": [0, 0, 0, 0, 0, 0, 0, 0, 0, 0, 0, 0, 0], "stateRewards": ["", 2, -3, -8, 14, -7, -51, 73, 2, 36, 36, -43, -1, 3, -4, 1, 6, 87, -65, 15, 61, -42, -83, -1, 3, -2, -7, 30, -48, 35, 13, 26, 60, 78], "withholdReward": false, "trial_id": "mdp_trial_7", "block": "test", "trialIndex": 8, "score": 85.4, "costs": -5.6, "simulationMode": [null, null, null, null, null], "rewards": [-1, 3, -2, 13, 78], "path": ["0", "0", "23", "24", "25", "30", "33"], "rt": [13082, 281, 254, 233, 278], "actions": ["left", "left", "left", "down", "left"], "actionTimes": [16337, 17129, 17891, 18630, 19416], "queries": {"click": {"state": {"target": ["20", "21", "32", "33"], "time": [4663, 7408, 9980, 12692]}, "edge": {"target": [], "time": []}}, "mouseover": {"state": {"target": ["12", "13", "19", "20", "21", "32", "33", "29", "25", "24"], "time": [4130, 4179, 4246, 4346, 6949, 9707, 12540, 14809, 15406, 15471]}, "edge": {"target": [], "time": []}}, "mouseout": {"state": {"target": ["29", "26", "28", "0", "12", "13", "19", "20", "21", "32", "33", "29", "25"], "time": [2496, 2563, 2588, 4091, 4163, 4188, 4289, 5421, 9426, 12214, 14622, 15328, 15431]}, "edge": {"target": [], "time": []}}}, "displayed_time": "19.92", "trialTime": 21224, "trial_type": "mouselab-mdp", "trial_index": 15, "time_elapsed": 545195, "internal_node_id": "0.0-4.0-1.0-6.0"}}, {"uniqueid": "w16485452:a85434691", "current_trial": 16, "dateTime": 1691143830594, "trialdata": {"revealed_states": [], "clicked_states": ["20", "17", "16", "5", "7"], "num_clicks_accrued": [0, 0, 0, 0, 0, 0, 0, 0, 0, 0, 0, 0, 0], "stateRewards": ["", -2, 1, -7, 9, 8, 25, 61, -7, -17, 69, -81, 1, 4, -4, -11, 16, 67, 44, 3, 6, -45, -54, -2, 3, 6, -11, -15, 32, -47, 3, -39, -6, -88], "withholdReward": false, "trial_id": "mdp_trial_8", "block": "test", "trialIndex": 9, "score": 50, "costs": -7, "simulationMode": [null, null, null, null, null], "rewards": [1, 4, -4, -11, 67], "path": ["0", "0", "12", "13", "14", "15", "17"], "rt": [15082, 229, 221, 207, 169], "actions": ["right", "right", "right", "up", "right"], "actionTimes": [17415, 18153, 18878, 19589, 20268], "queries": {"click": {"state": {"target": ["20", "17", "16", "5", "7"], "time": [4431, 6973, 9349, 11699, 13927]}, "edge": {"target": [], "time": []}}, "mouseover": {"state": {"target": ["12", "22", "19", "20", "17", "16", "6", "5", "6", "7", "18", "18"], "time": [3370, 3615, 3804, 4235, 6715, 9057, 10859, 11485, 12774, 13736, 16266, 16382]}, "edge": {"target": [], "time": []}}, "mouseout": {"state": {"target": ["24", "23", "0", "12", "22", "19", "20", "17", "16", "6", "5", "6", "7", "7", "18"], "time": [1722, 1787, 3333, 3396, 3742, 3878, 6506, 8377, 10769, 10928, 12690, 13257, 14016, 15481, 16332]}, "edge": {"target": [], "time": []}}}, "displayed_time": "20.77", "trialTime": 22235, "trial_type": "mouselab-mdp", "trial_index": 16, "time_elapsed": 567524, "internal_node_id": "0.0-4.0-1.0-7.0"}}, {"uniqueid": "w16485452:a85434691", "current_trial": 17, "dateTime": 1691143870508, "trialdata": {"revealed_states": [], "clicked_states": ["29", "33", "32", "31", "27", "9", "5", "7", "6", "16", "17", "20", "21"], "num_clicks_accrued": [0, 0, 0, 0, 0, 0, 0, 0, 0, 0, 0, 0, 0], "stateRewards": ["", 2, -4, 1, -12, -59, -53, -74, 16, -88, -66, 66, 1, -2, 8, -9, -14, 22, 25, -1, -39, 47, -14, -1, -1, -2, 1, -4, 52, -26, 15, -7, 46, 43], "withholdReward": false, "trial_id": "mdp_trial_9", "block": "test", "trialIndex": 10, "score": 34.8, "costs": -18.2, "simulationMode": [null, null, null, null, null], "rewards": [1, -2, 8, -1, 47], "path": ["0", "0", "12", "13", "14", "19", "21"], "rt": [32803, 91, 130, 243, 197], "actions": ["right", "right", "right", "down", "down"], "actionTimes": [35403, 36005, 36643, 37391, 38095], "queries": {"click": {"state": {"target": ["29", "33", "32", "31", "27", "9", "5", "7", "6", "16", "17", "20", "21"], "time": [3864, 6231, 8590, 10846, 13902, 16348, 18631, 20916, 23790, 25930, 28021, 30389, 32976]}, "edge": {"target": [], "time": []}}, "mouseover": {"state": {"target": ["29", "33", "32", "31", "24", "27", "11", "9", "5", "4", "7", "3", "4", "6", "16", "17", "20", "21"], "time": [3714, 6020, 8402, 10670, 13337, 13721, 15953, 16078, 18410, 20055, 20807, 23282, 23490, 23573, 25397, 27454, 28723, 32876]}, "edge": {"target": [], "time": []}}, "mouseout": {"state": {"target": ["18", "0", "29", "33", "32", "31", "24", "27", "11", "9", "5", "4", "7", "3", "4", "6", "16", "17", "20", "21"], "time": [2221, 3248, 4717, 7268, 9618, 13312, 13361, 15327, 15959, 16354, 19989, 20615, 20994, 23466, 23540, 25306, 27322, 28572, 32565, 33085]}, "edge": {"target": [], "time": []}}}, "displayed_time": "38.60", "trialTime": 39822, "trial_type": "mouselab-mdp", "trial_index": 17, "time_elapsed": 607437, "internal_node_id": "0.0-4.0-1.0-8.0"}}, {"uniqueid": "w16485452:a85434691", "current_trial": 18, "dateTime": 1691143895542, "trialdata": {"revealed_states": [], "clicked_states": ["33", "27", "5", "16", "20", "21"], "num_clicks_accrued": [0, 0, 0, 0, 0, 0, 0, 0, 0, 0, 0, 0, 0], "stateRewards": ["", 2, -1, -1, 7, 11, -40, -22, -2, 69, 37, 8, -2, 4, -8, -12, -2, -72, -3, -12, 17, 63, 12, 1, 3, -7, 6, 25, 61, 61, -9, 28, -17, 27], "withholdReward": false, "trial_id": "mdp_trial_10", "block": "test", "trialIndex": 11, "score": 36.6, "costs": -8.4, "simulationMode": [null, null, null, null, null], "rewards": [-2, 4, -8, -12, 63], "path": ["0", "0", "12", "13", "14", "19", "21"], "rt": [18989, 125, 117, 162, 181], "actions": ["right", "right", "right", "down", "down"], "actionTimes": [20818, 21441, 22065, 22734, 23421], "queries": {"click": {"state": {"target": ["33", "27", "5", "16", "20", "21"], "time": [3498, 6694, 9572, 12179, 14661, 17455]}, "edge": {"target": [], "time": []}}, "mouseover": {"state": {"target": ["23", "24", "30", "33", "32", "30", "25", "26", "27", "29", "27", "11", "8", "5", "6", "16", "20", "21"], "time": [2834, 2915, 3089, 3323, 5809, 5856, 5882, 5914, 5973, 6307, 6448, 8990, 9026, 9349, 11751, 12010, 14426, 17150]}, "edge": {"target": [], "time": []}}, "mouseout": {"state": {"target": ["21", "0", "23", "24", "30", "33", "32", "30", "25", "26", "27", "29", "27", "11", "8", "5", "6", "16", "16", "20"], "time": [1198, 2810, 2874, 2948, 3219, 4181, 5841, 5874, 5905, 5939, 6199, 6401, 8943, 9008, 9030, 11148, 11782, 12183, 13539, 16927]}, "edge": {"target": [], "time": []}}}, "displayed_time": "23.93", "trialTime": 24940, "trial_type": "mouselab-mdp", "trial_index": 18, "time_elapsed": 632471, "internal_node_id": "0.0-4.0-1.0-9.0"}}, {"uniqueid": "w16485452:a85434691", "current_trial": 19, "dateTime": 1691143914726, "trialdata": {"revealed_states": [], "clicked_states": ["21", "32", "33"], "num_clicks_accrued": [0, 0, 0, 0, 0, 0, 0, 0, 0, 0, 0, 0, 0], "stateRewards": ["", -2, -3, 4, 1, 33, -53, 15, 9, -12, 61, -6, -2, 4, 6, -11, 47, -43, -7, -11, 46, 23, -28, -1, -1, 3, -10, 11, 76, -76, 10, 18, -38, 87], "withholdReward": false, "trial_id": "mdp_trial_11", "block": "test", "trialIndex": 12, "score": 93.8, "costs": -4.199999999999999, "simulationMode": [null, null, null, null, null], "rewards": [-1, -1, 3, 10, 87], "path": ["0", "0", "23", "24", "25", "30", "33"], "rt": [11476, 74, 156, 176, 185], "actions": ["left", "left", "left", "down", "left"], "actionTimes": [14036, 14617, 15281, 15969, 16654], "queries": {"click": {"state": {"target": ["21", "32", "33"], "time": [5269, 8006, 10925]}, "edge": {"target": [], "time": []}}, "mouseover": {"state": {"target": ["22", "21", "21", "32", "33", "30"], "time": [4727, 4768, 5084, 7802, 10635, 13160]}, "edge": {"target": [], "time": []}}, "mouseout": {"state": {"target": ["21", "0", "22", "21", "21", "32", "33"], "time": [2020, 4662, 4746, 4809, 6042, 10110, 13073]}, "edge": {"target": [], "time": []}}}, "displayed_time": "17.16", "trialTime": 19094, "trial_type": "mouselab-mdp", "trial_index": 19, "time_elapsed": 651655, "internal_node_id": "0.0-4.0-1.0-10.0"}}, {"uniqueid": "w16485452:a85434691", "current_trial": 20, "dateTime": 1691143945609, "trialdata": {"revealed_states": [], "clicked_states": ["9", "5", "7", "6", "11", "27", "28", "29", "26", "25"], "num_clicks_accrued": [0, 0, 0, 0, 0, 0, 0, 0, 0, 0, 0, 0, 0], "stateRewards": ["", 2, -4, 7, 3, 23, -42, 4, 7, -81, -33, 7, -2, -4, 5, -1, 50, -57, -14, -13, -14, 44, 55, -2, -2, 5, -2, 33, 1, 57, -13, -7, 58, 87], "withholdReward": false, "trial_id": "mdp_trial_12", "block": "test", "trialIndex": 13, "score": 42, "costs": -14.000000000000002, "simulationMode": [null, null, null, null, null], "rewards": [-2, -2, 5, -2, 57], "path": ["0", "0", "23", "24", "25", "26", "29"], "rt": [24433, 156, 194, 132, 102], "actions": ["left", "left", "left", "up", "left"], "actionTimes": [25970, 26635, 27334, 27974, 28584], "queries": {"click": {"state": {"target": ["9", "5", "7", "6", "11", "27", "28", "29", "26", "25"], "time": [3216, 5711, 7906, 9986, 11960, 13954, 16249, 18560, 21752, 23981]}, "edge": {"target": [], "time": []}}, "mouseover": {"state": {"target": ["1", "2", "3", "8", "9", "8", "5", "4", "7", "6", "11", "27", "28", "24", "26", "29", "33", "25", "26", "25"], "time": [2676, 2775, 2849, 2908, 3016, 4123, 5460, 7329, 7461, 9815, 10862, 12778, 14737, 18148, 18229, 18413, 19353, 21297, 21532, 22161]}, "edge": {"target": [], "time": []}}, "mouseout": {"state": {"target": ["30", "0", "1", "2", "3", "8", "9", "8", "5", "4", "7", "6", "7", "11", "27", "28", "24", "26", "29", "33", "25", "26", "25"], "time": [994, 1352, 2716, 2806, 2857, 2915, 4083, 5319, 7298, 7387, 8861, 10496, 10544, 12537, 14055, 17820, 18161, 18262, 19078, 20974, 21363, 22112, 24071]}, "edge": {"target": [], "time": []}}}, "displayed_time": "29.09", "trialTime": 30792, "trial_type": "mouselab-mdp", "trial_index": 20, "time_elapsed": 682538, "internal_node_id": "0.0-4.0-1.0-11.0"}}, {"uniqueid": "w16485452:a85434691", "current_trial": 21, "dateTime": 1691143968858, "trialdata": {"revealed_states": [], "clicked_states": ["21", "17", "16", "18", "14"], "num_clicks_accrued": [0, 0, 0, 0, 0, 0, 0, 0, 0, 0, 0, 0, 0], "stateRewards": ["", 1, 2, 3, 16, 63, -25, 16, -4, -14, 82, -66, -1, -3, -3, -11, -14, 19, 46, 3, -34, -82, 66, -2, -3, 4, -5, -63, 77, -37, -1, -45, -41, 84], "withholdReward": false, "trial_id": "mdp_trial_13", "block": "test", "trialIndex": 14, "score": 21, "costs": -7, "simulationMode": [null, null, null, null, null], "rewards": [-1, -3, -3, -11, 46], "path": ["0", "0", "12", "13", "14", "15", "18"], "rt": [15642, 190, 161, 317, 102], "actions": ["right", "right", "right", "up", "left"], "actionTimes": [18796, 19494, 20166, 20990, 21599], "queries": {"click": {"state": {"target": ["21", "17", "16", "18", "14"], "time": [4723, 7171, 10919, 13132, 16577]}, "edge": {"target": [], "time": []}}, "mouseover": {"state": {"target": ["22", "21", "20", "17", "15", "18", "6", "16", "16", "18", "6", "16", "17", "14"], "time": [4209, 4520, 6763, 7035, 9802, 9901, 10386, 10676, 10784, 12076, 13567, 16110, 16209, 16414]}, "edge": {"target": [], "time": []}}, "mouseout": {"state": {"target": ["25", "24", "23", "0", "0", "22", "21", "20", "17", "17", "15", "18", "6", "16", "16", "18", "6", "16", "17"], "time": [2585, 2626, 2675, 2801, 4137, 4249, 5426, 6793, 7858, 9646, 9868, 9907, 10519, 10709, 11942, 13227, 16052, 16142, 16233]}, "edge": {"target": [], "time": []}}}, "displayed_time": "22.11", "trialTime": 23159, "trial_type": "mouselab-mdp", "trial_index": 21, "time_elapsed": 705787, "internal_node_id": "0.0-4.0-1.0-12.0"}}, {"uniqueid": "w16485452:a85434691", "current_trial": 22, "dateTime": 1691143994412, "trialdata": {"revealed_states": [], "clicked_states": ["29", "33", "32", "27", "11", "9", "5", "7"], "num_clicks_accrued": [0, 0, 0, 0, 0, 0, 0, 0, 0, 0, 0, 0, 0], "stateRewards": ["", 2, 3, -3, 12, -43, 81, -82, -15, 58, -7, -75, -1, -1, 3, -5, 50, -25, -8, 4, 66, 65, -66, 2, -4, 2, -1, -10, 10, 37, 11, 88, -37, 8], "withholdReward": false, "trial_id": "mdp_trial_14", "block": "test", "trialIndex": 15, "score": 33.8, "costs": -11.200000000000001, "simulationMode": [null, null, null, null, null], "rewards": [2, 3, -3, -15, 58], "path": ["0", "0", "1", "2", "3", "8", "9"], "rt": [19151, 46, 89, 66, 121], "actions": ["up", "up", "up", "left", "up"], "actionTimes": [21495, 22049, 22642, 23211, 23841], "queries": {"click": {"state": {"target": ["29", "33", "32", "27", "11", "9", "5", "7"], "time": [3732, 5769, 8366, 10703, 12853, 14893, 17449, 19507]}, "edge": {"target": [], "time": []}}, "mouseover": {"state": {"target": ["25", "29", "33", "32", "30", "25", "26", "27", "11", "9", "5", "5", "4", "7"], "time": [3312, 3478, 4403, 7310, 10312, 10344, 10387, 10495, 12688, 14595, 15553, 15894, 18270, 18370]}, "edge": {"target": [], "time": []}}, "mouseout": {"state": {"target": ["14", "13", "12", "0", "25", "29", "29", "33", "32", "30", "25", "26", "27", "11", "9", "5", "5", "5", "4", "7"], "time": [1837, 1887, 1929, 3047, 3413, 3815, 4286, 6295, 10287, 10337, 10370, 10428, 12319, 14484, 15461, 15644, 17550, 18061, 18311, 19515]}, "edge": {"target": [], "time": []}}}, "displayed_time": "24.34", "trialTime": 25463, "trial_type": "mouselab-mdp", "trial_index": 22, "time_elapsed": 731341, "internal_node_id": "0.0-4.0-1.0-13.0"}}, {"uniqueid": "w16485452:a85434691", "current_trial": 23, "dateTime": 1691144013636, "trialdata": {"revealed_states": [], "clicked_states": ["21", "32"], "num_clicks_accrued": [0, 0, 0, 0, 0, 0, 0, 0, 0, 0, 0, 0, 0], "stateRewards": ["", 2, 3, 6, -12, -29, 12, 87, 4, 35, -30, 67, 2, 3, -5, -9, 44, 69, -8, 1, 45, -8, 28, -2, -1, -8, 11, -12, -5, 81, 9, 87, 82, 88], "withholdReward": false, "trial_id": "mdp_trial_15", "block": "test", "trialIndex": 16, "score": 77.2, "costs": -2.8, "simulationMode": [null, null, null, null, null], "rewards": [-2, -1, -8, 9, 82], "path": ["0", "0", "23", "24", "25", "30", "32"], "rt": [6810, 172, 132, 223, 149], "actions": ["left", "left", "left", "down", "down"], "actionTimes": [10744, 11429, 12072, 12804, 13464], "queries": {"click": {"state": {"target": ["21", "32"], "time": [5137, 7475]}, "edge": {"target": [], "time": []}}, "mouseover": {"state": {"target": ["21", "32", "30"], "time": [4941, 7293, 9182]}, "edge": {"target": [], "time": []}}, "mouseout": {"state": {"target": ["7", "0", "21", "32", "30"], "time": [3407, 4543, 5789, 8938, 9527]}, "edge": {"target": [], "time": []}}}, "displayed_time": "17.94", "trialTime": 19131, "trial_type": "mouselab-mdp", "trial_index": 23, "time_elapsed": 750565, "internal_node_id": "0.0-4.0-1.0-14.0"}}, {"uniqueid": "w16485452:a85434691", "current_trial": 24, "dateTime": 1691144031003, "trialdata": {"revealed_states": [], "clicked_states": ["9", "5", "7", "10"], "num_clicks_accrued": [0, 0, 0, 0, 0, 0, 0, 0, 0, 0, 0, 0, 0], "stateRewards": ["", -1, 4, -6, -5, -22, -38, -38, -2, -56, 88, 14, -1, -1, -7, -6, 61, -60, 21, 11, 57, 31, -30, -2, -2, 6, -9, -44, -70, -44, -15, 34, 16, -78], "withholdReward": false, "trial_id": "mdp_trial_16", "block": "test", "trialIndex": 17, "score": 77.4, "costs": -5.6, "simulationMode": [null, null, null, null, null], "rewards": [-1, 4, -6, -2, 88], "path": ["0", "0", "1", "2", "3", "8", "10"], "rt": [11291, 116, 120, 194, 201], "actions": ["up", "up", "up", "left", "down"], "actionTimes": [13004, 13632, 14260, 14961, 15669], "queries": {"click": {"state": {"target": ["9", "5", "7", "10"], "time": [3131, 5544, 7573, 9956]}, "edge": {"target": [], "time": []}}, "mouseover": {"state": {"target": ["1", "2", "8", "9", "5", "4", "7", "2", "10"], "time": [2628, 2681, 2781, 2938, 5384, 7050, 7131, 9609, 9810]}, "edge": {"target": [], "time": []}}, "mouseout": {"state": {"target": ["31", "0", "1", "2", "8", "9", "5", "4", "7", "2"], "time": [1226, 1542, 2658, 2697, 2848, 3890, 7015, 7098, 9586, 9668]}, "edge": {"target": [], "time": []}}}, "displayed_time": "16.18", "trialTime": 17270, "trial_type": "mouselab-mdp", "trial_index": 24, "time_elapsed": 767932, "internal_node_id": "0.0-4.0-1.0-15.0"}}, {"uniqueid": "w16485452:a85434691", "current_trial": 25, "dateTime": 1691144061673, "trialdata": {"revealed_states": [], "clicked_states": ["21", "22", "32", "29", "11", "9", "5", "6", "3"], "num_clicks_accrued": [0, 0, 0, 0, 0, 0, 0, 0, 0, 0, 0, 0, 0], "stateRewards": ["", -2, 4, 3, 5, -61, 4, 30, 1, -47, 83, 10, 1, 4, 7, -14, 19, -74, -83, 6, -2, -2, -65, -1, -2, 4, -11, 12, -1, -68, 11, -38, -28, 66], "withholdReward": false, "trial_id": "mdp_trial_17", "block": "test", "trialIndex": 18, "score": 3.3999999999999986, "costs": -12.600000000000001, "simulationMode": [null, null, null, null, null], "rewards": [-2, 4, 3, 1, 10], "path": ["0", "0", "1", "2", "3", "8", "11"], "rt": [22977, 160, 153, 183, 112], "actions": ["up", "up", "up", "left", "left"], "actionTimes": [26088, 26753, 27415, 28103, 28724], "queries": {"click": {"state": {"target": ["21", "22", "32", "29", "11", "9", "5", "6", "3"], "time": [4715, 7637, 10156, 12578, 15142, 17734, 19742, 21806, 23803]}, "edge": {"target": [], "time": []}}, "mouseover": {"state": {"target": ["12", "13", "19", "21", "22", "19", "22", "32", "30", "29", "26", "11", "9", "5", "6", "7", "3"], "time": [4137, 4187, 4269, 4570, 7142, 7174, 7464, 10051, 12082, 12391, 14208, 14867, 17536, 18751, 21210, 22869, 23103]}, "edge": {"target": [], "time": []}}, "mouseout": {"state": {"target": ["10", "12", "13", "19", "21", "22", "19", "22", "32", "30", "29", "26", "11", "9", "5", "6", "7"], "time": [2567, 4169, 4203, 4404, 4795, 7155, 7396, 9064, 12043, 12106, 14109, 14234, 17403, 18659, 21117, 22727, 22944]}, "edge": {"target": [], "time": []}}}, "displayed_time": "29.23", "trialTime": 30578, "trial_type": "mouselab-mdp", "trial_index": 25, "time_elapsed": 798602, "internal_node_id": "0.0-4.0-1.0-16.0"}}, {"uniqueid": "w16485452:a85434691", "current_trial": 26, "dateTime": 1691144079616, "trialdata": {"revealed_states": [], "clicked_states": [], "num_clicks_accrued": [0, 0, 0, 0, 0, 0, 0, 0, 0, 0, 0, 0, 0], "stateRewards": ["", -2, -1, -5, 10, -36, -70, 68, -9, 86, 71, -10, 2, -4, 7, -7, 66, 44, -66, -13, -69, 43, 15, -2, 2, 6, -13, 62, 57, 50, -10, -69, 42, -72], "withholdReward": false, "trial_id": "mdp_trial_18", "block": "test", "trialIndex": 19, "score": 64, "costs": 0, "simulationMode": [null, null, null, null, null], "rewards": [2, -4, 7, -7, 66], "path": ["0", "0", "12", "13", "14", "15", "16"], "rt": [6921, 129, 256, 178, 501], "actions": ["right", "right", "right", "up", "up"], "actionTimes": [9279, 9912, 10680, 11369, 12375], "queries": {"click": {"state": {"target": [], "time": []}, "edge": {"target": [], "time": []}}, "mouseover": {"state": {"target": ["12", "14", "19", "12", "13", "19", "20", "13"], "time": [3252, 3527, 3785, 4994, 5183, 5476, 6009, 8194]}, "edge": {"target": [], "time": []}}, "mouseout": {"state": {"target": ["3", "12", "12", "14", "19", "12", "13", "19", "20", "13", "12"], "time": [1803, 2018, 3283, 3707, 4441, 5125, 5233, 5927, 7409, 8584, 17261]}, "edge": {"target": [], "time": []}}}, "displayed_time": "16.37", "trialTime": 17849, "trial_type": "mouselab-mdp", "trial_index": 26, "time_elapsed": 816545, "internal_node_id": "0.0-4.0-1.0-17.0"}}, {"uniqueid": "w16485452:a85434691", "current_trial": 27, "dateTime": 1691144096123, "trialdata": {"revealed_states": [], "clicked_states": ["32", "33", "29", "25"], "num_clicks_accrued": [0, 0, 0, 0, 0, 0, 0, 0, 0, 0, 0, 0, 0], "stateRewards": ["", 2, 4, -3, 16, -58, 30, -35, 11, -60, 47, 27, -2, -1, -7, -16, 23, -70, 68, -10, -65, -43, -34, -2, 1, 7, 9, -63, 34, -31, -8, -12, -86, 59], "withholdReward": false, "trial_id": "mdp_trial_19", "block": "test", "trialIndex": 20, "score": 51.4, "costs": -5.6, "simulationMode": [null, null, null, null, null], "rewards": [-2, 1, 7, -8, 59], "path": ["0", "0", "23", "24", "25", "30", "33"], "rt": [9974, 172, 192, 219, 290], "actions": ["left", "left", "left", "down", "left"], "actionTimes": [11024, 11705, 12408, 13135, 13930], "queries": {"click": {"state": {"target": ["32", "33", "29", "25"], "time": [1945, 3970, 6458, 9114]}, "edge": {"target": [], "time": []}}, "mouseover": {"state": {"target": ["31", "32", "33", "25", "31", "25", "29", "25"], "time": [1646, 1727, 2769, 4873, 5023, 5373, 5642, 8999]}, "edge": {"target": [], "time": []}}, "mouseout": {"state": {"target": ["0", "31", "32", "33", "25", "31", "25", "29"], "time": [1580, 1661, 2063, 4444, 4932, 5315, 5391, 8657]}, "edge": {"target": [], "time": []}}}, "displayed_time": "15.06", "trialTime": 16408, "trial_type": "mouselab-mdp", "trial_index": 27, "time_elapsed": 833052, "internal_node_id": "0.0-4.0-1.0-18.0"}}, {"uniqueid": "w16485452:a85434691", "current_trial": 28, "dateTime": 1691144112931, "trialdata": {"revealed_states": [], "clicked_states": ["5", "7"], "num_clicks_accrued": [0, 0, 0, 0, 0, 0, 0, 0, 0, 0, 0, 0, 0], "stateRewards": ["", 2, -4, -8, -15, 71, -43, -41, 7, -17, 20, 67, -1, -1, -4, 6, 37, -24, -47, 9, 34, 57, 45, 1, 2, -4, -5, -23, 88, -5, 13, -40, 43, 44], "withholdReward": false, "trial_id": "mdp_trial_20", "block": "test", "trialIndex": 21, "score": 43.2, "costs": -2.8, "simulationMode": [null, null, null, null, null], "rewards": [2, -4, -8, -15, 71], "path": ["0", "0", "1", "2", "3", "4", "5"], "rt": [6017, 153, 117, 141, 160], "actions": ["up", "up", "up", "right", "up"], "actionTimes": [7746, 8403, 9025, 9674, 10342], "queries": {"click": {"state": {"target": ["5", "7"], "time": [3202, 5495]}, "edge": {"target": [], "time": []}}, "mouseover": {"state": {"target": ["1", "7", "4", "5", "7"], "time": [2720, 2770, 2803, 3005, 5347]}, "edge": {"target": [], "time": []}}, "mouseout": {"state": {"target": ["25", "24", "23", "0", "1", "7", "4", "5", "7", "7"], "time": [1062, 1138, 1212, 2681, 2727, 2776, 2854, 3970, 5605, 6328]}, "edge": {"target": [], "time": []}}}, "displayed_time": "15.74", "trialTime": 16708, "trial_type": "mouselab-mdp", "trial_index": 28, "time_elapsed": 849860, "internal_node_id": "0.0-4.0-1.0-19.0"}}, {"uniqueid": "w16485452:a85434691", "current_trial": 29, "dateTime": 1691144133019, "trialdata": {"revealed_states": [], "clicked_states": ["17", "29", "28", "18", "5"], "num_clicks_accrued": [0, 0, 0, 0, 0, 0, 0, 0, 0, 0, 0, 0, 0], "stateRewards": ["", -1, 2, 7, 8, 75, 67, -11, 6, 52, -17, 38, -1, 4, -8, 14, 74, -37, -17, -12, 52, 55, 71, -2, -1, -5, 2, 21, 6, -88, -14, 64, -61, -47], "withholdReward": false, "trial_id": "mdp_trial_21", "block": "test", "trialIndex": 22, "score": 84, "costs": -7, "simulationMode": [null, null, null, null, null], "rewards": [-1, 2, 7, 8, 75], "path": ["0", "0", "1", "2", "3", "4", "5"], "rt": [13857, 127, 149, 139, 174], "actions": ["up", "up", "up", "right", "up"], "actionTimes": [15344, 15986, 16641, 17288, 17966], "queries": {"click": {"state": {"target": ["17", "29", "28", "18", "5"], "time": [2453, 4839, 7199, 9382, 11829]}, "edge": {"target": [], "time": []}}, "mouseover": {"state": {"target": ["12", "13", "17", "13", "1", "28", "26", "29", "33", "30", "25", "24", "28", "1", "18", "5"], "time": [1977, 2016, 2253, 3375, 3492, 4468, 4507, 4616, 6366, 6692, 6751, 6809, 6982, 8442, 8567, 11710]}, "edge": {"target": [], "time": []}}, "mouseout": {"state": {"target": ["0", "0", "12", "13", "17", "13", "1", "28", "26", "29", "33", "30", "25", "24", "28", "1", "18"], "time": [1066, 1969, 2000, 2041, 3292, 3400, 3550, 4500, 4550, 6250, 6425, 6726, 6757, 6841, 8358, 8475, 9850]}, "edge": {"target": [], "time": []}}}, "displayed_time": "18.48", "trialTime": 19981, "trial_type": "mouselab-mdp", "trial_index": 29, "time_elapsed": 869948, "internal_node_id": "0.0-4.0-1.0-20.0"}}, {"uniqueid": "w16485452:a85434691", "current_trial": 30, "dateTime": 1691144158925, "trialdata": {"revealed_states": [], "clicked_states": ["21", "32", "27", "9", "5", "10", "7"], "num_clicks_accrued": [0, 0, 0, 0, 0, 0, 0, 0, 0, 0, 0, 0, 0], "stateRewards": ["", 1, -2, -2, 10, -31, -77, 35, 9, -47, 8, 48, -2, 1, -4, -3, -26, -50, 43, -11, 76, -38, 17, 1, -1, 6, 10, 15, -9, 12, -8, 85, 11, -55], "withholdReward": false, "trial_id": "mdp_trial_22", "block": "test", "trialIndex": 23, "score": 32.2, "costs": -9.8, "simulationMode": [null, null, null, null, null], "rewards": [1, -2, -2, 10, 35], "path": ["0", "0", "1", "2", "3", "4", "7"], "rt": [19783, 107, 130, 123, 332], "actions": ["up", "up", "up", "right", "down"], "actionTimes": [21642, 22254, 22891, 23527, 24368], "queries": {"click": {"state": {"target": ["21", "32", "27", "9", "5", "10", "7"], "time": [3298, 5653, 8465, 11120, 13270, 15967, 18374]}, "edge": {"target": [], "time": []}}, "mouseover": {"state": {"target": ["0", "22", "21", "32", "30", "25", "26", "27", "11", "9", "5", "6", "2", "2", "10", "1", "7", "23", "24", "31", "0"], "time": [2767, 2857, 3092, 5492, 7942, 7972, 8008, 8066, 10624, 10893, 13113, 14945, 15254, 15516, 15762, 18089, 18162, 19094, 19136, 19829, 20781]}, "edge": {"target": [], "time": []}}, "mouseout": {"state": {"target": ["5", "4", "1", "0", "22", "21", "32", "30", "25", "26", "27", "11", "9", "5", "5", "6", "2", "2", "10", "1", "7", "23", "24", "31"], "time": [1150, 1200, 1433, 2783, 2873, 4441, 7916, 7966, 7991, 8040, 10518, 10649, 12170, 13279, 14878, 15146, 15337, 15712, 17111, 18104, 18920, 19112, 19778, 20455]}, "edge": {"target": [], "time": []}}}, "displayed_time": "24.88", "trialTime": 25803, "trial_type": "mouselab-mdp", "trial_index": 30, "time_elapsed": 895854, "internal_node_id": "0.0-4.0-1.0-21.0"}}, {"uniqueid": "w16485452:a85434691", "current_trial": 31, "dateTime": 1691144181199, "trialdata": {"revealed_states": [], "clicked_states": ["21", "16", "18", "17", "5", "7"], "num_clicks_accrued": [0, 0, 0, 0, 0, 0, 0, 0, 0, 0, 0, 0, 0], "stateRewards": ["", -1, 2, -6, 6, 43, 78, 78, -2, 55, -29, -17, -2, -4, 1, -15, 13, 7, -79, 8, -28, -68, 36, -1, -3, 3, -16, 84, -18, 87, 10, 32, 13, -81], "withholdReward": false, "trial_id": "mdp_trial_23", "block": "test", "trialIndex": 24, "score": 70.6, "costs": -8.4, "simulationMode": [null, null, null, null, null], "rewards": [-1, 2, -6, 6, 78], "path": ["0", "0", "1", "2", "3", "4", "7"], "rt": [15632, 198, 130, 134, 213], "actions": ["up", "up", "up", "right", "down"], "actionTimes": [17764, 18469, 19109, 19755, 20475], "queries": {"click": {"state": {"target": ["21", "16", "18", "17", "5", "7"], "time": [3557, 6136, 8180, 10584, 13273, 15624]}, "edge": {"target": [], "time": []}}, "mouseover": {"state": {"target": ["12", "22", "21", "20", "15", "16", "18", "15", "17", "15", "6", "5", "4", "7"], "time": [3129, 3178, 3253, 5745, 5813, 5920, 7671, 10162, 10221, 12800, 12879, 13162, 14379, 14520]}, "edge": {"target": [], "time": []}}, "mouseout": {"state": {"target": ["0", "12", "22", "21", "20", "15", "16", "18", "15", "17", "15", "6", "5", "4", "7"], "time": [3105, 3138, 3196, 4312, 5761, 5862, 7587, 9929, 10178, 11211, 12829, 12896, 14345, 14445, 15634]}, "edge": {"target": [], "time": []}}}, "displayed_time": "20.98", "trialTime": 22170, "trial_type": "mouselab-mdp", "trial_index": 31, "time_elapsed": 918129, "internal_node_id": "0.0-4.0-1.0-22.0"}}, {"uniqueid": "w16485452:a85434691", "current_trial": 32, "dateTime": 1691144199022, "trialdata": {"revealed_states": [], "clicked_states": [], "num_clicks_accrued": [0, 0, 0, 0, 0, 0, 0, 0, 0, 0, 0, 0, 0], "stateRewards": ["", -1, 3, 1, -7, 56, 76, 57, 3, 11, -9, 14, 1, -2, 2, 8, -77, -3, 79, -5, 88, 24, -66, -2, -1, 7, -7, -30, 14, -76, 11, -36, 28, -6], "withholdReward": false, "trial_id": "mdp_trial_24", "block": "test", "trialIndex": 25, "score": 11, "costs": 0, "simulationMode": [null, null, null, null, null], "rewards": [-2, -1, 7, -7, 14], "path": ["0", "0", "23", "24", "25", "26", "28"], "rt": [2141, 452, 410, 173, 86], "actions": ["left", "left", "left", "up", "right"], "actionTimes": [4642, 5604, 6521, 7201, 7797], "queries": {"click": {"state": {"target": [], "time": []}, "edge": {"target": [], "time": []}}, "mouseover": {"state": {"target": [], "time": []}, "edge": {"target": [], "time": []}}, "mouseout": {"state": {"target": ["7"], "time": [2032]}, "edge": {"target": [], "time": []}}}, "displayed_time": "16.50", "trialTime": 17735, "trial_type": "mouselab-mdp", "trial_index": 32, "time_elapsed": 935951, "internal_node_id": "0.0-4.0-1.0-23.0"}}, {"uniqueid": "w16485452:a85434691", "current_trial": 33, "dateTime": 1691144215304, "trialdata": {"revealed_states": [], "clicked_states": ["33", "32", "27", "28"], "num_clicks_accrued": [0, 0, 0, 0, 0, 0, 0, 0, 0, 0, 0, 0, 0], "stateRewards": ["", -1, 3, 1, -11, -22, -36, 19, -5, -70, -52, 50, -2, -4, 4, -2, -41, -83, 29, -2, 22, 10, -6, -2, 3, -2, 14, 54, 44, 77, -9, -65, -37, -40], "withholdReward": false, "trial_id": "mdp_trial_25", "block": "test", "trialIndex": 26, "score": 61.4, "costs": -5.6, "simulationMode": [null, null, null, null, null], "rewards": [-2, 3, -2, 14, 54], "path": ["0", "0", "23", "24", "25", "26", "27"], "rt": [10129, 113, 173, 122, 98], "actions": ["left", "left", "left", "up", "up"], "actionTimes": [11147, 11770, 12448, 13080, 13688], "queries": {"click": {"state": {"target": ["33", "32", "27", "28"], "time": [2170, 4286, 6709, 8965]}, "edge": {"target": [], "time": []}}, "mouseover": {"state": {"target": ["30", "33", "32", "32", "24", "28", "27", "28"], "time": [1787, 2028, 2861, 4121, 5853, 5895, 5994, 8751]}, "edge": {"target": [], "time": []}}, "mouseout": {"state": {"target": ["0", "0", "30", "33", "32", "32", "24", "28", "27", "28"], "time": [691, 1629, 1836, 2812, 2969, 4802, 5870, 5911, 7424, 15801]}, "edge": {"target": [], "time": []}}}, "displayed_time": "15.02", "trialTime": 16168, "trial_type": "mouselab-mdp", "trial_index": 33, "time_elapsed": 952233, "internal_node_id": "0.0-4.0-1.0-24.0"}}, {"uniqueid": "w16485452:a85434691", "current_trial": 34, "dateTime": 1691144232651, "trialdata": {"revealed_states": [], "clicked_states": ["5", "9", "27"], "num_clicks_accrued": [0, 0, 0, 0, 0, 0, 0, 0, 0, 0, 0, 0, 0], "stateRewards": ["", -2, 4, -3, -13, 63, -36, 62, 11, 78, 34, -51, 2, -2, 8, -6, -40, -18, 31, 9, 64, 39, 79, 1, 4, -4, 15, -12, 76, 73, -10, -77, 86, -4], "withholdReward": false, "trial_id": "mdp_trial_26", "block": "test", "trialIndex": 27, "score": 83.8, "costs": -4.199999999999999, "simulationMode": [null, null, null, null, null], "rewards": [-2, 4, -3, 11, 78], "path": ["0", "0", "1", "2", "3", "8", "9"], "rt": [10288, 43, 99, 84, 88], "actions": ["up", "up", "up", "left", "up"], "actionTimes": [12092, 12643, 13249, 13842, 14438], "queries": {"click": {"state": {"target": ["5", "9", "27"], "time": [3041, 5478, 9126]}, "edge": {"target": [], "time": []}}, "mouseover": {"state": {"target": ["1", "2", "4", "5", "9", "11", "27", "26", "27"], "time": [2559, 2592, 2725, 2875, 5267, 8359, 8425, 8525, 8937]}, "edge": {"target": [], "time": []}}, "mouseout": {"state": {"target": ["0", "1", "2", "4", "5", "9", "11", "27", "26"], "time": [2526, 2591, 2625, 2800, 5143, 8309, 8374, 8442, 8633]}, "edge": {"target": [], "time": []}}}, "displayed_time": "15.81", "trialTime": 17231, "trial_type": "mouselab-mdp", "trial_index": 34, "time_elapsed": 969580, "internal_node_id": "0.0-4.0-1.0-25.0"}}, {"uniqueid": "w16485452:a85434691", "current_trial": 35, "dateTime": 1691144251112, "trialdata": {"revealed_states": [], "clicked_states": ["21", "32", "27", "9"], "num_clicks_accrued": [0, 0, 0, 0, 0, 0, 0, 0, 0, 0, 0, 0, 0], "stateRewards": ["", 1, 3, 3, -10, 52, 68, 59, 12, 7, 49, 21, -2, -3, -4, -2, -2, 63, 63, -4, 44, 43, -76, -2, -3, -6, 13, 48, 36, 12, -5, -36, -33, -11], "withholdReward": false, "trial_id": "mdp_trial_27", "block": "test", "trialIndex": 28, "score": 44.4, "costs": -5.6, "simulationMode": [null, null, null, null, null], "rewards": [-2, -3, -6, 13, 48], "path": ["0", "0", "23", "24", "25", "26", "27"], "rt": [13033, 87, 165, 101, 17], "actions": ["left", "left", "left", "up", "up"], "actionTimes": [14519, 15111, 15780, 16392, 16915], "queries": {"click": {"state": {"target": ["21", "32", "27", "9"], "time": [2615, 5456, 8081, 11468]}, "edge": {"target": [], "time": []}}, "mouseover": {"state": {"target": ["22", "21", "32", "24", "26", "27", "11", "8", "9", "5", "3"], "time": [2270, 2361, 5171, 7636, 7836, 7936, 11062, 11119, 11335, 13503, 13753]}, "edge": {"target": [], "time": []}}, "mouseout": {"state": {"target": ["27", "28", "0", "22", "21", "32", "24", "26", "27", "11", "8", "9", "5", "3"], "time": [869, 936, 2204, 2290, 3577, 6160, 7651, 7852, 11004, 11076, 11177, 13211, 13695, 13810]}, "edge": {"target": [], "time": []}}}, "displayed_time": "17.42", "trialTime": 18360, "trial_type": "mouselab-mdp", "trial_index": 35, "time_elapsed": 988041, "internal_node_id": "0.0-4.0-1.0-26.0"}}, {"uniqueid": "w16485452:a85434691", "current_trial": 36, "dateTime": 1691144270506, "trialdata": {"revealed_states": [], "clicked_states": ["17", "18", "16", "20", "32"], "num_clicks_accrued": [0, 0, 0, 0, 0, 0, 0, 0, 0, 0, 0, 0, 0], "stateRewards": ["", -1, -4, 8, 8, -68, 47, 24, -7, -61, 49, -69, -1, -1, 8, -7, 42, 1, -45, -11, 10, -63, -6, 1, 4, 6, -16, 79, -37, -58, -12, 81, 18, -53], "withholdReward": false, "trial_id": "mdp_trial_28", "block": "test", "trialIndex": 29, "score": 34, "costs": -7, "simulationMode": [null, null, null, null, null], "rewards": [-1, -1, 8, -7, 42], "path": ["0", "0", "12", "13", "14", "15", "16"], "rt": [14123, 109, 169, 94, 90], "actions": ["right", "right", "right", "up", "up"], "actionTimes": [15529, 16147, 16816, 17416, 18012], "queries": {"click": {"state": {"target": ["17", "18", "16", "20", "32"], "time": [2574, 4692, 7401, 9912, 12851]}, "edge": {"target": [], "time": []}}, "mouseover": {"state": {"target": ["12", "13", "14", "17", "15", "18", "13", "14", "20", "15", "16", "15", "14", "20", "22", "31", "30", "32"], "time": [2127, 2151, 2183, 2459, 4343, 4450, 6464, 6630, 6881, 7130, 7171, 8347, 8496, 8988, 12331, 12397, 12428, 12672]}, "edge": {"target": [], "time": []}}, "mouseout": {"state": {"target": ["2", "1", "0", "12", "13", "14", "17", "15", "18", "13", "14", "20", "15", "16", "16", "15", "14", "20", "22", "31", "30"], "time": [969, 1042, 2085, 2150, 2166, 2208, 4185, 4350, 6400, 6564, 6637, 7064, 7147, 7492, 8321, 8396, 8796, 12214, 12346, 12413, 12447]}, "edge": {"target": [], "time": []}}}, "displayed_time": "18.52", "trialTime": 19290, "trial_type": "mouselab-mdp", "trial_index": 36, "time_elapsed": 1007435, "internal_node_id": "0.0-4.0-1.0-27.0"}}, {"uniqueid": "w16485452:a85434691", "current_trial": 37, "dateTime": 1691144288227, "trialdata": {"revealed_states": [], "clicked_states": ["9", "10", "5"], "num_clicks_accrued": [0, 0, 0, 0, 0, 0, 0, 0, 0, 0, 0, 0, 0], "stateRewards": ["", -1, 1, 6, -6, 70, 66, 67, -16, -75, -35, 37, -1, 4, 4, -6, 47, -9, 63, 15, 21, -63, 13, 1, 3, -6, 10, 79, -29, 18, -15, 9, -67, -19], "withholdReward": false, "trial_id": "mdp_trial_29", "block": "test", "trialIndex": 30, "score": 65.8, "costs": -4.199999999999999, "simulationMode": [null, null, null, null, null], "rewards": [-1, 1, 6, -6, 70], "path": ["0", "0", "1", "2", "3", "4", "5"], "rt": [9440, 167, 152, 181, 149], "actions": ["up", "up", "up", "right", "up"], "actionTimes": [12177, 12856, 13518, 14204, 14862], "queries": {"click": {"state": {"target": ["9", "10", "5"], "time": [4392, 6469, 8755]}, "edge": {"target": [], "time": []}}, "mouseover": {"state": {"target": ["1", "2", "3", "9", "8", "10", "3", "5", "4", "2"], "time": [3943, 3976, 4010, 4260, 5760, 5818, 8441, 8580, 10907, 11298]}, "edge": {"target": [], "time": []}}, "mouseout": {"state": {"target": ["32", "31", "0", "1", "2", "3", "9", "8", "10", "3", "5", "4", "2"], "time": [2226, 2286, 2610, 3960, 3993, 4026, 5242, 5766, 6939, 8468, 10875, 10963, 11306]}, "edge": {"target": [], "time": []}}}, "displayed_time": "16.74", "trialTime": 17615, "trial_type": "mouselab-mdp", "trial_index": 37, "time_elapsed": 1025156, "internal_node_id": "0.0-4.0-1.0-28.0"}}, {"uniqueid": "w16485452:a85434691", "current_trial": 38, "dateTime": 1691144311293, "trialdata": {"revealed_states": [], "clicked_states": ["32", "21", "16", "5", "9", "10"], "num_clicks_accrued": [0, 0, 0, 0, 0, 0, 0, 0, 0, 0, 0, 0, 0], "stateRewards": ["", -2, 2, 3, -7, -31, -33, 29, -8, -57, 50, -83, -1, -1, 5, 13, -23, -62, 25, 5, -66, -85, 14, 1, -2, -1, 16, 71, 33, -19, -14, 5, -43, 79], "withholdReward": false, "trial_id": "mdp_trial_30", "block": "test", "trialIndex": 31, "score": 36.6, "costs": -8.4, "simulationMode": [null, null, null, null, null], "rewards": [-2, 2, 3, -8, 50], "path": ["0", "0", "1", "2", "3", "8", "10"], "rt": [17045, 132, 141, 209, 211], "actions": ["up", "up", "up", "left", "down"], "actionTimes": [18311, 18953, 19604, 20320, 21038], "queries": {"click": {"state": {"target": ["32", "21", "16", "5", "9", "10"], "time": [2708, 5150, 8174, 10665, 12945, 15009]}, "edge": {"target": [], "time": []}}, "mouseover": {"state": {"target": ["23", "31", "32", "21", "18", "6", "6", "16", "16", "6", "5", "9", "8", "10"], "time": [2260, 2342, 2551, 4918, 7242, 7342, 7653, 7775, 7951, 10306, 10615, 12798, 14643, 14771]}, "edge": {"target": [], "time": []}}, "mouseout": {"state": {"target": ["1", "0", "23", "31", "32", "21", "18", "6", "6", "16", "16", "6", "5", "9", "8"], "time": [785, 2234, 2283, 2384, 4150, 7137, 7258, 7367, 7701, 7782, 10238, 10320, 12590, 14613, 14713]}, "edge": {"target": [], "time": []}}}, "displayed_time": "21.54", "trialTime": 22959, "trial_type": "mouselab-mdp", "trial_index": 38, "time_elapsed": 1048222, "internal_node_id": "0.0-4.0-1.0-29.0"}}, {"uniqueid": "w16485452:a85434691", "current_trial": 39, "dateTime": 1691144335253, "trialdata": {"revealed_states": [], "clicked_states": ["32", "21", "27", "16", "5", "9"], "num_clicks_accrued": [0, 0, 0, 0, 0, 0, 0, 0, 0, 0, 0, 0, 0], "stateRewards": ["", 2, -2, 7, -11, -76, -65, -23, 16, -58, 30, 81, 1, 2, 7, 14, 9, 55, -2, 6, 11, -15, 31, -1, -1, -3, 2, 15, 2, 46, 15, 18, 45, -34], "withholdReward": false, "trial_id": "mdp_trial_31", "block": "test", "trialIndex": 32, "score": 46.6, "costs": -8.4, "simulationMode": [null, null, null, null, null], "rewards": [-1, -1, -3, 15, 45], "path": ["0", "0", "23", "24", "25", "30", "32"], "rt": [15926, 11, 44, 171, 140], "actions": ["left", "left", "left", "down", "down"], "actionTimes": [20191, 20708, 21266, 21943, 22588], "queries": {"click": {"state": {"target": ["32", "21", "27", "16", "5", "9"], "time": [5426, 7865, 10564, 13613, 15967, 18233]}, "edge": {"target": [], "time": []}}, "mouseover": {"state": {"target": ["31", "32", "21", "0", "28", "27", "8", "3", "7", "16", "4", "5", "3", "9", "8", "2"], "time": [5098, 5264, 7656, 9963, 10081, 10414, 12881, 12913, 13030, 13490, 15522, 15780, 17405, 18066, 18864, 18948]}, "edge": {"target": [], "time": []}}, "mouseout": {"state": {"target": ["10", "1", "0", "31", "32", "21", "0", "28", "27", "8", "3", "7", "16", "4", "5", "3", "9", "8"], "time": [3672, 3855, 5040, 5106, 5435, 8489, 9997, 10112, 12806, 12905, 12947, 13139, 15323, 15681, 17220, 17412, 18847, 18889]}, "edge": {"target": [], "time": []}}}, "displayed_time": "23.10", "trialTime": 23850, "trial_type": "mouselab-mdp", "trial_index": 39, "time_elapsed": 1072182, "internal_node_id": "0.0-4.0-1.0-30.0"}}, {"uniqueid": "w16485452:a85434691", "current_trial": 40, "dateTime": 1691144355926, "trialdata": {"revealed_states": [], "clicked_states": ["32", "31", "21", "20", "22"], "num_clicks_accrued": [0, 0, 0, 0, 0, 0, 0, 0, 0, 0, 0, 0, 0], "stateRewards": ["", 2, 4, -6, -13, -75, -81, 30, 7, 5, 59, -65, -1, -1, 7, 14, -38, 36, -41, 1, -54, -5, 64, 2, -1, 5, 6, -19, 79, 11, 16, -33, -50, 58], "withholdReward": false, "trial_id": "mdp_trial_32", "block": "test", "trialIndex": 33, "score": 63, "costs": -7, "simulationMode": [null, null, null, null, null], "rewards": [-1, -1, 7, 1, 64], "path": ["0", "0", "12", "13", "14", "19", "22"], "rt": [13060, 167, 207, 219, 212], "actions": ["right", "right", "right", "down", "left"], "actionTimes": [16322, 16996, 17711, 18440, 19159], "queries": {"click": {"state": {"target": ["32", "31", "21", "20", "22"], "time": [4824, 7004, 9323, 11288, 13299]}, "edge": {"target": [], "time": []}}, "mouseover": {"state": {"target": ["32", "31", "21", "20", "22"], "time": [4689, 6873, 9113, 10895, 13139]}, "edge": {"target": [], "time": []}}, "mouseout": {"state": {"target": ["2", "1", "0", "32", "32", "31", "21", "20", "21", "22"], "time": [2821, 2922, 4340, 4834, 6021, 7647, 10704, 11762, 11854, 14063]}, "edge": {"target": [], "time": []}}}, "displayed_time": "19.66", "trialTime": 20563, "trial_type": "mouselab-mdp", "trial_index": 40, "time_elapsed": 1092855, "internal_node_id": "0.0-4.0-1.0-31.0"}}, {"uniqueid": "w16485452:a85434691", "current_trial": 41, "dateTime": 1691144377209, "trialdata": {"revealed_states": [], "clicked_states": ["27", "29", "33", "31", "32", "11"], "num_clicks_accrued": [0, 0, 0, 0, 0, 0, 0, 0, 0, 0, 0, 0, 0], "stateRewards": ["", -2, 1, -7, -8, -37, -76, -87, 11, 30, -63, 80, -1, 4, 2, -1, 42, 17, 52, -3, -75, -80, -68, 2, -3, -5, -15, -48, 82, 24, -7, 5, -22, -71], "withholdReward": false, "trial_id": "mdp_trial_33", "block": "test", "trialIndex": 34, "score": 74.6, "costs": -8.4, "simulationMode": [null, null, null, null, null], "rewards": [-2, 1, -7, 11, 80], "path": ["0", "0", "1", "2", "3", "8", "11"], "rt": [16032, 114, 72, 75, 76], "actions": ["up", "up", "up", "left", "left"], "actionTimes": [17391, 18009, 18592, 19179, 19762], "queries": {"click": {"state": {"target": ["27", "29", "33", "31", "32", "11"], "time": [2619, 4968, 7169, 9584, 12290, 15174]}, "edge": {"target": [], "time": []}}, "mouseover": {"state": {"target": ["28", "27", "29", "33", "32", "31", "32", "0", "1", "2", "3", "8", "11"], "time": [2296, 2402, 4854, 7020, 9078, 9428, 12161, 14254, 14278, 14312, 14346, 14871, 14937]}, "edge": {"target": [], "time": []}}, "mouseout": {"state": {"target": ["0", "28", "27", "29", "33", "32", "31", "31", "32", "0", "1", "2", "3", "8", "11"], "time": [1262, 2330, 3503, 5661, 7713, 9263, 10195, 11896, 13963, 14263, 14294, 14329, 14624, 14880, 15185]}, "edge": {"target": [], "time": []}}}, "displayed_time": "20.27", "trialTime": 21171, "trial_type": "mouselab-mdp", "trial_index": 41, "time_elapsed": 1114138, "internal_node_id": "0.0-4.0-1.0-32.0"}}, {"uniqueid": "w16485452:a85434691", "current_trial": 42, "dateTime": 1691144399056, "trialdata": {"revealed_states": [], "clicked_states": ["21", "9", "32", "33"], "num_clicks_accrued": [0, 0, 0, 0, 0, 0, 0, 0, 0, 0, 0, 0, 0], "stateRewards": ["", 2, 3, 3, 10, 19, -21, 6, 9, 54, 68, 16, 2, 2, -6, -8, 40, -2, -75, -2, -42, 55, 59, -1, 2, 4, -14, 11, -34, -30, -6, 61, -53, 13], "withholdReward": false, "trial_id": "mdp_trial_34", "block": "test", "trialIndex": 35, "score": 45.4, "costs": -5.6, "simulationMode": [null, null, null, null, null], "rewards": [2, 2, -6, -2, 55], "path": ["0", "0", "12", "13", "14", "19", "21"], "rt": [16042, 117, 145, 171, 111], "actions": ["right", "right", "right", "down", "down"], "actionTimes": [17714, 18336, 18990, 19667, 20282], "queries": {"click": {"state": {"target": ["21", "9", "32", "33"], "time": [4184, 7192, 11129, 14646]}, "edge": {"target": [], "time": []}}, "mouseover": {"state": {"target": ["20", "21", "0", "1", "9", "9", "11", "25", "30", "32", "31", "25", "33", "30"], "time": [3189, 3564, 6414, 6438, 6731, 7006, 9846, 10072, 10438, 10913, 13365, 13471, 14371, 15212]}, "edge": {"target": [], "time": []}}, "mouseout": {"state": {"target": ["11", "10", "1", "0", "20", "21", "0", "1", "9", "9", "11", "25", "30", "32", "31", "25", "33", "30"], "time": [1155, 1213, 1322, 2597, 3398, 5104, 6426, 6454, 6821, 9782, 9872, 10113, 10555, 11141, 13380, 14328, 15196, 15229]}, "edge": {"target": [], "time": []}}}, "displayed_time": "20.79", "trialTime": 21735, "trial_type": "mouselab-mdp", "trial_index": 42, "time_elapsed": 1135985, "internal_node_id": "0.0-4.0-1.0-33.0"}}, {"uniqueid": "w16485452:a85434691", "current_trial": 43, "dateTime": 1691144415403, "trialdata": {"revealed_states": [], "clicked_states": ["21", "32", "31", "33"], "num_clicks_accrued": [0, 0, 0, 0, 0, 0, 0, 0, 0, 0, 0, 0, 0], "stateRewards": ["", 2, -1, -2, -5, -47, -57, -33, -11, 31, -18, -72, -2, 1, -4, -8, -46, -53, -50, 15, -85, -9, 39, -2, -2, 1, 14, -1, -8, 53, -12, -41, -74, 62], "withholdReward": false, "trial_id": "mdp_trial_35", "block": "test", "trialIndex": 36, "score": 41.4, "costs": -5.6, "simulationMode": [null, null, null, null, null], "rewards": [-2, -2, 1, -12, 62], "path": ["0", "0", "23", "24", "25", "30", "33"], "rt": [11092, 120, 106, 152, 137], "actions": ["left", "left", "left", "down", "left"], "actionTimes": [12303, 12935, 13547, 14208, 14853], "queries": {"click": {"state": {"target": ["21", "32", "31", "33"], "time": [2919, 5140, 7356, 9576]}, "edge": {"target": [], "time": []}}, "mouseover": {"state": {"target": ["12", "13", "14", "19", "21", "32", "31", "33"], "time": [2199, 2240, 2307, 2616, 2707, 4432, 7158, 9382]}, "edge": {"target": [], "time": []}}, "mouseout": {"state": {"target": ["0", "12", "13", "14", "19", "21", "32", "31", "31", "33"], "time": [2157, 2223, 2273, 2339, 2665, 3366, 6900, 7367, 8007, 9587]}, "edge": {"target": [], "time": []}}}, "displayed_time": "15.36", "trialTime": 16235, "trial_type": "mouselab-mdp", "trial_index": 43, "time_elapsed": 1152332, "internal_node_id": "0.0-4.0-1.0-34.0"}}, {"uniqueid": "w16485452:a85434691", "current_trial": 44, "dateTime": 1691144432815, "trialdata": {"revealed_states": [], "clicked_states": ["5", "6", "7", "11"], "num_clicks_accrued": [0, 0, 0, 0, 0, 0, 0, 0, 0, 0, 0, 0, 0], "stateRewards": ["", -2, -2, -7, -13, -10, 49, -68, -1, 84, 70, 88, 1, 4, 4, 12, -57, 25, 30, 8, -1, -77, 57, 2, 3, 2, 3, -18, -80, 23, -15, -41, 70, 11], "withholdReward": false, "trial_id": "mdp_trial_36", "block": "test", "trialIndex": 37, "score": 70.4, "costs": -5.6, "simulationMode": [null, null, null, null, null], "rewards": [-2, -2, -7, -1, 88], "path": ["0", "0", "1", "2", "3", "8", "11"], "rt": [12083, 76, 78, 122, 70], "actions": ["up", "up", "up", "left", "left"], "actionTimes": [13599, 14185, 14766, 15395, 15974], "queries": {"click": {"state": {"target": ["5", "6", "7", "11"], "time": [2951, 5199, 7565, 10375]}, "edge": {"target": [], "time": []}}, "mouseover": {"state": {"target": ["1", "2", "5", "5", "6", "7", "11", "10", "10", "1"], "time": [2431, 2453, 2521, 2774, 5093, 7359, 10110, 10950, 11775, 12785]}, "edge": {"target": [], "time": []}}, "mouseout": {"state": {"target": ["25", "24", "23", "0", "1", "2", "5", "5", "6", "6", "7", "11", "11", "10", "10"], "time": [980, 1039, 1129, 2399, 2445, 2462, 2563, 3912, 5209, 6985, 7573, 10452, 10867, 10975, 12533]}, "edge": {"target": [], "time": []}}}, "displayed_time": "16.48", "trialTime": 17294, "trial_type": "mouselab-mdp", "trial_index": 44, "time_elapsed": 1169744, "internal_node_id": "0.0-4.0-1.0-35.0"}}, {"uniqueid": "w16485452:a85434691", "current_trial": 45, "dateTime": 1691144449669, "trialdata": {"revealed_states": [], "clicked_states": ["32", "9", "6"], "num_clicks_accrued": [0, 0, 0, 0, 0, 0, 0, 0, 0, 0, 0, 0, 0], "stateRewards": ["", -1, -4, -1, -11, 43, 69, 39, 4, 17, -20, -82, -2, -1, 4, 8, -79, 24, -79, 11, 36, 64, 41, 2, 4, -1, 11, -79, -47, 75, -3, 63, -36, -19], "withholdReward": false, "trial_id": "mdp_trial_37", "block": "test", "trialIndex": 38, "score": 47.8, "costs": -4.199999999999999, "simulationMode": [null, null, null, null, null], "rewards": [-1, -4, -1, -11, 69], "path": ["0", "0", "1", "2", "3", "4", "6"], "rt": [10077, 53, 78, 50, 74], "actions": ["up", "up", "up", "right", "right"], "actionTimes": [11496, 12060, 12643, 13197, 13780], "queries": {"click": {"state": {"target": ["32", "9", "6"], "time": [2493, 5505, 8072]}, "edge": {"target": [], "time": []}}, "mouseover": {"state": {"target": ["31", "32", "33", "29", "25", "26", "27", "11", "9", "5", "6", "7"], "time": [2155, 2211, 3235, 3310, 4270, 4853, 4885, 4977, 5278, 7582, 7915, 10665]}, "edge": {"target": [], "time": []}}, "mouseout": {"state": {"target": ["1", "0", "31", "32", "33", "29", "25", "26", "27", "11", "9", "5", "6", "7"], "time": [927, 2120, 2185, 3169, 3252, 3343, 4303, 4869, 4901, 5068, 7026, 7756, 8773, 10714]}, "edge": {"target": [], "time": []}}}, "displayed_time": "15.43", "trialTime": 16738, "trial_type": "mouselab-mdp", "trial_index": 45, "time_elapsed": 1186599, "internal_node_id": "0.0-4.0-1.0-36.0"}}, {"uniqueid": "w16485452:a85434691", "current_trial": 46, "dateTime": 1691144466741, "trialdata": {"revealed_states": [], "clicked_states": ["21", "32", "27"], "num_clicks_accrued": [0, 0, 0, 0, 0, 0, 0, 0, 0, 0, 0, 0, 0], "stateRewards": ["", 2, 3, 8, 11, 25, -80, 6, -4, -56, 84, -23, -2, -4, -3, 4, -51, -9, -61, -15, -64, 67, -35, 1, -1, -7, -6, 83, 59, -15, 12, -79, 56, 41], "withholdReward": false, "trial_id": "mdp_trial_38", "block": "test", "trialIndex": 39, "score": 65.8, "costs": -4.199999999999999, "simulationMode": [null, null, null, null, null], "rewards": [1, -1, -7, -6, 83], "path": ["0", "0", "23", "24", "25", "26", "27"], "rt": [9719, 124, 163, 94, 49], "actions": ["left", "left", "left", "up", "up"], "actionTimes": [10930, 11556, 12229, 12837, 13390], "queries": {"click": {"state": {"target": ["21", "32", "27"], "time": [2620, 5298, 8110]}, "edge": {"target": [], "time": []}}, "mouseover": {"state": {"target": ["12", "22", "21", "21", "32", "23", "27"], "time": [2123, 2174, 2266, 2449, 5099, 6732, 8008]}, "edge": {"target": [], "time": []}}, "mouseout": {"state": {"target": ["2", "1", "0", "12", "22", "21", "21", "32", "23"], "time": [733, 841, 2093, 2131, 2191, 2332, 3224, 5740, 6774]}, "edge": {"target": [], "time": []}}}, "displayed_time": "15.22", "trialTime": 16952, "trial_type": "mouselab-mdp", "trial_index": 46, "time_elapsed": 1203670, "internal_node_id": "0.0-4.0-1.0-37.0"}}, {"uniqueid": "w16485452:a85434691", "current_trial": 47, "dateTime": 1691144493004, "trialdata": {"revealed_states": [], "clicked_states": ["16", "27", "32", "21", "5", "9", "11"], "num_clicks_accrued": [0, 0, 0, 0, 0, 0, 0, 0, 0, 0, 0, 0, 0], "stateRewards": ["", 2, -2, -3, 10, -4, -1, -11, -8, -9, -36, -78, 2, 1, 7, -7, 44, -1, -31, -1, 26, 47, 83, 2, -4, -4, -6, -52, -76, -81, -1, -59, 45, 67], "withholdReward": false, "trial_id": "mdp_trial_39", "block": "test", "trialIndex": 40, "score": 46.2, "costs": -9.8, "simulationMode": [null, null, null, null, null], "rewards": [2, 1, 7, -1, 47], "path": ["0", "0", "12", "13", "14", "19", "21"], "rt": [20616, 40, 106, 88, 153], "actions": ["right", "right", "right", "down", "down"], "actionTimes": [22243, 22790, 23406, 24004, 24654], "queries": {"click": {"state": {"target": ["16", "27", "32", "21", "5", "9", "11"], "time": [3107, 5607, 7990, 12315, 15727, 18000, 20166]}, "edge": {"target": [], "time": []}}, "mouseover": {"state": {"target": ["16", "10", "27", "26", "32", "21", "21", "20", "14", "4", "5", "9", "8", "11", "10"], "time": [2859, 5167, 5518, 7513, 7851, 11259, 12186, 14826, 15252, 15342, 15625, 17775, 19358, 19984, 20699]}, "edge": {"target": [], "time": []}}, "mouseout": {"state": {"target": ["27", "28", "16", "10", "27", "26", "32", "21", "21", "21", "20", "14", "4", "5", "9", "8", "11", "10"], "time": [818, 917, 4041, 5191, 7502, 7533, 9733, 11383, 14010, 14735, 15213, 15275, 15433, 17692, 19324, 19442, 20649, 20733]}, "edge": {"target": [], "time": []}}}, "displayed_time": "25.16", "trialTime": 26141, "trial_type": "mouselab-mdp", "trial_index": 47, "time_elapsed": 1229933, "internal_node_id": "0.0-4.0-1.0-38.0"}}, {"uniqueid": "w16485452:a85434691", "current_trial": 48, "dateTime": 1691144510114, "trialdata": {"revealed_states": [], "clicked_states": ["18", "28", "33"], "num_clicks_accrued": [0, 0, 0, 0, 0, 0, 0, 0, 0, 0, 0, 0, 0], "stateRewards": ["", -1, 3, 2, 9, 41, 4, -46, -12, -54, -87, -25, 2, 3, -1, 11, -77, 12, -33, -9, -32, 35, 72, 1, 3, -7, 4, 37, 65, -73, 6, 77, -43, 8], "withholdReward": false, "trial_id": "mdp_trial_40", "block": "test", "trialIndex": 41, "score": 61.8, "costs": -4.199999999999999, "simulationMode": [null, null, null, null, null], "rewards": [1, 3, -7, 4, 65], "path": ["0", "0", "23", "24", "25", "26", "28"], "rt": [8611, 219, 162, 198, 169], "actions": ["left", "left", "left", "up", "right"], "actionTimes": [10205, 10929, 11598, 12302, 12980], "queries": {"click": {"state": {"target": ["18", "28", "33"], "time": [3203, 5171, 8160]}, "edge": {"target": [], "time": []}}, "mouseover": {"state": {"target": ["18", "1", "28", "24", "30", "33"], "time": [2960, 3986, 4095, 7764, 7852, 8028]}, "edge": {"target": [], "time": []}}, "mouseout": {"state": {"target": ["1", "0", "18", "1", "28", "28", "24", "30"], "time": [1086, 2753, 3886, 4019, 5273, 5786, 7811, 7903]}, "edge": {"target": [], "time": []}}}, "displayed_time": "15.60", "trialTime": 16988, "trial_type": "mouselab-mdp", "trial_index": 48, "time_elapsed": 1247043, "internal_node_id": "0.0-4.0-1.0-39.0"}}, {"uniqueid": "w16485452:a85434691", "current_trial": 49, "dateTime": 1691144567398, "trialdata": {"rt": 57277, "response": {"Q0": "$-2 to $2", "Q1": "$-32 to $32", "Q2": "$-88 to $88", "Q3": "The cost was always $1.4.", "Q4": "Very motivated"}, "question_order": [0, 1, 2, 3, 4], "trial_id": "final_quiz_control", "trial_type": "survey-multi-choice", "trial_index": 49, "time_elapsed": 1304327, "internal_node_id": "0.0-4.0-2.0"}}, {"uniqueid": "w16485452:a85434691", "current_trial": 50, "dateTime": 1691144686234, "trialdata": {"rt": 118827, "response": {"Q0": "Ignore the intermediate nodes (so I'm not really sure what their values were) and inspect the outer nodes. When I found an outer node that I found acceptable (random but more than 60) I would go to it.", "Q1": "No not really", "Q2": "It was difficult, I didn't want to inspect too much because of the cost to click."}, "trial_id": "self_report_control", "trial_type": "survey-text", "trial_index": 50, "time_elapsed": 1423164, "internal_node_id": "0.0-4.0-3.0"}}, {"uniqueid": "w16485452:a85434691", "current_trial": 51, "dateTime": 1691144708089, "trialdata": {"rt": 21849, "response": {"gender": "male", "age": "53", "colorblind": "0", "effort": "0"}, "trial_type": "survey-html-form", "trial_index": 51, "time_elapsed": 1445019, "internal_node_id": "0.0-4.0-4.0"}}, {"uniqueid": "w16485452:a85434691", "current_trial": 52, "dateTime": 1691144737072, "trialdata": {"rt": 28977, "response": {"Q0": "no", "Q1": "no", "Q2": "I don't have any."}, "trial_type": "survey-text", "trial_index": 52, "time_elapsed": 1474002, "internal_node_id": "0.0-4.0-5.0"}}, {"uniqueid": "w16485452:a85434691", "current_trial": 53, "dateTime": 1691144743650, "trialdata": {"rt": 6573, "stimulus": "Press 'Finish HIT' in order to reach the completion code. Once the data has been saved, you will receive the code either in this window or in the original browser window where you started the experiment.\n", "response": 0, "trial_type": "html-button-response", "trial_index": 53, "time_elapsed": 1480580, "internal_node_id": "0.0-5.0"}}, {"uniqueid": "w16485452:a85434691", "current_trial": 54, "dateTime": 1691144744659, "trialdata": {"success": true, "trial_type": "fullscreen", "trial_index": 54, "time_elapsed": 1481589, "internal_node_id": "0.0-6.0"}}], "questiondata": {"params": {"CODE": "C6DMOQA6", "MIN_TIME": 14, "inspectCost": 1, "startTime": "Fri Aug 04 2023 22:01:01 GMT+1200 (New Zealand Standard Time)", "bonusRate": 0.002, "variance": "1_2_4_8_44", "branching": "31123"}, "final_score": 1854}, "eventdata": [{"eventtype": "initialized", "value": null, "timestamp": 1691143260612, "interval": 0}, {"eventtype": "window_resize", "value": [1024, 767], "timestamp": 1691143260612, "interval": 0}, {"eventtype": "window_resize", "value": [1024, 767], "timestamp": 1691143261116, "interval": 504}, {"eventtype": "window_resize", "value": [1800, 1126], "timestamp": 1691143265469, "interval": 4353}, {"eventtype": "window_resize", "value": [1024, 767], "timestamp": 1691144743899, "interval": 1478430}], "useragent": "Mozilla/5.0 (Macintosh; Intel Mac OS X 10_15_7) AppleWebKit/537.36 (KHTML, like Gecko) Chrome/115.0.0.0 Safari/537.36", "mode": "live", "id": "w16485452:a85434691", "status": "user data saved", "Beginhit": "2023-08-04 10:00:57.891408", "Beginexp": "2023-08-04 10:01:06.555804", "Endhit": "2023-08-04 10:25:46.120856", "psiturkStatus": 3, "browser": "<redacted>", "platform": "macos", "language": "en-US"}