{"condition": 0, "counterbalance": 0, "assignmentId": "a19614350", "workerId": "w19480958", "hitId": "h92256616", "currenttrial": 55, "bonus": 0, "data": [{"uniqueid": "w19480958:a19614350", "current_trial": 0, "dateTime": 1693564565573, "trialdata": {"success": true, "trial_type": "fullscreen", "trial_index": 0, "time_elapsed": 4092, "internal_node_id": "0.0-0.0"}}, {"uniqueid": "w19480958:a19614350", "current_trial": 1, "dateTime": 1693564577734, "trialdata": {"view_history": [{"page_index": 0, "viewing_time": 12158}], "rt": 12159, "trial_id": "exp_instructions_control", "trial_type": "instructions", "trial_index": 1, "time_elapsed": 16253, "internal_node_id": "0.0-1.0"}}, {"uniqueid": "w19480958:a19614350", "current_trial": 2, "dateTime": 1693564720882, "trialdata": {"view_history": [{"page_index": 0, "viewing_time": 37828}, {"page_index": 1, "viewing_time": 60398}, {"page_index": 2, "viewing_time": 16781}, {"page_index": 3, "viewing_time": 28140}], "rt": 143147, "trial_id": "mouselab_instructions_1_control", "trial_type": "instructions", "trial_index": 2, "time_elapsed": 159401, "internal_node_id": "0.0-2.0-1.0"}}, {"uniqueid": "w19480958:a19614350", "current_trial": 3, "dateTime": 1693564755070, "trialdata": {"revealed_states": [], "clicked_states": ["1", "23", "24", "25", "26", "2", "3", "4", "7", "12", "13", "14", "15", "19", "18"], "num_clicks_accrued": [0, 0, 0, 0, 0, 0, 0, 0, 0, 0, 0, 0, 0], "stateRewards": ["", 10, -10, -10, 10, 10, 10, -10, -10, -10, -10, 10, -10, 10, 10, 10, 10, 10, 10, 10, 10, -10, 10, -10, 10, -10, -10, -10, 10, -10, -10, 10, 10, -10], "withholdReward": false, "trial_id": "practice_1", "block": "test", "trialIndex": 0, "score": 26, "costs": -7.5, "simulationMode": [null, null, null, null, null], "rewards": [-10, 10, 10, 10, 10], "path": ["0", "0", "12", "13", "14", "15", "18"], "rt": [27643, 71, 40, 76, 65], "actions": ["right", "right", "right", "up", "left"], "actionTimes": [29451, 30021, 30560, 31137, 31703], "queries": {"click": {"state": {"target": ["1", "23", "24", "25", "26", "2", "3", "4", "7", "12", "13", "14", "15", "19", "18"], "time": [5929, 7109, 8825, 10476, 11774, 13477, 14960, 16517, 17989, 19735, 21170, 22671, 24130, 25767, 27609]}, "edge": {"target": [], "time": []}}, "mouseover": {"state": {"target": ["0", "12", "1", "23", "24", "25", "25", "25", "30", "26", "26", "2", "2", "3", "7", "13", "7", "4", "7", "18", "13", "12", "13", "18", "14", "18", "15", "19", "18", "13", "12"], "time": [2004, 3603, 4930, 6814, 7794, 9062, 9393, 10269, 10693, 11110, 11403, 12556, 13266, 14628, 15489, 15628, 16233, 16449, 16907, 19445, 19479, 19646, 20626, 21933, 22587, 22907, 23893, 24853, 27494, 29232, 29357]}, "edge": {"target": [], "time": []}}, "mouseout": {"state": {"target": ["12", "0", "0", "12", "1", "23", "24", "25", "25", "25", "30", "25", "26", "26", "24", "2", "2", "3", "7", "13", "7", "4", "7", "18", "13", "12", "13", "13", "18", "14", "18", "15", "14", "19", "14", "15", "18", "13", "12"], "time": [648, 1670, 2066, 4638, 6515, 7398, 9039, 9102, 9803, 10617, 10784, 10881, 11147, 11889, 12077, 12834, 14280, 15295, 15531, 16025, 16407, 16810, 18158, 19458, 19514, 19973, 21365, 21738, 22454, 22675, 22914, 24297, 24408, 25924, 26021, 27230, 27855, 29309, 32812]}, "edge": {"target": [], "time": []}}}, "displayed_time": "32.20", "trialTime": 33915, "trial_type": "mouselab-mdp", "trial_index": 3, "time_elapsed": 193589, "internal_node_id": "0.0-2.0-2.0-0.0"}}, {"uniqueid": "w19480958:a19614350", "current_trial": 4, "dateTime": 1693564779016, "trialdata": {"revealed_states": [], "clicked_states": ["12", "13", "14", "23", "1", "2", "24", "15", "18"], "num_clicks_accrued": [0, 0, 0, 0, 0, 0, 0, 0, 0, 0, 0, 0, 0], "stateRewards": ["", -10, -10, 10, 10, 10, 10, -10, -10, -10, 10, 10, 10, -10, -10, 10, -10, -10, 10, 10, -10, -10, 10, -10, -10, -10, 10, -10, -10, 10, 10, -10, 10, -10], "withholdReward": false, "trial_id": "practice_2", "block": "test", "trialIndex": 1, "score": 9, "costs": -4.5, "simulationMode": [null, null, null, null, null], "rewards": [10, -10, -10, 10, 10], "path": ["0", "0", "12", "13", "14", "15", "18"], "rt": [17213, 535, 101, 76, 70], "actions": ["right", "right", "right", "up", "left"], "actionTimes": [18795, 19832, 20433, 21006, 21577], "queries": {"click": {"state": {"target": ["12", "13", "14", "23", "1", "2", "24", "15", "18"], "time": [2247, 3676, 5265, 6928, 8540, 10269, 12078, 14081, 15752]}, "edge": {"target": [], "time": []}}, "mouseover": {"state": {"target": ["0", "12", "13", "13", "22", "14", "0", "23", "30", "33", "25", "24", "1", "2", "24", "25", "23", "14", "15", "18", "16", "14", "19"], "time": [1917, 2188, 3385, 3592, 3843, 5163, 5798, 6081, 7131, 7200, 7895, 8236, 8479, 9724, 11746, 12330, 13477, 13637, 13796, 14589, 16417, 17828, 18266]}, "edge": {"target": [], "time": []}}, "mouseout": {"state": {"target": ["13", "0", "0", "12", "13", "13", "22", "13", "14", "0", "23", "30", "33", "25", "24", "1", "1", "2", "24", "24", "25", "24", "23", "14", "15", "18", "16", "15", "14", "19", "21"], "time": [937, 1722, 2118, 2508, 3540, 3822, 3871, 5136, 5386, 5984, 7061, 7158, 7430, 8152, 8271, 8772, 9619, 10453, 12137, 12282, 13435, 13470, 13484, 13699, 14381, 16258, 17641, 17690, 17877, 22451, 22556]}, "edge": {"target": [], "time": []}}}, "displayed_time": "22.08", "trialTime": 23824, "trial_type": "mouselab-mdp", "trial_index": 4, "time_elapsed": 217534, "internal_node_id": "0.0-2.0-2.0-1.0"}}, {"uniqueid": "w19480958:a19614350", "current_trial": 5, "dateTime": 1693564800194, "trialdata": {"view_history": [{"page_index": 0, "viewing_time": 17180}, {"page_index": 1, "viewing_time": 3997}], "rt": 21177, "trial_id": "mouselab_instructions_2_control", "trial_type": "instructions", "trial_index": 5, "time_elapsed": 238713, "internal_node_id": "0.0-2.0-3.0"}}, {"uniqueid": "w19480958:a19614350", "current_trial": 6, "dateTime": 1693564830145, "trialdata": {"rt": 29948, "response": {"Q0": "The cost for clicking on nodes may vary between nodes.", "Q1": "The better I perform the higher my bonus will be.", "Q2": "No, the amount of cash at each node of the web may be different each time.", "Q3": "To get the highest total score.", "Q4": "Only before moving the spider.", "Q5": "3 seconds"}, "question_order": [0, 1, 2, 3, 4, 5], "correct": {"Q0": "The cost for clicking on nodes may vary between nodes.", "Q1": "The better I perform the higher my bonus will be.", "Q2": "No, the amount of cash at each node of the web may be different each time.", "Q3": "To get the highest total score.", "Q4": "Only before moving the spider.", "Q5": "3 seconds"}, "trial_id": "mouselab_quiz_control", "trial_type": "survey-multi-choice", "trial_index": 6, "time_elapsed": 268664, "internal_node_id": "0.0-2.0-4.0"}}, {"uniqueid": "w19480958:a19614350", "current_trial": 7, "dateTime": 1693564836914, "trialdata": {"rt": 6764, "response": {"Q0": "No"}, "question_order": [0], "trial_id": "repeat_check", "trial_type": "survey-multi-choice", "trial_index": 7, "time_elapsed": 275432, "internal_node_id": "0.0-4.0-0.0"}}, {"uniqueid": "w19480958:a19614350", "current_trial": 8, "dateTime": 1693564843755, "trialdata": {"rt": 6839, "stimulus": "\n<h1> Get ready to start the game! </h1>\n\nThank you for reading the instructions. Get ready start with the 40 rounds of this game.\n<br><br>\nIf you need to take a break, feel free to take one after the end of a round, before continuing to the next one.\n<br><br>\nRemember, the more money the spider gets, the bigger your bonus will be!\n<br><br>\n<div style='text-align: center;'>Press <code>space</code> to begin.</div>\n\n<br><br>\n(If, at any point, the <code>space</code> key does not take you to the next page, click once on the text and try again.)", "response": " ", "trial_id": "mdp_ready", "trial_type": "html-keyboard-response", "trial_index": 8, "time_elapsed": 282274, "internal_node_id": "0.0-6.0-0.0"}}, {"uniqueid": "w19480958:a19614350", "current_trial": 9, "dateTime": 1693564873321, "trialdata": {"revealed_states": [], "clicked_states": ["12", "1", "13", "14", "15", "16", "18", "17", "19", "22"], "num_clicks_accrued": [0, 0, 0, 0, 0, 0, 0, 0, 0, 0, 0, 0, 0], "stateRewards": ["", 2, -1, 8, -2, -16, 69, -39, -7, -13, -27, -86, 2, -2, 2, 13, -34, -16, -20, -5, 19, 81, 32, -2, -1, 2, -14, 20, 80, 58, 4, 70, 12, 73], "withholdReward": false, "trial_id": "mdp_trial_1", "block": "test", "trialIndex": 2, "score": 15, "costs": -14.000000000000002, "simulationMode": [null, null, null, null, null], "rewards": [2, -2, 2, -5, 32], "path": ["0", "0", "12", "13", "14", "19", "22"], "rt": [24037, 6, 38, 1, 32], "actions": ["right", "right", "right", "down", "left"], "actionTimes": [25965, 26474, 27013, 27511, 28049], "queries": {"click": {"state": {"target": ["12", "1", "13", "14", "15", "16", "18", "17", "19", "22"], "time": [2293, 4009, 6075, 7966, 10187, 12829, 15049, 17850, 20412, 22939]}, "edge": {"target": [], "time": []}}, "mouseover": {"state": {"target": ["0", "12", "1", "1", "13", "13", "13", "14", "14", "15", "14", "14", "16", "7", "2", "7", "15", "15", "19", "18", "16", "18", "15", "15", "15", "17", "17", "14", "19", "22", "21", "22", "22", "21"], "time": [1979, 2109, 3242, 3855, 4792, 5036, 5362, 6293, 6551, 6718, 6892, 7239, 8345, 8434, 8810, 9922, 9978, 10080, 10798, 12383, 12752, 14899, 15664, 15775, 15935, 16866, 17666, 19932, 20015, 20766, 20968, 21809, 22650, 24492]}, "edge": {"target": [], "time": []}}, "mouseout": {"state": {"target": ["1", "0", "12", "12", "1", "1", "12", "13", "13", "13", "14", "14", "15", "14", "14", "16", "7", "2", "7", "15", "15", "19", "14", "18", "16", "15", "18", "18", "15", "15", "18", "15", "17", "17", "14", "19", "19", "22", "21", "22", "22", "22", "19", "21"], "time": [510, 2053, 2505, 2950, 3521, 4341, 4507, 4938, 5285, 6245, 6307, 6620, 6822, 7010, 8184, 8386, 8456, 9909, 9943, 10019, 10423, 12077, 12098, 12682, 13078, 13544, 15135, 15365, 15685, 15810, 15838, 16234, 17117, 18020, 19960, 20579, 20759, 20794, 21072, 22434, 23151, 23783, 24173, 28601]}, "edge": {"target": [], "time": []}}}, "displayed_time": "28.55", "trialTime": 29427, "trial_type": "mouselab-mdp", "trial_index": 9, "time_elapsed": 311839, "internal_node_id": "0.0-6.0-1.0-0.0"}}, {"uniqueid": "w19480958:a19614350", "current_trial": 10, "dateTime": 1693564907467, "trialdata": {"revealed_states": [], "clicked_states": ["12", "1", "2", "13", "14", "15", "23", "24", "25", "26", "28", "27", "29"], "num_clicks_accrued": [0, 0, 0, 0, 0, 0, 0, 0, 0, 0, 0, 0, 0], "stateRewards": ["", -1, -3, -3, 1, -38, 2, -53, -2, -1, -81, 70, -1, 1, -5, -9, 46, 15, 35, -1, -22, 38, 59, -2, 4, -8, 13, 1, -83, -43, 4, 76, 13, 48], "withholdReward": false, "trial_id": "mdp_trial_2", "block": "test", "trialIndex": 3, "score": -10.2, "costs": -18.2, "simulationMode": [null, null, null, null, null], "rewards": [-2, 4, -8, 13, 1], "path": ["0", "0", "23", "24", "25", "26", "27"], "rt": [28046, 330, 82, 67, 16], "actions": ["left", "left", "left", "up", "up"], "actionTimes": [29873, 30705, 31284, 31853, 32372], "queries": {"click": {"state": {"target": ["12", "1", "2", "13", "14", "15", "23", "24", "25", "26", "28", "27", "29"], "time": [2410, 4369, 6353, 8708, 10782, 13057, 15680, 17751, 19760, 21683, 23861, 26001, 28041]}, "edge": {"target": [], "time": []}}, "mouseover": {"state": {"target": ["12", "22", "1", "2", "10", "10", "8", "2", "13", "12", "14", "12", "22", "19", "15", "13", "22", "22", "23", "24", "23", "24", "25", "26", "30", "28", "27", "26", "29", "25"], "time": [2346, 2700, 4313, 4744, 4808, 4981, 5078, 5613, 8463, 9262, 10639, 11216, 11821, 11939, 12954, 13280, 13343, 14032, 15039, 15192, 15623, 16339, 18410, 20579, 22373, 23728, 24215, 26307, 26946, 28330]}, "edge": {"target": [], "time": []}}, "mouseout": {"state": {"target": ["0", "12", "22", "12", "1", "1", "2", "10", "10", "8", "2", "1", "1", "13", "12", "13", "13", "14", "13", "12", "13", "22", "19", "14", "15", "13", "22", "22", "23", "24", "23", "24", "25", "25", "25", "26", "25", "30", "28", "27", "26", "29", "25", "24"], "time": [1942, 2568, 2763, 2881, 4563, 4710, 4758, 4849, 5057, 5495, 6503, 6538, 8366, 8894, 9589, 10403, 10569, 11042, 11167, 11237, 11696, 11848, 12606, 12705, 13239, 13295, 13350, 14562, 15129, 15581, 16165, 17987, 19829, 19982, 20329, 21865, 22317, 23548, 24111, 26231, 26460, 28267, 29665, 33154]}, "edge": {"target": [], "time": []}}}, "displayed_time": "32.88", "trialTime": 33989, "trial_type": "mouselab-mdp", "trial_index": 10, "time_elapsed": 345985, "internal_node_id": "0.0-6.0-1.0-1.0"}}, {"uniqueid": "w19480958:a19614350", "current_trial": 11, "dateTime": 1693564936434, "trialdata": {"revealed_states": [], "clicked_states": ["1", "2", "12", "13", "14", "23", "24", "25", "26", "30", "31"], "num_clicks_accrued": [0, 0, 0, 0, 0, 0, 0, 0, 0, 0, 0, 0, 0], "stateRewards": ["", -1, -3, 4, -10, -5, 79, -87, -2, 53, 29, -20, -2, -1, -5, 10, 27, 86, 46, -16, -29, 40, 3, 2, 4, -1, -6, 37, 79, -29, 7, 86, -62, 29], "withholdReward": false, "trial_id": "mdp_trial_3", "block": "test", "trialIndex": 4, "score": 82.6, "costs": -15.400000000000002, "simulationMode": [null, null, null, null, null], "rewards": [2, 4, -1, 7, 86], "path": ["0", "0", "23", "24", "25", "30", "31"], "rt": [23865, 368, 68, 45, 20], "actions": ["left", "left", "left", "down", "right"], "actionTimes": [24710, 25579, 26145, 26692, 27210], "queries": {"click": {"state": {"target": ["1", "2", "12", "13", "14", "23", "24", "25", "26", "30", "31"], "time": [1470, 3622, 5512, 7416, 10142, 12786, 15069, 16990, 18965, 20865, 22836]}, "edge": {"target": [], "time": []}}, "mouseover": {"state": {"target": ["0", "0", "1", "2", "12", "22", "13", "23", "0", "14", "0", "23", "0", "12", "13", "15", "24", "25", "26", "30", "31"], "time": [919, 1211, 1371, 3533, 3839, 5827, 6543, 8365, 9518, 10026, 12048, 12194, 13821, 13863, 13898, 14452, 14982, 16907, 18409, 20619, 22303]}, "edge": {"target": [], "time": []}}, "mouseout": {"state": {"target": ["0", "0", "0", "1", "1", "2", "12", "22", "12", "13", "23", "0", "12", "13", "13", "12", "13", "14", "0", "23", "23", "0", "12", "13", "14", "15", "23", "24", "25", "25", "26", "25", "30", "30", "31", "25"], "time": [683, 989, 1225, 1640, 3443, 3769, 5667, 5849, 6488, 7588, 9497, 9546, 9574, 9615, 9865, 9949, 9998, 10325, 12090, 13147, 13808, 13842, 13884, 13925, 14016, 14697, 14801, 15427, 17221, 17576, 19125, 19320, 21072, 21412, 23108, 27849]}, "edge": {"target": [], "time": []}}}, "displayed_time": "27.72", "trialTime": 28851, "trial_type": "mouselab-mdp", "trial_index": 11, "time_elapsed": 374952, "internal_node_id": "0.0-6.0-1.0-2.0"}}, {"uniqueid": "w19480958:a19614350", "current_trial": 12, "dateTime": 1693564956456, "trialdata": {"revealed_states": [], "clicked_states": ["1", "2", "3", "4", "5", "6", "7"], "num_clicks_accrued": [0, 0, 0, 0, 0, 0, 0, 0, 0, 0, 0, 0, 0], "stateRewards": ["", -2, 1, -8, 12, -65, -79, 16, 7, -80, -17, -45, -2, 2, -5, -2, -85, 23, -4, -7, 48, 27, -76, 2, 3, 5, 2, 43, 71, -13, 7, -49, 59, -31], "withholdReward": false, "trial_id": "mdp_trial_4", "block": "test", "trialIndex": 5, "score": 9.2, "costs": -9.8, "simulationMode": [null, null, null, null, null], "rewards": [-2, 1, -8, 12, 16], "path": ["0", "0", "1", "2", "3", "4", "7"], "rt": [15258, 1, 492, 49, 30], "actions": ["up", "up", "up", "right", "down"], "actionTimes": [16141, 16643, 17640, 18191, 18721], "queries": {"click": {"state": {"target": ["1", "2", "3", "4", "5", "6", "7"], "time": [1350, 3476, 5449, 7580, 9793, 11894, 13751]}, "edge": {"target": [], "time": []}}, "mouseover": {"state": {"target": ["0", "1", "0", "2", "3", "4", "8", "5", "6", "7", "2", "10", "8"], "time": [922, 1249, 1583, 3397, 4996, 7339, 7999, 9688, 11697, 12574, 14040, 14207, 14776]}, "edge": {"target": [], "time": []}}, "mouseout": {"state": {"target": ["0", "0", "1", "0", "1", "2", "2", "2", "3", "2", "2", "3", "4", "8", "5", "4", "6", "4", "7", "2", "10", "8", "7"], "time": [609, 985, 1507, 2328, 3321, 3553, 4109, 4628, 5594, 5670, 6394, 6727, 7791, 9466, 10057, 11099, 12052, 12100, 14012, 14082, 14278, 15861, 16500]}, "edge": {"target": [], "time": []}}}, "displayed_time": "19.22", "trialTime": 19903, "trial_type": "mouselab-mdp", "trial_index": 12, "time_elapsed": 394974, "internal_node_id": "0.0-6.0-1.0-3.0"}}, {"uniqueid": "w19480958:a19614350", "current_trial": 13, "dateTime": 1693564978779, "trialdata": {"revealed_states": [], "clicked_states": ["12", "13", "14", "19", "15", "22", "21", "20"], "num_clicks_accrued": [0, 0, 0, 0, 0, 0, 0, 0, 0, 0, 0, 0, 0], "stateRewards": ["", -1, -3, -7, -4, -85, -70, 79, 8, 84, -66, 42, 2, -2, -3, -16, -54, -66, 68, -3, 21, -14, 7, -2, -1, -3, -8, 75, 80, 86, -7, -84, 73, -16], "withholdReward": false, "trial_id": "mdp_trial_5", "block": "test", "trialIndex": 6, "score": 3.799999999999997, "costs": -11.200000000000001, "simulationMode": [null, null, null, null, null], "rewards": [2, -2, -3, -3, 21], "path": ["0", "0", "12", "13", "14", "19", "20"], "rt": [17628, 5, 7, 381, 69], "actions": ["right", "right", "right", "down", "right"], "actionTimes": [18345, 18848, 19357, 20246, 20817], "queries": {"click": {"state": {"target": ["12", "13", "14", "19", "15", "22", "21", "20"], "time": [1161, 3129, 4965, 6913, 8965, 11824, 13750, 15681]}, "edge": {"target": [], "time": []}}, "mouseover": {"state": {"target": ["12", "13", "14", "19", "15", "18", "16", "18", "22", "21", "20", "13", "18", "17"], "time": [1102, 2708, 4370, 5183, 7414, 9784, 10743, 11258, 11634, 12155, 14505, 15929, 17188, 17640]}, "edge": {"target": [], "time": []}}, "mouseout": {"state": {"target": ["0", "12", "12", "13", "14", "19", "15", "15", "14", "18", "16", "18", "19", "22", "21", "20", "13", "18", "17", "13"], "time": [969, 2327, 2652, 3200, 5156, 7191, 9031, 9179, 9631, 10368, 11119, 11292, 11515, 12050, 13941, 15722, 15950, 17209, 17660, 21421]}, "edge": {"target": [], "time": []}}}, "displayed_time": "21.32", "trialTime": 22198, "trial_type": "mouselab-mdp", "trial_index": 13, "time_elapsed": 417298, "internal_node_id": "0.0-6.0-1.0-4.0"}}, {"uniqueid": "w19480958:a19614350", "current_trial": 14, "dateTime": 1693564999432, "trialdata": {"revealed_states": [], "clicked_states": ["23", "24", "25", "30", "31", "32", "33"], "num_clicks_accrued": [0, 0, 0, 0, 0, 0, 0, 0, 0, 0, 0, 0, 0], "stateRewards": ["", -2, -4, 4, -11, -63, -60, -7, 2, -14, 81, -43, -1, -1, -5, 7, 10, 69, 40, 8, -83, 52, 60, 1, 2, 5, -5, 16, 64, 14, -3, 29, 7, -51], "withholdReward": false, "trial_id": "mdp_trial_6", "block": "test", "trialIndex": 7, "score": 24.2, "costs": -9.8, "simulationMode": [null, null, null, null, null], "rewards": [1, 2, 5, -3, 29], "path": ["0", "0", "23", "24", "25", "30", "31"], "rt": [15127, 373, 60, 1, 114], "actions": ["left", "left", "left", "down", "right"], "actionTimes": [15833, 16706, 17268, 17772, 18393], "queries": {"click": {"state": {"target": ["23", "24", "25", "30", "31", "32", "33"], "time": [1503, 3561, 5606, 7658, 9783, 11979, 13990]}, "edge": {"target": [], "time": []}}, "mouseover": {"state": {"target": ["23", "23", "24", "31", "25", "30", "30", "31", "32", "30", "33"], "time": [1024, 1434, 3437, 3805, 5480, 5904, 7313, 9672, 11875, 12174, 13745]}, "edge": {"target": [], "time": []}}, "mouseout": {"state": {"target": ["0", "23", "23", "24", "31", "25", "30", "30", "25", "25", "31", "31", "32", "30", "33"], "time": [934, 1087, 1970, 3756, 4132, 5828, 6600, 7722, 7962, 8268, 9861, 10061, 11985, 12181, 14246]}, "edge": {"target": [], "time": []}}}, "displayed_time": "18.89", "trialTime": 20529, "trial_type": "mouselab-mdp", "trial_index": 14, "time_elapsed": 437950, "internal_node_id": "0.0-6.0-1.0-5.0"}}, {"uniqueid": "w19480958:a19614350", "current_trial": 15, "dateTime": 1693565034140, "trialdata": {"revealed_states": [], "clicked_states": ["1", "2", "3", "4", "8", "9", "11", "10", "7", "6", "23", "24", "28", "27"], "num_clicks_accrued": [0, 0, 0, 0, 0, 0, 0, 0, 0, 0, 0, 0, 0], "stateRewards": ["", -1, -1, 7, -15, -43, -21, -84, -9, -45, -66, 2, 1, -2, 2, 8, -27, 44, -52, -5, -84, 11, 53, 1, 4, -4, 16, 83, -82, -15, -16, 68, -43, 81], "withholdReward": false, "trial_id": "mdp_trial_7", "block": "test", "trialIndex": 8, "score": 80.4, "costs": -19.599999999999998, "simulationMode": [null, null, null, null, null], "rewards": [1, 4, -4, 16, 83], "path": ["0", "0", "23", "24", "25", "26", "27"], "rt": [30227, 403, 70, 78, 71], "actions": ["left", "left", "left", "up", "up"], "actionTimes": [30791, 31696, 32267, 32844, 33414], "queries": {"click": {"state": {"target": ["1", "2", "3", "4", "8", "9", "11", "10", "7", "6", "23", "24", "28", "27"], "time": [1203, 3370, 5631, 7523, 9672, 11738, 13676, 15573, 17967, 19787, 22288, 24597, 26580, 28765]}, "edge": {"target": [], "time": []}}, "mouseover": {"state": {"target": ["1", "0", "2", "23", "31", "23", "3", "4", "7", "7", "7", "8", "9", "9", "10", "11", "10", "3", "3", "7", "6", "1", "23", "23", "24", "25", "25", "25", "25", "24", "25", "28", "26", "27", "26", "26"], "time": [928, 2312, 3284, 3965, 4049, 4404, 5564, 7136, 7774, 8907, 9290, 9589, 10806, 11202, 12321, 13246, 14163, 15963, 16179, 17903, 18556, 20815, 21400, 22060, 23102, 23144, 23304, 23624, 23888, 24318, 25459, 26262, 28545, 28698, 28976, 30573]}, "edge": {"target": [], "time": []}}, "mouseout": {"state": {"target": ["0", "1", "1", "0", "2", "2", "1", "23", "31", "23", "2", "3", "2", "4", "7", "7", "7", "8", "8", "8", "9", "9", "8", "10", "11", "10", "3", "3", "7", "7", "6", "7", "1", "23", "23", "23", "24", "25", "25", "25", "25", "24", "25", "28", "26", "27", "26", "26", "28", "0"], "time": [768, 1264, 1967, 2375, 3430, 3687, 3924, 4000, 4320, 5348, 5432, 5802, 5842, 7714, 7851, 9172, 9311, 9737, 9929, 10778, 10819, 11945, 12147, 12835, 13941, 15859, 16001, 17381, 18042, 18382, 20012, 20746, 20878, 21736, 22369, 22473, 23116, 23186, 23359, 23658, 24057, 24946, 25775, 26766, 28657, 28948, 29185, 33842, 34127, 34329]}, "edge": {"target": [], "time": []}}}, "displayed_time": "33.92", "trialTime": 34585, "trial_type": "mouselab-mdp", "trial_index": 15, "time_elapsed": 472658, "internal_node_id": "0.0-6.0-1.0-6.0"}}, {"uniqueid": "w19480958:a19614350", "current_trial": 16, "dateTime": 1693565050098, "trialdata": {"revealed_states": [], "clicked_states": ["31", "32", "33", "28"], "num_clicks_accrued": [0, 0, 0, 0, 0, 0, 0, 0, 0, 0, 0, 0, 0], "stateRewards": ["", -1, 3, 1, -11, -22, -36, 19, -5, -70, -52, 50, -2, -4, 4, -2, -41, -83, 29, -2, 22, 10, -6, -2, 3, -2, 14, 54, 44, 77, -9, -65, -37, -40], "withholdReward": false, "trial_id": "mdp_trial_8", "block": "test", "trialIndex": 9, "score": 51.4, "costs": -5.6, "simulationMode": [null, null, null, null, null], "rewards": [-2, 3, -2, 14, 44], "path": ["0", "0", "23", "24", "25", "26", "28"], "rt": [11026, 12, 16, 3, 33], "actions": ["left", "left", "left", "up", "right"], "actionTimes": [11874, 12388, 12913, 13421, 13958], "queries": {"click": {"state": {"target": ["31", "32", "33", "28"], "time": [2158, 4404, 6962, 8817]}, "edge": {"target": [], "time": []}}, "mouseover": {"state": {"target": ["12", "13", "12", "28", "30", "31", "12", "0", "23", "30", "33", "33", "32", "33", "26", "28", "27"], "time": [1050, 1127, 1273, 1370, 1843, 2044, 2567, 2663, 2740, 2844, 3046, 3650, 4276, 6875, 7300, 7884, 9212]}, "edge": {"target": [], "time": []}}, "mouseout": {"state": {"target": ["0", "12", "13", "12", "28", "30", "31", "12", "0", "23", "30", "33", "33", "32", "33", "26", "28", "27", "28"], "time": [696, 1085, 1252, 1280, 1412, 1975, 2337, 2588, 2719, 2754, 2906, 3359, 3886, 4519, 7038, 7426, 8877, 14696, 15023]}, "edge": {"target": [], "time": []}}}, "displayed_time": "14.85", "trialTime": 15820, "trial_type": "mouselab-mdp", "trial_index": 16, "time_elapsed": 488617, "internal_node_id": "0.0-6.0-1.0-7.0"}}, {"uniqueid": "w19480958:a19614350", "current_trial": 17, "dateTime": 1693565065850, "trialdata": {"revealed_states": [], "clicked_states": ["18", "7", "10", "28"], "num_clicks_accrued": [0, 0, 0, 0, 0, 0, 0, 0, 0, 0, 0, 0, 0], "stateRewards": ["", -2, -1, -2, -15, 87, 57, 29, -10, 77, -80, -7, 1, -3, 6, 14, -11, 87, -59, 4, -71, 16, -11, 2, 2, -7, 2, -47, 61, 50, 14, -20, 17, 81], "withholdReward": false, "trial_id": "mdp_trial_9", "block": "test", "trialIndex": 10, "score": 54.4, "costs": -5.6, "simulationMode": [null, null, null, null, null], "rewards": [2, 2, -7, 2, 61], "path": ["0", "0", "23", "24", "25", "26", "28"], "rt": [10101, 410, 102, 52, 72], "actions": ["left", "left", "left", "up", "right"], "actionTimes": [10834, 11743, 12353, 12907, 13482], "queries": {"click": {"state": {"target": ["18", "7", "10", "28"], "time": [1599, 3740, 5777, 7922]}, "edge": {"target": [], "time": []}}, "mouseover": {"state": {"target": ["22", "13", "18", "13", "19", "19", "13", "7", "12", "1", "10", "28", "24"], "time": [1239, 1377, 1501, 1787, 1954, 2440, 3406, 3677, 4331, 4539, 5589, 7778, 10372]}, "edge": {"target": [], "time": []}}, "mouseout": {"state": {"target": ["0", "22", "13", "18", "13", "19", "19", "13", "18", "7", "12", "1", "10", "28", "24"], "time": [841, 1328, 1439, 1752, 1803, 1960, 2447, 3427, 3483, 3914, 4456, 4734, 5909, 8203, 12485]}, "edge": {"target": [], "time": []}}}, "displayed_time": "14.73", "trialTime": 15617, "trial_type": "mouselab-mdp", "trial_index": 17, "time_elapsed": 504368, "internal_node_id": "0.0-6.0-1.0-8.0"}}, {"uniqueid": "w19480958:a19614350", "current_trial": 18, "dateTime": 1693565081582, "trialdata": {"revealed_states": [], "clicked_states": ["28", "31"], "num_clicks_accrued": [0, 0, 0, 0, 0, 0, 0, 0, 0, 0, 0, 0, 0], "stateRewards": ["", -1, -4, -3, 1, -45, -67, -24, 14, 32, 22, 22, -1, 1, -5, -7, 72, 84, -79, -5, 19, -40, -2, -1, -2, 8, -3, 84, -25, -28, 11, 64, -66, 77], "withholdReward": false, "trial_id": "mdp_trial_10", "block": "test", "trialIndex": 11, "score": 77.2, "costs": -2.8, "simulationMode": [null, null, null, null, null], "rewards": [-1, -2, 8, 11, 64], "path": ["0", "0", "23", "24", "25", "30", "31"], "rt": [5652, 2, 42, 5, 109], "actions": ["left", "left", "left", "down", "right"], "actionTimes": [6530, 7036, 7588, 8093, 8708], "queries": {"click": {"state": {"target": ["28", "31"], "time": [1618, 3457]}, "edge": {"target": [], "time": []}}, "mouseover": {"state": {"target": ["28", "24", "31", "32"], "time": [1490, 1824, 2644, 4097]}, "edge": {"target": [], "time": []}}, "mouseout": {"state": {"target": ["0", "28", "24", "31", "32"], "time": [1046, 1804, 1852, 3715, 9401]}, "edge": {"target": [], "time": []}}}, "displayed_time": "14.88", "trialTime": 15600, "trial_type": "mouselab-mdp", "trial_index": 18, "time_elapsed": 520101, "internal_node_id": "0.0-6.0-1.0-9.0"}}, {"uniqueid": "w19480958:a19614350", "current_trial": 19, "dateTime": 1693565097300, "trialdata": {"revealed_states": [], "clicked_states": ["22", "20"], "num_clicks_accrued": [0, 0, 0, 0, 0, 0, 0, 0, 0, 0, 0, 0, 0], "stateRewards": ["", 2, -3, -5, 5, 11, -9, -33, 6, 67, 6, -30, -1, -2, -6, 13, 55, 13, 72, -14, 75, 21, -66, -2, -4, 6, 15, -1, -35, 60, 2, 51, -73, 12], "withholdReward": false, "trial_id": "mdp_trial_11", "block": "test", "trialIndex": 12, "score": 49.2, "costs": -2.8, "simulationMode": [null, null, null, null, null], "rewards": [-1, -2, -6, -14, 75], "path": ["0", "0", "12", "13", "14", "19", "20"], "rt": [6557, 179, 123, 116, 255], "actions": ["right", "right", "right", "down", "right"], "actionTimes": [7404, 8087, 8712, 9331, 10088], "queries": {"click": {"state": {"target": ["22", "20"], "time": [1487, 4173]}, "edge": {"target": [], "time": []}}, "mouseover": {"state": {"target": ["22", "21", "20", "19", "13", "18", "14"], "time": [1282, 3409, 3918, 4384, 4417, 6008, 6572]}, "edge": {"target": [], "time": []}}, "mouseout": {"state": {"target": ["0", "22", "21", "20", "19", "13", "18", "14", "20"], "time": [1003, 1657, 3777, 4348, 4394, 4459, 6036, 6599, 10742]}, "edge": {"target": [], "time": []}}}, "displayed_time": "14.85", "trialTime": 15587, "trial_type": "mouselab-mdp", "trial_index": 19, "time_elapsed": 535819, "internal_node_id": "0.0-6.0-1.0-10.0"}}, {"uniqueid": "w19480958:a19614350", "current_trial": 20, "dateTime": 1693565113510, "trialdata": {"revealed_states": [], "clicked_states": ["7", "10", "28", "31"], "num_clicks_accrued": [0, 0, 0, 0, 0, 0, 0, 0, 0, 0, 0, 0, 0], "stateRewards": ["", -2, -1, -4, -15, -14, -67, 32, -3, -59, 63, 31, 2, -1, -7, -15, 71, -66, -27, -3, -54, -39, 72, 2, 1, 1, -13, 77, -40, 35, -9, 35, 75, 57], "withholdReward": false, "trial_id": "mdp_trial_12", "block": "test", "trialIndex": 13, "score": 47.4, "costs": -5.6, "simulationMode": [null, null, null, null, null], "rewards": [-2, -1, -4, -3, 63], "path": ["0", "0", "1", "2", "3", "8", "10"], "rt": [9783, 49, 72, 60, 92], "actions": ["up", "up", "up", "left", "down"], "actionTimes": [10803, 11354, 11926, 12483, 13079], "queries": {"click": {"state": {"target": ["7", "10", "28", "31"], "time": [1924, 3973, 6863, 8862]}, "edge": {"target": [], "time": []}}, "mouseover": {"state": {"target": ["0", "1", "7", "2", "10", "28", "24", "31", "24", "11", "10"], "time": [1096, 1550, 1822, 2494, 3038, 6673, 7105, 7230, 9030, 9129, 9385]}, "edge": {"target": [], "time": []}}, "mouseout": {"state": {"target": ["0", "0", "1", "7", "2", "10", "28", "28", "24", "31", "24", "11", "10", "23"], "time": [917, 1370, 1641, 2135, 2829, 5297, 6909, 7084, 7154, 8989, 9053, 9141, 9427, 14049]}, "edge": {"target": [], "time": []}}}, "displayed_time": "15.02", "trialTime": 16078, "trial_type": "mouselab-mdp", "trial_index": 20, "time_elapsed": 552029, "internal_node_id": "0.0-6.0-1.0-11.0"}}, {"uniqueid": "w19480958:a19614350", "current_trial": 21, "dateTime": 1693565136029, "trialdata": {"revealed_states": [], "clicked_states": ["16", "18", "7", "10", "28", "31", "33", "32"], "num_clicks_accrued": [0, 0, 0, 0, 0, 0, 0, 0, 0, 0, 0, 0, 0], "stateRewards": ["", -2, 1, -3, -16, -39, -52, 30, -7, -41, -59, 11, 2, 1, 8, 2, -11, -26, -42, -13, 87, -59, -48, -1, -1, -1, 16, -79, 31, 50, -1, -84, 34, -82], "withholdReward": false, "trial_id": "mdp_trial_13", "block": "test", "trialIndex": 14, "score": 18.799999999999997, "costs": -11.200000000000001, "simulationMode": [null, null, null, null, null], "rewards": [-1, -1, -1, -1, 34], "path": ["0", "0", "23", "24", "25", "30", "32"], "rt": [18119, 27, 31, 13, 15], "actions": ["left", "left", "left", "down", "down"], "actionTimes": [18961, 19490, 20029, 20540, 21056], "queries": {"click": {"state": {"target": ["16", "18", "7", "10", "28", "31", "33", "32"], "time": [1597, 3715, 5603, 7539, 9582, 11491, 13657, 16347]}, "edge": {"target": [], "time": []}}, "mouseover": {"state": {"target": ["18", "16", "15", "14", "18", "13", "22", "12", "7", "2", "10", "28", "24", "24", "31", "32", "33", "32", "30", "24", "28", "24", "31", "32", "31"], "time": [1257, 1452, 1785, 1911, 3662, 3898, 3954, 4121, 4775, 5859, 6178, 8438, 9946, 10454, 11017, 13283, 13547, 15723, 15799, 15862, 16049, 16070, 16091, 16140, 16633]}, "edge": {"target": [], "time": []}}, "mouseout": {"state": {"target": ["0", "18", "16", "15", "14", "18", "13", "22", "12", "7", "2", "10", "28", "24", "24", "31", "31", "32", "33", "32", "30", "24", "28", "24", "31", "32", "31"], "time": [700, 1298, 1757, 1827, 3131, 3870, 3926, 4003, 4149, 5817, 6095, 8313, 9884, 10245, 10552, 11733, 12783, 13429, 13950, 15764, 15827, 15882, 16057, 16084, 16098, 16578, 16640]}, "edge": {"target": [], "time": []}}}, "displayed_time": "21.56", "trialTime": 22364, "trial_type": "mouselab-mdp", "trial_index": 21, "time_elapsed": 574548, "internal_node_id": "0.0-6.0-1.0-12.0"}}, {"uniqueid": "w19480958:a19614350", "current_trial": 22, "dateTime": 1693565151506, "trialdata": {"revealed_states": [], "clicked_states": ["27", "10", "7"], "num_clicks_accrued": [0, 0, 0, 0, 0, 0, 0, 0, 0, 0, 0, 0, 0], "stateRewards": ["", 2, -3, -8, 14, -7, -51, 73, 2, 36, 36, -43, -1, 3, -4, 1, 6, 87, -65, 15, 61, -42, -83, -1, 3, -2, -7, 30, -48, 35, 13, 26, 60, 78], "withholdReward": false, "trial_id": "mdp_trial_14", "block": "test", "trialIndex": 15, "score": 73.8, "costs": -4.199999999999999, "simulationMode": [null, null, null, null, null], "rewards": [2, -3, -8, 14, 73], "path": ["0", "0", "1", "2", "3", "4", "7"], "rt": [8436, 20, 28, 28, 48], "actions": ["up", "up", "up", "right", "down"], "actionTimes": [9435, 9957, 10486, 11014, 11570], "queries": {"click": {"state": {"target": ["27", "10", "7"], "time": [1864, 4086, 6346]}, "edge": {"target": [], "time": []}}, "mouseover": {"state": {"target": ["23", "28", "27", "26", "28", "10", "1", "7", "13", "18"], "time": [1323, 1538, 1782, 2046, 3220, 3908, 5952, 6133, 6953, 7614]}, "edge": {"target": [], "time": []}}, "mouseout": {"state": {"target": ["0", "23", "28", "27", "26", "28", "10", "1", "7", "13", "18"], "time": [1184, 1385, 1684, 2018, 2067, 3714, 4270, 6022, 6710, 7343, 11896]}, "edge": {"target": [], "time": []}}}, "displayed_time": "15.01", "trialTime": 15315, "trial_type": "mouselab-mdp", "trial_index": 22, "time_elapsed": 590025, "internal_node_id": "0.0-6.0-1.0-13.0"}}, {"uniqueid": "w19480958:a19614350", "current_trial": 23, "dateTime": 1693565169044, "trialdata": {"revealed_states": [], "clicked_states": ["31", "22", "17", "6", "10"], "num_clicks_accrued": [0, 0, 0, 0, 0, 0, 0, 0, 0, 0, 0, 0, 0], "stateRewards": ["", -2, -3, 1, -7, 39, -67, 16, 5, -20, 73, 66, -1, 4, 5, -3, 23, -68, -87, -8, 3, -3, 17, 1, -4, -2, -13, -32, 34, 61, -5, -11, -18, 12], "withholdReward": false, "trial_id": "mdp_trial_15", "block": "test", "trialIndex": 16, "score": 67, "costs": -7, "simulationMode": [null, null, null, null, null], "rewards": [-2, -3, 1, 5, 73], "path": ["0", "0", "1", "2", "3", "8", "10"], "rt": [12790, 3, 8, 412, 95], "actions": ["up", "up", "up", "left", "down"], "actionTimes": [13942, 14446, 14959, 15878, 16471], "queries": {"click": {"state": {"target": ["31", "22", "17", "6", "10"], "time": [2143, 3987, 5980, 8255, 10871]}, "edge": {"target": [], "time": []}}, "mouseover": {"state": {"target": ["23", "23", "31", "22", "13", "18", "18", "13", "21", "20", "17", "16", "16", "6", "7", "2", "10", "7", "2", "7"], "time": [1616, 1846, 1985, 3292, 4161, 4196, 4592, 4647, 5134, 5308, 5774, 6524, 7922, 8186, 8874, 10654, 10765, 12836, 13052, 13358]}, "edge": {"target": [], "time": []}}, "mouseout": {"state": {"target": ["0", "23", "23", "31", "22", "13", "18", "18", "13", "21", "20", "17", "16", "16", "6", "7", "2", "10", "7", "2", "7", "12"], "time": [998, 1638, 1874, 2337, 4133, 4182, 4216, 4634, 4675, 5238, 5350, 6416, 7164, 8026, 8568, 10494, 10702, 11363, 12975, 13288, 17153, 17320]}, "edge": {"target": [], "time": []}}}, "displayed_time": "16.97", "trialTime": 17374, "trial_type": "mouselab-mdp", "trial_index": 23, "time_elapsed": 607563, "internal_node_id": "0.0-6.0-1.0-14.0"}}, {"uniqueid": "w19480958:a19614350", "current_trial": 24, "dateTime": 1693565187403, "trialdata": {"revealed_states": [], "clicked_states": ["10", "9", "27", "33", "21", "20"], "num_clicks_accrued": [0, 0, 0, 0, 0, 0, 0, 0, 0, 0, 0, 0, 0], "stateRewards": ["", -1, -2, -8, 8, -27, -82, 19, -14, -62, 4, 1, -2, 2, 6, 10, 73, -51, -2, 2, 73, -48, 54, -1, 2, -4, 11, -25, 47, 86, 15, 33, 43, -42], "withholdReward": false, "trial_id": "mdp_trial_16", "block": "test", "trialIndex": 17, "score": 72.6, "costs": -8.4, "simulationMode": [null, null, null, null, null], "rewards": [-2, 2, 6, 2, 73], "path": ["0", "0", "12", "13", "14", "19", "20"], "rt": [13922, 39, 45, 16, 2], "actions": ["right", "right", "right", "down", "right"], "actionTimes": [15196, 15737, 16287, 16805, 17305], "queries": {"click": {"state": {"target": ["10", "9", "27", "33", "21", "20"], "time": [2218, 4256, 6198, 8201, 10555, 12947]}, "edge": {"target": [], "time": []}}, "mouseover": {"state": {"target": ["23", "10", "2", "3", "4", "5", "9", "2", "1", "23", "24", "26", "27", "18", "1", "28", "25", "33", "32", "21", "22", "19", "20", "13"], "time": [1821, 2086, 2691, 2725, 2782, 3087, 4178, 4526, 4637, 4880, 5082, 5242, 5610, 7132, 7390, 7599, 7973, 8050, 8391, 10497, 12374, 12444, 12659, 14980]}, "edge": {"target": [], "time": []}}, "mouseout": {"state": {"target": ["0", "23", "10", "2", "3", "4", "5", "9", "2", "1", "23", "24", "26", "27", "18", "1", "28", "25", "33", "32", "21", "22", "19", "20", "20", "13", "13"], "time": [1738, 1884, 2364, 2705, 2746, 3024, 3893, 4456, 4581, 4783, 4929, 5144, 5403, 6340, 7306, 7411, 7696, 8008, 8363, 8425, 10789, 12416, 12513, 13027, 13173, 14995, 16044]}, "edge": {"target": [], "time": []}}}, "displayed_time": "17.81", "trialTime": 18191, "trial_type": "mouselab-mdp", "trial_index": 24, "time_elapsed": 625921, "internal_node_id": "0.0-6.0-1.0-15.0"}}, {"uniqueid": "w19480958:a19614350", "current_trial": 25, "dateTime": 1693565207142, "trialdata": {"revealed_states": [], "clicked_states": ["7", "16", "17", "28", "33", "21"], "num_clicks_accrued": [0, 0, 0, 0, 0, 0, 0, 0, 0, 0, 0, 0, 0], "stateRewards": ["", 1, -1, -7, -7, -22, 15, -13, 13, 26, -32, 38, -1, 1, -7, -4, 16, -62, 86, 12, -54, 56, 64, -2, -1, 6, 14, -57, 37, 62, -6, -25, 50, -70], "withholdReward": false, "trial_id": "mdp_trial_17", "block": "test", "trialIndex": 18, "score": 52.6, "costs": -8.4, "simulationMode": [null, null, null, null, null], "rewards": [-1, 1, -7, 12, 56], "path": ["0", "0", "12", "13", "14", "19", "21"], "rt": [14252, 49, 62, 58, 47], "actions": ["right", "right", "right", "down", "down"], "actionTimes": [15851, 16402, 16964, 17522, 18068], "queries": {"click": {"state": {"target": ["7", "16", "17", "28", "33", "21"], "time": [2942, 4801, 6780, 8883, 11108, 13276]}, "edge": {"target": [], "time": []}}, "mouseover": {"state": {"target": ["1", "2", "7", "6", "16", "15", "17", "19", "22", "24", "28", "26", "25", "33", "25", "25", "32", "21", "31"], "time": [2031, 2678, 2866, 3873, 4312, 5521, 5938, 7078, 7301, 7648, 7829, 9692, 10589, 10999, 11294, 11583, 12028, 13133, 13835]}, "edge": {"target": [], "time": []}}, "mouseout": {"state": {"target": ["0", "0", "1", "2", "7", "6", "16", "15", "17", "19", "22", "24", "28", "26", "25", "33", "25", "28", "28", "25", "32", "21", "31"], "time": [752, 1900, 2462, 2763, 3415, 4166, 5188, 5660, 6981, 7120, 7329, 7739, 9643, 10419, 10637, 11263, 11313, 11349, 11541, 11624, 12577, 13585, 18965]}, "edge": {"target": [], "time": []}}}, "displayed_time": "18.57", "trialTime": 19573, "trial_type": "mouselab-mdp", "trial_index": 25, "time_elapsed": 645660, "internal_node_id": "0.0-6.0-1.0-16.0"}}, {"uniqueid": "w19480958:a19614350", "current_trial": 26, "dateTime": 1693565232895, "trialdata": {"revealed_states": [], "clicked_states": ["27", "6", "17", "21", "33", "31", "9", "10"], "num_clicks_accrued": [0, 0, 0, 0, 0, 0, 0, 0, 0, 0, 0, 0, 0], "stateRewards": ["", 2, 4, 4, 9, -88, -10, 44, 16, -54, 64, 78, 1, 2, 5, 16, 80, 36, 7, -4, 9, -47, -70, -1, -3, 6, -16, 11, 80, 28, 8, -1, 34, -17], "withholdReward": false, "trial_id": "mdp_trial_18", "block": "test", "trialIndex": 19, "score": 78.8, "costs": -11.200000000000001, "simulationMode": [null, null, null, null, null], "rewards": [2, 4, 4, 16, 64], "path": ["0", "0", "1", "2", "3", "8", "10"], "rt": [18709, 23, 34, 2, 407], "actions": ["up", "up", "up", "left", "down"], "actionTimes": [22004, 22530, 23068, 23572, 24484], "queries": {"click": {"state": {"target": ["27", "6", "17", "21", "33", "31", "9", "10"], "time": [4394, 6536, 8396, 10915, 12751, 15170, 17999, 19937]}, "edge": {"target": [], "time": []}}, "mouseover": {"state": {"target": ["23", "24", "28", "27", "26", "28", "10", "4", "5", "6", "4", "2", "14", "17", "20", "21", "31", "30", "33", "32", "31", "19", "19", "18", "6", "5", "9", "8", "10", "2"], "time": [3709, 4008, 4133, 4307, 4869, 5120, 5148, 5201, 5440, 6406, 6921, 7414, 7546, 7692, 9833, 10827, 11772, 12127, 12422, 13239, 15060, 16110, 16754, 17013, 17069, 17299, 17896, 18529, 18994, 20246]}, "edge": {"target": [], "time": []}}, "mouseout": {"state": {"target": ["0", "23", "24", "28", "27", "26", "28", "10", "4", "5", "6", "4", "2", "14", "17", "20", "21", "31", "30", "33", "32", "31", "19", "19", "18", "6", "5", "9", "8", "10", "2"], "time": [3674, 3730, 4056, 4188, 4752, 5092, 5127, 5170, 5214, 6288, 6872, 6970, 7422, 7581, 8616, 10778, 10922, 12064, 12279, 12982, 14942, 15686, 16250, 16979, 17027, 17097, 17542, 18452, 18598, 20197, 20288]}, "edge": {"target": [], "time": []}}}, "displayed_time": "25.00", "trialTime": 25600, "trial_type": "mouselab-mdp", "trial_index": 26, "time_elapsed": 671413, "internal_node_id": "0.0-6.0-1.0-17.0"}}, {"uniqueid": "w19480958:a19614350", "current_trial": 27, "dateTime": 1693565248410, "trialdata": {"revealed_states": [], "clicked_states": ["6", "17", "20", "33"], "num_clicks_accrued": [0, 0, 0, 0, 0, 0, 0, 0, 0, 0, 0, 0, 0], "stateRewards": ["", -2, -3, 8, -4, -30, 31, 69, 9, 66, 87, 64, -2, 2, 8, 5, 47, 16, -39, -8, -54, 51, -19, 1, -2, -2, -11, -25, -26, 43, -9, 19, -84, 86], "withholdReward": false, "trial_id": "mdp_trial_19", "block": "test", "trialIndex": 20, "score": 68.4, "costs": -5.6, "simulationMode": [null, null, null, null, null], "rewards": [1, -2, -2, -9, 86], "path": ["0", "0", "23", "24", "25", "30", "33"], "rt": [9678, 21, 4, 30, 34], "actions": ["left", "left", "left", "down", "left"], "actionTimes": [10515, 11038, 11551, 12089, 12622], "queries": {"click": {"state": {"target": ["6", "17", "20", "33"], "time": [1448, 3742, 6046, 8313]}, "edge": {"target": [], "time": []}}, "mouseover": {"state": {"target": ["7", "6", "7", "18", "15", "17", "14", "22", "12", "13", "13", "0", "22", "19", "20", "19", "22", "1", "7", "6", "7", "1", "23", "24", "31", "30", "33", "25"], "time": [1130, 1366, 1936, 2722, 2764, 2896, 4300, 4530, 4842, 4870, 5002, 5162, 5530, 5565, 5829, 6309, 6344, 6664, 6699, 6754, 6976, 7015, 7108, 7164, 7206, 7936, 8096, 10042]}, "edge": {"target": [], "time": []}}, "mouseout": {"state": {"target": ["10", "0", "7", "6", "7", "18", "15", "17", "14", "22", "12", "13", "13", "0", "22", "19", "20", "19", "22", "1", "7", "6", "7", "1", "23", "24", "31", "30", "33", "25", "31"], "time": [157, 991, 1165, 1652, 2145, 2750, 2799, 4196, 4404, 4585, 4863, 4891, 5023, 5197, 5551, 5683, 6288, 6337, 6358, 6678, 6727, 6763, 6992, 7030, 7116, 7172, 7713, 8020, 9153, 10223, 13573]}, "edge": {"target": [], "time": []}}}, "displayed_time": "14.84", "trialTime": 15361, "trial_type": "mouselab-mdp", "trial_index": 27, "time_elapsed": 686929, "internal_node_id": "0.0-6.0-1.0-18.0"}}, {"uniqueid": "w19480958:a19614350", "current_trial": 28, "dateTime": 1693565266267, "trialdata": {"revealed_states": [], "clicked_states": ["28"], "num_clicks_accrued": [0, 0, 0, 0, 0, 0, 0, 0, 0, 0, 0, 0, 0], "stateRewards": ["", 1, 2, 7, 13, 88, -71, 27, 3, 60, 5, -53, -2, 2, -6, -1, -30, 79, 47, -4, -14, 46, 68, 1, 1, 8, 10, -14, 86, 48, -11, -67, -44, 5], "withholdReward": false, "trial_id": "mdp_trial_20", "block": "test", "trialIndex": 21, "score": 104.6, "costs": -1.4, "simulationMode": [null, null, null, null, null], "rewards": [1, 1, 8, 10, 86], "path": ["0", "0", "23", "24", "25", "26", "28"], "rt": [2988, 24, 28, 33, 45], "actions": ["left", "left", "left", "up", "right"], "actionTimes": [3583, 4109, 4640, 5174, 5720], "queries": {"click": {"state": {"target": ["28"], "time": [1293]}, "edge": {"target": [], "time": []}}, "mouseover": {"state": {"target": ["23", "28", "24"], "time": [1025, 1122, 1685]}, "edge": {"target": [], "time": []}}, "mouseout": {"state": {"target": ["0", "23", "28", "24", "28", "11", "8", "3", "4"], "time": [969, 1059, 1574, 1708, 2708, 8602, 8615, 8629, 8636]}, "edge": {"target": [], "time": []}}}, "displayed_time": "14.60", "trialTime": 17701, "trial_type": "mouselab-mdp", "trial_index": 28, "time_elapsed": 704786, "internal_node_id": "0.0-6.0-1.0-19.0"}}, {"uniqueid": "w19480958:a19614350", "current_trial": 29, "dateTime": 1693565284298, "trialdata": {"revealed_states": [], "clicked_states": ["28", "20"], "num_clicks_accrued": [0, 0, 0, 0, 0, 0, 0, 0, 0, 0, 0, 0, 0], "stateRewards": ["", -2, 4, -7, -3, -76, 39, -28, 10, 14, 12, 60, 2, -3, 6, -10, 88, -34, -41, -3, 72, -13, -56, 1, 3, 2, 8, -51, 23, -57, 1, 14, -46, -16], "withholdReward": false, "trial_id": "mdp_trial_21", "block": "test", "trialIndex": 22, "score": 71.2, "costs": -2.8, "simulationMode": [null, null, null, null, null], "rewards": [2, -3, 6, -3, 72], "path": ["0", "0", "12", "13", "14", "19", "20"], "rt": [5943, 445, 83, 67, 65], "actions": ["right", "right", "right", "down", "right"], "actionTimes": [6895, 7843, 8426, 8994, 9562], "queries": {"click": {"state": {"target": ["28", "20"], "time": [1670, 4032]}, "edge": {"target": [], "time": []}}, "mouseover": {"state": {"target": ["0", "24", "28", "12", "20", "21", "19", "20", "14", "15", "16", "15"], "time": [967, 1467, 1530, 1864, 1899, 3094, 3504, 3991, 4854, 4888, 5034, 5979]}, "edge": {"target": [], "time": []}}, "mouseout": {"state": {"target": ["0", "24", "28", "12", "20", "21", "19", "20", "14", "15", "16", "15"], "time": [1273, 1481, 1814, 1872, 1906, 3436, 3718, 4360, 4875, 4936, 5965, 6007]}, "edge": {"target": [], "time": []}}}, "displayed_time": "14.95", "trialTime": 17796, "trial_type": "mouselab-mdp", "trial_index": 29, "time_elapsed": 722817, "internal_node_id": "0.0-6.0-1.0-20.0"}}, {"uniqueid": "w19480958:a19614350", "current_trial": 30, "dateTime": 1693565308840, "trialdata": {"revealed_states": [], "clicked_states": ["28", "5", "11", "17", "22", "32", "31"], "num_clicks_accrued": [0, 0, 0, 0, 0, 0, 0, 0, 0, 0, 0, 0, 0], "stateRewards": ["", 1, 4, 7, -16, -84, -6, -46, -12, -7, -49, -26, -1, 2, -4, 2, 22, 37, -64, 1, 88, -13, -10, 1, -4, -2, 5, 2, -10, -34, 9, 66, 55, 38], "withholdReward": false, "trial_id": "mdp_trial_22", "block": "test", "trialIndex": 23, "score": 60.2, "costs": -9.8, "simulationMode": [null, null, null, null, null], "rewards": [1, -4, -2, 9, 66], "path": ["0", "0", "23", "24", "25", "30", "31"], "rt": [15801, 18, 25, 108, 54], "actions": ["left", "left", "left", "down", "right"], "actionTimes": [20301, 20817, 21351, 21963, 22520], "queries": {"click": {"state": {"target": ["28", "5", "11", "17", "22", "32", "31"], "time": [5342, 7148, 9273, 11117, 13425, 15356, 17441]}, "edge": {"target": [], "time": []}}, "mouseover": {"state": {"target": ["28", "10", "3", "5", "9", "8", "11", "10", "15", "17", "20", "19", "22", "32", "31", "30", "29", "26"], "time": [5289, 5873, 6221, 6277, 8923, 9022, 9189, 9675, 10447, 10524, 11653, 11886, 12032, 15243, 17204, 17824, 18546, 19887]}, "edge": {"target": [], "time": []}}, "mouseout": {"state": {"target": ["16", "16", "15", "13", "22", "0", "28", "10", "3", "5", "9", "8", "11", "11", "10", "15", "17", "20", "19", "22", "32", "31", "30", "29", "26", "28", "1", "12"], "time": [2807, 3189, 3266, 3787, 4109, 4399, 5853, 5922, 6237, 7660, 8987, 9077, 9281, 9592, 9724, 10475, 11448, 11837, 11942, 14257, 15660, 17788, 17832, 19817, 23703, 23724, 23752, 23981]}, "edge": {"target": [], "time": []}}}, "displayed_time": "23.02", "trialTime": 24381, "trial_type": "mouselab-mdp", "trial_index": 30, "time_elapsed": 747359, "internal_node_id": "0.0-6.0-1.0-21.0"}}, {"uniqueid": "w19480958:a19614350", "current_trial": 31, "dateTime": 1693565344012, "trialdata": {"revealed_states": [], "clicked_states": ["27", "5", "17", "21", "32", "31", "29", "9", "10", "11", "6", "20", "22"], "num_clicks_accrued": [0, 0, 0, 0, 0, 0, 0, 0, 0, 0, 0, 0, 0], "stateRewards": ["", 2, -2, -3, 10, -4, -1, -11, -8, -9, -36, -78, 2, 1, 7, -7, 44, -1, -31, -1, 26, 47, 83, 2, -4, -4, -6, -52, -76, -81, -1, -59, 45, 67], "withholdReward": false, "trial_id": "mdp_trial_23", "block": "test", "trialIndex": 24, "score": 73.8, "costs": -18.2, "simulationMode": [null, null, null, null, null], "rewards": [2, 1, 7, -1, 83], "path": ["0", "0", "12", "13", "14", "19", "22"], "rt": [28885, 11, 145, 94, 91], "actions": ["right", "right", "right", "down", "left"], "actionTimes": [30118, 30639, 31287, 31883, 32477], "queries": {"click": {"state": {"target": ["27", "5", "17", "21", "32", "31", "29", "9", "10", "11", "6", "20", "22"], "time": [2221, 4224, 6922, 9141, 11648, 13899, 16081, 17966, 19778, 22290, 24127, 25959, 27893]}, "edge": {"target": [], "time": []}}, "mouseover": {"state": {"target": ["23", "28", "27", "10", "3", "5", "17", "20", "21", "22", "32", "31", "25", "29", "26", "28", "2", "7", "3", "8", "9", "8", "10", "2", "18", "14", "20", "19", "14", "18", "7", "2", "11", "8", "2", "4", "6", "16", "15", "20", "19", "22", "30", "33", "30"], "time": [1792, 1918, 2182, 2981, 3032, 3343, 6846, 8806, 9078, 10357, 11352, 12236, 15563, 15827, 16502, 16537, 16599, 16641, 16933, 17023, 17315, 18323, 19227, 20112, 20228, 20292, 20326, 21640, 21679, 21758, 21966, 21989, 22250, 22695, 22826, 23251, 23613, 24433, 25031, 25344, 26269, 26519, 28779, 28993, 29980]}, "edge": {"target": [], "time": []}}, "mouseout": {"state": {"target": ["0", "23", "28", "27", "10", "3", "5", "5", "17", "17", "20", "21", "22", "32", "31", "25", "29", "26", "28", "2", "7", "3", "8", "9", "8", "10", "2", "18", "14", "20", "19", "14", "18", "7", "2", "11", "8", "2", "4", "6", "16", "15", "20", "20", "19", "22", "30", "33", "30"], "time": [687, 1820, 1994, 2585, 2995, 3072, 4320, 4476, 8501, 8684, 8842, 9481, 10399, 11656, 15146, 15598, 16481, 16523, 16545, 16608, 16815, 16947, 17081, 18260, 18712, 20089, 20120, 20257, 20306, 20353, 21668, 21690, 21917, 21978, 22009, 22598, 22738, 23161, 23280, 24378, 24441, 25073, 26018, 26185, 26408, 28167, 28875, 29967, 30001]}, "edge": {"target": [], "time": []}}}, "displayed_time": "32.98", "trialTime": 35001, "trial_type": "mouselab-mdp", "trial_index": 31, "time_elapsed": 782531, "internal_node_id": "0.0-6.0-1.0-22.0"}}, {"uniqueid": "w19480958:a19614350", "current_trial": 32, "dateTime": 1693565361401, "trialdata": {"revealed_states": [], "clicked_states": ["7", "9", "33"], "num_clicks_accrued": [0, 0, 0, 0, 0, 0, 0, 0, 0, 0, 0, 0, 0], "stateRewards": ["", -2, -3, 4, 1, 33, -53, 15, 9, -12, 61, -6, -2, 4, 6, -11, 47, -43, -7, -11, 46, 23, -28, -1, -1, 3, -10, 11, 76, -76, 10, 18, -38, 87], "withholdReward": false, "trial_id": "mdp_trial_24", "block": "test", "trialIndex": 25, "score": 93.8, "costs": -4.199999999999999, "simulationMode": [null, null, null, null, null], "rewards": [-1, -1, 3, 10, 87], "path": ["0", "0", "23", "24", "25", "30", "33"], "rt": [7570, 17, 6, 12, 21], "actions": ["left", "left", "left", "down", "left"], "actionTimes": [8286, 8804, 9310, 9837, 10359], "queries": {"click": {"state": {"target": ["7", "9", "33"], "time": [1571, 3800, 5593]}, "edge": {"target": [], "time": []}}, "mouseover": {"state": {"target": ["1", "7", "7", "4", "9", "8", "24", "30", "30", "33", "30", "31", "21", "21", "31"], "time": [1105, 1237, 1502, 3239, 3712, 4144, 4581, 4638, 4970, 5165, 6555, 6868, 7202, 7494, 7869]}, "edge": {"target": [], "time": []}}, "mouseout": {"state": {"target": ["1", "7", "7", "4", "9", "9", "8", "24", "30", "30", "33", "30", "31", "21", "21", "31", "30", "24", "26", "33"], "time": [1119, 1258, 3205, 3323, 3813, 4110, 4173, 4609, 4671, 5123, 6085, 6826, 6897, 7264, 7521, 8682, 10747, 15620, 15647, 15905]}, "edge": {"target": [], "time": []}}}, "displayed_time": "14.72", "trialTime": 17224, "trial_type": "mouselab-mdp", "trial_index": 32, "time_elapsed": 799920, "internal_node_id": "0.0-6.0-1.0-23.0"}}, {"uniqueid": "w19480958:a19614350", "current_trial": 33, "dateTime": 1693565388976, "trialdata": {"revealed_states": [], "clicked_states": ["17", "27", "32", "5", "11", "20", "22", "21", "29", "31", "10"], "num_clicks_accrued": [0, 0, 0, 0, 0, 0, 0, 0, 0, 0, 0, 0, 0], "stateRewards": ["", -2, 2, -5, -6, 10, -66, -58, -10, -11, -63, -70, -1, -4, -5, 7, 66, -64, -43, -3, 45, -37, 4, -2, -2, -6, -4, -30, 33, 43, 15, -32, -65, -59], "withholdReward": false, "trial_id": "mdp_trial_25", "block": "test", "trialIndex": 26, "score": 16.599999999999998, "costs": -15.400000000000002, "simulationMode": [null, null, null, null, null], "rewards": [-1, -4, -5, -3, 45], "path": ["0", "0", "12", "13", "14", "19", "20"], "rt": [22747, 2, 19, 467, 40], "actions": ["right", "right", "right", "down", "right"], "actionTimes": [23750, 24255, 24779, 25755, 26294], "queries": {"click": {"state": {"target": ["17", "27", "32", "5", "11", "20", "22", "21", "29", "31", "10"], "time": [1970, 3771, 5582, 7397, 9448, 11332, 13259, 15103, 16863, 19444, 21907]}, "edge": {"target": [], "time": []}}, "mouseover": {"state": {"target": ["0", "12", "14", "17", "13", "12", "0", "23", "24", "25", "29", "29", "27", "26", "25", "30", "32", "22", "14", "15", "6", "5", "4", "3", "8", "11", "1", "13", "19", "20", "14", "19", "22", "21", "0", "23", "24", "29", "25", "24", "23", "19", "20", "20", "20", "19", "0", "28", "24", "30", "30", "31", "23", "1", "2", "2", "10"], "time": [1201, 1326, 1534, 1925, 2439, 2475, 2505, 2529, 2583, 2617, 2863, 2994, 3300, 4311, 4552, 4720, 5088, 5963, 6063, 6120, 6505, 6744, 7986, 8201, 8341, 8413, 10721, 10829, 11051, 11190, 11924, 12131, 12458, 14812, 15583, 15725, 15899, 16141, 17413, 17448, 17478, 17650, 17666, 17836, 17961, 18254, 18405, 18663, 19073, 19142, 19295, 19386, 19908, 20623, 21443, 21680, 21812]}, "edge": {"target": [], "time": []}}, "mouseout": {"state": {"target": ["0", "0", "12", "14", "17", "13", "12", "0", "23", "24", "25", "29", "29", "27", "26", "25", "30", "32", "22", "14", "15", "6", "5", "4", "3", "8", "11", "1", "13", "19", "20", "14", "19", "22", "21", "0", "23", "24", "29", "25", "24", "23", "22", "19", "20", "20", "20", "19", "0", "28", "24", "30", "30", "31", "23", "1", "2", "2", "10", "12"], "time": [881, 1284, 1375, 1604, 2327, 2461, 2490, 2521, 2550, 2596, 2664, 2897, 3078, 4051, 4469, 4663, 4850, 5817, 5999, 6091, 6283, 6570, 7874, 8056, 8313, 8383, 10023, 10755, 10934, 11100, 11684, 12095, 12189, 13616, 15375, 15639, 15827, 15915, 17280, 17433, 17463, 17500, 17642, 17658, 17681, 17872, 18240, 18277, 18433, 19052, 19094, 19164, 19351, 19790, 20036, 20660, 21506, 21771, 22237, 26935]}, "edge": {"target": [], "time": []}}}, "displayed_time": "26.80", "trialTime": 27412, "trial_type": "mouselab-mdp", "trial_index": 33, "time_elapsed": 827495, "internal_node_id": "0.0-6.0-1.0-24.0"}}, {"uniqueid": "w19480958:a19614350", "current_trial": 34, "dateTime": 1693565407339, "trialdata": {"revealed_states": [], "clicked_states": ["6", "28"], "num_clicks_accrued": [0, 0, 0, 0, 0, 0, 0, 0, 0, 0, 0, 0, 0], "stateRewards": ["", 1, 2, 2, -15, -84, 28, -26, 13, 31, 86, 30, -2, 1, -1, -8, 66, -40, -1, -10, -32, 57, -17, 1, 2, -2, 9, -23, 77, 85, 12, -32, -62, -35], "withholdReward": false, "trial_id": "mdp_trial_26", "block": "test", "trialIndex": 27, "score": 84.2, "costs": -2.8, "simulationMode": [null, null, null, null, null], "rewards": [1, 2, -2, 9, 77], "path": ["0", "0", "23", "24", "25", "26", "28"], "rt": [5546, 56, 11, 7, 77], "actions": ["left", "left", "left", "up", "right"], "actionTimes": [6530, 7083, 7594, 8104, 8689], "queries": {"click": {"state": {"target": ["6", "28"], "time": [1642, 3827]}, "edge": {"target": [], "time": []}}, "mouseover": {"state": {"target": ["1", "7", "6", "7", "2", "10", "28", "24", "31"], "time": [1277, 1333, 1576, 2017, 2084, 2563, 3550, 4123, 4937]}, "edge": {"target": [], "time": []}}, "mouseout": {"state": {"target": ["0", "1", "7", "6", "7", "2", "10", "28", "24", "31", "24", "31", "17", "15", "14", "20"], "time": [1216, 1305, 1382, 1947, 2060, 2127, 2669, 4066, 4851, 5587, 10043, 10099, 13074, 13108, 13185, 13470]}, "edge": {"target": [], "time": []}}}, "displayed_time": "14.98", "trialTime": 18199, "trial_type": "mouselab-mdp", "trial_index": 34, "time_elapsed": 845858, "internal_node_id": "0.0-6.0-1.0-25.0"}}, {"uniqueid": "w19480958:a19614350", "current_trial": 35, "dateTime": 1693565433530, "trialdata": {"revealed_states": [], "clicked_states": ["28", "5", "17", "22", "10", "9", "20", "32", "31", "33"], "num_clicks_accrued": [0, 0, 0, 0, 0, 0, 0, 0, 0, 0, 0, 0, 0], "stateRewards": ["", -2, -3, -6, -7, 9, 16, 65, 5, -41, 20, -25, -1, -4, 1, -11, -49, -4, 71, 1, 39, -62, 52, -2, -3, 7, -9, -28, -70, 84, 8, 24, -58, 82], "withholdReward": false, "trial_id": "mdp_trial_27", "block": "test", "trialIndex": 28, "score": 78, "costs": -14.000000000000002, "simulationMode": [null, null, null, null, null], "rewards": [-2, -3, 7, 8, 82], "path": ["0", "0", "23", "24", "25", "30", "33"], "rt": [20621, 33, 25, 31, 41], "actions": ["left", "left", "left", "down", "left"], "actionTimes": [21765, 22297, 22824, 23358, 23896], "queries": {"click": {"state": {"target": ["28", "5", "17", "22", "10", "9", "20", "32", "31", "33"], "time": [1949, 3888, 5857, 7655, 9804, 11672, 13793, 16026, 17860, 19764]}, "edge": {"target": [], "time": []}}, "mouseover": {"state": {"target": ["12", "28", "1", "7", "4", "5", "6", "17", "13", "22", "12", "1", "10", "8", "9", "8", "2", "12", "22", "20", "19", "32", "31", "30", "33", "25", "29", "27"], "time": [1520, 1714, 2863, 3093, 3228, 3772, 4178, 4783, 6222, 7139, 8221, 8369, 8696, 10967, 11163, 12023, 12090, 12152, 12209, 13726, 14052, 15958, 16549, 18089, 18982, 20338, 20540, 21042]}, "edge": {"target": [], "time": []}}, "mouseout": {"state": {"target": ["21", "0", "12", "28", "28", "1", "7", "4", "5", "6", "17", "13", "22", "12", "1", "10", "8", "9", "8", "2", "12", "22", "20", "20", "19", "32", "31", "30", "33", "25", "29", "27", "26", "24"], "time": [504, 970, 1603, 1957, 2266, 2925, 3110, 3716, 4153, 4193, 6169, 6238, 8072, 8237, 8490, 10809, 11095, 11977, 12039, 12107, 12169, 13470, 13856, 14027, 14062, 16051, 18046, 18676, 20237, 20419, 20726, 21771, 24393, 24431]}, "edge": {"target": [], "time": []}}}, "displayed_time": "24.41", "trialTime": 25968, "trial_type": "mouselab-mdp", "trial_index": 35, "time_elapsed": 872049, "internal_node_id": "0.0-6.0-1.0-26.0"}}, {"uniqueid": "w19480958:a19614350", "current_trial": 36, "dateTime": 1693565469619, "trialdata": {"revealed_states": [], "clicked_states": ["28", "16", "7", "9", "31", "33", "21", "20", "27", "29", "6", "5", "17", "18", "32"], "num_clicks_accrued": [0, 0, 0, 0, 0, 0, 0, 0, 0, 0, 0, 0, 0], "stateRewards": ["", 1, -4, -6, 11, -20, 8, -30, 1, -38, 88, 42, 2, 3, 5, -12, -8, -74, 30, -8, 67, -19, 42, 2, -1, 4, 13, 50, -68, 2, -8, -15, 87, -46], "withholdReward": false, "trial_id": "mdp_trial_28", "block": "test", "trialIndex": 29, "score": 63, "costs": -20.999999999999996, "simulationMode": [null, null, null, null, null], "rewards": [2, -1, 4, -8, 87], "path": ["0", "0", "23", "24", "25", "30", "32"], "rt": [31382, 440, 49, 72, 58], "actions": ["left", "left", "left", "down", "down"], "actionTimes": [32101, 33042, 33589, 34161, 34717], "queries": {"click": {"state": {"target": ["28", "16", "7", "9", "31", "33", "21", "20", "27", "29", "6", "5", "17", "18", "32"], "time": [1569, 3732, 5543, 7365, 9610, 11468, 13241, 15129, 17188, 19290, 21300, 23701, 25537, 27568, 29879]}, "edge": {"target": [], "time": []}}, "mouseover": {"state": {"target": ["23", "24", "28", "1", "16", "7", "9", "8", "31", "31", "32", "33", "32", "21", "20", "12", "23", "29", "27", "11", "27", "27", "12", "13", "14", "13", "12", "28", "26", "29", "28", "10", "2", "4", "6", "15", "20", "15", "4", "5", "4", "15", "17", "15", "18", "22", "32", "12", "12", "0", "31"], "time": [1139, 1369, 1521, 3005, 3683, 5389, 6588, 7644, 8939, 9529, 10043, 11351, 12067, 12418, 14000, 15323, 15348, 15396, 15651, 15826, 16025, 16305, 17492, 17503, 18705, 18728, 18748, 18935, 19011, 19157, 19712, 20543, 20579, 20710, 21243, 21611, 22378, 23252, 23280, 23634, 23893, 23986, 24042, 26349, 26543, 29299, 29792, 30272, 30936, 31781, 31829]}, "edge": {"target": [], "time": []}}, "mouseout": {"state": {"target": ["0", "23", "24", "28", "1", "16", "7", "9", "8", "31", "31", "32", "33", "32", "21", "20", "12", "23", "29", "27", "11", "27", "27", "12", "13", "14", "13", "12", "28", "26", "29", "28", "10", "2", "4", "6", "15", "20", "15", "4", "5", "4", "15", "17", "15", "18", "22", "32", "12", "12", "0", "31"], "time": [979, 1313, 1396, 2601, 3022, 4081, 6036, 7577, 8398, 9453, 9886, 10269, 11696, 12076, 13584, 15251, 15332, 15357, 15412, 15689, 15988, 16077, 17434, 17502, 17512, 18719, 18740, 18761, 18991, 19060, 19507, 20417, 20561, 20605, 20860, 21547, 21636, 23218, 23260, 23293, 23870, 23917, 24010, 26245, 26463, 27900, 29473, 30116, 30337, 31744, 31795, 31837]}, "edge": {"target": [], "time": []}}}, "displayed_time": "35.23", "trialTime": 35880, "trial_type": "mouselab-mdp", "trial_index": 36, "time_elapsed": 908138, "internal_node_id": "0.0-6.0-1.0-27.0"}}, {"uniqueid": "w19480958:a19614350", "current_trial": 37, "dateTime": 1693565493027, "trialdata": {"revealed_states": [], "clicked_states": ["31", "20", "5", "9", "27", "29", "17", "16", "22"], "num_clicks_accrued": [0, 0, 0, 0, 0, 0, 0, 0, 0, 0, 0, 0, 0], "stateRewards": ["", -1, 2, 5, -6, 13, -64, -47, 8, -79, -80, -33, 1, 2, -2, -16, 56, -71, -10, 3, 29, 44, 85, -1, 4, 5, 4, -36, -56, 19, 8, 52, -13, -2], "withholdReward": false, "trial_id": "mdp_trial_29", "block": "test", "trialIndex": 30, "score": 76.4, "costs": -12.600000000000001, "simulationMode": [null, null, null, null, null], "rewards": [1, 2, -2, 3, 85], "path": ["0", "0", "12", "13", "14", "19", "22"], "rt": [19213, 7, 3, 13, 5], "actions": ["right", "right", "right", "down", "left"], "actionTimes": [19858, 20364, 20875, 21393, 21898], "queries": {"click": {"state": {"target": ["31", "20", "5", "9", "27", "29", "17", "16", "22"], "time": [1488, 4399, 6249, 8174, 9986, 11866, 13646, 15628, 17564]}, "edge": {"target": [], "time": []}}, "mouseover": {"state": {"target": ["31", "21", "20", "15", "16", "6", "5", "4", "2", "3", "8", "8", "9", "8", "26", "27", "25", "29", "26", "28", "1", "18", "15", "17", "17", "16", "15", "14", "22", "0", "23", "31"], "time": [1386, 4201, 4292, 4727, 4790, 5207, 5327, 6623, 7026, 7117, 7267, 7407, 7590, 8422, 8560, 8962, 10990, 11674, 12165, 12201, 12262, 12323, 12419, 12603, 12848, 14449, 15839, 15890, 16514, 18451, 18722, 19258]}, "edge": {"target": [], "time": []}}, "mouseout": {"state": {"target": ["0", "31", "21", "20", "15", "16", "6", "5", "4", "2", "3", "8", "8", "9", "8", "26", "27", "25", "29", "26", "28", "1", "18", "15", "17", "17", "16", "15", "14", "22", "0", "23", "31"], "time": [1052, 1648, 4229, 4628, 4774, 5011, 5232, 6569, 6703, 7060, 7125, 7319, 7487, 8389, 8439, 8828, 10294, 11377, 12131, 12191, 12227, 12280, 12402, 12537, 12669, 14044, 15806, 15873, 15899, 17956, 18493, 18940, 19543]}, "edge": {"target": [], "time": []}}}, "displayed_time": "22.41", "trialTime": 23221, "trial_type": "mouselab-mdp", "trial_index": 37, "time_elapsed": 931546, "internal_node_id": "0.0-6.0-1.0-28.0"}}, {"uniqueid": "w19480958:a19614350", "current_trial": 38, "dateTime": 1693565513910, "trialdata": {"revealed_states": [], "clicked_states": ["28", "5", "21", "17", "29", "9", "32"], "num_clicks_accrued": [0, 0, 0, 0, 0, 0, 0, 0, 0, 0, 0, 0, 0], "stateRewards": ["", 1, 1, -6, -2, 7, 77, 3, 16, -16, 66, 31, -1, 3, -8, -6, 33, -50, -48, 7, -60, -66, 36, 2, -3, 3, -7, -12, -61, -79, -4, 8, 74, -70], "withholdReward": false, "trial_id": "mdp_trial_30", "block": "test", "trialIndex": 31, "score": 62.2, "costs": -9.8, "simulationMode": [null, null, null, null, null], "rewards": [2, -3, 3, -4, 74], "path": ["0", "0", "23", "24", "25", "30", "32"], "rt": [15035, 26, 12, 25, 21], "actions": ["left", "left", "left", "down", "down"], "actionTimes": [16764, 17290, 17812, 18346, 18873], "queries": {"click": {"state": {"target": ["28", "5", "21", "17", "29", "9", "32"], "time": [3067, 4850, 6671, 8469, 10272, 12145, 13951]}, "edge": {"target": [], "time": []}}, "mouseover": {"state": {"target": ["23", "24", "28", "10", "3", "5", "4", "18", "19", "21", "14", "17", "15", "18", "1", "26", "29", "27", "8", "9", "8", "31", "32", "12", "13", "18", "0", "0"], "time": [2153, 2200, 2808, 3688, 3737, 3954, 5219, 5534, 5656, 5946, 7392, 7514, 8827, 8888, 9103, 9432, 9564, 10781, 11142, 11421, 12481, 12867, 13351, 14612, 14669, 14823, 15977, 16457]}, "edge": {"target": [], "time": []}}, "mouseout": {"state": {"target": ["0", "23", "24", "28", "10", "3", "5", "4", "18", "19", "21", "14", "17", "15", "18", "1", "26", "29", "27", "8", "9", "8", "31", "32", "12", "13", "18", "0", "0"], "time": [2144, 2179, 2318, 3648, 3712, 3754, 5181, 5247, 5591, 5857, 7144, 7451, 8794, 8862, 8945, 9144, 9506, 10605, 10926, 11351, 12438, 12545, 12970, 14156, 14644, 14678, 15935, 15986, 20433]}, "edge": {"target": [], "time": []}}}, "displayed_time": "19.38", "trialTime": 20685, "trial_type": "mouselab-mdp", "trial_index": 38, "time_elapsed": 952429, "internal_node_id": "0.0-6.0-1.0-29.0"}}, {"uniqueid": "w19480958:a19614350", "current_trial": 39, "dateTime": 1693565534993, "trialdata": {"revealed_states": [], "clicked_states": ["6", "28", "21", "20", "29", "9", "32"], "num_clicks_accrued": [0, 0, 0, 0, 0, 0, 0, 0, 0, 0, 0, 0, 0], "stateRewards": ["", 1, 1, 6, -14, -40, 37, 16, -13, 33, -68, 49, 2, 4, 3, 6, 55, 27, 32, 10, -65, 20, -87, 2, 1, -6, -5, -42, 12, 29, -8, 16, 76, -33], "withholdReward": false, "trial_id": "mdp_trial_31", "block": "test", "trialIndex": 32, "score": 55.2, "costs": -9.8, "simulationMode": [null, null, null, null, null], "rewards": [2, 1, -6, -8, 76], "path": ["0", "0", "23", "24", "25", "30", "32"], "rt": [15879, 422, 36, 370, 64], "actions": ["left", "left", "left", "down", "down"], "actionTimes": [16851, 17775, 18314, 19183, 19758], "queries": {"click": {"state": {"target": ["6", "28", "21", "20", "29", "9", "32"], "time": [1649, 3869, 5741, 7710, 9499, 11389, 14087]}, "edge": {"target": [], "time": []}}, "mouseover": {"state": {"target": ["18", "6", "1", "28", "21", "20", "12", "0", "23", "24", "25", "29", "25", "24", "23", "0", "12", "2", "10", "8", "9", "8", "10", "24", "28", "26", "25", "30", "32", "31", "23", "1", "2", "5", "4", "2", "1", "1"], "time": [1267, 1572, 3359, 3748, 5171, 7052, 8000, 8010, 8028, 8038, 8058, 8542, 9815, 9864, 9898, 9933, 9975, 10286, 10338, 10433, 10610, 11742, 11824, 12476, 13341, 13765, 13782, 13877, 14022, 14435, 14855, 14938, 14974, 15240, 15997, 16024, 16052, 16393]}, "edge": {"target": [], "time": []}}, "mouseout": {"state": {"target": ["0", "18", "6", "1", "28", "28", "21", "20", "12", "0", "23", "24", "25", "29", "25", "24", "23", "0", "12", "2", "10", "8", "9", "8", "10", "24", "28", "26", "25", "30", "32", "31", "23", "1", "2", "5", "4", "2", "1", "1", "1", "23", "23"], "time": [676, 1287, 1947, 3429, 3879, 4269, 6028, 7916, 8009, 8019, 8037, 8048, 8068, 9766, 9847, 9882, 9916, 9942, 9985, 10311, 10355, 10530, 11701, 11788, 11977, 13244, 13466, 13774, 13821, 13967, 14123, 14588, 14905, 14947, 14992, 15983, 16005, 16038, 16061, 16469, 20709, 20765, 20786]}, "edge": {"target": [], "time": []}}}, "displayed_time": "20.26", "trialTime": 20892, "trial_type": "mouselab-mdp", "trial_index": 39, "time_elapsed": 973512, "internal_node_id": "0.0-6.0-1.0-30.0"}}, {"uniqueid": "w19480958:a19614350", "current_trial": 40, "dateTime": 1693565551358, "trialdata": {"revealed_states": [], "clicked_states": ["28", "17", "5", "21"], "num_clicks_accrued": [0, 0, 0, 0, 0, 0, 0, 0, 0, 0, 0, 0, 0], "stateRewards": ["", -2, -3, -7, 7, -54, -69, -4, -14, -77, 22, 40, -2, -1, 5, 6, -35, 50, -60, 10, -28, 75, 57, 1, -4, -2, 2, 68, 34, -18, 12, 3, -21, -43], "withholdReward": false, "trial_id": "mdp_trial_32", "block": "test", "trialIndex": 33, "score": 81.4, "costs": -5.6, "simulationMode": [null, null, null, null, null], "rewards": [-2, -1, 5, 10, 75], "path": ["0", "0", "12", "13", "14", "19", "21"], "rt": [9386, 62, 73, 61, 152], "actions": ["right", "right", "right", "down", "down"], "actionTimes": [9968, 10529, 11103, 11661, 12315], "queries": {"click": {"state": {"target": ["28", "17", "5", "21"], "time": [1440, 3563, 5466, 7694]}, "edge": {"target": [], "time": []}}, "mouseover": {"state": {"target": ["23", "24", "28", "1", "18", "15", "17", "16", "6", "5", "4", "18", "18", "13", "22", "21", "21", "32"], "time": [1095, 1262, 1373, 2011, 2086, 2227, 3348, 3891, 3942, 4220, 6874, 7004, 7192, 7338, 7361, 7428, 7602, 9326]}, "edge": {"target": [], "time": []}}, "mouseout": {"state": {"target": ["0", "23", "24", "28", "1", "18", "15", "17", "16", "6", "5", "5", "4", "18", "18", "13", "22", "21", "21", "32", "21", "21"], "time": [998, 1172, 1311, 1718, 2037, 2113, 3209, 3635, 3908, 4121, 5569, 6760, 6920, 7029, 7234, 7352, 7369, 7560, 8636, 9695, 9805, 13712]}, "edge": {"target": [], "time": []}}}, "displayed_time": "14.58", "trialTime": 16169, "trial_type": "mouselab-mdp", "trial_index": 40, "time_elapsed": 989877, "internal_node_id": "0.0-6.0-1.0-31.0"}}, {"uniqueid": "w19480958:a19614350", "current_trial": 41, "dateTime": 1693565575261, "trialdata": {"revealed_states": [], "clicked_states": ["28", "5", "17", "21", "32", "29", "9", "11", "10"], "num_clicks_accrued": [0, 0, 0, 0, 0, 0, 0, 0, 0, 0, 0, 0, 0], "stateRewards": ["", -1, -2, 4, 9, 10, -75, 39, 16, -43, 88, -19, -1, 1, 2, 4, -31, 10, 73, 12, 41, -64, -81, -2, 2, -6, 1, -81, -1, -26, 3, -59, -3, -20], "withholdReward": false, "trial_id": "mdp_trial_33", "block": "test", "trialIndex": 34, "score": 92.4, "costs": -12.600000000000001, "simulationMode": [null, null, null, null, null], "rewards": [-1, -2, 4, 16, 88], "path": ["0", "0", "1", "2", "3", "8", "10"], "rt": [17993, 71, 24, 51, 101], "actions": ["up", "up", "up", "left", "down"], "actionTimes": [19127, 19700, 20222, 20782, 21383], "queries": {"click": {"state": {"target": ["28", "5", "17", "21", "32", "29", "9", "11", "10"], "time": [1702, 3474, 5329, 7217, 9070, 10857, 12662, 14452, 16324]}, "edge": {"target": [], "time": []}}, "mouseover": {"state": {"target": ["23", "28", "10", "2", "4", "5", "4", "15", "17", "17", "19", "21", "32", "33", "29", "27", "11", "9", "11", "10", "2", "7", "2", "2", "2"], "time": [1526, 1581, 2034, 2053, 2109, 2392, 3771, 4022, 4066, 4466, 5685, 5976, 7946, 9434, 10093, 11067, 11154, 12017, 13000, 15674, 16611, 16933, 18334, 18668, 18988]}, "edge": {"target": [], "time": []}}, "mouseout": {"state": {"target": ["0", "23", "28", "10", "2", "4", "5", "4", "15", "17", "17", "19", "21", "32", "33", "29", "27", "11", "9", "11", "10", "2", "7", "2", "2", "2", "12"], "time": [1491, 1534, 1983, 2044, 2063, 2183, 3729, 3814, 4039, 4120, 5553, 5722, 7464, 9373, 9471, 11025, 11102, 11329, 12841, 15250, 16557, 16845, 18307, 18369, 18716, 22297, 22374]}, "edge": {"target": [], "time": []}}}, "displayed_time": "21.88", "trialTime": 23694, "trial_type": "mouselab-mdp", "trial_index": 41, "time_elapsed": 1013779, "internal_node_id": "0.0-6.0-1.0-32.0"}}, {"uniqueid": "w19480958:a19614350", "current_trial": 42, "dateTime": 1693565594051, "trialdata": {"revealed_states": [], "clicked_states": ["17", "16", "29", "22", "32"], "num_clicks_accrued": [0, 0, 0, 0, 0, 0, 0, 0, 0, 0, 0, 0, 0], "stateRewards": ["", 1, -4, -6, -1, -21, 17, -72, 10, 77, 67, -46, -1, 4, -2, 14, -66, -49, -45, -15, -52, 23, -67, 2, -2, -2, 15, -3, 45, -64, 5, -44, 83, 61], "withholdReward": false, "trial_id": "mdp_trial_34", "block": "test", "trialIndex": 35, "score": 79, "costs": -7, "simulationMode": [null, null, null, null, null], "rewards": [2, -2, -2, 5, 83], "path": ["0", "0", "23", "24", "25", "30", "32"], "rt": [11820, 67, 386, 137, 120], "actions": ["left", "left", "left", "down", "down"], "actionTimes": [12512, 13083, 13972, 14606, 15228], "queries": {"click": {"state": {"target": ["17", "16", "29", "22", "32"], "time": [1433, 3221, 5338, 8078, 10345]}, "edge": {"target": [], "time": []}}, "mouseover": {"state": {"target": ["18", "15", "17", "15", "18", "7", "16", "18", "1", "28", "26", "29", "27", "10", "2", "14", "19", "19", "22", "31", "30", "32", "24", "23", "1", "2", "9"], "time": [1100, 1149, 1371, 1710, 1764, 2387, 2686, 3541, 4805, 5062, 5167, 5285, 7294, 7495, 7513, 7572, 7589, 7759, 7961, 10053, 10102, 10227, 10660, 10732, 10796, 10822, 11269]}, "edge": {"target": [], "time": []}}, "mouseout": {"state": {"target": ["12", "0", "18", "15", "17", "15", "18", "7", "16", "18", "1", "28", "26", "29", "27", "10", "2", "14", "19", "19", "22", "31", "30", "32", "24", "23", "1", "2", "9", "23"], "time": [495, 1000, 1128, 1329, 1658, 1746, 1800, 2546, 3455, 4055, 4868, 5111, 5229, 5347, 7308, 7504, 7522, 7581, 7599, 7829, 8525, 10082, 10116, 10548, 10671, 10751, 10808, 10841, 12347, 16205]}, "edge": {"target": [], "time": []}}}, "displayed_time": "15.73", "trialTime": 18584, "trial_type": "mouselab-mdp", "trial_index": 42, "time_elapsed": 1032570, "internal_node_id": "0.0-6.0-1.0-33.0"}}, {"uniqueid": "w19480958:a19614350", "current_trial": 43, "dateTime": 1693565616170, "trialdata": {"revealed_states": [], "clicked_states": ["28", "5", "16", "17", "21", "32", "11"], "num_clicks_accrued": [0, 0, 0, 0, 0, 0, 0, 0, 0, 0, 0, 0, 0], "stateRewards": ["", 2, -3, 5, -14, -63, -9, -24, -11, -54, -43, 68, 2, -2, -4, 7, -64, 30, 47, 12, -74, 11, 86, 1, -3, 3, 10, -71, -42, -52, -1, -29, -16, 69], "withholdReward": false, "trial_id": "mdp_trial_35", "block": "test", "trialIndex": 36, "score": 51.2, "costs": -9.8, "simulationMode": [null, null, null, null, null], "rewards": [2, -3, 5, -11, 68], "path": ["0", "0", "1", "2", "3", "8", "11"], "rt": [16615, 43, 132, 61, 46], "actions": ["up", "up", "up", "left", "left"], "actionTimes": [17303, 17845, 18478, 19038, 19586], "queries": {"click": {"state": {"target": ["28", "5", "16", "17", "21", "32", "11"], "time": [1313, 3356, 5246, 7079, 10459, 12553, 14328]}, "edge": {"target": [], "time": []}}, "mouseover": {"state": {"target": ["0", "23", "28", "2", "4", "5", "16", "17", "17", "17", "14", "23", "0", "12", "14", "20", "19", "21", "31", "30", "32", "30", "24", "11", "9", "8"], "time": [819, 1062, 1271, 2585, 2973, 3286, 5094, 5789, 6447, 6757, 7520, 8381, 8500, 8530, 8560, 8827, 8837, 10232, 11229, 11830, 12358, 12821, 13170, 13954, 14907, 16987]}, "edge": {"target": [], "time": []}}, "mouseout": {"state": {"target": ["0", "0", "23", "28", "2", "4", "5", "16", "16", "17", "17", "17", "14", "23", "0", "12", "14", "20", "19", "21", "31", "30", "32", "30", "24", "11", "9"], "time": [498, 1027, 1104, 1577, 2743, 3064, 4464, 5271, 5633, 5871, 6484, 7491, 7531, 8471, 8520, 8540, 8571, 8836, 8846, 10626, 11655, 12267, 12791, 12831, 13234, 14642, 16673]}, "edge": {"target": [], "time": []}}}, "displayed_time": "20.09", "trialTime": 21917, "trial_type": "mouselab-mdp", "trial_index": 43, "time_elapsed": 1054689, "internal_node_id": "0.0-6.0-1.0-34.0"}}, {"uniqueid": "w19480958:a19614350", "current_trial": 44, "dateTime": 1693565643829, "trialdata": {"revealed_states": [], "clicked_states": ["28", "5", "21", "17", "33", "11", "9", "22", "20", "32", "31"], "num_clicks_accrued": [0, 0, 0, 0, 0, 0, 0, 0, 0, 0, 0, 0, 0], "stateRewards": ["", -2, 2, -4, -4, -59, 88, 62, -3, 69, -15, -34, 1, -2, -5, 7, -54, -20, 78, -16, -74, -53, -21, 2, -4, 2, 13, -8, -44, 26, 9, 72, 4, 17], "withholdReward": false, "trial_id": "mdp_trial_36", "block": "test", "trialIndex": 37, "score": 65.6, "costs": -15.400000000000002, "simulationMode": [null, null, null, null, null], "rewards": [2, -4, 2, 9, 72], "path": ["0", "0", "23", "24", "25", "30", "31"], "rt": [22403, 22, 54, 22, 3], "actions": ["left", "left", "left", "down", "right"], "actionTimes": [24163, 24687, 25247, 25770, 26279], "queries": {"click": {"state": {"target": ["28", "5", "21", "17", "33", "11", "9", "22", "20", "32", "31"], "time": [2366, 4496, 6298, 8089, 10682, 12583, 14428, 16350, 18278, 20109, 21969]}, "edge": {"target": [], "time": []}}, "mouseover": {"state": {"target": ["28", "10", "4", "5", "4", "15", "14", "20", "21", "19", "14", "17", "15", "23", "30", "33", "33", "33", "25", "11", "9", "3", "7", "18", "12", "22", "13", "7", "3", "2", "14", "20", "19", "31", "32", "30", "8", "9", "28", "31", "24", "12", "13", "18"], "time": [2231, 4184, 4260, 4434, 4947, 5065, 5100, 5184, 5446, 6693, 7020, 7195, 8330, 8398, 8438, 8459, 8601, 10583, 11260, 11504, 14382, 14811, 14861, 14921, 15300, 15519, 16633, 16675, 17713, 17742, 17810, 18164, 18512, 18626, 19114, 20256, 20331, 20595, 21338, 21600, 22240, 22514, 22544, 23048]}, "edge": {"target": [], "time": []}}, "mouseout": {"state": {"target": ["8", "3", "2", "1", "28", "28", "28", "10", "4", "5", "4", "15", "14", "20", "21", "19", "14", "17", "15", "23", "30", "33", "33", "33", "25", "11", "11", "9", "3", "7", "18", "12", "22", "13", "7", "3", "2", "14", "20", "19", "31", "32", "30", "8", "9", "28", "31", "24", "12", "13", "18", "12"], "time": [1174, 1216, 1271, 1396, 2437, 2609, 3415, 4205, 4379, 4884, 4957, 5077, 5112, 5230, 6619, 6905, 7075, 8320, 8350, 8409, 8449, 8515, 8722, 10751, 11298, 13135, 13690, 14773, 14822, 14872, 14949, 15320, 16422, 16645, 16686, 17731, 17753, 17830, 18462, 18532, 18637, 20177, 20266, 20351, 21239, 21349, 22026, 22250, 22524, 22580, 26915, 26977]}, "edge": {"target": [], "time": []}}}, "displayed_time": "26.78", "trialTime": 27451, "trial_type": "mouselab-mdp", "trial_index": 44, "time_elapsed": 1082347, "internal_node_id": "0.0-6.0-1.0-35.0"}}, {"uniqueid": "w19480958:a19614350", "current_trial": 45, "dateTime": 1693565664230, "trialdata": {"revealed_states": [], "clicked_states": ["28", "6", "9", "21", "17", "18", "16"], "num_clicks_accrued": [0, 0, 0, 0, 0, 0, 0, 0, 0, 0, 0, 0, 0], "stateRewards": ["", 2, -1, 5, 8, 75, -35, -77, 1, -9, -81, -58, 1, 2, -7, 5, 77, -16, 19, 16, -10, -18, 40, -2, 3, 7, -5, 64, 1, -62, 10, 27, 10, 65], "withholdReward": false, "trial_id": "mdp_trial_37", "block": "test", "trialIndex": 38, "score": 68.2, "costs": -9.8, "simulationMode": [null, null, null, null, null], "rewards": [1, 2, -7, 5, 77], "path": ["0", "0", "12", "13", "14", "15", "16"], "rt": [14976, 46, 22, 63, 4], "actions": ["right", "right", "right", "up", "up"], "actionTimes": [15791, 16333, 16859, 17428, 17932], "queries": {"click": {"state": {"target": ["28", "6", "9", "21", "17", "18", "16"], "time": [1680, 3755, 5545, 7354, 9142, 10959, 12886]}, "edge": {"target": [], "time": []}}, "mouseover": {"state": {"target": ["28", "2", "7", "4", "6", "5", "9", "8", "23", "21", "19", "17", "15", "18", "16", "15", "20", "15"], "time": [1653, 2241, 2280, 2955, 3634, 4481, 4857, 6188, 6393, 6904, 7884, 8396, 10408, 10595, 12665, 14377, 14694, 14882]}, "edge": {"target": [], "time": []}}, "mouseout": {"state": {"target": ["0", "28", "2", "7", "4", "6", "5", "9", "9", "8", "23", "21", "19", "17", "15", "18", "16", "15", "20", "15", "18", "7", "2", "4"], "time": [686, 2095, 2261, 2290, 3137, 4088, 4519, 5609, 6141, 6237, 6441, 7604, 7922, 9768, 10501, 11001, 13869, 14402, 14819, 19254, 19323, 19463, 19643, 19828]}, "edge": {"target": [], "time": []}}}, "displayed_time": "18.44", "trialTime": 20206, "trial_type": "mouselab-mdp", "trial_index": 45, "time_elapsed": 1102748, "internal_node_id": "0.0-6.0-1.0-36.0"}}, {"uniqueid": "w19480958:a19614350", "current_trial": 46, "dateTime": 1693565680047, "trialdata": {"revealed_states": [], "clicked_states": ["6"], "num_clicks_accrued": [0, 0, 0, 0, 0, 0, 0, 0, 0, 0, 0, 0, 0], "stateRewards": ["", -2, 1, -5, 2, -68, 80, 33, 10, 67, -59, 20, -1, -3, 3, 14, 74, -2, 24, -16, 63, 80, 46, -1, 4, 6, 12, 83, -38, -43, -4, 43, 14, -79], "withholdReward": false, "trial_id": "mdp_trial_38", "block": "test", "trialIndex": 39, "score": 74.6, "costs": -1.4, "simulationMode": [null, null, null, null, null], "rewards": [-2, 1, -5, 2, 80], "path": ["0", "0", "1", "2", "3", "4", "6"], "rt": [3205, 9, 398, 29, 83], "actions": ["up", "up", "up", "right", "right"], "actionTimes": [4210, 4721, 5625, 6153, 6735], "queries": {"click": {"state": {"target": ["6"], "time": [1580]}, "edge": {"target": [], "time": []}}, "mouseover": {"state": {"target": ["6", "7"], "time": [1478, 3281]}, "edge": {"target": [], "time": []}}, "mouseout": {"state": {"target": ["6", "0", "0", "6", "7", "3", "9", "7", "22"], "time": [574, 651, 845, 1858, 7985, 8096, 8131, 11780, 11815]}, "edge": {"target": [], "time": []}}}, "displayed_time": "15.01", "trialTime": 15599, "trial_type": "mouselab-mdp", "trial_index": 46, "time_elapsed": 1118565, "internal_node_id": "0.0-6.0-1.0-37.0"}}, {"uniqueid": "w19480958:a19614350", "current_trial": 47, "dateTime": 1693565701288, "trialdata": {"revealed_states": [], "clicked_states": ["31", "17", "5", "10", "20", "29", "28", "9"], "num_clicks_accrued": [0, 0, 0, 0, 0, 0, 0, 0, 0, 0, 0, 0, 0], "stateRewards": ["", -1, 3, 8, 10, -86, 61, -36, 10, 17, -60, 24, -1, -3, 3, 11, 50, 60, 33, -3, -20, 58, -6, 1, -4, -4, 13, -70, -71, 43, 14, 52, 82, -11], "withholdReward": false, "trial_id": "mdp_trial_39", "block": "test", "trialIndex": 40, "score": 58.8, "costs": -11.200000000000001, "simulationMode": [null, null, null, null, null], "rewards": [-1, -3, 3, 11, 60], "path": ["0", "0", "12", "13", "14", "15", "17"], "rt": [16276, 86, 48, 4, 486], "actions": ["right", "right", "right", "up", "right"], "actionTimes": [17138, 17724, 18270, 18775, 19766], "queries": {"click": {"state": {"target": ["31", "17", "5", "10", "20", "29", "28", "9"], "time": [1290, 3247, 5175, 7191, 8975, 10755, 13137, 15237]}, "edge": {"target": [], "time": []}}, "mouseover": {"state": {"target": ["31", "24", "23", "12", "13", "17", "16", "6", "5", "9", "8", "10", "1", "12", "19", "20", "21", "30", "29", "25", "28", "8", "9", "3", "7", "18"], "time": [1176, 1943, 1982, 2050, 2071, 2566, 3835, 4028, 4204, 6016, 6493, 6709, 7594, 7615, 7655, 7976, 9262, 9550, 10020, 11455, 13039, 15016, 15169, 15715, 15831, 16439]}, "edge": {"target": [], "time": []}}, "mouseout": {"state": {"target": ["0", "31", "24", "23", "12", "13", "17", "16", "6", "5", "5", "9", "8", "10", "1", "12", "19", "20", "21", "30", "29", "25", "28", "8", "9", "3", "7", "18"], "time": [1023, 1358, 1963, 2011, 2061, 2082, 3495, 3903, 4174, 5242, 5700, 6444, 6596, 7555, 7605, 7625, 7675, 9193, 9424, 9570, 11287, 11516, 13518, 15121, 15629, 15764, 15880, 16524]}, "edge": {"target": [], "time": []}}}, "displayed_time": "20.27", "trialTime": 21037, "trial_type": "mouselab-mdp", "trial_index": 47, "time_elapsed": 1139807, "internal_node_id": "0.0-6.0-1.0-38.0"}}, {"uniqueid": "w19480958:a19614350", "current_trial": 48, "dateTime": 1693565737698, "trialdata": {"revealed_states": [], "clicked_states": ["28", "16", "9", "21", "32", "31", "29", "11", "10", "5", "6", "7", "17", "20", "18", "22"], "num_clicks_accrued": [0, 0, 0, 0, 0, 0, 0, 0, 0, 0, 0, 0, 0], "stateRewards": ["", -1, 4, -3, 3, 57, -61, 5, -11, 23, -1, 34, -2, -4, -1, -13, 27, 38, -36, 4, -45, 21, 88, 1, -2, -1, 1, -69, -5, -78, -12, -9, 38, -54], "withholdReward": false, "trial_id": "mdp_trial_40", "block": "test", "trialIndex": 41, "score": 62.60000000000001, "costs": -22.399999999999995, "simulationMode": [null, null, null, null, null], "rewards": [-2, -4, -1, 4, 88], "path": ["0", "0", "12", "13", "14", "19", "22"], "rt": [32081, 46, 36, 35, 22], "actions": ["right", "right", "right", "down", "left"], "actionTimes": [32989, 33535, 34074, 34608, 35130], "queries": {"click": {"state": {"target": ["28", "16", "9", "21", "32", "31", "29", "11", "10", "5", "6", "7", "17", "20", "18", "22"], "time": [1686, 3478, 5292, 7114, 8982, 11323, 13349, 15185, 17394, 19178, 21070, 23021, 24846, 26701, 28484, 30267]}, "edge": {"target": [], "time": []}}, "mouseover": {"state": {"target": ["23", "28", "23", "16", "3", "9", "3", "13", "19", "21", "32", "22", "14", "17", "20", "31", "25", "29", "26", "11", "10", "3", "5", "6", "7", "15", "17", "20", "14", "13", "18", "13", "22", "30", "33", "30", "31", "19"], "time": [1428, 1623, 2032, 2575, 4335, 4503, 5779, 5895, 5936, 5967, 8045, 9390, 9479, 9701, 10246, 11209, 11686, 11999, 14577, 14977, 17256, 17672, 17956, 19710, 22425, 23842, 24207, 25564, 26967, 26998, 27331, 28885, 28936, 30577, 30942, 32244, 32263, 32528]}, "edge": {"target": [], "time": []}}, "mouseout": {"state": {"target": ["0", "23", "28", "23", "16", "3", "9", "3", "13", "19", "21", "32", "22", "14", "17", "20", "31", "25", "29", "26", "11", "10", "3", "5", "6", "7", "15", "17", "20", "14", "13", "18", "13", "22", "30", "33", "30", "31", "22", "19"], "time": [983, 1491, 1937, 2053, 4013, 4415, 5731, 5817, 5916, 5947, 7500, 9216, 9401, 9575, 10188, 10757, 11334, 11746, 13440, 14597, 15405, 17545, 17753, 19512, 21350, 23540, 24158, 25136, 26927, 26977, 27018, 28855, 28915, 30423, 30902, 32230, 32254, 32273, 32508, 32549]}, "edge": {"target": [], "time": []}}}, "displayed_time": "35.64", "trialTime": 36157, "trial_type": "mouselab-mdp", "trial_index": 48, "time_elapsed": 1176217, "internal_node_id": "0.0-6.0-1.0-39.0"}}, {"uniqueid": "w19480958:a19614350", "current_trial": 49, "dateTime": 1693565822063, "trialdata": {"rt": 84362, "response": {"Q0": "$-2 to $2", "Q1": "$-4 to $4", "Q2": "$-88 to $88", "Q3": "The cost was always $1.4.", "Q4": "Very motivated"}, "question_order": [0, 1, 2, 3, 4], "trial_id": "final_quiz_control", "trial_type": "survey-multi-choice", "trial_index": 49, "time_elapsed": 1260582, "internal_node_id": "0.0-6.0-2.0"}}, {"uniqueid": "w19480958:a19614350", "current_trial": 50, "dateTime": 1693565970824, "trialdata": {"rt": 148756, "response": {"Q0": "At the start, I simply followed a path and stopped once I witnessed multiple negative numbers in a row. However, somewhere furhter down the line I realized that the numbers on the end nodes varied between -88/88, whereas the four nodes before consisted of very low numbers. Therefore, it was only necessary to click on the 5th nodes each round and find anything above the value of 60-80 with no risk of losing money.", "Q1": "Only select the fifth nodes and search for the highest values (60-80)", "Q2": "The only difficult part is experimenting with the values and finding out patterns. Once they have been established and confirmed to be the same for each round, the difficulty went down."}, "trial_id": "self_report_control", "trial_type": "survey-text", "trial_index": 50, "time_elapsed": 1409343, "internal_node_id": "0.0-6.0-3.0"}}, {"uniqueid": "w19480958:a19614350", "current_trial": 51, "dateTime": 1693565993691, "trialdata": {"rt": 22864, "response": {"gender": "male", "age": "23", "colorblind": "0", "effort": "0"}, "trial_type": "survey-html-form", "trial_index": 51, "time_elapsed": 1432210, "internal_node_id": "0.0-6.0-4.0"}}, {"uniqueid": "w19480958:a19614350", "current_trial": 52, "dateTime": 1693566016282, "trialdata": {"rt": 22587, "response": {"Q0": "No, it was simple to understand", "Q1": "No, I have never done it before", "Q2": ""}, "trial_type": "survey-text", "trial_index": 52, "time_elapsed": 1454801, "internal_node_id": "0.0-6.0-5.0"}}, {"uniqueid": "w19480958:a19614350", "current_trial": 53, "dateTime": 1693566040071, "trialdata": {"rt": 23786, "stimulus": "<h1>Completion Code Instructions (1/2)</h1>\n<br><br><br><br>\nYou have reached the end of the experiment! The completion code consists of two parts: (1) a code with 2 characters (2) a code with 6 characters. On this page, you will receive the second part of the code. The first part of the completion code will be on the next page.\n<br><br>\nThe second part of your completion code is: <b>EWEK22</b>\n<br><br>\nPlease note this down. Then, press 'Finish HIT' in order to find the first part of your completion code. Once the data has been saved, you will receive this code either in this window or in the original browser window where you started the experiment.\n", "response": 0, "trial_type": "html-button-response", "trial_index": 53, "time_elapsed": 1478590, "internal_node_id": "0.0-6.0-6.0"}}, {"uniqueid": "w19480958:a19614350", "current_trial": 54, "dateTime": 1693566041073, "trialdata": {"success": true, "trial_type": "fullscreen", "trial_index": 54, "time_elapsed": 1479592, "internal_node_id": "0.0-7.0"}}], "questiondata": {"params": {"CODE": "C6DMOQA6", "MIN_TIME": 14, "inspectCost": 1, "startTime": "Fri Sep 01 2023 12:36:00 GMT+0200 (Midden-Europese zomertijd)", "bonusRate": 0.002, "variance": "1_2_4_8_44", "branching": "31123"}, "final_score": 2389.6}, "eventdata": [{"eventtype": "initialized", "value": null, "timestamp": 1693564560310, "interval": 0}, {"eventtype": "window_resize", "value": [1024, 767], "timestamp": 1693564560310, "interval": 0}, {"eventtype": "window_resize", "value": [1024, 767], "timestamp": 1693564560634, "interval": 324}, {"eventtype": "window_resize", "value": [1920, 1080], "timestamp": 1693564564785, "interval": 4151}, {"eventtype": "focus", "value": "off", "timestamp": 1693565257617, "interval": 692832}, {"eventtype": "focus", "value": "on", "timestamp": 1693565264036, "interval": 6419}, {"eventtype": "focus", "value": "off", "timestamp": 1693565401481, "interval": 137445}, {"eventtype": "focus", "value": "on", "timestamp": 1693565403911, "interval": 2430}, {"eventtype": "focus", "value": "off", "timestamp": 1693565405165, "interval": 1254}, {"eventtype": "focus", "value": "on", "timestamp": 1693565406798, "interval": 1633}, {"eventtype": "focus", "value": "off", "timestamp": 1693566022199, "interval": 615401}, {"eventtype": "focus", "value": "on", "timestamp": 1693566023524, "interval": 1325}, {"eventtype": "window_resize", "value": [1024, 767], "timestamp": 1693566040291, "interval": 16767}], "useragent": "Mozilla/5.0 (Windows NT 10.0; Win64; x64) AppleWebKit/537.36 (KHTML, like Gecko) Chrome/116.0.0.0 Safari/537.36", "mode": "live", "id": "w19480958:a19614350", "status": "user data saved", "Beginhit": "2023-09-01 10:36:00.258226", "Beginexp": "2023-09-01 10:36:06.709677", "Endhit": "2023-09-01 11:00:42.695623", "psiturkStatus": 3, "browser": "<redacted>", "platform": "windows", "language": "nl-NL"}