{"condition": 1, "counterbalance": 0, "assignmentId": "a48004809", "workerId": "w48744096", "hitId": "h54641009", "currenttrial": 62, "bonus": 0, "data": [{"uniqueid": "w48744096:a48004809", "current_trial": 0, "dateTime": 1693486905253, "trialdata": {"success": true, "trial_type": "fullscreen", "trial_index": 0, "time_elapsed": 2113, "internal_node_id": "0.0-0.0"}}, {"uniqueid": "w48744096:a48004809", "current_trial": 1, "dateTime": 1693486913576, "trialdata": {"view_history": [{"page_index": 0, "viewing_time": 8320}], "rt": 8321, "trial_id": "exp_instructions_misaligned", "trial_type": "instructions", "trial_index": 1, "time_elapsed": 10436, "internal_node_id": "0.0-1.0"}}, {"uniqueid": "w48744096:a48004809", "current_trial": 2, "dateTime": 1693487006799, "trialdata": {"view_history": [{"page_index": 0, "viewing_time": 7136}, {"page_index": 1, "viewing_time": 22439}, {"page_index": 2, "viewing_time": 8682}, {"page_index": 3, "viewing_time": 54965}], "rt": 93222, "trial_id": "mouselab_instructions_1_misaligned", "trial_type": "instructions", "trial_index": 2, "time_elapsed": 103659, "internal_node_id": "0.0-2.0-1.0"}}, {"uniqueid": "w48744096:a48004809", "current_trial": 3, "dateTime": 1693487026186, "trialdata": {"revealed_states": [], "clicked_states": [], "num_clicks_accrued": [0, 0, 0, 0, 0, 0, 0, 0, 0, 0, 0, 0, 0], "stateRewards": ["", -10, -10, -10, 10, 10, -10, 10, -10, 10, 10, -10, -10, 10, 10, 10, 10, 10, 10, -10, -10, 10, -10, 10, 10, -10, -10, -10, -10, -10, 10, -10, -10, 10], "withholdReward": false, "trial_id": "practice_1", "block": "test", "trialIndex": 0, "score": -26.5, "costs": 0, "simulationMode": [null, null, null, null, null], "rewards": [-10, -10, -10, -10, 10], "path": ["0", "0", "1", "2", "3", "8", "9"], "rt": [490, 248, 291, 206, 161], "actions": ["up", "up", "up", "left", "up"], "actionTimes": [2988, 3736, 4523, 5230, 5888], "queries": {"click": {"state": {"target": [], "time": []}, "edge": {"target": [], "time": []}}, "mouseover": {"state": {"target": [], "time": []}, "edge": {"target": [], "time": []}}, "mouseout": {"state": {"target": [], "time": []}, "edge": {"target": [], "time": []}}}, "displayed_time": "6.39", "trialTime": 19005, "trial_type": "mouselab-mdp", "trial_index": 3, "time_elapsed": 123046, "internal_node_id": "0.0-2.0-2.0-0.0"}}, {"uniqueid": "w48744096:a48004809", "current_trial": 4, "dateTime": 1693487065512, "trialdata": {"revealed_states": [], "clicked_states": ["1", "23", "12"], "num_clicks_accrued": [0, 0, 0, 0, 0, 0, 0, 0, 0, 0, 0, 0, 0], "stateRewards": ["", 10, 10, -10, 10, 10, -10, 10, 10, -10, 10, -10, -10, 10, -10, 10, 10, 10, -10, 10, 10, 10, 10, -10, 10, -10, -10, -10, 10, 10, -10, -10, -10, -10], "withholdReward": false, "trial_id": "practice_2", "block": "test", "trialIndex": 1, "score": 12, "costs": -1.5, "simulationMode": [null, null, null, null, null, null], "rewards": [10, 10, -10, 10, -10], "path": ["0", "0", "1", "2", "3", "4", "6"], "rt": [3677, 805, 434, 3347, 2923, 2022], "actions": ["right", "up", "up", "up", "right", "right"], "actionTimes": [4956, 5761, 6701, 10545, 13965, 16491], "queries": {"click": {"state": {"target": ["1", "23", "12"], "time": [2029, 3123, 4456]}, "edge": {"target": [], "time": []}}, "mouseover": {"state": {"target": ["1", "1", "2", "0", "23", "0", "12"], "time": [1609, 1925, 2596, 2888, 2985, 3965, 4348]}, "edge": {"target": [], "time": []}}, "mouseout": {"state": {"target": ["0", "1", "1", "2", "0", "23", "23", "0", "12", "1", "2", "7", "3", "2", "3", "4", "4", "3", "8", "4", "5", "6", "7", "6", "18", "13", "22"], "time": [1130, 1692, 2040, 2686, 2937, 3252, 3514, 4292, 5703, 6273, 7434, 8268, 8754, 10027, 11118, 11932, 13343, 13405, 13829, 14522, 15372, 15928, 17020, 19654, 19710, 19731, 19759]}, "edge": {"target": [], "time": []}}}, "displayed_time": "16.99", "trialTime": 39234, "trial_type": "mouselab-mdp", "trial_index": 4, "time_elapsed": 162372, "internal_node_id": "0.0-2.0-2.0-1.0"}}, {"uniqueid": "w48744096:a48004809", "current_trial": 5, "dateTime": 1693487090028, "trialdata": {"view_history": [{"page_index": 0, "viewing_time": 19640}, {"page_index": 1, "viewing_time": 4875}], "rt": 24515, "trial_id": "mouselab_instructions_2_misaligned", "trial_type": "instructions", "trial_index": 5, "time_elapsed": 186888, "internal_node_id": "0.0-2.0-3.0"}}, {"uniqueid": "w48744096:a48004809", "current_trial": 6, "dateTime": 1693487192070, "trialdata": {"rt": 102039, "response": {"Q0": "The cost for clicking on nodes may vary between nodes.", "Q1": "The better I perform the higher my bonus will be.", "Q2": "No, the structure of the web will be different each time.", "Q3": "To get the highest total score.", "Q4": "Only before moving the spider.", "Q5": "3 seconds"}, "question_order": [0, 1, 2, 3, 4, 5], "correct": {"Q0": "The cost for clicking on nodes may vary between nodes.", "Q1": "The better I perform the higher my bonus will be.", "Q2": "No, the amount of cash at each node of the web may be different each time.", "Q3": "To get the highest total score.", "Q4": "Only before moving the spider.", "Q5": "3 seconds"}, "trial_id": "mouselab_quiz_misaligned", "trial_type": "survey-multi-choice", "trial_index": 6, "time_elapsed": 288930, "internal_node_id": "0.0-2.0-4.0"}}, {"uniqueid": "w48744096:a48004809", "current_trial": 7, "dateTime": 1693487196407, "trialdata": {"success": true, "trial_type": "fullscreen", "trial_index": 7, "time_elapsed": 293267, "internal_node_id": "0.0-2.1-0.1-0.1"}}, {"uniqueid": "w48744096:a48004809", "current_trial": 8, "dateTime": 1693487207250, "trialdata": {"view_history": [{"page_index": 0, "viewing_time": 6212}, {"page_index": 1, "viewing_time": 2306}, {"page_index": 2, "viewing_time": 1263}, {"page_index": 3, "viewing_time": 1061}], "rt": 10842, "trial_id": "mouselab_instructions_1_misaligned", "trial_type": "instructions", "trial_index": 8, "time_elapsed": 304110, "internal_node_id": "0.0-2.1-1.1"}}, {"uniqueid": "w48744096:a48004809", "current_trial": 9, "dateTime": 1693487227393, "trialdata": {"revealed_states": [], "clicked_states": ["2", "24", "13", "1"], "num_clicks_accrued": [0, 0, 0, 0, 0, 0, 0, 0, 0, 0, 0, 0, 0], "stateRewards": ["", -10, -10, -10, 10, 10, -10, 10, -10, 10, 10, -10, -10, 10, 10, 10, 10, 10, 10, -10, -10, 10, -10, 10, 10, -10, -10, -10, -10, -10, 10, -10, -10, 10], "withholdReward": false, "trial_id": "practice_1", "block": "test", "trialIndex": 2, "score": -28.5, "costs": -2, "simulationMode": [null, null, null, null, null, null], "rewards": [-10, -10, -10, 10, -10], "path": ["0", "0", "1", "2", "3", "4", "6"], "rt": [8439, 2028, 99, 586, 728, 450], "actions": ["up", "up", "up", "up", "right", "right"], "actionTimes": [12273, 14302, 14902, 15987, 17214, 18166], "queries": {"click": {"state": {"target": ["2", "24", "13", "1"], "time": [4971, 6620, 7739, 11943]}, "edge": {"target": [], "time": []}}, "mouseover": {"state": {"target": ["1", "2", "1", "23", "24", "23", "0", "12", "13", "12", "0", "1", "10"], "time": [4153, 4278, 5710, 5953, 6238, 7065, 7135, 7239, 7559, 8191, 9674, 11465, 12974]}, "edge": {"target": [], "time": []}}, "mouseout": {"state": {"target": ["12", "1", "2", "1", "23", "24", "23", "0", "12", "13", "12", "0", "1", "10", "2"], "time": [1469, 4223, 5557, 5849, 5960, 7038, 7107, 7190, 7455, 8122, 8901, 9853, 12835, 15379, 15887]}, "edge": {"target": [], "time": []}}}, "displayed_time": "18.67", "trialTime": 20049, "trial_type": "mouselab-mdp", "trial_index": 9, "time_elapsed": 324252, "internal_node_id": "0.0-2.1-2.1-0.1"}}, {"uniqueid": "w48744096:a48004809", "current_trial": 10, "dateTime": 1693487235504, "trialdata": {"revealed_states": [], "clicked_states": [], "num_clicks_accrued": [0, 0, 0, 0, 0, 0, 0, 0, 0, 0, 0, 0, 0], "stateRewards": ["", 10, 10, -10, 10, 10, -10, 10, 10, -10, 10, -10, -10, 10, -10, 10, 10, 10, -10, 10, 10, 10, 10, -10, 10, -10, -10, -10, 10, 10, -10, -10, -10, -10], "withholdReward": false, "trial_id": "practice_2", "block": "test", "trialIndex": 3, "score": 13.5, "costs": 0, "simulationMode": [null, null, null, null, null], "rewards": [10, 10, -10, 10, -10], "path": ["0", "0", "1", "2", "3", "4", "6"], "rt": [244, 1056, 102, 632, 512], "actions": ["up", "up", "up", "right", "right"], "actionTimes": [2122, 3677, 4280, 5415, 6428], "queries": {"click": {"state": {"target": [], "time": []}, "edge": {"target": [], "time": []}}, "mouseover": {"state": {"target": [], "time": []}, "edge": {"target": [], "time": []}}, "mouseout": {"state": {"target": ["4", "7", "0", "1", "2"], "time": [1438, 1494, 2696, 2738, 3107]}, "edge": {"target": [], "time": []}}}, "displayed_time": "6.92", "trialTime": 8019, "trial_type": "mouselab-mdp", "trial_index": 10, "time_elapsed": 332363, "internal_node_id": "0.0-2.1-2.1-1.1"}}, {"uniqueid": "w48744096:a48004809", "current_trial": 11, "dateTime": 1693487239167, "trialdata": {"view_history": [{"page_index": 0, "viewing_time": 2033}, {"page_index": 1, "viewing_time": 1629}], "rt": 3662, "trial_id": "mouselab_instructions_2_misaligned", "trial_type": "instructions", "trial_index": 11, "time_elapsed": 336027, "internal_node_id": "0.0-2.1-3.1"}}, {"uniqueid": "w48744096:a48004809", "current_trial": 12, "dateTime": 1693487273684, "trialdata": {"rt": 34515, "response": {"Q0": "The cost for clicking on nodes may vary between nodes.", "Q1": "The better I perform the higher my bonus will be.", "Q2": "No, the amount of cash at each node of the web may be different each time.", "Q3": "To get the highest total score.", "Q4": "Only before moving the spider.", "Q5": "3 seconds"}, "question_order": [0, 1, 2, 3, 4, 5], "correct": {"Q0": "The cost for clicking on nodes may vary between nodes.", "Q1": "The better I perform the higher my bonus will be.", "Q2": "No, the amount of cash at each node of the web may be different each time.", "Q3": "To get the highest total score.", "Q4": "Only before moving the spider.", "Q5": "3 seconds"}, "trial_id": "mouselab_quiz_misaligned", "trial_type": "survey-multi-choice", "trial_index": 12, "time_elapsed": 370544, "internal_node_id": "0.0-2.1-4.1"}}, {"uniqueid": "w48744096:a48004809", "current_trial": 13, "dateTime": 1693487278419, "trialdata": {"rt": 4732, "response": {"Q0": "No"}, "question_order": [0], "trial_id": "repeat_check", "trial_type": "survey-multi-choice", "trial_index": 13, "time_elapsed": 375279, "internal_node_id": "0.0-4.0-0.0"}}, {"uniqueid": "w48744096:a48004809", "current_trial": 14, "dateTime": 1693487311806, "trialdata": {"rt": 33385, "stimulus": "\n<h1> Get ready to start the game! </h1>\n\nThank you for reading the instructions. Get ready start with the 40 rounds of this game.\n<br><br>\nIf you need to take a break, feel free to take one after the end of a round, before continuing to the next one.\n<br><br>\nRemember, the more money the spider gets, the bigger your bonus will be!\n<br><br>\n<div style='text-align: center;'>Press <code>space</code> to begin.</div>\n\n<br><br>\n(If, at any point, the <code>space</code> key does not take you to the next page, click once on the text and try again.)", "response": " ", "trial_id": "mdp_ready", "trial_type": "html-keyboard-response", "trial_index": 14, "time_elapsed": 408666, "internal_node_id": "0.0-6.0-0.0"}}, {"uniqueid": "w48744096:a48004809", "current_trial": 15, "dateTime": 1693487328752, "trialdata": {"revealed_states": [], "clicked_states": ["24", "13", "2"], "num_clicks_accrued": [0, 0, 0, 0, 0, 0, 0, 0, 0, 0, 0, 0, 0], "stateRewards": ["", 1, -1, 8, 4, 76, -33, -17, -3, -1, -54, -74, -2, 2, -5, 13, -51, 63, 83, 1, 84, 29, -36, 2, -1, 7, -12, -10, -44, -43, -14, 8, -69, 19], "withholdReward": false, "trial_id": "mdp_trial_1", "block": "test", "trialIndex": 4, "score": -70.05, "costs": -1.0499999999999998, "simulationMode": [null, null, null, null, null], "rewards": [1, -1, 8, -3, -74], "path": ["0", "0", "1", "2", "3", "8", "11"], "rt": [4526, 666, 309, 104, 506], "actions": ["up", "up", "up", "left", "left"], "actionTimes": [6106, 7272, 8082, 8683, 9690], "queries": {"click": {"state": {"target": ["24", "13", "2"], "time": [2925, 4001, 4846]}, "edge": {"target": [], "time": []}}, "mouseover": {"state": {"target": ["1", "2", "28", "24", "23", "0", "12", "13", "2", "2"], "time": [1878, 2172, 2448, 2746, 3428, 3518, 3601, 3810, 4394, 4755]}, "edge": {"target": [], "time": []}}, "mouseout": {"state": {"target": ["3", "2", "1", "1", "2", "28", "24", "23", "0", "12", "13", "2", "2", "2"], "time": [702, 758, 1057, 1989, 2350, 2468, 3289, 3490, 3566, 3671, 4290, 4435, 5221, 5742]}, "edge": {"target": [], "time": []}}}, "displayed_time": "15.58", "trialTime": 16846, "trial_type": "mouselab-mdp", "trial_index": 15, "time_elapsed": 425612, "internal_node_id": "0.0-6.0-1.0-0.0"}}, {"uniqueid": "w48744096:a48004809", "current_trial": 16, "dateTime": 1693487345770, "trialdata": {"revealed_states": [], "clicked_states": ["14", "25", "6"], "num_clicks_accrued": [0, 0, 0, 0, 0, 0, 0, 0, 0, 0, 0, 0, 0], "stateRewards": ["", -2, -4, -8, 8, 63, -50, -19, -7, -17, -31, 31, 1, 3, -5, 12, -35, -63, -29, -4, -17, -75, -79, -2, -3, -2, 8, -3, -85, 10, -2, -82, -82, 56], "withholdReward": false, "trial_id": "mdp_trial_2", "block": "test", "trialIndex": 5, "score": -42.05, "costs": -4.05, "simulationMode": [null, null, null, null, null], "rewards": [-2, -4, -8, -7, -17], "path": ["0", "0", "1", "2", "3", "8", "9"], "rt": [6843, 530, 393, 274, 429], "actions": ["up", "up", "up", "left", "up"], "actionTimes": [8007, 9040, 9931, 10701, 11628], "queries": {"click": {"state": {"target": ["14", "25", "6"], "time": [3081, 4184, 5181]}, "edge": {"target": [], "time": []}}, "mouseover": {"state": {"target": ["1", "1", "12", "13", "14", "13", "12", "0", "23", "24", "25", "28", "10", "2", "4", "6", "4", "3", "8", "11", "9", "11", "8"], "time": [1466, 2321, 2440, 2607, 2926, 3392, 3440, 3482, 3545, 3823, 4038, 4462, 4560, 4705, 4886, 5018, 5408, 5470, 5526, 5790, 6242, 6457, 7389]}, "edge": {"target": [], "time": []}}, "mouseout": {"state": {"target": ["2", "1", "1", "1", "12", "13", "14", "13", "12", "0", "23", "24", "25", "28", "10", "2", "4", "6", "4", "3", "8", "11", "9", "11", "8"], "time": [479, 729, 1487, 2342, 2467, 2704, 3357, 3420, 3469, 3510, 3760, 3941, 4406, 4490, 4636, 4754, 4970, 5359, 5449, 5498, 5706, 6131, 6346, 7354, 7410]}, "edge": {"target": [], "time": []}}}, "displayed_time": "15.17", "trialTime": 16916, "trial_type": "mouselab-mdp", "trial_index": 16, "time_elapsed": 442630, "internal_node_id": "0.0-6.0-1.0-1.0"}}, {"uniqueid": "w48744096:a48004809", "current_trial": 17, "dateTime": 1693487361654, "trialdata": {"revealed_states": [], "clicked_states": [], "num_clicks_accrued": [0, 0, 0, 0, 0, 0, 0, 0, 0, 0, 0, 0, 0], "stateRewards": ["", -2, 2, -1, -6, 22, 6, 6, -5, 70, -42, 65, 1, 3, 5, -6, -67, -9, 3, 14, 7, -62, -13, -2, 4, 1, 16, 42, -21, -52, -8, 32, 53, 81], "withholdReward": false, "trial_id": "mdp_trial_3", "block": "test", "trialIndex": 6, "score": -48, "costs": 0, "simulationMode": [null, null, null, null, null], "rewards": [-2, 2, -1, -5, -42], "path": ["0", "0", "1", "2", "3", "8", "10"], "rt": [538, 405, 1372, 737, 197], "actions": ["up", "up", "up", "left", "down"], "actionTimes": [1394, 2304, 4174, 5409, 6106], "queries": {"click": {"state": {"target": [], "time": []}, "edge": {"target": [], "time": []}}, "mouseover": {"state": {"target": ["1", "2", "3"], "time": [1196, 1265, 1377]}, "edge": {"target": [], "time": []}}, "mouseout": {"state": {"target": ["3", "2", "1", "1", "2", "3", "2"], "time": [410, 487, 626, 1237, 1321, 1599, 7855]}, "edge": {"target": [], "time": []}}}, "displayed_time": "14.86", "trialTime": 15784, "trial_type": "mouselab-mdp", "trial_index": 17, "time_elapsed": 458514, "internal_node_id": "0.0-6.0-1.0-2.0"}}, {"uniqueid": "w48744096:a48004809", "current_trial": 18, "dateTime": 1693487377560, "trialdata": {"revealed_states": [], "clicked_states": ["32"], "num_clicks_accrued": [0, 0, 0, 0, 0, 0, 0, 0, 0, 0, 0, 0, 0], "stateRewards": ["", 1, 2, -3, -5, 66, -50, -47, -5, 1, 28, -27, 1, 1, -1, -6, 37, -25, 56, 1, -82, -66, -40, -1, -4, -7, 15, -61, -23, 26, 10, 14, -56, 29], "withholdReward": false, "trial_id": "mdp_trial_4", "block": "test", "trialIndex": 7, "score": 24.85, "costs": -2.15, "simulationMode": [null, null, null, null, null], "rewards": [-1, -4, -7, 10, 29], "path": ["0", "0", "23", "24", "25", "30", "33"], "rt": [4541, 935, 531, 10, 508], "actions": ["left", "left", "left", "down", "left"], "actionTimes": [5269, 6705, 7732, 8240, 9252], "queries": {"click": {"state": {"target": ["32"], "time": [2198]}, "edge": {"target": [], "time": []}}, "mouseover": {"state": {"target": ["0", "23", "24", "25", "30", "32", "31", "22", "19", "20"], "time": [1347, 1403, 1465, 1709, 1938, 2049, 2619, 3050, 3154, 3328]}, "edge": {"target": [], "time": []}}, "mouseout": {"state": {"target": ["0", "0", "23", "24", "25", "30", "32", "31", "22", "19", "20", "19", "22", "23"], "time": [1132, 1382, 1438, 1528, 1904, 2001, 2529, 2702, 3126, 3217, 5532, 5601, 5643, 6025]}, "edge": {"target": [], "time": []}}}, "displayed_time": "14.73", "trialTime": 15799, "trial_type": "mouselab-mdp", "trial_index": 18, "time_elapsed": 474420, "internal_node_id": "0.0-6.0-1.0-3.0"}}, {"uniqueid": "w48744096:a48004809", "current_trial": 19, "dateTime": 1693487394034, "trialdata": {"revealed_states": [], "clicked_states": ["20"], "num_clicks_accrued": [0, 0, 0, 0, 0, 0, 0, 0, 0, 0, 0, 0, 0], "stateRewards": ["", 2, -1, -3, 16, -3, -16, -62, -1, 13, -26, 43, -1, 4, 3, -9, -54, -37, -3, -12, -71, -68, -57, 1, -3, 2, -9, 2, -2, -9, -11, 84, -52, 55], "withholdReward": false, "trial_id": "mdp_trial_5", "block": "test", "trialIndex": 8, "score": 41.85, "costs": -2.15, "simulationMode": [null, null, null, null, null], "rewards": [1, -3, 2, -11, 55], "path": ["0", "0", "23", "24", "25", "30", "33"], "rt": [3810, 630, 256, 526, 73], "actions": ["left", "left", "left", "down", "left"], "actionTimes": [5186, 6315, 7073, 8108, 8684], "queries": {"click": {"state": {"target": ["20"], "time": [2221]}, "edge": {"target": [], "time": []}}, "mouseover": {"state": {"target": ["12", "19", "20", "19", "22", "33", "30", "31"], "time": [1693, 1832, 2055, 2534, 2590, 3021, 3750, 3806]}, "edge": {"target": [], "time": []}}, "mouseout": {"state": {"target": ["31", "0", "12", "19", "20", "19", "22", "33", "30", "31", "31", "30", "33"], "time": [740, 956, 1735, 1992, 2499, 2569, 2611, 3723, 3785, 3834, 5634, 5836, 6928]}, "edge": {"target": [], "time": []}}}, "displayed_time": "15.38", "trialTime": 16373, "trial_type": "mouselab-mdp", "trial_index": 19, "time_elapsed": 490894, "internal_node_id": "0.0-6.0-1.0-4.0"}}, {"uniqueid": "w48744096:a48004809", "current_trial": 20, "dateTime": 1693487410018, "trialdata": {"revealed_states": [], "clicked_states": ["32", "12", "23"], "num_clicks_accrued": [0, 0, 0, 0, 0, 0, 0, 0, 0, 0, 0, 0, 0], "stateRewards": ["", 1, 4, -8, -13, -13, -87, -77, -10, -44, 54, 42, 2, -3, -4, 12, -9, -80, 52, 9, 84, -2, -65, 1, -4, -5, -6, 8, 80, 32, 13, -59, -5, -13], "withholdReward": false, "trial_id": "mdp_trial_6", "block": "test", "trialIndex": 9, "score": -9.65, "costs": -1.65, "simulationMode": [null, null, null, null, null], "rewards": [1, -4, -5, 13, -13], "path": ["0", "0", "23", "24", "25", "30", "33"], "rt": [5588, 730, 428, 98, 241], "actions": ["left", "left", "left", "down", "left"], "actionTimes": [7017, 8253, 9181, 9782, 10522], "queries": {"click": {"state": {"target": ["32", "12", "23"], "time": [2238, 5490, 6711]}, "edge": {"target": [], "time": []}}, "mouseover": {"state": {"target": ["32", "22", "20", "19", "22", "12", "13", "0", "23"], "time": [2099, 2711, 3184, 4762, 5158, 5380, 6110, 6506, 6597]}, "edge": {"target": [], "time": []}}, "mouseout": {"state": {"target": ["30", "23", "0", "32", "22", "20", "19", "22", "12", "13", "12", "0", "23", "24"], "time": [952, 1049, 1780, 2537, 2732, 4727, 4804, 5207, 6020, 6409, 6478, 6548, 7744, 15231]}, "edge": {"target": [], "time": []}}}, "displayed_time": "15.43", "trialTime": 15879, "trial_type": "mouselab-mdp", "trial_index": 20, "time_elapsed": 506877, "internal_node_id": "0.0-6.0-1.0-5.0"}}, {"uniqueid": "w48744096:a48004809", "current_trial": 21, "dateTime": 1693487425311, "trialdata": {"revealed_states": [], "clicked_states": ["23", "12"], "num_clicks_accrued": [0, 0, 0, 0, 0, 0, 0, 0, 0, 0, 0, 0, 0], "stateRewards": ["", -1, -2, -1, -10, -57, 73, -72, -16, 75, -14, -46, -2, -3, -7, -1, -61, -60, 76, -4, 50, 4, 14, 2, 2, -7, 12, -65, -32, 15, -8, -76, -25, -61], "withholdReward": false, "trial_id": "mdp_trial_7", "block": "test", "trialIndex": 10, "score": -35.5, "costs": 0.5, "simulationMode": [null, null, null, null, null], "rewards": [2, 2, -7, -8, -25], "path": ["0", "0", "23", "24", "25", "30", "32"], "rt": [2188, 566, 564, 87, 96], "actions": ["left", "left", "left", "down", "down"], "actionTimes": [2889, 3959, 5029, 5613, 6206], "queries": {"click": {"state": {"target": ["23", "12"], "time": [1418, 2163]}, "edge": {"target": [], "time": []}}, "mouseover": {"state": {"target": ["23", "23", "0", "12", "1"], "time": [1076, 1348, 1827, 1924, 2529]}, "edge": {"target": [], "time": []}}, "mouseout": {"state": {"target": ["0", "23", "23", "0", "12", "1"], "time": [1007, 1139, 1778, 1882, 2453, 3134]}, "edge": {"target": [], "time": []}}}, "displayed_time": "14.70", "trialTime": 15190, "trial_type": "mouselab-mdp", "trial_index": 21, "time_elapsed": 522171, "internal_node_id": "0.0-6.0-1.0-6.0"}}, {"uniqueid": "w48744096:a48004809", "current_trial": 22, "dateTime": 1693487443221, "trialdata": {"revealed_states": [], "clicked_states": [], "num_clicks_accrued": [0, 0, 0, 0, 0, 0, 0, 0, 0, 0, 0, 0, 0], "stateRewards": ["", 1, 3, 1, -13, 52, -28, 67, -14, 3, 63, -70, -1, -4, 7, -11, -10, 47, -18, 6, 69, -9, -61, 2, 3, -6, 10, 63, -34, 40, -6, -79, -35, -32], "withholdReward": false, "trial_id": "mdp_trial_8", "block": "test", "trialIndex": 11, "score": 49, "costs": 0, "simulationMode": [null, null, null, null, null], "rewards": [2, 3, -6, 10, 40], "path": ["0", "0", "23", "24", "25", "26", "29"], "rt": [412, 296, 899, 149, 165], "actions": ["left", "left", "left", "up", "left"], "actionTimes": [1628, 2425, 3821, 4468, 5131], "queries": {"click": {"state": {"target": [], "time": []}, "edge": {"target": [], "time": []}}, "mouseover": {"state": {"target": ["23"], "time": [1627]}, "edge": {"target": [], "time": []}}, "mouseout": {"state": {"target": ["23", "0", "23", "24", "25", "28", "28"], "time": [982, 1586, 1670, 2094, 15691, 16372, 17067]}, "edge": {"target": [], "time": []}}}, "displayed_time": "15.22", "trialTime": 17803, "trial_type": "mouselab-mdp", "trial_index": 22, "time_elapsed": 540080, "internal_node_id": "0.0-6.0-1.0-7.0"}}, {"uniqueid": "w48744096:a48004809", "current_trial": 23, "dateTime": 1693487459032, "trialdata": {"revealed_states": [], "clicked_states": [], "num_clicks_accrued": [0, 0, 0, 0, 0, 0, 0, 0, 0, 0, 0, 0, 0], "stateRewards": ["", -1, 2, 5, -6, 13, -64, -47, 8, -79, -80, -33, 1, 2, -2, -16, 56, -71, -10, 3, 29, 44, 85, -1, 4, 5, 4, -36, -56, 19, 8, 52, -13, -2], "withholdReward": false, "trial_id": "mdp_trial_9", "block": "test", "trialIndex": 12, "score": -65, "costs": 0, "simulationMode": [null, null, null, null, null], "rewards": [-1, 2, 5, 8, -79], "path": ["0", "0", "1", "2", "3", "8", "9"], "rt": [825, 494, 314, 36, 180], "actions": ["up", "up", "up", "left", "up"], "actionTimes": [2047, 3039, 3853, 4388, 5067], "queries": {"click": {"state": {"target": [], "time": []}, "edge": {"target": [], "time": []}}, "mouseover": {"state": {"target": ["1"], "time": [1585]}, "edge": {"target": [], "time": []}}, "mouseout": {"state": {"target": ["1"], "time": [1654]}, "edge": {"target": [], "time": []}}}, "displayed_time": "15.22", "trialTime": 15699, "trial_type": "mouselab-mdp", "trial_index": 23, "time_elapsed": 555891, "internal_node_id": "0.0-6.0-1.0-8.0"}}, {"uniqueid": "w48744096:a48004809", "current_trial": 24, "dateTime": 1693487489415, "trialdata": {"revealed_states": [], "clicked_states": ["12", "24", "27"], "num_clicks_accrued": [0, 0, 0, 0, 0, 0, 0, 0, 0, 0, 0, 0, 0], "stateRewards": ["", 2, 4, 7, -6, -76, -81, 2, 5, -66, -3, 36, -2, -4, 6, -2, -69, 4, -49, -6, 67, 38, -67, 2, 1, 1, 6, -68, -21, 52, -16, -16, 6, -70], "withholdReward": false, "trial_id": "mdp_trial_10", "block": "test", "trialIndex": 13, "score": 59.75, "costs": -2.25, "simulationMode": [null, null, null, null, null, null], "rewards": [2, 1, 1, 6, 52], "path": ["0", "0", "23", "24", "25", "26", "29"], "rt": [4443, 658, 634, 345, 136, 94], "actions": ["left", "left", "left", "left", "up", "left"], "actionTimes": [5898, 6557, 7698, 8542, 9174, 9765], "queries": {"click": {"state": {"target": ["12", "24", "27"], "time": [2578, 3288, 4196]}, "edge": {"target": [], "time": []}}, "mouseover": {"state": {"target": ["0", "12", "12", "0", "23", "24", "26", "27", "1", "18", "15", "17"], "time": [2107, 2190, 2468, 2885, 2962, 3163, 3872, 4108, 4616, 4672, 4707, 5172]}, "edge": {"target": [], "time": []}}, "mouseout": {"state": {"target": ["1", "12", "0", "0", "12", "12", "0", "23", "24", "26", "27", "1", "18", "15", "17", "15", "18", "1"], "time": [765, 807, 1314, 2142, 2239, 2851, 2927, 3080, 3426, 4025, 4547, 4637, 4693, 4741, 5861, 6708, 29657, 29724]}, "edge": {"target": [], "time": []}}}, "displayed_time": "15.46", "trialTime": 30269, "trial_type": "mouselab-mdp", "trial_index": 24, "time_elapsed": 586275, "internal_node_id": "0.0-6.0-1.0-9.0"}}, {"uniqueid": "w48744096:a48004809", "current_trial": 25, "dateTime": 1693487510402, "trialdata": {"revealed_states": [], "clicked_states": ["1"], "num_clicks_accrued": [0, 0, 0, 0, 0, 0, 0, 0, 0, 0, 0, 0, 0], "stateRewards": ["", 2, 3, 3, 10, 19, -21, 6, 9, 54, 68, 16, 2, 2, -6, -8, 40, -2, -75, -2, -42, 55, 59, -1, 2, 4, -14, 11, -34, -30, -6, 61, -53, 13], "withholdReward": false, "trial_id": "mdp_trial_11", "block": "test", "trialIndex": 14, "score": 37.25, "costs": 0.25, "simulationMode": [null, null, null, null, null], "rewards": [2, 3, 3, 10, 19], "path": ["0", "0", "1", "2", "3", "4", "5"], "rt": [1240, 562, 97, 16, 29], "actions": ["up", "up", "up", "right", "up"], "actionTimes": [2372, 3440, 4038, 4555, 5090], "queries": {"click": {"state": {"target": ["1"], "time": [1713]}, "edge": {"target": [], "time": []}}, "mouseover": {"state": {"target": ["1", "23"], "time": [1640, 2140]}, "edge": {"target": [], "time": []}}, "mouseout": {"state": {"target": ["1", "1", "23", "1", "18"], "time": [889, 2071, 2335, 2640, 6679]}, "edge": {"target": [], "time": []}}}, "displayed_time": "15.13", "trialTime": 20872, "trial_type": "mouselab-mdp", "trial_index": 25, "time_elapsed": 607262, "internal_node_id": "0.0-6.0-1.0-10.0"}}, {"uniqueid": "w48744096:a48004809", "current_trial": 26, "dateTime": 1693487526257, "trialdata": {"revealed_states": [], "clicked_states": [], "num_clicks_accrued": [0, 0, 0, 0, 0, 0, 0, 0, 0, 0, 0, 0, 0], "stateRewards": ["", 1, -3, -6, -5, 47, 80, -29, 11, -71, 10, -29, -2, 3, -6, 12, 2, -78, -6, 8, 34, -16, -5, -1, 3, 3, -13, 84, -36, -62, -3, -27, 66, 15], "withholdReward": false, "trial_id": "mdp_trial_12", "block": "test", "trialIndex": 15, "score": -42, "costs": 0, "simulationMode": [null, null, null, null, null], "rewards": [1, -3, -6, -5, -29], "path": ["0", "0", "1", "2", "3", "4", "7"], "rt": [619, 260, 766, 45, 87], "actions": ["up", "up", "up", "right", "down"], "actionTimes": [1677, 2436, 3706, 4250, 4835], "queries": {"click": {"state": {"target": [], "time": []}, "edge": {"target": [], "time": []}}, "mouseover": {"state": {"target": [], "time": []}, "edge": {"target": [], "time": []}}, "mouseout": {"state": {"target": [], "time": []}, "edge": {"target": [], "time": []}}}, "displayed_time": "15.06", "trialTime": 15740, "trial_type": "mouselab-mdp", "trial_index": 26, "time_elapsed": 623117, "internal_node_id": "0.0-6.0-1.0-11.0"}}, {"uniqueid": "w48744096:a48004809", "current_trial": 27, "dateTime": 1693487541900, "trialdata": {"revealed_states": [], "clicked_states": ["23", "26", "29"], "num_clicks_accrued": [0, 0, 0, 0, 0, 0, 0, 0, 0, 0, 0, 0, 0], "stateRewards": ["", 1, 2, -3, 6, -88, 74, -45, 7, -46, 40, -77, 1, -4, 4, 3, 22, -25, -59, 8, -83, 19, -60, -1, -1, -1, -8, 26, -29, 64, -7, -88, -51, -55], "withholdReward": false, "trial_id": "mdp_trial_13", "block": "test", "trialIndex": 16, "score": 49.55, "costs": -3.45, "simulationMode": [null, null, null, null, null, null], "rewards": [-1, -1, -1, -8, 64], "path": ["0", "0", "23", "24", "25", "26", "29"], "rt": [4208, 532, 591, 424, 53, 38], "actions": ["left", "left", "left", "left", "up", "left"], "actionTimes": [5001, 5534, 6629, 7554, 8107, 8641], "queries": {"click": {"state": {"target": ["23", "26", "29"], "time": [1760, 2762, 3270]}, "edge": {"target": [], "time": []}}, "mouseover": {"state": {"target": ["23", "24", "25", "26", "29", "27", "28", "24", "30"], "time": [1443, 2188, 2610, 2666, 3173, 3681, 4376, 4640, 4745]}, "edge": {"target": [], "time": []}}, "mouseout": {"state": {"target": ["23", "24", "25", "26", "29", "27", "28", "24", "30", "31"], "time": [2124, 2416, 2617, 3111, 3583, 4320, 4404, 4668, 5481, 5773]}, "edge": {"target": [], "time": []}}}, "displayed_time": "14.79", "trialTime": 15525, "trial_type": "mouselab-mdp", "trial_index": 27, "time_elapsed": 638760, "internal_node_id": "0.0-6.0-1.0-12.0"}}, {"uniqueid": "w48744096:a48004809", "current_trial": 28, "dateTime": 1693487557869, "trialdata": {"revealed_states": [], "clicked_states": ["29"], "num_clicks_accrued": [0, 0, 0, 0, 0, 0, 0, 0, 0, 0, 0, 0, 0], "stateRewards": ["", -2, -4, -2, 10, -8, -15, -47, 7, -84, 53, 5, -1, 2, -7, 3, 83, 31, 47, -1, 30, -8, 69, 2, -4, -1, 8, -7, 12, -8, -8, -13, 30, -84], "withholdReward": false, "trial_id": "mdp_trial_14", "block": "test", "trialIndex": 17, "score": -4.15, "costs": -2.15, "simulationMode": [null, null, null, null, null, null], "rewards": [2, -4, -1, 8, -7], "path": ["0", "0", "23", "24", "25", "26", "27"], "rt": [4316, 497, 597, 285, 248, 1], "actions": ["left", "left", "left", "left", "up", "up"], "actionTimes": [5462, 5961, 7057, 7844, 8592, 9089], "queries": {"click": {"state": {"target": ["29"], "time": [2752]}, "edge": {"target": [], "time": []}}, "mouseover": {"state": {"target": ["23", "28", "25", "26", "29", "26", "28", "27", "26", "30", "32", "30", "25"], "time": [1378, 1476, 2157, 2345, 2629, 3095, 3283, 3992, 4617, 4742, 5208, 5646, 5771]}, "edge": {"target": [], "time": []}}, "mouseout": {"state": {"target": ["0", "23", "28", "25", "26", "29", "26", "28", "27", "26", "30", "32", "30"], "time": [1330, 1399, 1483, 2268, 2449, 3060, 3144, 3860, 4603, 4639, 4833, 5619, 5702]}, "edge": {"target": [], "time": []}}}, "displayed_time": "15.15", "trialTime": 15852, "trial_type": "mouselab-mdp", "trial_index": 28, "time_elapsed": 654729, "internal_node_id": "0.0-6.0-1.0-13.0"}}, {"uniqueid": "w48744096:a48004809", "current_trial": 29, "dateTime": 1693487575118, "trialdata": {"revealed_states": [], "clicked_states": ["12", "21"], "num_clicks_accrued": [0, 0, 0, 0, 0, 0, 0, 0, 0, 0, 0, 0, 0], "stateRewards": ["", 2, 4, 7, 7, -79, -2, -21, -5, -53, 47, -21, 1, -3, -1, 7, 83, 7, 84, -7, 80, -37, 69, 2, -4, 5, 2, 4, -20, -30, 7, 71, 44, -81], "withholdReward": false, "trial_id": "mdp_trial_15", "block": "test", "trialIndex": 18, "score": 57.1, "costs": -1.9, "simulationMode": [null, null, null, null, null, null], "rewards": [1, -3, -1, -7, 69], "path": ["0", "0", "12", "13", "14", "19", "22"], "rt": [2098, 492, 451, 75, 172, 265], "actions": ["right", "right", "right", "right", "down", "left"], "actionTimes": [3176, 3669, 4627, 5211, 5890, 6658], "queries": {"click": {"state": {"target": ["12", "21"], "time": [1686, 2852]}, "edge": {"target": [], "time": []}}, "mouseover": {"state": {"target": ["12", "13", "14", "19", "21"], "time": [1561, 2026, 2318, 2555, 2694]}, "edge": {"target": [], "time": []}}, "mouseout": {"state": {"target": ["25", "24", "23", "0", "12", "13", "14", "19", "21"], "time": [657, 705, 858, 921, 1971, 2221, 2499, 2638, 16422]}, "edge": {"target": [], "time": []}}}, "displayed_time": "15.08", "trialTime": 17122, "trial_type": "mouselab-mdp", "trial_index": 29, "time_elapsed": 671977, "internal_node_id": "0.0-6.0-1.0-14.0"}}, {"uniqueid": "w48744096:a48004809", "current_trial": 30, "dateTime": 1693487590652, "trialdata": {"revealed_states": [], "clicked_states": ["12", "22"], "num_clicks_accrued": [0, 0, 0, 0, 0, 0, 0, 0, 0, 0, 0, 0, 0], "stateRewards": ["", 1, -3, -1, 9, -34, -40, 22, -7, 45, 53, -11, 2, 4, 5, 15, 21, 37, -49, -3, 80, -28, -34, 1, -3, 1, 1, -40, -6, -5, -16, -85, -86, 59], "withholdReward": false, "trial_id": "mdp_trial_16", "block": "test", "trialIndex": 19, "score": -21.9, "costs": -1.9, "simulationMode": [null, null, null, null, null, null], "rewards": [2, 4, 5, -3, -28], "path": ["0", "0", "12", "13", "14", "19", "21"], "rt": [2498, 426, 1035, 145, 110, 128], "actions": ["right", "right", "right", "right", "down", "down"], "actionTimes": [3264, 3691, 5231, 5883, 6495, 7124], "queries": {"click": {"state": {"target": ["12", "22"], "time": [1841, 2959]}, "edge": {"target": [], "time": []}}, "mouseover": {"state": {"target": ["12", "13", "12", "13", "19", "22"], "time": [1073, 1170, 1734, 2213, 2421, 2811]}, "edge": {"target": [], "time": []}}, "mouseout": {"state": {"target": ["12", "0", "12", "13", "12", "13", "19", "22"], "time": [419, 1017, 1128, 1692, 2129, 2254, 2706, 4161]}, "edge": {"target": [], "time": []}}}, "displayed_time": "14.77", "trialTime": 15416, "trial_type": "mouselab-mdp", "trial_index": 30, "time_elapsed": 687512, "internal_node_id": "0.0-6.0-1.0-15.0"}}, {"uniqueid": "w48744096:a48004809", "current_trial": 31, "dateTime": 1693487606537, "trialdata": {"revealed_states": [], "clicked_states": ["14", "21"], "num_clicks_accrued": [0, 0, 0, 0, 0, 0, 0, 0, 0, 0, 0, 0, 0], "stateRewards": ["", -2, -3, -5, 8, 27, 11, 43, -6, -24, -87, 69, -2, 1, 1, 9, 19, 48, -37, 9, -14, 45, 62, 1, 2, 1, 16, -81, -41, 22, 4, -6, -63, 47], "withholdReward": false, "trial_id": "mdp_trial_17", "block": "test", "trialIndex": 20, "score": 50.9, "costs": -3.0999999999999996, "simulationMode": [null, null, null, null, null, null], "rewards": [-2, 1, 1, 9, 45], "path": ["0", "0", "12", "13", "14", "19", "21"], "rt": [2598, 1236, 250, 405, 155, 49], "actions": ["right", "right", "right", "right", "down", "down"], "actionTimes": [3467, 4705, 5461, 6365, 7019, 7566], "queries": {"click": {"state": {"target": ["14", "21"], "time": [1699, 2481]}, "edge": {"target": [], "time": []}}, "mouseover": {"state": {"target": ["12", "14", "19", "21", "22"], "time": [1149, 1573, 2060, 2386, 2977]}, "edge": {"target": [], "time": []}}, "mouseout": {"state": {"target": ["13", "12", "12", "14", "19", "21"], "time": [648, 690, 1191, 2018, 2199, 2887]}, "edge": {"target": [], "time": []}}}, "displayed_time": "14.87", "trialTime": 15765, "trial_type": "mouselab-mdp", "trial_index": 31, "time_elapsed": 703397, "internal_node_id": "0.0-6.0-1.0-16.0"}}, {"uniqueid": "w48744096:a48004809", "current_trial": 32, "dateTime": 1693487621840, "trialdata": {"revealed_states": [], "clicked_states": ["12", "21"], "num_clicks_accrued": [0, 0, 0, 0, 0, 0, 0, 0, 0, 0, 0, 0, 0], "stateRewards": ["", -1, 3, 2, 9, 41, 4, -46, -12, -54, -87, -25, 2, 3, -1, 11, -77, 12, -33, -9, -32, 35, 72, 1, 3, -7, 4, 37, 65, -73, 6, 77, -43, 8], "withholdReward": false, "trial_id": "mdp_trial_18", "block": "test", "trialIndex": 21, "score": 28.1, "costs": -1.9, "simulationMode": [null, null, null, null, null, null], "rewards": [2, 3, -1, -9, 35], "path": ["0", "0", "12", "13", "14", "19", "21"], "rt": [3212, 749, 603, 12, 154, 73], "actions": ["right", "right", "right", "right", "down", "down"], "actionTimes": [3954, 4705, 5815, 6335, 6999, 7571], "queries": {"click": {"state": {"target": ["12", "21"], "time": [1749, 2684]}, "edge": {"target": [], "time": []}}, "mouseover": {"state": {"target": ["12", "13", "22", "19", "21", "19"], "time": [1157, 2089, 2144, 2221, 2464, 3013]}, "edge": {"target": [], "time": []}}, "mouseout": {"state": {"target": ["22", "0", "12", "13", "22", "19", "21", "19"], "time": [156, 663, 1971, 2095, 2165, 2228, 2902, 3694]}, "edge": {"target": [], "time": []}}}, "displayed_time": "14.74", "trialTime": 15172, "trial_type": "mouselab-mdp", "trial_index": 32, "time_elapsed": 718699, "internal_node_id": "0.0-6.0-1.0-17.0"}}, {"uniqueid": "w48744096:a48004809", "current_trial": 33, "dateTime": 1693487637758, "trialdata": {"revealed_states": [], "clicked_states": ["12", "23", "25"], "num_clicks_accrued": [0, 0, 0, 0, 0, 0, 0, 0, 0, 0, 0, 0, 0], "stateRewards": ["", -1, 3, 8, 9, -53, 20, -84, 2, -28, -62, -31, -1, -2, -7, 2, 51, 58, 45, -4, -17, -41, 36, 2, -2, -7, -15, 29, -54, -37, -16, -43, 65, -17], "withholdReward": false, "trial_id": "mdp_trial_19", "block": "test", "trialIndex": 22, "score": 41.55, "costs": -0.44999999999999996, "simulationMode": [null, null, null, null, null], "rewards": [2, -2, -7, -16, 65], "path": ["0", "0", "23", "24", "25", "30", "32"], "rt": [4483, 339, 512, 1151, 108], "actions": ["left", "left", "left", "down", "down"], "actionTimes": [5275, 6119, 7133, 8788, 9398], "queries": {"click": {"state": {"target": ["12", "23", "25"], "time": [1617, 2601, 4629]}, "edge": {"target": [], "time": []}}, "mouseover": {"state": {"target": ["12", "0", "23", "24", "23", "24", "25", "25"], "time": [1239, 2129, 2185, 2247, 2484, 3137, 3297, 3763]}, "edge": {"target": [], "time": []}}, "mouseout": {"state": {"target": ["12", "0", "12", "0", "23", "24", "23", "24", "25", "25"], "time": [586, 1198, 2094, 2171, 2219, 2436, 3040, 3241, 3561, 7023]}, "edge": {"target": [], "time": []}}}, "displayed_time": "14.79", "trialTime": 15803, "trial_type": "mouselab-mdp", "trial_index": 33, "time_elapsed": 734618, "internal_node_id": "0.0-6.0-1.0-18.0"}}, {"uniqueid": "w48744096:a48004809", "current_trial": 34, "dateTime": 1693487653875, "trialdata": {"revealed_states": [], "clicked_states": ["23", "30"], "num_clicks_accrued": [0, 0, 0, 0, 0, 0, 0, 0, 0, 0, 0, 0, 0], "stateRewards": ["", -2, -3, -7, 7, -54, -69, -4, -14, -77, 22, 40, -2, -1, 5, 6, -35, 50, -60, 10, -28, 75, 57, 1, -4, -2, 2, 68, 34, -18, 12, 3, -21, -43], "withholdReward": false, "trial_id": "mdp_trial_20", "block": "test", "trialIndex": 23, "score": -15.3, "costs": -1.3, "simulationMode": [null, null, null, null, null], "rewards": [1, -4, -2, 12, -21], "path": ["0", "0", "23", "24", "25", "30", "32"], "rt": [2561, 187, 232, 233, 248], "actions": ["left", "left", "left", "down", "down"], "actionTimes": [3887, 4582, 5315, 6045, 6790], "queries": {"click": {"state": {"target": ["23", "30"], "time": [1845, 3108]}, "edge": {"target": [], "time": []}}, "mouseover": {"state": {"target": ["23", "24", "25", "30"], "time": [1704, 2413, 2649, 2892]}, "edge": {"target": [], "time": []}}, "mouseout": {"state": {"target": ["24", "23", "0", "23", "24", "25", "30"], "time": [577, 702, 1649, 2364, 2482, 2816, 3553]}, "edge": {"target": [], "time": []}}}, "displayed_time": "15.33", "trialTime": 16000, "trial_type": "mouselab-mdp", "trial_index": 34, "time_elapsed": 750735, "internal_node_id": "0.0-6.0-1.0-19.0"}}, {"uniqueid": "w48744096:a48004809", "current_trial": 35, "dateTime": 1693487677520, "trialdata": {"revealed_states": [], "clicked_states": ["23", "13", "12", "1", "2", "3"], "num_clicks_accrued": [0, 0, 0, 0, 0, 0, 0, 0, 0, 0, 0, 0, 0], "stateRewards": ["", 1, -3, -4, -11, -56, 61, -47, -16, -28, -9, 69, -2, -3, -4, -8, 40, -86, 59, -4, 80, 27, 54, -1, 3, -1, 8, 67, 23, 50, 6, 83, -43, -29], "withholdReward": false, "trial_id": "mdp_trial_21", "block": "test", "trialIndex": 24, "score": 46.1, "costs": -0.8999999999999999, "simulationMode": [null, null, null, null, null], "rewards": [1, -3, -4, -16, 69], "path": ["0", "0", "1", "2", "3", "8", "11"], "rt": [4805, 619, 927, 52, 205], "actions": ["up", "up", "up", "left", "left"], "actionTimes": [5474, 6601, 8028, 8577, 9279], "queries": {"click": {"state": {"target": ["23", "13", "12", "1", "2", "3"], "time": [1161, 2121, 2991, 3461, 4362, 4861]}, "edge": {"target": [], "time": []}}, "mouseover": {"state": {"target": ["23", "0", "12", "13", "12", "1", "2", "3"], "time": [1080, 1747, 1816, 1976, 2915, 3352, 4270, 4805]}, "edge": {"target": [], "time": []}}, "mouseout": {"state": {"target": ["24", "23", "0", "23", "0", "12", "13", "12", "1", "2", "3", "10", "8", "11", "8", "10", "23"], "time": [413, 454, 892, 1677, 1782, 1914, 2519, 3248, 3471, 4722, 5987, 6404, 7377, 9108, 9248, 22691, 22739]}, "edge": {"target": [], "time": []}}}, "displayed_time": "14.67", "trialTime": 23506, "trial_type": "mouselab-mdp", "trial_index": 35, "time_elapsed": 774380, "internal_node_id": "0.0-6.0-1.0-20.0"}}, {"uniqueid": "w48744096:a48004809", "current_trial": 36, "dateTime": 1693487693079, "trialdata": {"revealed_states": [], "clicked_states": ["1", "3"], "num_clicks_accrued": [0, 0, 0, 0, 0, 0, 0, 0, 0, 0, 0, 0, 0], "stateRewards": ["", 2, 3, 6, -5, -74, -53, 17, -12, 46, 44, 18, -2, 4, 1, -8, 22, -23, -49, 9, -45, 55, 81, 1, -1, -7, -16, -83, -71, -45, 2, 51, 82, 61], "withholdReward": false, "trial_id": "mdp_trial_22", "block": "test", "trialIndex": 25, "score": 16.3, "costs": -0.7, "simulationMode": [null, null, null, null, null], "rewards": [2, 3, 6, -12, 18], "path": ["0", "0", "1", "2", "3", "8", "11"], "rt": [2298, 813, 947, 93, 439], "actions": ["up", "up", "up", "left", "left"], "actionTimes": [2904, 4221, 5668, 6260, 7196], "queries": {"click": {"state": {"target": ["1", "3"], "time": [1421, 2402]}, "edge": {"target": [], "time": []}}, "mouseover": {"state": {"target": ["23", "1", "2", "3"], "time": [1127, 1342, 1919, 2245]}, "edge": {"target": [], "time": []}}, "mouseout": {"state": {"target": ["0", "23", "1", "2", "3", "4", "8"], "time": [947, 1251, 1856, 1995, 2864, 3594, 6458]}, "edge": {"target": [], "time": []}}}, "displayed_time": "14.61", "trialTime": 15429, "trial_type": "mouselab-mdp", "trial_index": 36, "time_elapsed": 789939, "internal_node_id": "0.0-6.0-1.0-21.0"}}, {"uniqueid": "w48744096:a48004809", "current_trial": 37, "dateTime": 1693487709337, "trialdata": {"revealed_states": [], "clicked_states": ["1", "3"], "num_clicks_accrued": [0, 0, 0, 0, 0, 0, 0, 0, 0, 0, 0, 0, 0], "stateRewards": ["", 1, 2, 8, -2, 23, -69, -18, -16, 54, -21, 71, -1, -4, 7, 11, 43, -6, 88, 6, -55, 72, 43, 1, -3, -2, -1, 68, -31, -54, 4, -8, 25, -2], "withholdReward": false, "trial_id": "mdp_trial_23", "block": "test", "trialIndex": 26, "score": 65.3, "costs": -0.7, "simulationMode": [null, null, null, null, null], "rewards": [1, 2, 8, -16, 71], "path": ["0", "0", "1", "2", "3", "8", "11"], "rt": [4002, 435, 649, 19, 100], "actions": ["up", "up", "up", "left", "left"], "actionTimes": [5323, 6254, 7406, 7923, 8533], "queries": {"click": {"state": {"target": ["1", "3"], "time": [2354, 3330]}, "edge": {"target": [], "time": []}}, "mouseover": {"state": {"target": ["1", "2", "3", "4", "8", "11"], "time": [2224, 2961, 3260, 3753, 4282, 4365]}, "edge": {"target": [], "time": []}}, "mouseout": {"state": {"target": ["10", "0", "1", "2", "3", "4", "3", "8", "11"], "time": [452, 1694, 2891, 3162, 3698, 4156, 4254, 4323, 4608]}, "edge": {"target": [], "time": []}}}, "displayed_time": "15.32", "trialTime": 16137, "trial_type": "mouselab-mdp", "trial_index": 37, "time_elapsed": 806197, "internal_node_id": "0.0-6.0-1.0-22.0"}}, {"uniqueid": "w48744096:a48004809", "current_trial": 38, "dateTime": 1693487725155, "trialdata": {"revealed_states": [], "clicked_states": ["1", "3", "4"], "num_clicks_accrued": [0, 0, 0, 0, 0, 0, 0, 0, 0, 0, 0, 0, 0], "stateRewards": ["", 1, 3, -2, 15, 51, 15, -19, 11, 67, -45, -73, 2, 4, -2, -13, 36, 9, -28, 10, -30, 31, 16, 1, 2, -1, -16, 14, -22, 36, -1, 88, -5, 45], "withholdReward": false, "trial_id": "mdp_trial_24", "block": "test", "trialIndex": 27, "score": 29.75, "costs": -2.25, "simulationMode": [null, null, null, null, null], "rewards": [1, 3, -2, 15, 15], "path": ["0", "0", "1", "2", "3", "4", "6"], "rt": [4085, 108, 499, 51, 307], "actions": ["up", "up", "up", "right", "right"], "actionTimes": [5022, 5632, 6628, 7181, 7986], "queries": {"click": {"state": {"target": ["1", "3", "4"], "time": [2199, 3394, 4345]}, "edge": {"target": [], "time": []}}, "mouseover": {"state": {"target": ["1", "1", "23", "3", "4"], "time": [1324, 1700, 2534, 3277, 3799]}, "edge": {"target": [], "time": []}}, "mouseout": {"state": {"target": ["11", "10", "1", "1", "23", "3", "4", "6"], "time": [406, 615, 1449, 2443, 2860, 3716, 6044, 15129]}, "edge": {"target": [], "time": []}}}, "displayed_time": "14.94", "trialTime": 15686, "trial_type": "mouselab-mdp", "trial_index": 38, "time_elapsed": 822015, "internal_node_id": "0.0-6.0-1.0-23.0"}}, {"uniqueid": "w48744096:a48004809", "current_trial": 39, "dateTime": 1693487740767, "trialdata": {"revealed_states": [], "clicked_states": ["1", "12", "17", "22", "21"], "num_clicks_accrued": [0, 0, 0, 0, 0, 0, 0, 0, 0, 0, 0, 0, 0], "stateRewards": ["", -2, -1, -6, -14, -55, 78, -13, 11, 14, -71, 59, 2, 2, 6, -6, 9, 38, 14, 7, 85, 11, 68, 1, -4, -1, -3, -63, -85, 9, -2, 63, -86, -10], "withholdReward": false, "trial_id": "mdp_trial_25", "block": "test", "trialIndex": 28, "score": 79.05, "costs": -5.949999999999999, "simulationMode": [null, null, null, null, null, null], "rewards": [2, 2, 6, 7, 68], "path": ["0", "0", "12", "13", "14", "19", "22"], "rt": [5729, 3566, 145, 69, 146, 308], "actions": ["right", "right", "right", "right", "down", "left"], "actionTimes": [6440, 10008, 10659, 11236, 11883, 12691], "queries": {"click": {"state": {"target": ["1", "12", "17", "22", "21"], "time": [1340, 2141, 3331, 6294, 8211]}, "edge": {"target": [], "time": []}}, "mouseover": {"state": {"target": ["1", "12", "13", "14", "17", "14", "22", "22", "21", "20", "17", "16", "15", "14"], "time": [954, 1990, 2602, 2685, 3214, 3686, 5827, 6126, 7120, 8767, 9261, 9345, 9796, 9859]}, "edge": {"target": [], "time": []}}, "mouseout": {"state": {"target": ["1", "1", "12", "13", "14", "17", "14", "22", "22", "21", "20", "17", "16", "15", "14"], "time": [1761, 1900, 2567, 2650, 2984, 3603, 4590, 5924, 7009, 8614, 9164, 9282, 9747, 9838, 9880]}, "edge": {"target": [], "time": []}}}, "displayed_time": "14.71", "trialTime": 15455, "trial_type": "mouselab-mdp", "trial_index": 39, "time_elapsed": 837626, "internal_node_id": "0.0-6.0-1.0-24.0"}}, {"uniqueid": "w48744096:a48004809", "current_trial": 40, "dateTime": 1693487756720, "trialdata": {"revealed_states": [], "clicked_states": ["13", "24"], "num_clicks_accrued": [0, 0, 0, 0, 0, 0, 0, 0, 0, 0, 0, 0, 0], "stateRewards": ["", -2, 1, -5, 2, -68, 80, 33, 10, 67, -59, 20, -1, -3, 3, 14, 74, -2, 24, -16, 63, 80, 46, -1, 4, 6, 12, 83, -38, -43, -4, 43, 14, -79], "withholdReward": false, "trial_id": "mdp_trial_26", "block": "test", "trialIndex": 29, "score": -74.7, "costs": -0.7, "simulationMode": [null, null, null, null, null], "rewards": [-1, 4, 6, -4, -79], "path": ["0", "0", "23", "24", "25", "30", "33"], "rt": [2572, 461, 372, 400, 119], "actions": ["left", "left", "left", "down", "left"], "actionTimes": [3693, 4657, 5527, 6424, 7039], "queries": {"click": {"state": {"target": ["13", "24"], "time": [1791, 2489]}, "edge": {"target": [], "time": []}}, "mouseover": {"state": {"target": ["12", "13", "12", "0", "23", "24", "23", "1", "1", "23"], "time": [1414, 1664, 2116, 2178, 2220, 2311, 2811, 2936, 3339, 3457]}, "edge": {"target": [], "time": []}}, "mouseout": {"state": {"target": ["22", "12", "12", "13", "12", "0", "23", "24", "23", "1", "1", "23"], "time": [781, 858, 1449, 2067, 2158, 2206, 2255, 2728, 2859, 3138, 3388, 3485]}, "edge": {"target": [], "time": []}}}, "displayed_time": "15.12", "trialTime": 15838, "trial_type": "mouselab-mdp", "trial_index": 40, "time_elapsed": 853580, "internal_node_id": "0.0-6.0-1.0-25.0"}}, {"uniqueid": "w48744096:a48004809", "current_trial": 41, "dateTime": 1693487773686, "trialdata": {"revealed_states": [], "clicked_states": ["23", "29"], "num_clicks_accrued": [0, 0, 0, 0, 0, 0, 0, 0, 0, 0, 0, 0, 0], "stateRewards": ["", 2, -1, -1, 7, 11, -40, -22, -2, 69, 37, 8, -2, 4, -8, -12, -2, -72, -3, -12, 17, 63, 12, 1, 3, -7, 6, 25, 61, 61, -9, 28, -17, 27], "withholdReward": false, "trial_id": "mdp_trial_27", "block": "test", "trialIndex": 30, "score": 62.1, "costs": -1.9, "simulationMode": [null, null, null, null, null], "rewards": [1, 3, -7, 6, 61], "path": ["0", "0", "23", "24", "25", "26", "29"], "rt": [6351, 67, 105, 168, 108], "actions": ["left", "left", "left", "up", "left"], "actionTimes": [6986, 7554, 8161, 8839, 9443], "queries": {"click": {"state": {"target": ["23", "29"], "time": [1453, 2565]}, "edge": {"target": [], "time": []}}, "mouseover": {"state": {"target": ["0", "23", "24", "25", "26", "29", "33"], "time": [826, 1319, 1904, 2070, 2230, 2481, 2967]}, "edge": {"target": [], "time": []}}, "mouseout": {"state": {"target": ["24", "23", "0", "23", "24", "25", "26", "29", "33", "26"], "time": [360, 402, 1035, 1869, 1959, 2175, 2335, 2856, 5928, 8181]}, "edge": {"target": [], "time": []}}}, "displayed_time": "14.64", "trialTime": 16826, "trial_type": "mouselab-mdp", "trial_index": 41, "time_elapsed": 870546, "internal_node_id": "0.0-6.0-1.0-26.0"}}, {"uniqueid": "w48744096:a48004809", "current_trial": 42, "dateTime": 1693487791334, "trialdata": {"revealed_states": [], "clicked_states": ["23", "29"], "num_clicks_accrued": [0, 0, 0, 0, 0, 0, 0, 0, 0, 0, 0, 0, 0], "stateRewards": ["", -2, -4, -6, 12, -58, -70, -80, 2, 16, -88, -62, 1, 2, -5, 11, 77, -35, -44, -5, 18, -83, 87, 1, -3, -5, 13, -44, -21, -86, 10, -52, 8, 29], "withholdReward": false, "trial_id": "mdp_trial_28", "block": "test", "trialIndex": 31, "score": -39.9, "costs": -1.9, "simulationMode": [null, null, null, null, null], "rewards": [1, -3, -5, 13, -44], "path": ["0", "0", "23", "24", "25", "26", "27"], "rt": [5428, 530, 346, 12, 68], "actions": ["left", "left", "left", "up", "up"], "actionTimes": [6661, 7694, 8538, 9052, 9630], "queries": {"click": {"state": {"target": ["23", "29"], "time": [2153, 3219]}, "edge": {"target": [], "time": []}}, "mouseover": {"state": {"target": ["23", "24", "25", "29", "33"], "time": [2061, 2637, 2686, 3108, 3652]}, "edge": {"target": [], "time": []}}, "mouseout": {"state": {"target": ["23", "0", "23", "24", "25", "29", "33", "30", "24"], "time": [823, 1386, 2575, 2672, 2728, 3527, 6787, 6884, 7030]}, "edge": {"target": [], "time": []}}}, "displayed_time": "15.23", "trialTime": 17503, "trial_type": "mouselab-mdp", "trial_index": 42, "time_elapsed": 888194, "internal_node_id": "0.0-6.0-1.0-27.0"}}, {"uniqueid": "w48744096:a48004809", "current_trial": 43, "dateTime": 1693487808757, "trialdata": {"revealed_states": [], "clicked_states": ["23", "12", "17"], "num_clicks_accrued": [0, 0, 0, 0, 0, 0, 0, 0, 0, 0, 0, 0, 0], "stateRewards": ["", -1, -3, 3, 5, 56, 39, 50, -1, -80, 33, -46, 1, -2, -6, -8, 87, 48, 54, -11, -20, -64, -54, -2, 3, -7, -3, 12, 88, 35, -16, -46, -70, -3], "withholdReward": false, "trial_id": "mdp_trial_29", "block": "test", "trialIndex": 32, "score": 31.35, "costs": -1.65, "simulationMode": [null, null, null, null, null], "rewards": [1, -2, -6, -8, 48], "path": ["0", "0", "12", "13", "14", "15", "17"], "rt": [6521, 1004, 55, 127, 82], "actions": ["right", "right", "right", "up", "right"], "actionTimes": [8912, 10413, 10965, 11593, 12181], "queries": {"click": {"state": {"target": ["23", "12", "17"], "time": [3466, 4936, 5813]}, "edge": {"target": [], "time": []}}, "mouseover": {"state": {"target": ["23", "26", "25", "24", "23", "12", "13", "12", "13", "15", "17", "19", "22", "14", "18"], "time": [2645, 2797, 2992, 3152, 3388, 4125, 4166, 4710, 5355, 5494, 5703, 6328, 6614, 7490, 7886]}, "edge": {"target": [], "time": []}}, "mouseout": {"state": {"target": ["28", "24", "0", "23", "26", "25", "24", "23", "12", "13", "12", "13", "15", "17", "17", "19", "22", "14"], "time": [1796, 1817, 2283, 2652, 2873, 3068, 3228, 3896, 4146, 4412, 5313, 5369, 5571, 5818, 6141, 6433, 7420, 7559]}, "edge": {"target": [], "time": []}}}, "displayed_time": "16.39", "trialTime": 17284, "trial_type": "mouselab-mdp", "trial_index": 43, "time_elapsed": 905617, "internal_node_id": "0.0-6.0-1.0-28.0"}}, {"uniqueid": "w48744096:a48004809", "current_trial": 44, "dateTime": 1693487826355, "trialdata": {"revealed_states": [], "clicked_states": ["12", "23", "26", "30", "32"], "num_clicks_accrued": [0, 0, 0, 0, 0, 0, 0, 0, 0, 0, 0, 0, 0], "stateRewards": ["", 2, 3, -3, 12, -43, 81, -82, -15, 58, -7, -75, -1, -1, 3, -5, 50, -25, -8, 4, 66, 65, -66, 2, -4, 2, -1, -10, 10, 37, 11, 88, -37, 8], "withholdReward": false, "trial_id": "mdp_trial_30", "block": "test", "trialIndex": 33, "score": 14.25, "costs": -4.75, "simulationMode": [null, null, null, null, null, null], "rewards": [2, -4, 2, 11, 8], "path": ["0", "0", "23", "24", "25", "30", "33"], "rt": [6626, 286, 1306, 35, 120, 176], "actions": ["left", "left", "left", "left", "down", "left"], "actionTimes": [9131, 9419, 11233, 11769, 12389, 13064], "queries": {"click": {"state": {"target": ["12", "23", "26", "30", "32"], "time": [3403, 4475, 5715, 6462, 7931]}, "edge": {"target": [], "time": []}}, "mouseover": {"state": {"target": ["12", "12", "23", "23", "24", "26", "25", "30", "25", "32", "31"], "time": [2843, 3295, 3983, 4330, 5046, 5261, 6019, 6095, 6853, 7652, 8396]}, "edge": {"target": [], "time": []}}, "mouseout": {"state": {"target": ["18", "12", "0", "12", "12", "23", "23", "24", "26", "25", "30", "25", "30", "32"], "time": [1626, 1869, 2801, 2968, 3900, 4031, 4719, 5095, 5984, 6067, 6804, 7480, 7590, 7937]}, "edge": {"target": [], "time": []}}}, "displayed_time": "16.50", "trialTime": 17459, "trial_type": "mouselab-mdp", "trial_index": 44, "time_elapsed": 923214, "internal_node_id": "0.0-6.0-1.0-29.0"}}, {"uniqueid": "w48744096:a48004809", "current_trial": 45, "dateTime": 1693487842500, "trialdata": {"revealed_states": [], "clicked_states": ["23", "12", "1", "3", "9"], "num_clicks_accrued": [0, 0, 0, 0, 0, 0, 0, 0, 0, 0, 0, 0, 0], "stateRewards": ["", 1, -2, 4, 7, -43, -83, -60, -5, -86, -80, 83, -1, -2, 6, 11, -15, 21, 13, 9, 29, -49, 11, -1, 4, -6, -11, 87, 40, 63, -8, -39, -11, 62], "withholdReward": false, "trial_id": "mdp_trial_31", "block": "test", "trialIndex": 34, "score": -84.35, "costs": -2.3499999999999996, "simulationMode": [null, null, null, null, null, null], "rewards": [1, -2, 4, -5, -80], "path": ["0", "0", "1", "2", "3", "8", "10"], "rt": [6058, 1336, 670, 469, 195, 454], "actions": ["up", "up", "up", "up", "left", "down"], "actionTimes": [7333, 8670, 9838, 10804, 11497, 12451], "queries": {"click": {"state": {"target": ["23", "12", "1", "3", "9"], "time": [1972, 2701, 3255, 4134, 5560]}, "edge": {"target": [], "time": []}}, "mouseover": {"state": {"target": ["23", "0", "12", "1", "2", "3", "4", "8", "11", "9", "11", "8"], "time": [1687, 2388, 2521, 3146, 3647, 3939, 4745, 4967, 5016, 5406, 6094, 8353]}, "edge": {"target": [], "time": []}}, "mouseout": {"state": {"target": ["31", "0", "23", "0", "12", "1", "2", "3", "4", "3", "8", "11", "9", "11", "8"], "time": [595, 1576, 2048, 2458, 2965, 3563, 3793, 4551, 4850, 4947, 4995, 5246, 5858, 8311, 9632]}, "edge": {"target": [], "time": []}}}, "displayed_time": "15.28", "trialTime": 15995, "trial_type": "mouselab-mdp", "trial_index": 45, "time_elapsed": 939359, "internal_node_id": "0.0-6.0-1.0-30.0"}}, {"uniqueid": "w48744096:a48004809", "current_trial": 46, "dateTime": 1693487857941, "trialdata": {"revealed_states": [], "clicked_states": ["1", "23", "25", "30", "26", "32"], "num_clicks_accrued": [0, 0, 0, 0, 0, 0, 0, 0, 0, 0, 0, 0, 0], "stateRewards": ["", -2, -1, -3, -1, -78, -6, 2, -1, 22, -88, 32, 2, 2, -7, -8, -51, -17, 54, 2, -44, 54, 75, 2, -2, -8, -15, -29, 12, -67, 15, -1, -47, -47], "withholdReward": false, "trial_id": "mdp_trial_32", "block": "test", "trialIndex": 35, "score": 0.3000000000000007, "costs": -5.699999999999999, "simulationMode": [null, null, null, null, null, null], "rewards": [2, -2, -8, 15, -1], "path": ["0", "0", "23", "24", "25", "30", "31"], "rt": [5223, 596, 945, 15, 91, 1565], "actions": ["left", "left", "left", "left", "down", "right"], "actionTimes": [5924, 6522, 7974, 8489, 9079, 11144], "queries": {"click": {"state": {"target": ["1", "23", "25", "30", "26", "32"], "time": [1115, 1980, 3063, 3590, 4259, 4906]}, "edge": {"target": [], "time": []}}, "mouseover": {"state": {"target": ["1", "23", "0", "12", "0", "24", "25", "30", "26", "32", "33", "33"], "time": [1007, 1912, 2238, 2300, 2564, 2634, 2815, 3287, 3899, 4761, 5289, 5616]}, "edge": {"target": [], "time": []}}, "mouseout": {"state": {"target": ["3", "2", "0", "1", "1", "23", "0", "12", "0", "23", "24", "25", "30", "25", "26", "25", "30", "32", "33", "33", "31"], "time": [472, 506, 847, 1234, 1390, 2217, 2272, 2523, 2571, 2613, 2675, 3252, 3800, 3864, 4511, 4573, 4677, 5178, 5331, 9731, 10134]}, "edge": {"target": [], "time": []}}}, "displayed_time": "14.70", "trialTime": 15318, "trial_type": "mouselab-mdp", "trial_index": 46, "time_elapsed": 954800, "internal_node_id": "0.0-6.0-1.0-31.0"}}, {"uniqueid": "w48744096:a48004809", "current_trial": 47, "dateTime": 1693487873843, "trialdata": {"revealed_states": [], "clicked_states": ["23", "12", "1", "2", "3", "4", "8", "5"], "num_clicks_accrued": [0, 0, 0, 0, 0, 0, 0, 0, 0, 0, 0, 0, 0], "stateRewards": ["", 1, 1, -5, 8, -6, 45, 16, -6, -7, -22, -38, -1, -4, 8, -11, -16, 21, -45, -15, -59, -32, 42, -1, 3, 6, 11, -7, 34, -27, -8, 85, 43, -9], "withholdReward": false, "trial_id": "mdp_trial_33", "block": "test", "trialIndex": 36, "score": 44.2, "costs": -5.800000000000001, "simulationMode": [null, null, null, null, null, null], "rewards": [1, 1, -5, 8, 45], "path": ["0", "0", "1", "2", "3", "4", "6"], "rt": [6650, 269, 626, 78, 166, 95], "actions": ["right", "up", "up", "up", "right", "right"], "actionTimes": [7679, 7950, 9083, 9668, 10339, 10936], "queries": {"click": {"state": {"target": ["23", "12", "1", "2", "3", "4", "8", "5"], "time": [1733, 2572, 3415, 3938, 4422, 5317, 6132, 6986]}, "edge": {"target": [], "time": []}}, "mouseover": {"state": {"target": ["23", "0", "12", "13", "12", "1", "2", "3", "4", "4", "8", "8", "5", "6"], "time": [1678, 2088, 2150, 2359, 2540, 3159, 3694, 4326, 4854, 5209, 5682, 6009, 6891, 7496]}, "edge": {"target": [], "time": []}}, "mouseout": {"state": {"target": ["23", "23", "0", "12", "13", "12", "1", "2", "3", "4", "4", "3", "8", "8", "3", "5"], "time": [503, 2053, 2130, 2199, 2435, 2846, 3610, 4215, 4778, 4959, 5591, 5661, 5717, 6370, 6523, 7204]}, "edge": {"target": [], "time": []}}}, "displayed_time": "15.03", "trialTime": 15757, "trial_type": "mouselab-mdp", "trial_index": 47, "time_elapsed": 970703, "internal_node_id": "0.0-6.0-1.0-32.0"}}, {"uniqueid": "w48744096:a48004809", "current_trial": 48, "dateTime": 1693487889665, "trialdata": {"revealed_states": [], "clicked_states": ["12", "15", "19", "16"], "num_clicks_accrued": [0, 0, 0, 0, 0, 0, 0, 0, 0, 0, 0, 0, 0], "stateRewards": ["", -1, -4, -1, -5, -28, -23, -15, -15, -38, 59, -87, 2, 2, -5, 9, -55, -39, -71, -6, 85, -85, -11, -1, -2, 5, -10, 1, 25, 41, -4, 69, -35, 86], "withholdReward": false, "trial_id": "mdp_trial_34", "block": "test", "trialIndex": 37, "score": -36, "costs": -5, "simulationMode": [null, null, null, null, null, null], "rewards": [2, 2, -5, 9, -39], "path": ["0", "0", "12", "13", "14", "15", "17"], "rt": [4097, 1074, 862, 43, 179, 64], "actions": ["right", "right", "right", "right", "up", "right"], "actionTimes": [5004, 6080, 7448, 7990, 8668, 9235], "queries": {"click": {"state": {"target": ["12", "15", "19", "16"], "time": [1282, 2553, 3301, 3941]}, "edge": {"target": [], "time": []}}, "mouseover": {"state": {"target": ["12", "0", "0", "13", "14", "15", "14", "19", "19", "14", "16", "17"], "time": [1134, 1565, 1760, 1885, 2128, 2510, 2879, 2948, 3205, 3497, 3831, 4304]}, "edge": {"target": [], "time": []}}, "mouseout": {"state": {"target": ["6", "0", "12", "0", "0", "12", "13", "14", "15", "14", "19", "19", "14", "16"], "time": [439, 1051, 1523, 1634, 1766, 1857, 1961, 2434, 2837, 2920, 3011, 3442, 3511, 4227]}, "edge": {"target": [], "time": []}}}, "displayed_time": "14.91", "trialTime": 15673, "trial_type": "mouselab-mdp", "trial_index": 48, "time_elapsed": 986525, "internal_node_id": "0.0-6.0-1.0-33.0"}}, {"uniqueid": "w48744096:a48004809", "current_trial": 49, "dateTime": 1693487906156, "trialdata": {"revealed_states": [], "clicked_states": ["12", "23", "2", "3", "4", "8", "9"], "num_clicks_accrued": [0, 0, 0, 0, 0, 0, 0, 0, 0, 0, 0, 0, 0], "stateRewards": ["", -2, -3, 1, -14, 48, -49, 67, -1, -35, -48, 3, -2, 1, -4, -5, 86, -84, 39, 1, 48, 41, -42, -1, -4, 2, -7, 18, -86, 17, 7, -9, 57, -69], "withholdReward": false, "trial_id": "mdp_trial_35", "block": "test", "trialIndex": 38, "score": -73.05, "costs": -6.050000000000001, "simulationMode": [null, null, null, null, null, null], "rewards": [-2, -3, 1, -14, -49], "path": ["0", "0", "1", "2", "3", "4", "6"], "rt": [6317, 194, 939, 77, 102, 41], "actions": ["left", "up", "up", "up", "right", "right"], "actionTimes": [7209, 7404, 8851, 9433, 10035, 10579], "queries": {"click": {"state": {"target": ["12", "23", "2", "3", "4", "8", "9"], "time": [1282, 2351, 3147, 3701, 5075, 5690, 6292]}, "edge": {"target": [], "time": []}}, "mouseover": {"state": {"target": ["12", "0", "23", "23", "1", "2", "3", "4", "6", "4", "8", "9", "5"], "time": [1236, 1848, 1917, 2307, 2891, 3071, 3544, 4170, 4413, 4964, 5511, 6172, 6609]}, "edge": {"target": [], "time": []}}, "mouseout": {"state": {"target": ["17", "12", "0", "12", "0", "23", "23", "1", "2", "3", "4", "6", "4", "3", "8", "9", "5", "4"], "time": [172, 312, 1153, 1806, 1896, 1959, 2682, 2897, 3460, 4086, 4274, 4566, 5414, 5483, 5808, 6519, 15632, 15653]}, "edge": {"target": [], "time": []}}}, "displayed_time": "14.89", "trialTime": 16334, "trial_type": "mouselab-mdp", "trial_index": 49, "time_elapsed": 1003016, "internal_node_id": "0.0-6.0-1.0-34.0"}}, {"uniqueid": "w48744096:a48004809", "current_trial": 50, "dateTime": 1693487921754, "trialdata": {"revealed_states": [], "clicked_states": ["12", "23", "1", "2", "3", "8", "4", "7"], "num_clicks_accrued": [0, 0, 0, 0, 0, 0, 0, 0, 0, 0, 0, 0, 0], "stateRewards": ["", 1, 1, -3, 7, 49, 78, 26, -5, 26, 48, -43, -1, -3, 2, -5, 4, -1, -60, 10, -35, 51, 81, -2, 1, -7, -5, -39, -86, -54, 4, -3, 74, 77], "withholdReward": false, "trial_id": "mdp_trial_36", "block": "test", "trialIndex": 39, "score": 26.2, "costs": -5.800000000000001, "simulationMode": [null, null, null, null, null, null], "rewards": [1, 1, -3, 7, 26], "path": ["0", "0", "1", "2", "3", "4", "7"], "rt": [5960, 811, 963, 38, 20, 135], "actions": ["up", "up", "up", "up", "right", "down"], "actionTimes": [6422, 7234, 8705, 9246, 9763, 10406], "queries": {"click": {"state": {"target": ["12", "23", "1", "2", "3", "8", "4", "7"], "time": [861, 1769, 2378, 2788, 3310, 4005, 4540, 5124]}, "edge": {"target": [], "time": []}}, "mouseover": {"state": {"target": ["12", "23", "23", "1", "2", "3", "8", "4", "7", "6"], "time": [810, 1345, 1741, 2179, 2693, 3194, 3814, 4355, 4911, 5675]}, "edge": {"target": [], "time": []}}, "mouseout": {"state": {"target": ["0", "12", "23", "23", "1", "2", "3", "8", "3", "4", "7", "6", "7", "12"], "time": [740, 1261, 1393, 2109, 2498, 3096, 3708, 4257, 4320, 4841, 5349, 13857, 13934, 14246]}, "edge": {"target": [], "time": []}}}, "displayed_time": "14.46", "trialTime": 15462, "trial_type": "mouselab-mdp", "trial_index": 50, "time_elapsed": 1018614, "internal_node_id": "0.0-6.0-1.0-35.0"}}, {"uniqueid": "w48744096:a48004809", "current_trial": 51, "dateTime": 1693487937665, "trialdata": {"revealed_states": [], "clicked_states": ["13", "24", "26", "30", "32"], "num_clicks_accrued": [0, 0, 0, 0, 0, 0, 0, 0, 0, 0, 0, 0, 0], "stateRewards": ["", -2, 2, -2, -7, -50, -62, -45, 7, 36, -24, -72, -1, -1, 8, -1, -67, 20, -52, 2, 35, -50, 80, -1, 1, 6, -6, -70, 6, 88, 8, -47, 74, -19], "withholdReward": false, "trial_id": "mdp_trial_37", "block": "test", "trialIndex": 40, "score": 82.05, "costs": -5.949999999999999, "simulationMode": [null, null, null, null, null, null], "rewards": [-1, 1, 6, 8, 74], "path": ["0", "0", "23", "24", "25", "30", "32"], "rt": [4877, 1862, 152, 139, 248, 43], "actions": ["left", "left", "left", "left", "down", "down"], "actionTimes": [6191, 8054, 8713, 9353, 10101, 10640], "queries": {"click": {"state": {"target": ["13", "24", "26", "30", "32"], "time": [2124, 2839, 3950, 4618, 5360]}, "edge": {"target": [], "time": []}}, "mouseover": {"state": {"target": ["12", "13", "12", "0", "23", "24", "1", "2", "28", "26", "25", "30", "32", "31"], "time": [1727, 2012, 2456, 2512, 2560, 2623, 3158, 3332, 3589, 3673, 4222, 4319, 5265, 5696]}, "edge": {"target": [], "time": []}}, "mouseout": {"state": {"target": ["0", "12", "13", "12", "0", "23", "24", "1", "2", "28", "26", "26", "25", "30", "32", "31"], "time": [1615, 1796, 2408, 2491, 2540, 2588, 3033, 3177, 3513, 3624, 4074, 4187, 4278, 5160, 5498, 14010]}, "edge": {"target": [], "time": []}}}, "displayed_time": "15.32", "trialTime": 15760, "trial_type": "mouselab-mdp", "trial_index": 51, "time_elapsed": 1034525, "internal_node_id": "0.0-6.0-1.0-36.0"}}, {"uniqueid": "w48744096:a48004809", "current_trial": 52, "dateTime": 1693487952958, "trialdata": {"revealed_states": [], "clicked_states": ["24", "13", "3", "9"], "num_clicks_accrued": [0, 0, 0, 0, 0, 0, 0, 0, 0, 0, 0, 0, 0], "stateRewards": ["", 2, -1, 3, -12, -83, 6, -33, 9, 28, 24, -50, -2, -1, -2, -5, -87, 37, 82, 12, 80, -5, 10, -2, -3, -6, 9, 22, -1, 16, 9, 77, -62, 58], "withholdReward": false, "trial_id": "mdp_trial_38", "block": "test", "trialIndex": 41, "score": 37.2, "costs": -3.8, "simulationMode": [null, null, null, null, null, null], "rewards": [2, -1, 3, 9, 28], "path": ["0", "0", "1", "2", "3", "8", "9"], "rt": [3914, 2042, 97, 60, 432, 91], "actions": ["up", "up", "up", "up", "left", "up"], "actionTimes": [4518, 6561, 7163, 7724, 8653, 9243], "queries": {"click": {"state": {"target": ["24", "13", "3", "9"], "time": [1175, 2087, 2922, 3954]}, "edge": {"target": [], "time": []}}, "mouseover": {"state": {"target": ["23", "24", "23", "12", "13", "2", "3", "8", "9", "8"], "time": [830, 1081, 1671, 1762, 1956, 2596, 2839, 3514, 3743, 4257]}, "edge": {"target": [], "time": []}}, "mouseout": {"state": {"target": ["0", "23", "24", "23", "12", "13", "2", "3", "8", "9", "8"], "time": [803, 907, 1657, 1700, 1817, 2443, 2763, 3472, 3604, 4209, 5230]}, "edge": {"target": [], "time": []}}}, "displayed_time": "14.61", "trialTime": 15135, "trial_type": "mouselab-mdp", "trial_index": 52, "time_elapsed": 1049817, "internal_node_id": "0.0-6.0-1.0-37.0"}}, {"uniqueid": "w48744096:a48004809", "current_trial": 53, "dateTime": 1693487968721, "trialdata": {"revealed_states": [], "clicked_states": ["13", "24", "3", "2"], "num_clicks_accrued": [0, 0, 0, 0, 0, 0, 0, 0, 0, 0, 0, 0, 0], "stateRewards": ["", -1, 4, -6, -5, -22, -38, -38, -2, -56, 88, 14, -1, -1, -7, -6, 61, -60, 21, 11, 57, 31, -30, -2, -2, 6, -9, -44, -70, -44, -15, 34, 16, -78], "withholdReward": false, "trial_id": "mdp_trial_39", "block": "test", "trialIndex": 42, "score": -48, "costs": -2, "simulationMode": [null, null, null, null, null], "rewards": [-1, 4, -6, -5, -38], "path": ["0", "0", "1", "2", "3", "4", "6"], "rt": [3492, 31, 1213, 150, 79], "actions": ["up", "up", "up", "right", "right"], "actionTimes": [4237, 4774, 6483, 7131, 7713], "queries": {"click": {"state": {"target": ["13", "24", "3", "2"], "time": [1351, 2094, 2988, 3571]}, "edge": {"target": [], "time": []}}, "mouseover": {"state": {"target": ["12", "13", "12", "0", "23", "24", "28", "10", "2", "3", "2"], "time": [1071, 1169, 1704, 1745, 1780, 1995, 2503, 2559, 2600, 2913, 3449]}, "edge": {"target": [], "time": []}}, "mouseout": {"state": {"target": ["2", "1", "12", "13", "12", "0", "23", "24", "28", "10", "2", "3", "2", "2", "2", "7", "4", "5", "20", "21"], "time": [376, 522, 1113, 1676, 1732, 1766, 1815, 2468, 2510, 2566, 2732, 3386, 3690, 3893, 5367, 5541, 6132, 9635, 14605, 14668]}, "edge": {"target": [], "time": []}}}, "displayed_time": "14.75", "trialTime": 15582, "trial_type": "mouselab-mdp", "trial_index": 53, "time_elapsed": 1065581, "internal_node_id": "0.0-6.0-1.0-38.0"}}, {"uniqueid": "w48744096:a48004809", "current_trial": 54, "dateTime": 1693487984791, "trialdata": {"revealed_states": [], "clicked_states": ["12", "24", "2", "3", "8", "9"], "num_clicks_accrued": [0, 0, 0, 0, 0, 0, 0, 0, 0, 0, 0, 0, 0], "stateRewards": ["", -1, 2, -6, 6, 43, 78, 78, -2, 55, -29, -17, -2, -4, 1, -15, 13, 7, -79, 8, -28, -68, 36, -1, -3, 3, -16, 84, -18, 87, 10, 32, 13, -81], "withholdReward": false, "trial_id": "mdp_trial_40", "block": "test", "trialIndex": 43, "score": 42.9, "costs": -5.1, "simulationMode": [null, null, null, null, null, null], "rewards": [-1, 2, -6, -2, 55], "path": ["0", "0", "1", "2", "3", "8", "9"], "rt": [6084, 531, 25, 348, 157, 174], "actions": ["up", "up", "up", "up", "left", "up"], "actionTimes": [6695, 7227, 7759, 8610, 9274, 9943], "queries": {"click": {"state": {"target": ["12", "24", "2", "3", "8", "9"], "time": [1369, 2282, 2933, 3365, 4479, 6073]}, "edge": {"target": [], "time": []}}, "mouseover": {"state": {"target": ["12", "12", "0", "23", "24", "2", "3", "8", "6", "5", "9", "4"], "time": [996, 1323, 1879, 1928, 2178, 2727, 3255, 4188, 5202, 5626, 5925, 6511]}, "edge": {"target": [], "time": []}}, "mouseout": {"state": {"target": ["0", "12", "12", "0", "23", "24", "2", "3", "8", "6", "5", "9", "4", "1", "0"], "time": [941, 1094, 1858, 1914, 1969, 2546, 3165, 3936, 4896, 5536, 5820, 6363, 14968, 15045, 15065]}, "edge": {"target": [], "time": []}}}, "displayed_time": "14.62", "trialTime": 15930, "trial_type": "mouselab-mdp", "trial_index": 54, "time_elapsed": 1081651, "internal_node_id": "0.0-6.0-1.0-39.0"}}, {"uniqueid": "w48744096:a48004809", "current_trial": 55, "dateTime": 1693488013622, "trialdata": {"rt": 28829, "response": {"Q0": "$-2 to $2", "Q1": "$-16 to $16", "Q2": "$-88 to $88", "Q3": "The cost for clicking on nodes varied between nodes.", "Q4": "Very motivated"}, "question_order": [0, 1, 2, 3, 4], "trial_id": "final_quiz_control", "trial_type": "survey-multi-choice", "trial_index": 55, "time_elapsed": 1110482, "internal_node_id": "0.0-6.0-2.0"}}, {"uniqueid": "w48744096:a48004809", "current_trial": 56, "dateTime": 1693488102673, "trialdata": {"rt": 89047, "response": {"Q0": "My strategy was to check the left and right nodes and see if there was anything interesting in the \"exit\" nodes, if there wasn't I wouldn't go there, and would visit the opposite node instead.", "Q1": "The strategy slowly improved as I got more familiar with the game itself, and my ability to check the nodes I wanted improved.", "Q2": "I didn't find it particularly difficult however there was an initial learning curve, overall it was fun."}, "trial_id": "self_report_control", "trial_type": "survey-text", "trial_index": 56, "time_elapsed": 1199533, "internal_node_id": "0.0-6.0-3.0"}}, {"uniqueid": "w48744096:a48004809", "current_trial": 57, "dateTime": 1693488127736, "trialdata": {"rt": 25061, "response": {"Q0": "Agree", "Q1": "Disagree", "Q2": "Disagree", "Q3": "Strongly agree", "Q4": "Strongly agree", "Q5": "Agree", "Q6": "Strongly disagree"}, "question_order": [0, 1, 2, 3, 4, 5, 6], "trial_id": "self_report_2", "trial_type": "survey-multi-choice", "trial_index": 57, "time_elapsed": 1224596, "internal_node_id": "0.0-6.0-4.0"}}, {"uniqueid": "w48744096:a48004809", "current_trial": 58, "dateTime": 1693488137136, "trialdata": {"rt": 9397, "response": {"gender": "male", "age": "24", "colorblind": "0", "effort": "0"}, "trial_type": "survey-html-form", "trial_index": 58, "time_elapsed": 1233996, "internal_node_id": "0.0-6.0-5.0"}}, {"uniqueid": "w48744096:a48004809", "current_trial": 59, "dateTime": 1693488166412, "trialdata": {"rt": 29273, "response": {"Q0": "Not particularly, it was fun.", "Q1": "I haven't participated in this game before.", "Q2": "Thank you for letting me participate. "}, "trial_type": "survey-text", "trial_index": 59, "time_elapsed": 1263271, "internal_node_id": "0.0-6.0-6.0"}}, {"uniqueid": "w48744096:a48004809", "current_trial": 60, "dateTime": 1693488189445, "trialdata": {"rt": 23032, "stimulus": "<h1>Completion Code Instructions (1/2)</h1>\n<br><br><br><br>\nYou have reached the end of the experiment! The completion code consists of two parts: (1) a code with 2 characters (2) a code with 6 characters. On this page, you will receive the second part of the code. The first part of the completion code will be on the next page.\n<br><br>\nThe second part of your completion code is: <b>EWEK22</b>\n<br><br>\nPlease note this down. Then, press 'Finish HIT' in order to find the first part of your completion code. Once the data has been saved, you will receive this code either in this window or in the original browser window where you started the experiment.\n", "response": 0, "trial_type": "html-button-response", "trial_index": 60, "time_elapsed": 1286305, "internal_node_id": "0.0-6.0-7.0"}}, {"uniqueid": "w48744096:a48004809", "current_trial": 61, "dateTime": 1693488190448, "trialdata": {"success": true, "trial_type": "fullscreen", "trial_index": 61, "time_elapsed": 1287308, "internal_node_id": "0.0-7.0"}}], "questiondata": {"params": {"CODE": "C6DMOQA6", "MIN_TIME": 14, "inspectCost": 1, "startTime": "Thu Aug 31 2023 14:01:42 GMT+0100 (British Summer Time)", "bonusRate": 0.002, "variance": "1_2_4_8_44", "branching": "31123"}, "final_score": 307.35}, "eventdata": [{"eventtype": "initialized", "value": null, "timestamp": 1693486901838, "interval": 0}, {"eventtype": "window_resize", "value": [1024, 767], "timestamp": 1693486901838, "interval": 0}, {"eventtype": "window_resize", "value": [1024, 767], "timestamp": 1693486902136, "interval": 298}, {"eventtype": "window_resize", "value": [1920, 1080], "timestamp": 1693486904458, "interval": 2322}, {"eventtype": "focus", "value": "off", "timestamp": 1693486926470, "interval": 22012}, {"eventtype": "focus", "value": "on", "timestamp": 1693486935575, "interval": 9105}, {"eventtype": "focus", "value": "off", "timestamp": 1693486946496, "interval": 10921}, {"eventtype": "focus", "value": "on", "timestamp": 1693486950821, "interval": 4325}, {"eventtype": "focus", "value": "off", "timestamp": 1693486955599, "interval": 4778}, {"eventtype": "focus", "value": "on", "timestamp": 1693487006710, "interval": 51111}, {"eventtype": "focus", "value": "off", "timestamp": 1693487081755, "interval": 75045}, {"eventtype": "focus", "value": "on", "timestamp": 1693487084321, "interval": 2566}, {"eventtype": "focus", "value": "off", "timestamp": 1693487154220, "interval": 69899}, {"eventtype": "focus", "value": "on", "timestamp": 1693487157224, "interval": 3004}, {"eventtype": "focus", "value": "off", "timestamp": 1693487160879, "interval": 3655}, {"eventtype": "focus", "value": "on", "timestamp": 1693487191978, "interval": 31099}, {"eventtype": "focus", "value": "off", "timestamp": 1693487193920, "interval": 1942}, {"eventtype": "focus", "value": "on", "timestamp": 1693487193920, "interval": 0}, {"eventtype": "window_resize", "value": [1024, 767], "timestamp": 1693487194126, "interval": 206}, {"eventtype": "window_resize", "value": [1920, 1080], "timestamp": 1693487195630, "interval": 1504}, {"eventtype": "focus", "value": "off", "timestamp": 1693487500532, "interval": 304902}, {"eventtype": "focus", "value": "on", "timestamp": 1693487509853, "interval": 9321}, {"eventtype": "focus", "value": "off", "timestamp": 1693488184690, "interval": 674837}, {"eventtype": "focus", "value": "on", "timestamp": 1693488189323, "interval": 4633}, {"eventtype": "window_resize", "value": [1024, 767], "timestamp": 1693488189658, "interval": 335}], "useragent": "Mozilla/5.0 (Windows NT 10.0; Win64; x64) AppleWebKit/537.36 (KHTML, like Gecko) Chrome/116.0.0.0 Safari/537.36", "mode": "live", "id": "w48744096:a48004809", "status": "user data saved", "Beginhit": "2023-08-31 13:01:42.122421", "Beginexp": "2023-08-31 13:01:46.471009", "Endhit": "2023-08-31 13:23:12.241955", "psiturkStatus": 3, "browser": "<redacted>", "platform": "windows", "language": "en-GB"}