{"condition": 1, "counterbalance": 0, "assignmentId": "a48394983", "workerId": "w23723043", "hitId": "h39687364", "currenttrial": 56, "bonus": 0, "data": [{"uniqueid": "w23723043:a48394983", "current_trial": 0, "dateTime": 1693480822351, "trialdata": {"success": true, "trial_type": "fullscreen", "trial_index": 0, "time_elapsed": 4495, "internal_node_id": "0.0-0.0"}}, {"uniqueid": "w23723043:a48394983", "current_trial": 1, "dateTime": 1693480831022, "trialdata": {"view_history": [{"page_index": 0, "viewing_time": 8667}], "rt": 8668, "trial_id": "exp_instructions_misaligned", "trial_type": "instructions", "trial_index": 1, "time_elapsed": 13166, "internal_node_id": "0.0-1.0"}}, {"uniqueid": "w23723043:a48394983", "current_trial": 2, "dateTime": 1693480979846, "trialdata": {"view_history": [{"page_index": 0, "viewing_time": 46417}, {"page_index": 1, "viewing_time": 58670}, {"page_index": 2, "viewing_time": 16752}, {"page_index": 3, "viewing_time": 26984}], "rt": 148823, "trial_id": "mouselab_instructions_1_misaligned", "trial_type": "instructions", "trial_index": 2, "time_elapsed": 161990, "internal_node_id": "0.0-2.0-1.0"}}, {"uniqueid": "w23723043:a48394983", "current_trial": 3, "dateTime": 1693481015695, "trialdata": {"revealed_states": [], "clicked_states": ["1", "2", "7", "4", "5", "6"], "num_clicks_accrued": [0, 0, 0, 0, 0, 0, 0, 0, 0, 0, 0, 0, 0], "stateRewards": ["", 10, -10, 10, 10, -10, -10, -10, 10, 10, -10, -10, -10, -10, -10, -10, -10, 10, 10, -10, -10, 10, -10, -10, -10, 10, 10, -10, -10, 10, 10, 10, -10, -10], "withholdReward": false, "trial_id": "practice_1", "block": "test", "trialIndex": 0, "score": 30.5, "costs": -3, "simulationMode": [null, null, null, null, null], "rewards": [10, -10, 10, 10, 10], "path": ["0", "0", "1", "2", "3", "8", "9"], "rt": [22229, 705, 2473, 842, 444], "actions": ["up", "up", "up", "left", "up"], "actionTimes": [25115, 26337, 29321, 30674, 31625], "queries": {"click": {"state": {"target": ["1", "2", "7", "4", "5", "6"], "time": [4739, 6500, 7866, 9652, 10882, 17564]}, "edge": {"target": [], "time": []}}, "mouseover": {"state": {"target": ["1", "2", "1", "2", "7", "4", "5", "5", "6", "4", "2"], "time": [4085, 4202, 4451, 5200, 7151, 9200, 10183, 14893, 15800, 23782, 23931]}, "edge": {"target": [], "time": []}}, "mouseout": {"state": {"target": ["0", "1", "2", "1", "2", "7", "4", "5", "5", "6", "4", "2"], "time": [3993, 4150, 4400, 4843, 7101, 9001, 10099, 10986, 14966, 23765, 23815, 23965]}, "edge": {"target": [], "time": []}}}, "displayed_time": "32.13", "trialTime": 35657, "trial_type": "mouselab-mdp", "trial_index": 3, "time_elapsed": 197839, "internal_node_id": "0.0-2.0-2.0-0.0"}}, {"uniqueid": "w23723043:a48394983", "current_trial": 4, "dateTime": 1693481026728, "trialdata": {"revealed_states": [], "clicked_states": [], "num_clicks_accrued": [0, 0, 0, 0, 0, 0, 0, 0, 0, 0, 0, 0, 0], "stateRewards": ["", -10, 10, -10, 10, 10, -10, -10, -10, -10, 10, -10, -10, 10, -10, 10, -10, 10, -10, -10, -10, -10, 10, 10, -10, -10, -10, 10, -10, 10, 10, 10, 10, 10], "withholdReward": false, "trial_id": "practice_2", "block": "test", "trialIndex": 1, "score": -26.5, "costs": 0, "simulationMode": [null, null, null, null, null], "rewards": [-10, 10, -10, -10, -10], "path": ["0", "0", "12", "13", "14", "19", "20"], "rt": [1896, 380, 865, 352, 415], "actions": ["right", "right", "right", "down", "right"], "actionTimes": [4694, 5590, 6975, 7847, 8775], "queries": {"click": {"state": {"target": [], "time": []}, "edge": {"target": [], "time": []}}, "mouseover": {"state": {"target": [], "time": []}, "edge": {"target": [], "time": []}}, "mouseout": {"state": {"target": ["1"], "time": [1910]}, "edge": {"target": [], "time": []}}}, "displayed_time": "9.28", "trialTime": 10903, "trial_type": "mouselab-mdp", "trial_index": 4, "time_elapsed": 208871, "internal_node_id": "0.0-2.0-2.0-1.0"}}, {"uniqueid": "w23723043:a48394983", "current_trial": 5, "dateTime": 1693481043210, "trialdata": {"view_history": [{"page_index": 0, "viewing_time": 12128}, {"page_index": 1, "viewing_time": 4352}], "rt": 16480, "trial_id": "mouselab_instructions_2_misaligned", "trial_type": "instructions", "trial_index": 5, "time_elapsed": 225354, "internal_node_id": "0.0-2.0-3.0"}}, {"uniqueid": "w23723043:a48394983", "current_trial": 6, "dateTime": 1693481072225, "trialdata": {"rt": 29012, "response": {"Q0": "The cost for clicking on nodes may vary between nodes.", "Q1": "The better I perform the higher my bonus will be.", "Q2": "No, the amount of cash at each node of the web may be different each time.", "Q3": "To get the highest total score.", "Q4": "Only before moving the spider.", "Q5": "3 seconds"}, "question_order": [0, 1, 2, 3, 4, 5], "correct": {"Q0": "The cost for clicking on nodes may vary between nodes.", "Q1": "The better I perform the higher my bonus will be.", "Q2": "No, the amount of cash at each node of the web may be different each time.", "Q3": "To get the highest total score.", "Q4": "Only before moving the spider.", "Q5": "3 seconds"}, "trial_id": "mouselab_quiz_misaligned", "trial_type": "survey-multi-choice", "trial_index": 6, "time_elapsed": 254369, "internal_node_id": "0.0-2.0-4.0"}}, {"uniqueid": "w23723043:a48394983", "current_trial": 7, "dateTime": 1693481079220, "trialdata": {"rt": 6991, "response": {"Q0": "No"}, "question_order": [0], "trial_id": "repeat_check", "trial_type": "survey-multi-choice", "trial_index": 7, "time_elapsed": 261364, "internal_node_id": "0.0-4.0-0.0"}}, {"uniqueid": "w23723043:a48394983", "current_trial": 8, "dateTime": 1693481088847, "trialdata": {"rt": 9624, "stimulus": "\n<h1> Get ready to start the game! </h1>\n\nThank you for reading the instructions. Get ready start with the 40 rounds of this game.\n<br><br>\nIf you need to take a break, feel free to take one after the end of a round, before continuing to the next one.\n<br><br>\nRemember, the more money the spider gets, the bigger your bonus will be!\n<br><br>\n<div style='text-align: center;'>Press <code>space</code> to begin.</div>\n\n<br><br>\n(If, at any point, the <code>space</code> key does not take you to the next page, click once on the text and try again.)", "response": " ", "trial_id": "mdp_ready", "trial_type": "html-keyboard-response", "trial_index": 8, "time_elapsed": 270991, "internal_node_id": "0.0-6.0-0.0"}}, {"uniqueid": "w23723043:a48394983", "current_trial": 9, "dateTime": 1693481106624, "trialdata": {"revealed_states": [], "clicked_states": [], "num_clicks_accrued": [0, 0, 0, 0, 0, 0, 0, 0, 0, 0, 0, 0, 0], "stateRewards": ["", 1, -4, 6, -3, 40, 76, -51, 5, -24, -63, 44, -2, -2, 8, 1, 76, -85, -58, 10, 59, 20, 11, -2, 3, -3, 3, -82, -10, 54, -7, -57, -6, -32], "withholdReward": false, "trial_id": "mdp_trial_1", "block": "test", "trialIndex": 2, "score": -81, "costs": 0, "simulationMode": [null, null, null, null, null], "rewards": [-2, 3, -3, 3, -82], "path": ["0", "0", "23", "24", "25", "26", "27"], "rt": [1657, 378, 317, 315, 276], "actions": ["left", "left", "left", "up", "up"], "actionTimes": [3414, 4309, 5133, 5965, 6758], "queries": {"click": {"state": {"target": [], "time": []}, "edge": {"target": [], "time": []}}, "mouseover": {"state": {"target": [], "time": []}, "edge": {"target": [], "time": []}}, "mouseout": {"state": {"target": ["25", "24", "23", "0"], "time": [1048, 1097, 1131, 1314]}, "edge": {"target": [], "time": []}}}, "displayed_time": "15.76", "trialTime": 17630, "trial_type": "mouselab-mdp", "trial_index": 9, "time_elapsed": 288767, "internal_node_id": "0.0-6.0-1.0-0.0"}}, {"uniqueid": "w23723043:a48394983", "current_trial": 10, "dateTime": 1693481125632, "trialdata": {"revealed_states": [], "clicked_states": [], "num_clicks_accrued": [0, 0, 0, 0, 0, 0, 0, 0, 0, 0, 0, 0, 0], "stateRewards": ["", 2, -3, 5, -14, -63, -9, -24, -11, -54, -43, 68, 2, -2, -4, 7, -64, 30, 47, 12, -74, 11, 86, 1, -3, 3, 10, -71, -42, -52, -1, -29, -16, 69], "withholdReward": false, "trial_id": "mdp_trial_2", "block": "test", "trialIndex": 3, "score": -73, "costs": 0, "simulationMode": [null, null, null, null, null], "rewards": [2, -3, 5, -14, -63], "path": ["0", "0", "1", "2", "3", "4", "5"], "rt": [1447, 376, 1931, 642, 397], "actions": ["up", "up", "up", "right", "up"], "actionTimes": [4188, 5068, 7491, 8651, 9539], "queries": {"click": {"state": {"target": [], "time": []}, "edge": {"target": [], "time": []}}, "mouseover": {"state": {"target": [], "time": []}, "edge": {"target": [], "time": []}}, "mouseout": {"state": {"target": [], "time": []}, "edge": {"target": [], "time": []}}}, "displayed_time": "16.74", "trialTime": 18868, "trial_type": "mouselab-mdp", "trial_index": 10, "time_elapsed": 307775, "internal_node_id": "0.0-6.0-1.0-1.0"}}, {"uniqueid": "w23723043:a48394983", "current_trial": 11, "dateTime": 1693481144319, "trialdata": {"revealed_states": [], "clicked_states": ["15", "26", "3"], "num_clicks_accrued": [0, 0, 0, 0, 0, 0, 0, 0, 0, 0, 0, 0, 0], "stateRewards": ["", -2, -1, -5, 10, -36, -70, 68, -9, 86, 71, -10, 2, -4, 7, -7, 66, 44, -66, -13, -69, 43, 15, -2, 2, 6, -13, 62, 57, 50, -10, -69, 42, -72], "withholdReward": false, "trial_id": "mdp_trial_3", "block": "test", "trialIndex": 4, "score": 30.95, "costs": -4.05, "simulationMode": [null, null, null, null, null], "rewards": [2, -4, 7, -13, 43], "path": ["0", "0", "12", "13", "14", "19", "21"], "rt": [8767, 218, 308, 146, 274], "actions": ["right", "right", "right", "down", "down"], "actionTimes": [10779, 11506, 12331, 12970, 13746], "queries": {"click": {"state": {"target": ["15", "26", "3"], "time": [4302, 6524, 8023]}, "edge": {"target": [], "time": []}}, "mouseover": {"state": {"target": ["12", "18", "15", "16", "16", "15", "18", "26", "29", "26", "3", "2"], "time": [2973, 3023, 3156, 3238, 3489, 3739, 5355, 5473, 5921, 6305, 7589, 9539]}, "edge": {"target": [], "time": []}}, "mouseout": {"state": {"target": ["0", "12", "18", "15", "16", "16", "15", "18", "26", "29", "26", "3"], "time": [2939, 2989, 3088, 3188, 3255, 3539, 5322, 5406, 5490, 6122, 7288, 9421]}, "edge": {"target": [], "time": []}}}, "displayed_time": "16.02", "trialTime": 18538, "trial_type": "mouselab-mdp", "trial_index": 11, "time_elapsed": 326463, "internal_node_id": "0.0-6.0-1.0-2.0"}}, {"uniqueid": "w23723043:a48394983", "current_trial": 12, "dateTime": 1693481162911, "trialdata": {"revealed_states": [], "clicked_states": ["15", "19", "30", "8"], "num_clicks_accrued": [0, 0, 0, 0, 0, 0, 0, 0, 0, 0, 0, 0, 0], "stateRewards": ["", 2, 4, 7, -6, -76, -81, 2, 5, -66, -3, 36, -2, -4, 6, -2, -69, 4, -49, -6, 67, 38, -67, 2, 1, 1, 6, -68, -21, 52, -16, -16, 6, -70], "withholdReward": false, "trial_id": "mdp_trial_4", "block": "test", "trialIndex": 5, "score": 55.8, "costs": -6.2, "simulationMode": [null, null, null, null, null], "rewards": [2, 1, 1, 6, 52], "path": ["0", "0", "23", "24", "25", "26", "29"], "rt": [9065, 256, 266, 235, 181], "actions": ["left", "left", "left", "up", "left"], "actionTimes": [11574, 12349, 13126, 13877, 14573], "queries": {"click": {"state": {"target": ["15", "19", "30", "8"], "time": [4574, 5533, 6739, 8452]}, "edge": {"target": [], "time": []}}, "mouseover": {"state": {"target": ["12", "13", "14", "15", "14", "19", "22", "30", "25", "26", "26", "8"], "time": [3527, 3626, 3827, 4194, 4926, 5126, 5842, 6326, 7126, 7292, 7609, 8110]}, "edge": {"target": [], "time": []}}, "mouseout": {"state": {"target": ["2", "1", "0", "0", "12", "13", "14", "15", "14", "19", "22", "30", "25", "26", "26"], "time": [1644, 1676, 1709, 3460, 3562, 3711, 3910, 4842, 5025, 5810, 5876, 7060, 7193, 7442, 7776]}, "edge": {"target": [], "time": []}}}, "displayed_time": "16.51", "trialTime": 18437, "trial_type": "mouselab-mdp", "trial_index": 12, "time_elapsed": 345054, "internal_node_id": "0.0-6.0-1.0-3.0"}}, {"uniqueid": "w23723043:a48394983", "current_trial": 13, "dateTime": 1693481180399, "trialdata": {"revealed_states": [], "clicked_states": ["4", "8", "26", "30", "15"], "num_clicks_accrued": [0, 0, 0, 0, 0, 0, 0, 0, 0, 0, 0, 0, 0], "stateRewards": ["", 2, -1, -1, -9, -81, -30, 55, -6, 78, 25, 62, 2, 4, -1, 9, -85, 1, -19, 1, -60, 12, -34, 1, 4, -1, -13, -24, -16, -83, -8, 16, 43, 9], "withholdReward": false, "trial_id": "mdp_trial_5", "block": "test", "trialIndex": 6, "score": -35.75, "costs": -7.75, "simulationMode": [null, null, null, null, null], "rewards": [2, 4, -1, 1, -34], "path": ["0", "0", "12", "13", "14", "19", "22"], "rt": [7904, 188, 200, 156, 281], "actions": ["right", "right", "right", "down", "left"], "actionTimes": [9751, 10454, 11166, 11838, 12630], "queries": {"click": {"state": {"target": ["4", "8", "26", "30", "15"], "time": [3702, 4563, 5844, 6758, 8315]}, "edge": {"target": [], "time": []}}, "mouseover": {"state": {"target": ["1", "4", "3", "8", "28", "24", "25", "26", "25", "30", "31", "13", "15"], "time": [3100, 3384, 4116, 4215, 4882, 5032, 5183, 5632, 6149, 6215, 7416, 7616, 8134]}, "edge": {"target": [], "time": []}}, "mouseout": {"state": {"target": ["8", "1", "0", "1", "4", "3", "8", "28", "24", "25", "26", "25", "30", "31", "13"], "time": [1033, 1349, 3000, 3184, 4032, 4182, 4766, 4932, 5082, 5616, 6099, 6182, 7399, 7449, 7782]}, "edge": {"target": [], "time": []}}}, "displayed_time": "15.85", "trialTime": 17334, "trial_type": "mouselab-mdp", "trial_index": 13, "time_elapsed": 362543, "internal_node_id": "0.0-6.0-1.0-4.0"}}, {"uniqueid": "w23723043:a48394983", "current_trial": 14, "dateTime": 1693481197592, "trialdata": {"revealed_states": [], "clicked_states": [], "num_clicks_accrued": [0, 0, 0, 0, 0, 0, 0, 0, 0, 0, 0, 0, 0], "stateRewards": ["", 1, -2, 7, -14, 88, -56, -44, -14, 64, -51, -57, -2, 3, -4, -9, -11, 19, -77, -1, 68, 75, -67, -1, 1, -2, 5, -37, 70, -34, -10, -72, 63, -41], "withholdReward": false, "trial_id": "mdp_trial_6", "block": "test", "trialIndex": 7, "score": 7, "costs": 0, "simulationMode": [null, null, null, null, null], "rewards": [-2, 3, -4, -9, 19], "path": ["0", "0", "12", "13", "14", "15", "17"], "rt": [1778, 320, 814, 266, 466], "actions": ["right", "right", "right", "up", "right"], "actionTimes": [3430, 4253, 5581, 6365, 7349], "queries": {"click": {"state": {"target": [], "time": []}, "edge": {"target": [], "time": []}}, "mouseover": {"state": {"target": [], "time": []}, "edge": {"target": [], "time": []}}, "mouseout": {"state": {"target": ["15", "22", "12"], "time": [783, 850, 1149]}, "edge": {"target": [], "time": []}}}, "displayed_time": "15.65", "trialTime": 17046, "trial_type": "mouselab-mdp", "trial_index": 14, "time_elapsed": 379735, "internal_node_id": "0.0-6.0-1.0-5.0"}}, {"uniqueid": "w23723043:a48394983", "current_trial": 15, "dateTime": 1693481215095, "trialdata": {"revealed_states": [], "clicked_states": [], "num_clicks_accrued": [0, 0, 0, 0, 0, 0, 0, 0, 0, 0, 0, 0, 0], "stateRewards": ["", 1, 2, -6, -13, -51, 22, -4, -12, -44, -12, 6, -2, -2, -2, -14, -46, -4, -77, -2, 36, -79, 41, 2, -4, 2, -6, -55, 59, 70, -5, 39, -19, 24], "withholdReward": false, "trial_id": "mdp_trial_7", "block": "test", "trialIndex": 8, "score": -20, "costs": 0, "simulationMode": [null, null, null, null, null], "rewards": [1, 2, -6, -13, -4], "path": ["0", "0", "1", "2", "3", "4", "7"], "rt": [2727, 775, 415, 206, 219], "actions": ["up", "up", "up", "right", "down"], "actionTimes": [4822, 6118, 7038, 7750, 8462], "queries": {"click": {"state": {"target": [], "time": []}, "edge": {"target": [], "time": []}}, "mouseover": {"state": {"target": [], "time": []}, "edge": {"target": [], "time": []}}, "mouseout": {"state": {"target": [], "time": []}, "edge": {"target": [], "time": []}}}, "displayed_time": "16.10", "trialTime": 17342, "trial_type": "mouselab-mdp", "trial_index": 15, "time_elapsed": 397238, "internal_node_id": "0.0-6.0-1.0-6.0"}}, {"uniqueid": "w23723043:a48394983", "current_trial": 16, "dateTime": 1693481232102, "trialdata": {"revealed_states": [], "clicked_states": [], "num_clicks_accrued": [0, 0, 0, 0, 0, 0, 0, 0, 0, 0, 0, 0, 0], "stateRewards": ["", -2, 2, -4, -4, -59, 88, 62, -3, 69, -15, -34, 1, -2, -5, 7, -54, -20, 78, -16, -74, -53, -21, 2, -4, 2, 13, -8, -44, 26, 9, 72, 4, 17], "withholdReward": false, "trial_id": "mdp_trial_8", "block": "test", "trialIndex": 9, "score": -31, "costs": 0, "simulationMode": [null, null, null, null, null], "rewards": [2, -4, 2, 13, -44], "path": ["0", "0", "23", "24", "25", "26", "28"], "rt": [864, 401, 356, 290, 244], "actions": ["left", "left", "left", "up", "right"], "actionTimes": [2360, 3254, 4127, 4926, 5679], "queries": {"click": {"state": {"target": [], "time": []}, "edge": {"target": [], "time": []}}, "mouseover": {"state": {"target": [], "time": []}, "edge": {"target": [], "time": []}}, "mouseout": {"state": {"target": [], "time": []}, "edge": {"target": [], "time": []}}}, "displayed_time": "15.50", "trialTime": 16830, "trial_type": "mouselab-mdp", "trial_index": 16, "time_elapsed": 414245, "internal_node_id": "0.0-6.0-1.0-7.0"}}, {"uniqueid": "w23723043:a48394983", "current_trial": 17, "dateTime": 1693481250613, "trialdata": {"revealed_states": [], "clicked_states": [], "num_clicks_accrued": [0, 0, 0, 0, 0, 0, 0, 0, 0, 0, 0, 0, 0], "stateRewards": ["", 2, 3, -1, 6, 44, -4, -59, -14, -3, 64, 16, 1, -3, 3, 6, 3, 49, 19, 3, -49, -14, -86, 1, 2, -3, -8, -33, 14, 32, -13, -77, -47, -67], "withholdReward": false, "trial_id": "mdp_trial_9", "block": "test", "trialIndex": 10, "score": -45, "costs": 0, "simulationMode": [null, null, null, null, null], "rewards": [1, -3, 3, 3, -49], "path": ["0", "0", "12", "13", "14", "19", "20"], "rt": [2107, 290, 349, 370, 976], "actions": ["right", "right", "right", "down", "right"], "actionTimes": [3729, 4537, 5393, 6264, 7753], "queries": {"click": {"state": {"target": [], "time": []}, "edge": {"target": [], "time": []}}, "mouseover": {"state": {"target": [], "time": []}, "edge": {"target": [], "time": []}}, "mouseout": {"state": {"target": [], "time": []}, "edge": {"target": [], "time": []}}}, "displayed_time": "15.64", "trialTime": 18336, "trial_type": "mouselab-mdp", "trial_index": 17, "time_elapsed": 432757, "internal_node_id": "0.0-6.0-1.0-8.0"}}, {"uniqueid": "w23723043:a48394983", "current_trial": 18, "dateTime": 1693481267846, "trialdata": {"revealed_states": [], "clicked_states": [], "num_clicks_accrued": [0, 0, 0, 0, 0, 0, 0, 0, 0, 0, 0, 0, 0], "stateRewards": ["", -2, 2, 2, -6, 9, 37, 50, -13, -7, -18, -75, -2, -4, 4, 7, 23, -57, -66, -7, -81, -48, -76, 1, 1, -8, 1, 51, -2, 70, 14, 59, 71, -37], "withholdReward": false, "trial_id": "mdp_trial_10", "block": "test", "trialIndex": 11, "score": -52, "costs": 0, "simulationMode": [null, null, null, null, null], "rewards": [-2, -4, 4, 7, -57], "path": ["0", "0", "12", "13", "14", "15", "17"], "rt": [5808, 303, 311, 159, 62], "actions": ["right", "right", "right", "up", "right"], "actionTimes": [7376, 8199, 9023, 9671, 10240], "queries": {"click": {"state": {"target": [], "time": []}, "edge": {"target": [], "time": []}}, "mouseover": {"state": {"target": ["12", "13", "12", "31"], "time": [3729, 3795, 6411, 6545]}, "edge": {"target": [], "time": []}}, "mouseout": {"state": {"target": ["0", "12", "13", "12", "31"], "time": [3694, 3761, 6377, 6446, 6561]}, "edge": {"target": [], "time": []}}}, "displayed_time": "15.57", "trialTime": 17039, "trial_type": "mouselab-mdp", "trial_index": 18, "time_elapsed": 449990, "internal_node_id": "0.0-6.0-1.0-9.0"}}, {"uniqueid": "w23723043:a48394983", "current_trial": 19, "dateTime": 1693481285350, "trialdata": {"revealed_states": [], "clicked_states": [], "num_clicks_accrued": [0, 0, 0, 0, 0, 0, 0, 0, 0, 0, 0, 0, 0], "stateRewards": ["", -1, -4, -1, -5, -28, -23, -15, -15, -38, 59, -87, 2, 2, -5, 9, -55, -39, -71, -6, 85, -85, -11, -1, -2, 5, -10, 1, 25, 41, -4, 69, -35, 86], "withholdReward": false, "trial_id": "mdp_trial_11", "block": "test", "trialIndex": 12, "score": -34, "costs": 0, "simulationMode": [null, null, null, null, null], "rewards": [-1, -4, -1, -5, -23], "path": ["0", "0", "1", "2", "3", "4", "6"], "rt": [893, 470, 374, 187, 199], "actions": ["up", "up", "up", "right", "right"], "actionTimes": [3259, 4235, 5123, 5818, 6531], "queries": {"click": {"state": {"target": [], "time": []}, "edge": {"target": [], "time": []}}, "mouseover": {"state": {"target": [], "time": []}, "edge": {"target": [], "time": []}}, "mouseout": {"state": {"target": ["0"], "time": [2148]}, "edge": {"target": [], "time": []}}}, "displayed_time": "16.37", "trialTime": 17315, "trial_type": "mouselab-mdp", "trial_index": 19, "time_elapsed": 467494, "internal_node_id": "0.0-6.0-1.0-10.0"}}, {"uniqueid": "w23723043:a48394983", "current_trial": 20, "dateTime": 1693481302255, "trialdata": {"revealed_states": [], "clicked_states": [], "num_clicks_accrued": [0, 0, 0, 0, 0, 0, 0, 0, 0, 0, 0, 0, 0], "stateRewards": ["", 2, 1, -3, 7, 46, 11, -36, 16, 71, 5, 1, 2, -2, -8, -3, -4, 6, 55, 7, 68, -54, 2, 1, 1, 6, -6, 42, -4, -84, -11, -65, 63, 25], "withholdReward": false, "trial_id": "mdp_trial_12", "block": "test", "trialIndex": 13, "score": 60, "costs": 0, "simulationMode": [null, null, null, null, null], "rewards": [1, 1, 6, -11, 63], "path": ["0", "0", "23", "24", "25", "30", "32"], "rt": [931, 303, 222, 233, 267], "actions": ["left", "left", "left", "down", "down"], "actionTimes": [2359, 3175, 3911, 4655, 5438], "queries": {"click": {"state": {"target": [], "time": []}, "edge": {"target": [], "time": []}}, "mouseover": {"state": {"target": [], "time": []}, "edge": {"target": [], "time": []}}, "mouseout": {"state": {"target": ["0"], "time": [1295]}, "edge": {"target": [], "time": []}}}, "displayed_time": "15.43", "trialTime": 16711, "trial_type": "mouselab-mdp", "trial_index": 20, "time_elapsed": 484398, "internal_node_id": "0.0-6.0-1.0-11.0"}}, {"uniqueid": "w23723043:a48394983", "current_trial": 21, "dateTime": 1693481319055, "trialdata": {"revealed_states": [], "clicked_states": [], "num_clicks_accrued": [0, 0, 0, 0, 0, 0, 0, 0, 0, 0, 0, 0, 0], "stateRewards": ["", -2, 2, -1, -6, 22, 6, 6, -5, 70, -42, 65, 1, 3, 5, -6, -67, -9, 3, 14, 7, -62, -13, -2, 4, 1, 16, 42, -21, -52, -8, 32, 53, 81], "withholdReward": false, "trial_id": "mdp_trial_13", "block": "test", "trialIndex": 14, "score": 61, "costs": 0, "simulationMode": [null, null, null, null, null], "rewards": [-2, 4, 1, 16, 42], "path": ["0", "0", "23", "24", "25", "26", "27"], "rt": [2012, 402, 254, 191, 179], "actions": ["left", "left", "left", "up", "up"], "actionTimes": [3596, 4524, 5292, 5995, 6684], "queries": {"click": {"state": {"target": [], "time": []}, "edge": {"target": [], "time": []}}, "mouseover": {"state": {"target": [], "time": []}, "edge": {"target": [], "time": []}}, "mouseout": {"state": {"target": ["0"], "time": [1430]}, "edge": {"target": [], "time": []}}}, "displayed_time": "15.59", "trialTime": 16596, "trial_type": "mouselab-mdp", "trial_index": 21, "time_elapsed": 501198, "internal_node_id": "0.0-6.0-1.0-12.0"}}, {"uniqueid": "w23723043:a48394983", "current_trial": 22, "dateTime": 1693481335814, "trialdata": {"revealed_states": [], "clicked_states": [], "num_clicks_accrued": [0, 0, 0, 0, 0, 0, 0, 0, 0, 0, 0, 0, 0], "stateRewards": ["", 2, -1, -2, -5, -47, -57, -33, -11, 31, -18, -72, -2, 1, -4, -8, -46, -53, -50, 15, -85, -9, 39, -2, -2, 1, 14, -1, -8, 53, -12, -41, -74, 62], "withholdReward": false, "trial_id": "mdp_trial_14", "block": "test", "trialIndex": 15, "score": -56, "costs": 0, "simulationMode": [null, null, null, null, null], "rewards": [-2, -2, 1, -12, -41], "path": ["0", "0", "23", "24", "25", "30", "31"], "rt": [934, 257, 284, 245, 288], "actions": ["left", "left", "left", "down", "right"], "actionTimes": [2242, 3018, 3793, 4553, 5346], "queries": {"click": {"state": {"target": [], "time": []}, "edge": {"target": [], "time": []}}, "mouseover": {"state": {"target": [], "time": []}, "edge": {"target": [], "time": []}}, "mouseout": {"state": {"target": ["0"], "time": [1154]}, "edge": {"target": [], "time": []}}}, "displayed_time": "15.31", "trialTime": 16562, "trial_type": "mouselab-mdp", "trial_index": 22, "time_elapsed": 517957, "internal_node_id": "0.0-6.0-1.0-13.0"}}, {"uniqueid": "w23723043:a48394983", "current_trial": 23, "dateTime": 1693481352711, "trialdata": {"revealed_states": [], "clicked_states": [], "num_clicks_accrued": [0, 0, 0, 0, 0, 0, 0, 0, 0, 0, 0, 0, 0], "stateRewards": ["", -2, 1, -7, -8, -37, -76, -87, 11, 30, -63, 80, -1, 4, 2, -1, 42, 17, 52, -3, -75, -80, -68, 2, -3, -5, -15, -48, 82, 24, -7, 5, -22, -71], "withholdReward": false, "trial_id": "mdp_trial_15", "block": "test", "trialIndex": 16, "score": -92, "costs": 0, "simulationMode": [null, null, null, null, null], "rewards": [-2, 1, -7, -8, -76], "path": ["0", "0", "1", "2", "3", "4", "6"], "rt": [876, 1197, 303, 176, 180], "actions": ["up", "up", "up", "right", "right"], "actionTimes": [2489, 4200, 5024, 5712, 6400], "queries": {"click": {"state": {"target": [], "time": []}, "edge": {"target": [], "time": []}}, "mouseover": {"state": {"target": [], "time": []}, "edge": {"target": [], "time": []}}, "mouseout": {"state": {"target": ["0"], "time": [1473]}, "edge": {"target": [], "time": []}}}, "displayed_time": "15.61", "trialTime": 16688, "trial_type": "mouselab-mdp", "trial_index": 23, "time_elapsed": 534854, "internal_node_id": "0.0-6.0-1.0-14.0"}}, {"uniqueid": "w23723043:a48394983", "current_trial": 24, "dateTime": 1693481369473, "trialdata": {"revealed_states": [], "clicked_states": [], "num_clicks_accrued": [0, 0, 0, 0, 0, 0, 0, 0, 0, 0, 0, 0, 0], "stateRewards": ["", 1, 1, 1, -3, -7, -1, -41, -10, 20, -72, -63, 1, -4, -2, 2, -66, 30, -84, -2, 49, 23, 71, -1, -4, 4, -12, 67, 5, 18, -16, 88, 56, -5], "withholdReward": false, "trial_id": "mdp_trial_16", "block": "test", "trialIndex": 17, "score": 27, "costs": 0, "simulationMode": [null, null, null, null, null], "rewards": [1, -4, -2, 2, 30], "path": ["0", "0", "12", "13", "14", "15", "17"], "rt": [1100, 345, 343, 359, 421], "actions": ["right", "right", "right", "up", "right"], "actionTimes": [2494, 3350, 4214, 5078, 5990], "queries": {"click": {"state": {"target": [], "time": []}, "edge": {"target": [], "time": []}}, "mouseover": {"state": {"target": [], "time": []}, "edge": {"target": [], "time": []}}, "mouseout": {"state": {"target": ["0"], "time": [1272]}, "edge": {"target": [], "time": []}}}, "displayed_time": "15.40", "trialTime": 16551, "trial_type": "mouselab-mdp", "trial_index": 24, "time_elapsed": 551616, "internal_node_id": "0.0-6.0-1.0-15.0"}}, {"uniqueid": "w23723043:a48394983", "current_trial": 25, "dateTime": 1693481386016, "trialdata": {"revealed_states": [], "clicked_states": [], "num_clicks_accrued": [0, 0, 0, 0, 0, 0, 0, 0, 0, 0, 0, 0, 0], "stateRewards": ["", 1, 4, -4, 14, 35, 51, 19, -13, 54, 78, -74, -2, -1, -3, 13, -11, -42, -73, -15, -24, -3, -69, 2, -1, 5, 16, -27, 73, 58, 9, -60, 5, -60], "withholdReward": false, "trial_id": "mdp_trial_17", "block": "test", "trialIndex": 18, "score": -45, "costs": 0, "simulationMode": [null, null, null, null, null], "rewards": [-2, -1, -3, -15, -24], "path": ["0", "0", "12", "13", "14", "19", "20"], "rt": [1028, 129, 122, 64, 401], "actions": ["right", "right", "right", "down", "right"], "actionTimes": [2192, 2832, 3472, 4032, 4952], "queries": {"click": {"state": {"target": [], "time": []}, "edge": {"target": [], "time": []}}, "mouseover": {"state": {"target": [], "time": []}, "edge": {"target": [], "time": []}}, "mouseout": {"state": {"target": ["0"], "time": [1027]}, "edge": {"target": [], "time": []}}}, "displayed_time": "15.16", "trialTime": 16344, "trial_type": "mouselab-mdp", "trial_index": 25, "time_elapsed": 568160, "internal_node_id": "0.0-6.0-1.0-16.0"}}, {"uniqueid": "w23723043:a48394983", "current_trial": 26, "dateTime": 1693481403177, "trialdata": {"revealed_states": [], "clicked_states": [], "num_clicks_accrued": [0, 0, 0, 0, 0, 0, 0, 0, 0, 0, 0, 0, 0], "stateRewards": ["", 1, -2, -3, 14, -42, -87, -37, -11, -50, 33, -44, -2, 4, -7, 13, 48, -75, -66, 12, 23, -2, 82, 1, -4, 3, 12, 51, -15, -26, -11, -52, -29, 82], "withholdReward": false, "trial_id": "mdp_trial_18", "block": "test", "trialIndex": 19, "score": 71, "costs": 0, "simulationMode": [null, null, null, null, null], "rewards": [1, -4, 3, -11, 82], "path": ["0", "0", "23", "24", "25", "30", "33"], "rt": [742, 134, 187, 93, 231], "actions": ["left", "left", "left", "down", "left"], "actionTimes": [2421, 3068, 3772, 4381, 5132], "queries": {"click": {"state": {"target": [], "time": []}, "edge": {"target": [], "time": []}}, "mouseover": {"state": {"target": ["0"], "time": [1689]}, "edge": {"target": [], "time": []}}, "mouseout": {"state": {"target": ["0"], "time": [1536]}, "edge": {"target": [], "time": []}}}, "displayed_time": "15.68", "trialTime": 16959, "trial_type": "mouselab-mdp", "trial_index": 26, "time_elapsed": 585321, "internal_node_id": "0.0-6.0-1.0-17.0"}}, {"uniqueid": "w23723043:a48394983", "current_trial": 27, "dateTime": 1693481421626, "trialdata": {"revealed_states": [], "clicked_states": [], "num_clicks_accrued": [0, 0, 0, 0, 0, 0, 0, 0, 0, 0, 0, 0, 0], "stateRewards": ["", 1, -2, -8, -3, 31, -84, -55, -14, 15, -58, 17, -2, -3, 7, 7, -12, 48, 67, 4, -44, -68, 46, 2, 3, -5, -7, 76, 27, 5, 11, 57, 52, 59], "withholdReward": false, "trial_id": "mdp_trial_19", "block": "test", "trialIndex": 20, "score": 68, "costs": 0, "simulationMode": [null, null, null, null, null], "rewards": [2, 3, -5, 11, 57], "path": ["0", "0", "23", "24", "25", "30", "31"], "rt": [1364, 136, 119, 150, 194], "actions": ["left", "left", "left", "down", "right"], "actionTimes": [2840, 3495, 4127, 4792, 5504], "queries": {"click": {"state": {"target": [], "time": []}, "edge": {"target": [], "time": []}}, "mouseover": {"state": {"target": [], "time": []}, "edge": {"target": [], "time": []}}, "mouseout": {"state": {"target": [], "time": []}, "edge": {"target": [], "time": []}}}, "displayed_time": "15.48", "trialTime": 18248, "trial_type": "mouselab-mdp", "trial_index": 27, "time_elapsed": 603769, "internal_node_id": "0.0-6.0-1.0-18.0"}}, {"uniqueid": "w23723043:a48394983", "current_trial": 28, "dateTime": 1693481438713, "trialdata": {"revealed_states": [], "clicked_states": [], "num_clicks_accrued": [0, 0, 0, 0, 0, 0, 0, 0, 0, 0, 0, 0, 0], "stateRewards": ["", 1, 1, -2, 7, -31, -6, 76, 1, -36, -16, -53, 2, 1, 7, 13, -47, -10, 47, -7, 72, 46, -56, -2, -2, -2, 11, -80, 44, 38, 16, 67, 85, -78], "withholdReward": false, "trial_id": "mdp_trial_20", "block": "test", "trialIndex": 21, "score": -68, "costs": 0, "simulationMode": [null, null, null, null, null], "rewards": [-2, -2, -2, 16, -78], "path": ["0", "0", "23", "24", "25", "30", "33"], "rt": [1090, 267, 235, 247, 535], "actions": ["left", "left", "left", "down", "left"], "actionTimes": [2368, 3152, 3904, 4664, 5720], "queries": {"click": {"state": {"target": [], "time": []}, "edge": {"target": [], "time": []}}, "mouseover": {"state": {"target": [], "time": []}, "edge": {"target": [], "time": []}}, "mouseout": {"state": {"target": [], "time": []}, "edge": {"target": [], "time": []}}}, "displayed_time": "15.28", "trialTime": 16863, "trial_type": "mouselab-mdp", "trial_index": 28, "time_elapsed": 620857, "internal_node_id": "0.0-6.0-1.0-19.0"}}, {"uniqueid": "w23723043:a48394983", "current_trial": 29, "dateTime": 1693481455209, "trialdata": {"revealed_states": [], "clicked_states": [], "num_clicks_accrued": [0, 0, 0, 0, 0, 0, 0, 0, 0, 0, 0, 0, 0], "stateRewards": ["", -1, 3, 8, 9, -53, 20, -84, 2, -28, -62, -31, -1, -2, -7, 2, 51, 58, 45, -4, -17, -41, 36, 2, -2, -7, -15, 29, -54, -37, -16, -43, 65, -17], "withholdReward": false, "trial_id": "mdp_trial_21", "block": "test", "trialIndex": 22, "score": 42, "costs": 0, "simulationMode": [null, null, null, null, null], "rewards": [2, -2, -7, -16, 65], "path": ["0", "0", "23", "24", "25", "30", "32"], "rt": [1073, 77, 197, 136, 374], "actions": ["left", "left", "left", "down", "down"], "actionTimes": [2328, 2912, 3616, 4272, 5159], "queries": {"click": {"state": {"target": [], "time": []}, "edge": {"target": [], "time": []}}, "mouseover": {"state": {"target": [], "time": []}, "edge": {"target": [], "time": []}}, "mouseout": {"state": {"target": [], "time": []}, "edge": {"target": [], "time": []}}}, "displayed_time": "15.26", "trialTime": 16279, "trial_type": "mouselab-mdp", "trial_index": 29, "time_elapsed": 637353, "internal_node_id": "0.0-6.0-1.0-20.0"}}, {"uniqueid": "w23723043:a48394983", "current_trial": 30, "dateTime": 1693481471699, "trialdata": {"revealed_states": [], "clicked_states": [], "num_clicks_accrued": [0, 0, 0, 0, 0, 0, 0, 0, 0, 0, 0, 0, 0], "stateRewards": ["", -1, 1, 6, -6, 70, 66, 67, -16, -75, -35, 37, -1, 4, 4, -6, 47, -9, 63, 15, 21, -63, 13, 1, 3, -6, 10, 79, -29, 18, -15, 9, -67, -19], "withholdReward": false, "trial_id": "mdp_trial_22", "block": "test", "trialIndex": 23, "score": 70, "costs": 0, "simulationMode": [null, null, null, null, null], "rewards": [-1, 1, 6, -6, 70], "path": ["0", "0", "1", "2", "3", "4", "5"], "rt": [1436, 171, 517, 255, 152], "actions": ["up", "up", "up", "right", "up"], "actionTimes": [3115, 3797, 4828, 5597, 6261], "queries": {"click": {"state": {"target": [], "time": []}, "edge": {"target": [], "time": []}}, "mouseover": {"state": {"target": [], "time": []}, "edge": {"target": [], "time": []}}, "mouseout": {"state": {"target": [], "time": []}, "edge": {"target": [], "time": []}}}, "displayed_time": "15.68", "trialTime": 16276, "trial_type": "mouselab-mdp", "trial_index": 30, "time_elapsed": 653843, "internal_node_id": "0.0-6.0-1.0-21.0"}}, {"uniqueid": "w23723043:a48394983", "current_trial": 31, "dateTime": 1693481489243, "trialdata": {"revealed_states": [], "clicked_states": [], "num_clicks_accrued": [0, 0, 0, 0, 0, 0, 0, 0, 0, 0, 0, 0, 0], "stateRewards": ["", -1, -1, 4, -16, -75, 81, -51, -7, -84, 73, -30, -2, 1, -3, -16, -77, 33, 14, 1, 45, 87, -66, 2, 2, -5, -7, -19, -17, 79, -3, 8, 49, 47], "withholdReward": false, "trial_id": "mdp_trial_23", "block": "test", "trialIndex": 24, "score": 68, "costs": 0, "simulationMode": [null, null, null, null, null], "rewards": [-1, -1, 4, -7, 73], "path": ["0", "0", "1", "2", "3", "8", "10"], "rt": [1138, 144, 198, 64, 139], "actions": ["up", "up", "up", "left", "down"], "actionTimes": [3132, 3788, 4491, 5075, 5731], "queries": {"click": {"state": {"target": [], "time": []}, "edge": {"target": [], "time": []}}, "mouseover": {"state": {"target": [], "time": []}, "edge": {"target": [], "time": []}}, "mouseout": {"state": {"target": [], "time": []}, "edge": {"target": [], "time": []}}}, "displayed_time": "15.99", "trialTime": 17308, "trial_type": "mouselab-mdp", "trial_index": 31, "time_elapsed": 671387, "internal_node_id": "0.0-6.0-1.0-22.0"}}, {"uniqueid": "w23723043:a48394983", "current_trial": 32, "dateTime": 1693481506651, "trialdata": {"revealed_states": [], "clicked_states": [], "num_clicks_accrued": [0, 0, 0, 0, 0, 0, 0, 0, 0, 0, 0, 0, 0], "stateRewards": ["", -2, -1, -6, -14, -55, 78, -13, 11, 14, -71, 59, 2, 2, 6, -6, 9, 38, 14, 7, 85, 11, 68, 1, -4, -1, -3, -63, -85, 9, -2, 63, -86, -10], "withholdReward": false, "trial_id": "mdp_trial_24", "block": "test", "trialIndex": 25, "score": 13, "costs": 0, "simulationMode": [null, null, null, null, null], "rewards": [2, 2, 6, -6, 9], "path": ["0", "0", "12", "13", "14", "15", "16"], "rt": [1671, 192, 204, 127, 78], "actions": ["right", "right", "right", "up", "up"], "actionTimes": [3858, 4561, 5258, 5897, 6482], "queries": {"click": {"state": {"target": [], "time": []}, "edge": {"target": [], "time": []}}, "mouseover": {"state": {"target": [], "time": []}, "edge": {"target": [], "time": []}}, "mouseout": {"state": {"target": [], "time": []}, "edge": {"target": [], "time": []}}}, "displayed_time": "16.19", "trialTime": 17178, "trial_type": "mouselab-mdp", "trial_index": 32, "time_elapsed": 688794, "internal_node_id": "0.0-6.0-1.0-23.0"}}, {"uniqueid": "w23723043:a48394983", "current_trial": 33, "dateTime": 1693481523510, "trialdata": {"revealed_states": [], "clicked_states": [], "num_clicks_accrued": [0, 0, 0, 0, 0, 0, 0, 0, 0, 0, 0, 0, 0], "stateRewards": ["", 1, -2, -2, 10, -31, -77, 35, 9, -47, 8, 48, -2, 1, -4, -3, -26, -50, 43, -11, 76, -38, 17, 1, -1, 6, 10, 15, -9, 12, -8, 85, 11, -55], "withholdReward": false, "trial_id": "mdp_trial_25", "block": "test", "trialIndex": 26, "score": -57, "costs": 0, "simulationMode": [null, null, null, null, null], "rewards": [1, -1, 6, -8, -55], "path": ["0", "0", "23", "24", "25", "30", "33"], "rt": [897, 163, 112, 151, 196], "actions": ["left", "left", "left", "down", "left"], "actionTimes": [2416, 3088, 3720, 4360, 5072], "queries": {"click": {"state": {"target": [], "time": []}, "edge": {"target": [], "time": []}}, "mouseover": {"state": {"target": [], "time": []}, "edge": {"target": [], "time": []}}, "mouseout": {"state": {"target": [], "time": []}, "edge": {"target": [], "time": []}}}, "displayed_time": "15.52", "trialTime": 16626, "trial_type": "mouselab-mdp", "trial_index": 33, "time_elapsed": 705653, "internal_node_id": "0.0-6.0-1.0-24.0"}}, {"uniqueid": "w23723043:a48394983", "current_trial": 34, "dateTime": 1693481541725, "trialdata": {"revealed_states": [], "clicked_states": [], "num_clicks_accrued": [0, 0, 0, 0, 0, 0, 0, 0, 0, 0, 0, 0, 0], "stateRewards": ["", 1, 1, 5, 6, -29, -7, 3, -16, 9, -46, 65, -1, 4, -1, -16, -63, -77, -87, 8, 80, -50, 43, -1, -1, -5, 5, -38, -71, -62, 9, 81, -50, -52], "withholdReward": false, "trial_id": "mdp_trial_26", "block": "test", "trialIndex": 27, "score": -64, "costs": 0, "simulationMode": [null, null, null, null, null], "rewards": [-1, -1, -5, 5, -62], "path": ["0", "0", "23", "24", "25", "26", "29"], "rt": [1715, 98, 130, 15, 26], "actions": ["left", "left", "left", "up", "left"], "actionTimes": [3038, 3653, 4302, 4837, 5381], "queries": {"click": {"state": {"target": [], "time": []}, "edge": {"target": [], "time": []}}, "mouseover": {"state": {"target": [], "time": []}, "edge": {"target": [], "time": []}}, "mouseout": {"state": {"target": ["0"], "time": [17369]}, "edge": {"target": [], "time": []}}}, "displayed_time": "15.32", "trialTime": 17989, "trial_type": "mouselab-mdp", "trial_index": 34, "time_elapsed": 723869, "internal_node_id": "0.0-6.0-1.0-25.0"}}, {"uniqueid": "w23723043:a48394983", "current_trial": 35, "dateTime": 1693481558830, "trialdata": {"revealed_states": [], "clicked_states": [], "num_clicks_accrued": [0, 0, 0, 0, 0, 0, 0, 0, 0, 0, 0, 0, 0], "stateRewards": ["", -2, 1, -7, 9, 8, 25, 61, -7, -17, 69, -81, 1, 4, -4, -11, 16, 67, 44, 3, 6, -45, -54, -2, 3, 6, -11, -15, 32, -47, 3, -39, -6, -88], "withholdReward": false, "trial_id": "mdp_trial_27", "block": "test", "trialIndex": 28, "score": -50, "costs": 0, "simulationMode": [null, null, null, null, null], "rewards": [1, 4, -4, 3, -54], "path": ["0", "0", "12", "13", "14", "19", "22"], "rt": [2248, 132, 570, 150, 869], "actions": ["right", "right", "right", "down", "left"], "actionTimes": [3622, 4269, 5358, 6021, 7405], "queries": {"click": {"state": {"target": [], "time": []}, "edge": {"target": [], "time": []}}, "mouseover": {"state": {"target": [], "time": []}, "edge": {"target": [], "time": []}}, "mouseout": {"state": {"target": ["0"], "time": [620]}, "edge": {"target": [], "time": []}}}, "displayed_time": "15.38", "trialTime": 16862, "trial_type": "mouselab-mdp", "trial_index": 35, "time_elapsed": 740973, "internal_node_id": "0.0-6.0-1.0-26.0"}}, {"uniqueid": "w23723043:a48394983", "current_trial": 36, "dateTime": 1693481576110, "trialdata": {"revealed_states": [], "clicked_states": [], "num_clicks_accrued": [0, 0, 0, 0, 0, 0, 0, 0, 0, 0, 0, 0, 0], "stateRewards": ["", -1, 3, -7, 16, -32, -74, -48, 2, 10, 15, -30, 1, 1, -2, 10, 12, -83, 67, 13, -66, 47, 65, -2, 4, 2, -14, -8, -57, 24, 9, 65, 12, 46], "withholdReward": false, "trial_id": "mdp_trial_28", "block": "test", "trialIndex": 29, "score": -63, "costs": 0, "simulationMode": [null, null, null, null, null], "rewards": [-1, 3, -7, 16, -74], "path": ["0", "0", "1", "2", "3", "4", "6"], "rt": [868, 141, 125, 35, 94], "actions": ["up", "up", "up", "right", "right"], "actionTimes": [1900, 2540, 3172, 3715, 4324], "queries": {"click": {"state": {"target": [], "time": []}, "edge": {"target": [], "time": []}}, "mouseover": {"state": {"target": [], "time": []}, "edge": {"target": [], "time": []}}, "mouseout": {"state": {"target": ["0"], "time": [877]}, "edge": {"target": [], "time": []}}}, "displayed_time": "15.03", "trialTime": 17020, "trial_type": "mouselab-mdp", "trial_index": 36, "time_elapsed": 758253, "internal_node_id": "0.0-6.0-1.0-27.0"}}, {"uniqueid": "w23723043:a48394983", "current_trial": 37, "dateTime": 1693481592720, "trialdata": {"revealed_states": [], "clicked_states": [], "num_clicks_accrued": [0, 0, 0, 0, 0, 0, 0, 0, 0, 0, 0, 0, 0], "stateRewards": ["", -2, 2, 5, -14, -56, 64, 84, -5, 52, 39, 85, -2, 1, 7, 8, 21, 29, -78, -9, -10, -69, 10, -2, -1, -7, 15, 72, 20, 41, -2, 52, 80, 22], "withholdReward": false, "trial_id": "mdp_trial_29", "block": "test", "trialIndex": 30, "score": 46, "costs": 0, "simulationMode": [null, null, null, null, null], "rewards": [-2, -1, -7, 15, 41], "path": ["0", "0", "23", "24", "25", "26", "29"], "rt": [668, 114, 130, 84, 999], "actions": ["left", "left", "left", "up", "left"], "actionTimes": [1963, 2587, 3235, 3859, 5372], "queries": {"click": {"state": {"target": [], "time": []}, "edge": {"target": [], "time": []}}, "mouseover": {"state": {"target": [], "time": []}, "edge": {"target": [], "time": []}}, "mouseout": {"state": {"target": ["0"], "time": [1133]}, "edge": {"target": [], "time": []}}}, "displayed_time": "15.30", "trialTime": 16357, "trial_type": "mouselab-mdp", "trial_index": 37, "time_elapsed": 774863, "internal_node_id": "0.0-6.0-1.0-28.0"}}, {"uniqueid": "w23723043:a48394983", "current_trial": 38, "dateTime": 1693481609159, "trialdata": {"revealed_states": [], "clicked_states": [], "num_clicks_accrued": [0, 0, 0, 0, 0, 0, 0, 0, 0, 0, 0, 0, 0], "stateRewards": ["", 1, -2, 4, 7, -43, -83, -60, -5, -86, -80, 83, -1, -2, 6, 11, -15, 21, 13, 9, 29, -49, 11, -1, 4, -6, -11, 87, 40, 63, -8, -39, -11, 62], "withholdReward": false, "trial_id": "mdp_trial_30", "block": "test", "trialIndex": 31, "score": 51, "costs": 0, "simulationMode": [null, null, null, null, null], "rewards": [-1, 4, -6, -8, 62], "path": ["0", "0", "23", "24", "25", "30", "33"], "rt": [786, 153, 120, 100, 653], "actions": ["left", "left", "left", "down", "left"], "actionTimes": [1867, 2514, 3130, 3746, 4914], "queries": {"click": {"state": {"target": [], "time": []}, "edge": {"target": [], "time": []}}, "mouseover": {"state": {"target": [], "time": []}, "edge": {"target": [], "time": []}}, "mouseout": {"state": {"target": ["0"], "time": [925]}, "edge": {"target": [], "time": []}}}, "displayed_time": "15.08", "trialTime": 16186, "trial_type": "mouselab-mdp", "trial_index": 38, "time_elapsed": 791303, "internal_node_id": "0.0-6.0-1.0-29.0"}}, {"uniqueid": "w23723043:a48394983", "current_trial": 39, "dateTime": 1693481626141, "trialdata": {"revealed_states": [], "clicked_states": [], "num_clicks_accrued": [0, 0, 0, 0, 0, 0, 0, 0, 0, 0, 0, 0, 0], "stateRewards": ["", 2, -1, 4, -9, -43, 7, 54, -13, 38, -40, -83, -1, 2, -8, -10, 34, -33, 11, -14, -79, 65, 26, 1, 2, 4, 10, 21, 1, 86, 4, -53, 28, -29], "withholdReward": false, "trial_id": "mdp_trial_31", "block": "test", "trialIndex": 32, "score": -100, "costs": 0, "simulationMode": [null, null, null, null, null], "rewards": [-1, 2, -8, -14, -79], "path": ["0", "0", "12", "13", "14", "19", "20"], "rt": [813, 31, 1017, 8, 206], "actions": ["right", "right", "right", "down", "right"], "actionTimes": [1697, 2241, 3793, 4320, 5049], "queries": {"click": {"state": {"target": [], "time": []}, "edge": {"target": [], "time": []}}, "mouseover": {"state": {"target": [], "time": []}, "edge": {"target": [], "time": []}}, "mouseout": {"state": {"target": ["0"], "time": [732]}, "edge": {"target": [], "time": []}}}, "displayed_time": "14.89", "trialTime": 16721, "trial_type": "mouselab-mdp", "trial_index": 39, "time_elapsed": 808285, "internal_node_id": "0.0-6.0-1.0-30.0"}}, {"uniqueid": "w23723043:a48394983", "current_trial": 40, "dateTime": 1693481642783, "trialdata": {"revealed_states": [], "clicked_states": [], "num_clicks_accrued": [0, 0, 0, 0, 0, 0, 0, 0, 0, 0, 0, 0, 0], "stateRewards": ["", -2, 2, 3, -7, -31, -33, 29, -8, -57, 50, -83, -1, -1, 5, 13, -23, -62, 25, 5, -66, -85, 14, 1, -2, -1, 16, 71, 33, -19, -14, 5, -43, 79], "withholdReward": false, "trial_id": "mdp_trial_32", "block": "test", "trialIndex": 33, "score": -7, "costs": 0, "simulationMode": [null, null, null, null, null], "rewards": [-1, -1, 5, 13, -23], "path": ["0", "0", "12", "13", "14", "15", "16"], "rt": [1598, 333, 284, 180, 543], "actions": ["right", "right", "right", "up", "up"], "actionTimes": [2795, 3643, 4443, 5139, 6203], "queries": {"click": {"state": {"target": [], "time": []}, "edge": {"target": [], "time": []}}, "mouseover": {"state": {"target": [], "time": []}, "edge": {"target": [], "time": []}}, "mouseout": {"state": {"target": ["0"], "time": [1054]}, "edge": {"target": [], "time": []}}}, "displayed_time": "15.20", "trialTime": 16363, "trial_type": "mouselab-mdp", "trial_index": 40, "time_elapsed": 824927, "internal_node_id": "0.0-6.0-1.0-31.0"}}, {"uniqueid": "w23723043:a48394983", "current_trial": 41, "dateTime": 1693481659088, "trialdata": {"revealed_states": [], "clicked_states": [], "num_clicks_accrued": [0, 0, 0, 0, 0, 0, 0, 0, 0, 0, 0, 0, 0], "stateRewards": ["", 1, 4, 7, -16, -84, -6, -46, -12, -7, -49, -26, -1, 2, -4, 2, 22, 37, -64, 1, 88, -13, -10, 1, -4, -2, 5, 2, -10, -34, 9, 66, 55, 38], "withholdReward": false, "trial_id": "mdp_trial_33", "block": "test", "trialIndex": 34, "score": -7, "costs": 0, "simulationMode": [null, null, null, null, null], "rewards": [1, 4, 7, -12, -7], "path": ["0", "0", "1", "2", "3", "8", "9"], "rt": [1306, 155, 65, 50, 149], "actions": ["up", "up", "up", "left", "up"], "actionTimes": [2471, 3119, 3695, 4263, 4927], "queries": {"click": {"state": {"target": [], "time": []}, "edge": {"target": [], "time": []}}, "mouseover": {"state": {"target": [], "time": []}, "edge": {"target": [], "time": []}}, "mouseout": {"state": {"target": ["0"], "time": [1009]}, "edge": {"target": [], "time": []}}}, "displayed_time": "15.17", "trialTime": 16040, "trial_type": "mouselab-mdp", "trial_index": 41, "time_elapsed": 841231, "internal_node_id": "0.0-6.0-1.0-32.0"}}, {"uniqueid": "w23723043:a48394983", "current_trial": 42, "dateTime": 1693481677031, "trialdata": {"revealed_states": [], "clicked_states": [], "num_clicks_accrued": [0, 0, 0, 0, 0, 0, 0, 0, 0, 0, 0, 0, 0], "stateRewards": ["", 1, 1, -6, -2, 7, 77, 3, 16, -16, 66, 31, -1, 3, -8, -6, 33, -50, -48, 7, -60, -66, 36, 2, -3, 3, -7, -12, -61, -79, -4, 8, 74, -70], "withholdReward": false, "trial_id": "mdp_trial_34", "block": "test", "trialIndex": 35, "score": -66, "costs": 0, "simulationMode": [null, null, null, null, null], "rewards": [2, -3, 3, -7, -61], "path": ["0", "0", "23", "24", "25", "26", "28"], "rt": [1060, 172, 63, 49, 3], "actions": ["left", "left", "left", "up", "right"], "actionTimes": [3228, 3892, 4467, 5036, 5556], "queries": {"click": {"state": {"target": [], "time": []}, "edge": {"target": [], "time": []}}, "mouseover": {"state": {"target": [], "time": []}, "edge": {"target": [], "time": []}}, "mouseout": {"state": {"target": ["0"], "time": [2000]}, "edge": {"target": [], "time": []}}}, "displayed_time": "16.17", "trialTime": 17676, "trial_type": "mouselab-mdp", "trial_index": 42, "time_elapsed": 859175, "internal_node_id": "0.0-6.0-1.0-33.0"}}, {"uniqueid": "w23723043:a48394983", "current_trial": 43, "dateTime": 1693481694303, "trialdata": {"revealed_states": [], "clicked_states": [], "num_clicks_accrued": [0, 0, 0, 0, 0, 0, 0, 0, 0, 0, 0, 0, 0], "stateRewards": ["", -1, 2, -6, 6, 43, 78, 78, -2, 55, -29, -17, -2, -4, 1, -15, 13, 7, -79, 8, -28, -68, 36, -1, -3, 3, -16, 84, -18, 87, 10, 32, 13, -81], "withholdReward": false, "trial_id": "mdp_trial_35", "block": "test", "trialIndex": 36, "score": -99, "costs": 0, "simulationMode": [null, null, null, null, null], "rewards": [-2, -4, 1, -15, -79], "path": ["0", "0", "12", "13", "14", "15", "18"], "rt": [1414, 150, 61, 125, 45], "actions": ["right", "right", "right", "up", "left"], "actionTimes": [3241, 3905, 4481, 5097, 5649], "queries": {"click": {"state": {"target": [], "time": []}, "edge": {"target": [], "time": []}}, "mouseover": {"state": {"target": [], "time": []}, "edge": {"target": [], "time": []}}, "mouseout": {"state": {"target": ["0"], "time": [1665]}, "edge": {"target": [], "time": []}}}, "displayed_time": "15.83", "trialTime": 17001, "trial_type": "mouselab-mdp", "trial_index": 43, "time_elapsed": 876447, "internal_node_id": "0.0-6.0-1.0-34.0"}}, {"uniqueid": "w23723043:a48394983", "current_trial": 44, "dateTime": 1693481710862, "trialdata": {"revealed_states": [], "clicked_states": [], "num_clicks_accrued": [0, 0, 0, 0, 0, 0, 0, 0, 0, 0, 0, 0, 0], "stateRewards": ["", -1, 3, -4, -14, 78, 67, 2, 13, -32, 28, 39, -2, 1, -4, -4, -4, -42, -86, 11, 64, -29, -32, -1, -4, 2, -7, 5, 68, -61, 2, -21, 85, 50], "withholdReward": false, "trial_id": "mdp_trial_36", "block": "test", "trialIndex": 37, "score": 51, "costs": 0, "simulationMode": [null, null, null, null, null], "rewards": [-1, 3, -4, -14, 67], "path": ["0", "0", "1", "2", "3", "4", "6"], "rt": [966, 69, 29, 727, 455], "actions": ["up", "up", "up", "right", "right"], "actionTimes": [2274, 2858, 3401, 4617, 5577], "queries": {"click": {"state": {"target": [], "time": []}, "edge": {"target": [], "time": []}}, "mouseover": {"state": {"target": [], "time": []}, "edge": {"target": [], "time": []}}, "mouseout": {"state": {"target": ["0"], "time": [1139]}, "edge": {"target": [], "time": []}}}, "displayed_time": "15.31", "trialTime": 16282, "trial_type": "mouselab-mdp", "trial_index": 44, "time_elapsed": 893006, "internal_node_id": "0.0-6.0-1.0-35.0"}}, {"uniqueid": "w23723043:a48394983", "current_trial": 45, "dateTime": 1693481727383, "trialdata": {"revealed_states": [], "clicked_states": [], "num_clicks_accrued": [0, 0, 0, 0, 0, 0, 0, 0, 0, 0, 0, 0, 0], "stateRewards": ["", -2, 1, -5, 2, -68, 80, 33, 10, 67, -59, 20, -1, -3, 3, 14, 74, -2, 24, -16, 63, 80, 46, -1, 4, 6, 12, 83, -38, -43, -4, 43, 14, -79], "withholdReward": false, "trial_id": "mdp_trial_37", "block": "test", "trialIndex": 38, "score": 104, "costs": 0, "simulationMode": [null, null, null, null, null], "rewards": [-1, 4, 6, 12, 83], "path": ["0", "0", "23", "24", "25", "26", "27"], "rt": [1441, 33, 45, 118, 53], "actions": ["left", "left", "left", "up", "up"], "actionTimes": [2642, 3168, 3729, 4369, 4937], "queries": {"click": {"state": {"target": [], "time": []}, "edge": {"target": [], "time": []}}, "mouseover": {"state": {"target": [], "time": []}, "edge": {"target": [], "time": []}}, "mouseout": {"state": {"target": ["0"], "time": [1042]}, "edge": {"target": [], "time": []}}}, "displayed_time": "15.20", "trialTime": 16249, "trial_type": "mouselab-mdp", "trial_index": 45, "time_elapsed": 909527, "internal_node_id": "0.0-6.0-1.0-36.0"}}, {"uniqueid": "w23723043:a48394983", "current_trial": 46, "dateTime": 1693481744992, "trialdata": {"revealed_states": [], "clicked_states": [], "num_clicks_accrued": [0, 0, 0, 0, 0, 0, 0, 0, 0, 0, 0, 0, 0], "stateRewards": ["", -2, 2, -2, -7, -50, -62, -45, 7, 36, -24, -72, -1, -1, 8, -1, -67, 20, -52, 2, 35, -50, 80, -1, 1, 6, -6, -70, 6, 88, 8, -47, 74, -19], "withholdReward": false, "trial_id": "mdp_trial_38", "block": "test", "trialIndex": 39, "score": 43, "costs": 0, "simulationMode": [null, null, null, null, null], "rewards": [-1, -1, 8, 2, 35], "path": ["0", "0", "12", "13", "14", "19", "20"], "rt": [2030, 35, 1371, 26, 174], "actions": ["right", "right", "right", "down", "right"], "actionTimes": [3541, 4085, 5973, 6508, 7173], "queries": {"click": {"state": {"target": [], "time": []}, "edge": {"target": [], "time": []}}, "mouseover": {"state": {"target": [], "time": []}, "edge": {"target": [], "time": []}}, "mouseout": {"state": {"target": ["0"], "time": [1340]}, "edge": {"target": [], "time": []}}}, "displayed_time": "15.51", "trialTime": 17325, "trial_type": "mouselab-mdp", "trial_index": 46, "time_elapsed": 927135, "internal_node_id": "0.0-6.0-1.0-37.0"}}, {"uniqueid": "w23723043:a48394983", "current_trial": 47, "dateTime": 1693481761567, "trialdata": {"revealed_states": [], "clicked_states": [], "num_clicks_accrued": [0, 0, 0, 0, 0, 0, 0, 0, 0, 0, 0, 0, 0], "stateRewards": ["", -1, 4, -3, 3, 57, -61, 5, -11, 23, -1, 34, -2, -4, -1, -13, 27, 38, -36, 4, -45, 21, 88, 1, -2, -1, 1, -69, -5, -78, -12, -9, 38, -54], "withholdReward": false, "trial_id": "mdp_trial_39", "block": "test", "trialIndex": 40, "score": 8, "costs": 0, "simulationMode": [null, null, null, null, null], "rewards": [-1, 4, -3, 3, 5], "path": ["0", "0", "1", "2", "3", "4", "7"], "rt": [1794, 79, 125, 1454, 80], "actions": ["up", "up", "up", "right", "down"], "actionTimes": [2859, 3459, 4091, 6051, 6643], "queries": {"click": {"state": {"target": [], "time": []}, "edge": {"target": [], "time": []}}, "mouseover": {"state": {"target": [], "time": []}, "edge": {"target": [], "time": []}}, "mouseout": {"state": {"target": ["0"], "time": [901]}, "edge": {"target": [], "time": []}}}, "displayed_time": "15.06", "trialTime": 16283, "trial_type": "mouselab-mdp", "trial_index": 47, "time_elapsed": 943710, "internal_node_id": "0.0-6.0-1.0-38.0"}}, {"uniqueid": "w23723043:a48394983", "current_trial": 48, "dateTime": 1693481779622, "trialdata": {"revealed_states": [], "clicked_states": [], "num_clicks_accrued": [0, 0, 0, 0, 0, 0, 0, 0, 0, 0, 0, 0, 0], "stateRewards": ["", 1, 2, -3, -6, 50, -7, 7, -7, -80, 21, -1, 2, 2, 4, -1, 33, 84, 1, 14, -53, 81, 6, -2, -2, -3, -9, -87, -38, -59, -5, -74, -3, -71], "withholdReward": false, "trial_id": "mdp_trial_40", "block": "test", "trialIndex": 41, "score": -15, "costs": 0, "simulationMode": [null, null, null, null, null], "rewards": [-2, -2, -3, -5, -3], "path": ["0", "0", "23", "24", "25", "30", "32"], "rt": [1960, 29, 911, 6, 74], "actions": ["left", "left", "left", "down", "down"], "actionTimes": [4216, 4742, 6175, 6718, 7304], "queries": {"click": {"state": {"target": [], "time": []}, "edge": {"target": [], "time": []}}, "mouseover": {"state": {"target": [], "time": []}, "edge": {"target": [], "time": []}}, "mouseout": {"state": {"target": ["0"], "time": [2115]}, "edge": {"target": [], "time": []}}}, "displayed_time": "16.26", "trialTime": 17791, "trial_type": "mouselab-mdp", "trial_index": 48, "time_elapsed": 961765, "internal_node_id": "0.0-6.0-1.0-39.0"}}, {"uniqueid": "w23723043:a48394983", "current_trial": 49, "dateTime": 1693481829459, "trialdata": {"rt": 49831, "response": {"Q0": "$-16 to 16", "Q1": "$-32 to $32", "Q2": "$-88 to $88", "Q3": "The cost for clicking on nodes varied between nodes.", "Q4": "Neither motivated nor unmotivated"}, "question_order": [0, 1, 2, 3, 4], "trial_id": "final_quiz_control", "trial_type": "survey-multi-choice", "trial_index": 49, "time_elapsed": 1011602, "internal_node_id": "0.0-6.0-2.0"}}, {"uniqueid": "w23723043:a48394983", "current_trial": 50, "dateTime": 1693481898311, "trialdata": {"rt": 68846, "response": {"Q0": "I started out using the inspector but didn't find it that helpful.  After that I tried to randomize the selected path", "Q1": "Not really, it all felt random", "Q2": "The time pressure to think about the information revealed"}, "trial_id": "self_report_control", "trial_type": "survey-text", "trial_index": 50, "time_elapsed": 1080455, "internal_node_id": "0.0-6.0-3.0"}}, {"uniqueid": "w23723043:a48394983", "current_trial": 51, "dateTime": 1693481976365, "trialdata": {"rt": 78052, "response": {"Q0": "Disagree", "Q1": "Strongly disagree", "Q2": "Strongly disagree", "Q3": "Agree", "Q4": "Disagree", "Q5": "Agree", "Q6": "Disagree"}, "question_order": [0, 1, 2, 3, 4, 5, 6], "trial_id": "self_report_2", "trial_type": "survey-multi-choice", "trial_index": 51, "time_elapsed": 1158509, "internal_node_id": "0.0-6.0-4.0"}}, {"uniqueid": "w23723043:a48394983", "current_trial": 52, "dateTime": 1693482000501, "trialdata": {"rt": 24132, "response": {"gender": "female", "age": "56", "colorblind": "0", "effort": "0"}, "trial_type": "survey-html-form", "trial_index": 52, "time_elapsed": 1182645, "internal_node_id": "0.0-6.0-5.0"}}, {"uniqueid": "w23723043:a48394983", "current_trial": 53, "dateTime": 1693482023338, "trialdata": {"rt": 22834, "response": {"Q0": "No", "Q1": "No", "Q2": ""}, "trial_type": "survey-text", "trial_index": 53, "time_elapsed": 1205482, "internal_node_id": "0.0-6.0-6.0"}}, {"uniqueid": "w23723043:a48394983", "current_trial": 54, "dateTime": 1693482047475, "trialdata": {"rt": 24133, "stimulus": "<h1>Completion Code Instructions (1/2)</h1>\n<br><br><br><br>\nYou have reached the end of the experiment! The completion code consists of two parts: (1) a code with 2 characters (2) a code with 6 characters. On this page, you will receive the second part of the code. The first part of the completion code will be on the next page.\n<br><br>\nThe second part of your completion code is: <b>EWEK22</b>\n<br><br>\nPlease note this down. Then, press 'Finish HIT' in order to find the first part of your completion code. Once the data has been saved, you will receive this code either in this window or in the original browser window where you started the experiment.\n", "response": 0, "trial_type": "html-button-response", "trial_index": 54, "time_elapsed": 1229618, "internal_node_id": "0.0-6.0-7.0"}}, {"uniqueid": "w23723043:a48394983", "current_trial": 55, "dateTime": 1693482048483, "trialdata": {"success": true, "trial_type": "fullscreen", "trial_index": 55, "time_elapsed": 1230627, "internal_node_id": "0.0-7.0"}}], "questiondata": {"params": {"CODE": "C6DMOQA6", "MIN_TIME": 14, "inspectCost": 1, "startTime": "Thu Aug 31 2023 07:20:17 GMT-0400 (Eastern Daylight Time)", "bonusRate": 0.002, "variance": "1_2_4_8_44", "branching": "31123"}, "final_score": -284}, "eventdata": [{"eventtype": "initialized", "value": null, "timestamp": 1693480817299, "interval": 0}, {"eventtype": "window_resize", "value": [1028, 752], "timestamp": 1693480817299, "interval": 0}, {"eventtype": "window_resize", "value": [1028, 752], "timestamp": 1693480817540, "interval": 241}, {"eventtype": "window_resize", "value": [1536, 864], "timestamp": 1693480821564, "interval": 4024}, {"eventtype": "window_resize", "value": [1028, 752], "timestamp": 1693482047695, "interval": 1226131}], "useragent": "Mozilla/5.0 (Windows NT 10.0; Win64; x64) AppleWebKit/537.36 (KHTML, like Gecko) Chrome/116.0.0.0 Safari/537.36", "mode": "live", "id": "w23723043:a48394983", "status": "user data saved", "Beginhit": "2023-08-31 11:20:16.961635", "Beginexp": "2023-08-31 11:20:22.394181", "Endhit": "2023-08-31 11:40:48.759967", "psiturkStatus": 3, "browser": "<redacted>", "platform": "windows", "language": "en-US"}