{"condition": 1, "counterbalance": 0, "assignmentId": "a32989821", "workerId": "w97473368", "hitId": "h70163869", "currenttrial": 28, "bonus": 0, "data": [{"uniqueid": "w97473368:a32989821", "current_trial": 0, "dateTime": 1693663340770, "trialdata": {"success": true, "trial_type": "fullscreen", "trial_index": 0, "time_elapsed": 4446, "internal_node_id": "0.0-0.0"}}, {"uniqueid": "w97473368:a32989821", "current_trial": 1, "dateTime": 1693663344895, "trialdata": {"view_history": [{"page_index": 0, "viewing_time": 4123}], "rt": 4124, "trial_id": "exp_instructions_misaligned", "trial_type": "instructions", "trial_index": 1, "time_elapsed": 8572, "internal_node_id": "0.0-1.0"}}, {"uniqueid": "w97473368:a32989821", "current_trial": 2, "dateTime": 1693663461360, "trialdata": {"view_history": [{"page_index": 0, "viewing_time": 36180}, {"page_index": 1, "viewing_time": 38134}, {"page_index": 2, "viewing_time": 11394}, {"page_index": 3, "viewing_time": 30757}], "rt": 116465, "trial_id": "mouselab_instructions_1_misaligned", "trial_type": "instructions", "trial_index": 2, "time_elapsed": 125037, "internal_node_id": "0.0-2.0-1.0"}}, {"uniqueid": "w97473368:a32989821", "current_trial": 3, "dateTime": 1693663506448, "trialdata": {"revealed_states": [], "clicked_states": ["12", "13", "14", "19", "21", "15", "1", "2", "3", "4", "5", "23", "24", "25", "26", "27", "29", "30", "32"], "num_clicks_accrued": [0, 0, 0, 0, 0, 0, 0, 0, 0, 0, 0, 0, 0], "stateRewards": ["", -10, 10, 10, 10, 10, 10, 10, 10, 10, -10, -10, -10, 10, -10, -10, 10, 10, -10, -10, 10, 10, 10, -10, 10, -10, -10, -10, 10, 10, 10, -10, 10, 10], "withholdReward": false, "trial_id": "practice_1", "block": "test", "trialIndex": 0, "score": 4, "costs": -9.5, "simulationMode": [null, null, null, null, null], "rewards": [-10, 10, -10, 10, 10], "path": ["0", "0", "23", "24", "25", "30", "32"], "rt": [35853, 334, 220, 206, 186], "actions": ["left", "left", "left", "down", "down"], "actionTimes": [37356, 38179, 38899, 39603, 40283], "queries": {"click": {"state": {"target": ["12", "13", "14", "19", "21", "15", "1", "2", "3", "4", "5", "23", "24", "25", "26", "27", "29", "30", "32"], "time": [2555, 3841, 5001, 6387, 7682, 8834, 11035, 12237, 14957, 16188, 17349, 19331, 21581, 22700, 23917, 25493, 27078, 28303, 29565]}, "edge": {"target": [], "time": []}}, "mouseover": {"state": {"target": ["12", "13", "14", "19", "21", "15", "15", "16", "7", "2", "10", "1", "2", "3", "3", "3", "4", "4", "5", "8", "26", "24", "23", "24", "25", "24", "25", "26", "27", "29", "30", "32", "1", "2", "1"], "time": [2276, 3443, 4528, 5363, 7130, 8198, 8549, 9233, 10217, 10284, 10400, 10600, 11436, 12836, 14154, 14504, 15356, 15606, 16824, 18008, 18258, 18492, 19092, 19726, 20761, 20978, 22062, 23247, 24348, 25899, 27584, 28735, 31822, 33073, 33574]}, "edge": {"target": [], "time": []}}, "mouseout": {"state": {"target": ["0", "12", "13", "14", "19", "21", "19", "14", "15", "15", "16", "7", "2", "10", "1", "2", "3", "3", "3", "4", "4", "5", "8", "26", "24", "23", "24", "25", "24", "24", "25", "26", "27", "29", "30", "30", "32", "1", "2", "1"], "time": [991, 3327, 4261, 5296, 7047, 8081, 8131, 8165, 8232, 9116, 10133, 10250, 10333, 10534, 11160, 12736, 13603, 14237, 15339, 15389, 16313, 17925, 18041, 18325, 18926, 19677, 20711, 20961, 21698, 22012, 23146, 24247, 25849, 27401, 28410, 28619, 30587, 31871, 33541, 33590]}, "edge": {"target": [], "time": []}}}, "displayed_time": "40.78", "trialTime": 44740, "trial_type": "mouselab-mdp", "trial_index": 3, "time_elapsed": 170125, "internal_node_id": "0.0-2.0-2.0-0.0"}}, {"uniqueid": "w97473368:a32989821", "current_trial": 4, "dateTime": 1693663529373, "trialdata": {"revealed_states": [], "clicked_states": ["23", "24", "25", "30", "32", "26", "27", "29"], "num_clicks_accrued": [0, 0, 0, 0, 0, 0, 0, 0, 0, 0, 0, 0, 0], "stateRewards": ["", 10, -10, 10, -10, -10, -10, -10, -10, 10, 10, 10, 10, 10, 10, 10, -10, -10, -10, 10, 10, 10, 10, -10, 10, 10, 10, 10, 10, -10, -10, 10, -10, -10], "withholdReward": false, "trial_id": "practice_2", "block": "test", "trialIndex": 1, "score": 29.5, "costs": -4, "simulationMode": [null, null, null, null, null], "rewards": [-10, 10, 10, 10, 10], "path": ["0", "0", "23", "24", "25", "26", "27"], "rt": [14002, 355, 304, 167, 172], "actions": ["left", "left", "left", "up", "up"], "actionTimes": [16144, 16991, 17791, 18456, 19128], "queries": {"click": {"state": {"target": ["23", "24", "25", "30", "32", "26", "27", "29"], "time": [3297, 5521, 6657, 7897, 9068, 10162, 11307, 12571]}, "edge": {"target": [], "time": []}}, "mouseover": {"state": {"target": ["23", "24", "25", "24", "25", "30", "32", "26", "27", "29", "28", "1", "1", "0"], "time": [3038, 3805, 4506, 5223, 5857, 7058, 8527, 9929, 10730, 12114, 13365, 13983, 14517, 14900]}, "edge": {"target": [], "time": []}}, "mouseout": {"state": {"target": ["0", "0", "0", "23", "24", "25", "24", "25", "30", "30", "32", "30", "25", "26", "27", "29", "26", "28", "1", "1", "0", "0"], "time": [1013, 1569, 1989, 3588, 4489, 4856, 5824, 7026, 7944, 8327, 9495, 9562, 9628, 10530, 11864, 13266, 13349, 13432, 14016, 14617, 14984, 21024]}, "edge": {"target": [], "time": []}}}, "displayed_time": "19.62", "trialTime": 22664, "trial_type": "mouselab-mdp", "trial_index": 4, "time_elapsed": 193049, "internal_node_id": "0.0-2.0-2.0-1.0"}}, {"uniqueid": "w97473368:a32989821", "current_trial": 5, "dateTime": 1693663552927, "trialdata": {"view_history": [{"page_index": 0, "viewing_time": 17471}, {"page_index": 1, "viewing_time": 6081}], "rt": 23552, "trial_id": "mouselab_instructions_2_misaligned", "trial_type": "instructions", "trial_index": 5, "time_elapsed": 216604, "internal_node_id": "0.0-2.0-3.0"}}, {"uniqueid": "w97473368:a32989821", "current_trial": 6, "dateTime": 1693663599415, "trialdata": {"rt": 46486, "response": {"Q0": "The cost for clicking on nodes may vary between nodes.", "Q1": "The better I perform the higher my bonus will be.", "Q2": "No, the amount of cash at each node of the web may be different each time.", "Q3": "To get the highest total score.", "Q4": "Only before moving the spider.", "Q5": "10 seconds"}, "question_order": [0, 1, 2, 3, 4, 5], "correct": {"Q0": "The cost for clicking on nodes may vary between nodes.", "Q1": "The better I perform the higher my bonus will be.", "Q2": "No, the amount of cash at each node of the web may be different each time.", "Q3": "To get the highest total score.", "Q4": "Only before moving the spider.", "Q5": "3 seconds"}, "trial_id": "mouselab_quiz_misaligned", "trial_type": "survey-multi-choice", "trial_index": 6, "time_elapsed": 263092, "internal_node_id": "0.0-2.0-4.0"}}, {"uniqueid": "w97473368:a32989821", "current_trial": 7, "dateTime": 1693663606687, "trialdata": {"success": true, "trial_type": "fullscreen", "trial_index": 7, "time_elapsed": 270364, "internal_node_id": "0.0-2.1-0.1-0.1"}}, {"uniqueid": "w97473368:a32989821", "current_trial": 8, "dateTime": 1693663671201, "trialdata": {"view_history": [{"page_index": 0, "viewing_time": 10673}, {"page_index": 1, "viewing_time": 20547}, {"page_index": 2, "viewing_time": 6409}, {"page_index": 3, "viewing_time": 26884}], "rt": 64513, "trial_id": "mouselab_instructions_1_misaligned", "trial_type": "instructions", "trial_index": 8, "time_elapsed": 334877, "internal_node_id": "0.0-2.1-1.1"}}, {"uniqueid": "w97473368:a32989821", "current_trial": 9, "dateTime": 1693663702158, "trialdata": {"revealed_states": [], "clicked_states": ["23", "24", "25", "30", "32", "26", "27", "28", "29", "1", "2", "3", "4", "5"], "num_clicks_accrued": [0, 0, 0, 0, 0, 0, 0, 0, 0, 0, 0, 0, 0], "stateRewards": ["", -10, 10, 10, 10, 10, 10, 10, 10, 10, -10, -10, -10, 10, -10, -10, 10, 10, -10, -10, 10, 10, 10, -10, 10, -10, -10, -10, 10, 10, 10, -10, 10, 10], "withholdReward": false, "trial_id": "practice_1", "block": "test", "trialIndex": 2, "score": 26.5, "costs": -7, "simulationMode": [null, null, null, null, null], "rewards": [-10, 10, 10, 10, 10], "path": ["0", "0", "1", "2", "3", "4", "5"], "rt": [22537, 260, 198, 953, 270], "actions": ["up", "up", "up", "right", "up"], "actionTimes": [24175, 24934, 25622, 27078, 27847], "queries": {"click": {"state": {"target": ["23", "24", "25", "30", "32", "26", "27", "28", "29", "1", "2", "3", "4", "5"], "time": [2591, 4008, 5854, 7696, 8999, 10592, 11735, 13031, 14265, 15648, 16882, 18499, 19656, 20801]}, "edge": {"target": [], "time": []}}, "mouseover": {"state": {"target": ["23", "24", "25", "24", "25", "25", "30", "25", "30", "32", "26", "27", "28", "29", "29", "26", "1", "2", "3", "4", "5", "6", "0"], "time": [2333, 2867, 3418, 3718, 4285, 4603, 5203, 5637, 6221, 8323, 9857, 11076, 12193, 13445, 13811, 14662, 14946, 16364, 17315, 18917, 20218, 21419, 22637]}, "edge": {"target": [], "time": []}}, "mouseout": {"state": {"target": ["0", "23", "23", "24", "25", "24", "25", "25", "30", "25", "25", "30", "30", "32", "30", "25", "26", "27", "28", "26", "29", "29", "26", "28", "1", "2", "3", "4", "5", "6", "0", "0"], "time": [1415, 2685, 2817, 3335, 3685, 4269, 4336, 5136, 5620, 5972, 6187, 7789, 8072, 9591, 9708, 9774, 10958, 12160, 13344, 13411, 13478, 14646, 14696, 14762, 16231, 16990, 18867, 20118, 21336, 22303, 22770, 29594]}, "edge": {"target": [], "time": []}}}, "displayed_time": "28.34", "trialTime": 30815, "trial_type": "mouselab-mdp", "trial_index": 9, "time_elapsed": 365835, "internal_node_id": "0.0-2.1-2.1-0.1"}}, {"uniqueid": "w97473368:a32989821", "current_trial": 10, "dateTime": 1693663725450, "trialdata": {"revealed_states": [], "clicked_states": ["23", "24", "25", "30", "32", "33", "29", "26", "27", "28"], "num_clicks_accrued": [0, 0, 0, 0, 0, 0, 0, 0, 0, 0, 0, 0, 0], "stateRewards": ["", 10, -10, 10, -10, -10, -10, -10, -10, 10, 10, 10, 10, 10, 10, 10, -10, -10, -10, 10, 10, 10, 10, -10, 10, 10, 10, 10, 10, -10, -10, 10, -10, -10], "withholdReward": false, "trial_id": "practice_2", "block": "test", "trialIndex": 3, "score": 28.5, "costs": -5, "simulationMode": [null, null, null, null, null], "rewards": [-10, 10, 10, 10, 10], "path": ["0", "0", "23", "24", "25", "26", "27"], "rt": [15363, 247, 219, 126, 173], "actions": ["left", "left", "left", "up", "up"], "actionTimes": [17800, 18543, 19263, 19887, 20551], "queries": {"click": {"state": {"target": ["23", "24", "25", "30", "32", "33", "29", "26", "27", "28"], "time": [3232, 4848, 6145, 7385, 8665, 9737, 10873, 11914, 13258, 14986]}, "edge": {"target": [], "time": []}}, "mouseover": {"state": {"target": ["23", "24", "25", "24", "25", "30", "32", "33", "29", "26", "27", "28"], "time": [2843, 3477, 4261, 4528, 5146, 6564, 7782, 9117, 10334, 11385, 12336, 13888]}, "edge": {"target": [], "time": []}}, "mouseout": {"state": {"target": ["0", "23", "24", "25", "24", "25", "30", "32", "33", "29", "26", "27", "28", "28"], "time": [2342, 3444, 4178, 4495, 5096, 6480, 7715, 9016, 10184, 10975, 12270, 13687, 15120, 15790]}, "edge": {"target": [], "time": []}}}, "displayed_time": "21.05", "trialTime": 23152, "trial_type": "mouselab-mdp", "trial_index": 10, "time_elapsed": 389126, "internal_node_id": "0.0-2.1-2.1-1.1"}}, {"uniqueid": "w97473368:a32989821", "current_trial": 11, "dateTime": 1693663745828, "trialdata": {"view_history": [{"page_index": 0, "viewing_time": 17032}, {"page_index": 1, "viewing_time": 3344}], "rt": 20377, "trial_id": "mouselab_instructions_2_misaligned", "trial_type": "instructions", "trial_index": 11, "time_elapsed": 409505, "internal_node_id": "0.0-2.1-3.1"}}, {"uniqueid": "w97473368:a32989821", "current_trial": 12, "dateTime": 1693663855821, "trialdata": {"rt": 109992, "response": {"Q0": "The cost is always $2.", "Q1": "The better I perform the higher my bonus will be.", "Q2": "No, the amount of cash at each node of the web may be different each time.", "Q3": "To get the highest total score.", "Q4": "Only before moving the spider.", "Q5": "10 seconds"}, "question_order": [0, 1, 2, 3, 4, 5], "correct": {"Q0": "The cost for clicking on nodes may vary between nodes.", "Q1": "The better I perform the higher my bonus will be.", "Q2": "No, the amount of cash at each node of the web may be different each time.", "Q3": "To get the highest total score.", "Q4": "Only before moving the spider.", "Q5": "3 seconds"}, "trial_id": "mouselab_quiz_misaligned", "trial_type": "survey-multi-choice", "trial_index": 12, "time_elapsed": 519498, "internal_node_id": "0.0-2.1-4.1"}}, {"uniqueid": "w97473368:a32989821", "current_trial": 13, "dateTime": 1693663865341, "trialdata": {"success": true, "trial_type": "fullscreen", "trial_index": 13, "time_elapsed": 529018, "internal_node_id": "0.0-2.2-0.2-0.2"}}, {"uniqueid": "w97473368:a32989821", "current_trial": 14, "dateTime": 1693663927520, "trialdata": {"view_history": [{"page_index": 0, "viewing_time": 20426}, {"page_index": 1, "viewing_time": 28804}, {"page_index": 2, "viewing_time": 3881}, {"page_index": 3, "viewing_time": 9066}], "rt": 62178, "trial_id": "mouselab_instructions_1_misaligned", "trial_type": "instructions", "trial_index": 14, "time_elapsed": 591197, "internal_node_id": "0.0-2.2-1.2"}}, {"uniqueid": "w97473368:a32989821", "current_trial": 15, "dateTime": 1693663943714, "trialdata": {"revealed_states": [], "clicked_states": ["23", "24", "25", "30", "32"], "num_clicks_accrued": [0, 0, 0, 0, 0, 0, 0, 0, 0, 0, 0, 0, 0], "stateRewards": ["", -10, 10, 10, 10, 10, 10, 10, 10, 10, -10, -10, -10, 10, -10, -10, 10, 10, -10, -10, 10, 10, 10, -10, 10, -10, -10, -10, 10, 10, 10, -10, 10, 10], "withholdReward": false, "trial_id": "practice_1", "block": "test", "trialIndex": 4, "score": 11, "costs": -2.5, "simulationMode": [null, null, null, null, null], "rewards": [-10, 10, -10, 10, 10], "path": ["0", "0", "23", "24", "25", "30", "32"], "rt": [9403, 210, 157, 202, 141], "actions": ["left", "left", "left", "down", "down"], "actionTimes": [11018, 11730, 12394, 13090, 13730], "queries": {"click": {"state": {"target": ["23", "24", "25", "30", "32"], "time": [2661, 3956, 4972, 6389, 7678]}, "edge": {"target": [], "time": []}}, "mouseover": {"state": {"target": ["23", "24", "25", "24", "25", "30", "32"], "time": [2377, 2894, 3461, 3678, 4345, 5513, 6781]}, "edge": {"target": [], "time": []}}, "mouseout": {"state": {"target": ["0", "23", "24", "25", "24", "25", "30", "32"], "time": [1292, 2877, 3411, 3644, 4262, 5363, 6715, 7786]}, "edge": {"target": [], "time": []}}}, "displayed_time": "14.22", "trialTime": 16042, "trial_type": "mouselab-mdp", "trial_index": 15, "time_elapsed": 607391, "internal_node_id": "0.0-2.2-2.2-0.2"}}, {"uniqueid": "w97473368:a32989821", "current_trial": 16, "dateTime": 1693663967318, "trialdata": {"revealed_states": [], "clicked_states": ["23", "24", "25", "30", "32", "26", "29", "27", "28"], "num_clicks_accrued": [0, 0, 0, 0, 0, 0, 0, 0, 0, 0, 0, 0, 0], "stateRewards": ["", 10, -10, 10, -10, -10, -10, -10, -10, 10, 10, 10, 10, 10, 10, 10, -10, -10, -10, 10, 10, 10, 10, -10, 10, 10, 10, 10, 10, -10, -10, 10, -10, -10], "withholdReward": false, "trial_id": "practice_2", "block": "test", "trialIndex": 5, "score": 29, "costs": -4.5, "simulationMode": [null, null, null, null, null], "rewards": [-10, 10, 10, 10, 10], "path": ["0", "0", "23", "24", "25", "26", "27"], "rt": [15895, 196, 176, 109, 132], "actions": ["left", "left", "left", "up", "up"], "actionTimes": [18901, 19596, 20260, 20860, 21484], "queries": {"click": {"state": {"target": ["23", "24", "25", "30", "32", "26", "29", "27", "28"], "time": [3927, 5254, 6350, 7357, 10734, 11824, 13215, 14504, 15721]}, "edge": {"target": [], "time": []}}, "mouseover": {"state": {"target": ["23", "24", "24", "25", "30", "32", "32", "25", "26", "29", "27", "28", "26"], "time": [3483, 4301, 4901, 5602, 6769, 7837, 10173, 11191, 11257, 12225, 13960, 15361, 16713]}, "edge": {"target": [], "time": []}}, "mouseout": {"state": {"target": ["31", "0", "23", "23", "24", "24", "25", "30", "30", "32", "30", "25", "30", "32", "30", "25", "26", "29", "27", "28"], "time": [1731, 3403, 4019, 4251, 4734, 5536, 6703, 7483, 7771, 9639, 9706, 9940, 9973, 11107, 11157, 11207, 12192, 13324, 15012, 16596]}, "edge": {"target": [], "time": []}}}, "displayed_time": "21.99", "trialTime": 23468, "trial_type": "mouselab-mdp", "trial_index": 16, "time_elapsed": 630995, "internal_node_id": "0.0-2.2-2.2-1.2"}}, {"uniqueid": "w97473368:a32989821", "current_trial": 17, "dateTime": 1693663974551, "trialdata": {"view_history": [{"page_index": 0, "viewing_time": 4599}, {"page_index": 1, "viewing_time": 2632}], "rt": 7231, "trial_id": "mouselab_instructions_2_misaligned", "trial_type": "instructions", "trial_index": 17, "time_elapsed": 638228, "internal_node_id": "0.0-2.2-3.2"}}, {"uniqueid": "w97473368:a32989821", "current_trial": 18, "dateTime": 1693664006108, "trialdata": {"rt": 31556, "response": {"Q0": "The cost for clicking on nodes may vary between nodes.", "Q1": "The better I perform the higher my bonus will be.", "Q2": "No, the amount of cash at each node of the web may be different each time.", "Q3": "To get the highest total score.", "Q4": "Only before moving the spider.", "Q5": "10 seconds"}, "question_order": [0, 1, 2, 3, 4, 5], "correct": {"Q0": "The cost for clicking on nodes may vary between nodes.", "Q1": "The better I perform the higher my bonus will be.", "Q2": "No, the amount of cash at each node of the web may be different each time.", "Q3": "To get the highest total score.", "Q4": "Only before moving the spider.", "Q5": "3 seconds"}, "trial_id": "mouselab_quiz_misaligned", "trial_type": "survey-multi-choice", "trial_index": 18, "time_elapsed": 669785, "internal_node_id": "0.0-2.2-4.2"}}, {"uniqueid": "w97473368:a32989821", "current_trial": 19, "dateTime": 1693664013445, "trialdata": {"success": true, "trial_type": "fullscreen", "trial_index": 19, "time_elapsed": 677122, "internal_node_id": "0.0-2.3-0.3-0.3"}}, {"uniqueid": "w97473368:a32989821", "current_trial": 20, "dateTime": 1693664022789, "trialdata": {"view_history": [{"page_index": 0, "viewing_time": 4198}, {"page_index": 1, "viewing_time": 2649}, {"page_index": 2, "viewing_time": 1432}, {"page_index": 3, "viewing_time": 1064}], "rt": 9344, "trial_id": "mouselab_instructions_1_misaligned", "trial_type": "instructions", "trial_index": 20, "time_elapsed": 686466, "internal_node_id": "0.0-2.3-1.3"}}, {"uniqueid": "w97473368:a32989821", "current_trial": 21, "dateTime": 1693664037128, "trialdata": {"revealed_states": [], "clicked_states": ["23", "24", "25", "30", "32"], "num_clicks_accrued": [0, 0, 0, 0, 0, 0, 0, 0, 0, 0, 0, 0, 0], "stateRewards": ["", -10, 10, 10, 10, 10, 10, 10, 10, 10, -10, -10, -10, 10, -10, -10, 10, 10, -10, -10, 10, 10, 10, -10, 10, -10, -10, -10, 10, 10, 10, -10, 10, 10], "withholdReward": false, "trial_id": "practice_1", "block": "test", "trialIndex": 6, "score": 11, "costs": -2.5, "simulationMode": [null, null, null, null, null], "rewards": [-10, 10, -10, 10, 10], "path": ["0", "0", "23", "24", "25", "30", "32"], "rt": [8097, 139, 121, 112, 127], "actions": ["left", "left", "left", "down", "down"], "actionTimes": [9448, 10088, 10703, 11312, 11928], "queries": {"click": {"state": {"target": ["23", "24", "25", "30", "32"], "time": [2299, 3682, 5091, 6195, 7388]}, "edge": {"target": [], "time": []}}, "mouseover": {"state": {"target": ["0", "23", "24", "25", "30", "32"], "time": [1740, 2090, 2641, 3992, 5544, 6778]}, "edge": {"target": [], "time": []}}, "mouseout": {"state": {"target": ["0", "0", "23", "23", "24", "25", "30", "32"], "time": [1189, 1856, 2400, 2608, 3942, 5494, 6695, 7504]}, "edge": {"target": [], "time": []}}}, "displayed_time": "12.42", "trialTime": 14192, "trial_type": "mouselab-mdp", "trial_index": 21, "time_elapsed": 700805, "internal_node_id": "0.0-2.3-2.3-0.3"}}, {"uniqueid": "w97473368:a32989821", "current_trial": 22, "dateTime": 1693664052114, "trialdata": {"revealed_states": [], "clicked_states": ["23", "24", "25", "30", "32"], "num_clicks_accrued": [0, 0, 0, 0, 0, 0, 0, 0, 0, 0, 0, 0, 0], "stateRewards": ["", 10, -10, 10, -10, -10, -10, -10, -10, 10, 10, 10, 10, 10, 10, 10, -10, -10, -10, 10, 10, 10, 10, -10, 10, 10, 10, 10, 10, -10, -10, 10, -10, -10], "withholdReward": false, "trial_id": "practice_2", "block": "test", "trialIndex": 7, "score": -9, "costs": -2.5, "simulationMode": [null, null, null, null, null], "rewards": [-10, 10, 10, -10, -10], "path": ["0", "0", "23", "24", "25", "30", "32"], "rt": [8014, 145, 143, 84, 125], "actions": ["left", "left", "left", "down", "down"], "actionTimes": [10643, 11291, 11923, 12515, 13139], "queries": {"click": {"state": {"target": ["23", "24", "25", "30", "32"], "time": [4270, 5511, 6590, 7872, 9150]}, "edge": {"target": [], "time": []}}, "mouseover": {"state": {"target": ["23", "24", "25", "30", "32"], "time": [3804, 4639, 6107, 7158, 8476]}, "edge": {"target": [], "time": []}}, "mouseout": {"state": {"target": ["32", "23", "0", "23", "24", "24", "25", "30", "30", "32"], "time": [1886, 2204, 3537, 4605, 5619, 5957, 7074, 8044, 8278, 9300]}, "edge": {"target": [], "time": []}}}, "displayed_time": "13.63", "trialTime": 14843, "trial_type": "mouselab-mdp", "trial_index": 22, "time_elapsed": 715791, "internal_node_id": "0.0-2.3-2.3-1.3"}}, {"uniqueid": "w97473368:a32989821", "current_trial": 23, "dateTime": 1693664057298, "trialdata": {"view_history": [{"page_index": 0, "viewing_time": 3302}, {"page_index": 1, "viewing_time": 1880}], "rt": 5183, "trial_id": "mouselab_instructions_2_misaligned", "trial_type": "instructions", "trial_index": 23, "time_elapsed": 720975, "internal_node_id": "0.0-2.3-3.3"}}, {"uniqueid": "w97473368:a32989821", "current_trial": 24, "dateTime": 1693664100362, "trialdata": {"rt": 43061, "response": {"Q0": "The cost for clicking on nodes may vary between nodes.", "Q1": "The better I perform the higher my bonus will be.", "Q2": "No, the structure of the web will be different each time.", "Q3": "To get the highest total score.", "Q4": "Only before moving the spider.", "Q5": "10 seconds"}, "question_order": [0, 1, 2, 3, 4, 5], "correct": {"Q0": "The cost for clicking on nodes may vary between nodes.", "Q1": "The better I perform the higher my bonus will be.", "Q2": "No, the amount of cash at each node of the web may be different each time.", "Q3": "To get the highest total score.", "Q4": "Only before moving the spider.", "Q5": "3 seconds"}, "trial_id": "mouselab_quiz_misaligned", "trial_type": "survey-multi-choice", "trial_index": 24, "time_elapsed": 764039, "internal_node_id": "0.0-2.3-4.3"}}, {"uniqueid": "w97473368:a32989821", "current_trial": 25, "dateTime": 1693664120181, "trialdata": {"rt": 19814, "response": {"Q0": "", "Q1": "42", "Q2": "male", "Q3": "no", "Q4": ""}, "trial_id": "finish_fail", "trial_type": "survey-text", "trial_index": 25, "time_elapsed": 783858, "internal_node_id": "0.0-3.0-0.0"}}, {"uniqueid": "w97473368:a32989821", "current_trial": 26, "dateTime": 1693664154002, "trialdata": {"rt": 33819, "stimulus": "<h1>Completion Code Instructions (1/2)</h1>\n<br><br><br><br>\nYou have reached the end of the experiment! The completion code consists of two parts: (1) a code with 2 characters (2) a code with 6 characters. On this page, you will receive the second part of the code. The first part of the completion code will be on the next page.\n<br><br>\nThe second part of your completion code is: <b>AYIWIP</b>\n<br><br>\nPlease note this down. Then, press 'Next' in order to find the first part of your completion code. Once the data has been saved, you will receive this code either in this window or in the original browser window where you started the experiment.\n <br><br>\n<h2 style='color: red;'>Note: this is <strong>NOT</strong> the full completion code. Copy this down and click 'Next' to get the full completion code on the next page.</h2>", "response": 0, "trial_type": "html-button-response", "trial_index": 26, "time_elapsed": 817679, "internal_node_id": "0.0-3.0-1.0"}}, {"uniqueid": "w97473368:a32989821", "current_trial": 27, "dateTime": 1693664155005, "trialdata": {"success": true, "trial_type": "fullscreen", "trial_index": 27, "time_elapsed": 818682, "internal_node_id": "0.0-7.0"}}], "questiondata": {"params": {"CODE": "C6DMOQA6", "MIN_TIME": 14, "inspectCost": 1, "startTime": "Sat Sep 02 2023 15:02:15 GMT+0100 (British Summer Time)", "bonusRate": 0.002, "variance": "1_2_4_8_44", "branching": "31123"}, "final_score": 0}, "eventdata": [{"eventtype": "initialized", "value": null, "timestamp": 1693663334957, "interval": 0}, {"eventtype": "window_resize", "value": [1305, 942], "timestamp": 1693663334957, "interval": 0}, {"eventtype": "window_resize", "value": [1305, 942], "timestamp": 1693663335299, "interval": 342}, {"eventtype": "window_resize", "value": [1920, 957], "timestamp": 1693663337346, "interval": 2047}, {"eventtype": "window_resize", "value": [1920, 1080], "timestamp": 1693663339979, "interval": 2633}, {"eventtype": "focus", "value": "off", "timestamp": 1693663603424, "interval": 263445}, {"eventtype": "focus", "value": "on", "timestamp": 1693663603424, "interval": 0}, {"eventtype": "window_resize", "value": [1920, 957], "timestamp": 1693663603628, "interval": 204}, {"eventtype": "window_resize", "value": [1920, 1080], "timestamp": 1693663605895, "interval": 2267}, {"eventtype": "focus", "value": "off", "timestamp": 1693663862415, "interval": 256520}, {"eventtype": "focus", "value": "on", "timestamp": 1693663862415, "interval": 0}, {"eventtype": "window_resize", "value": [1920, 957], "timestamp": 1693663862620, "interval": 205}, {"eventtype": "window_resize", "value": [1920, 1080], "timestamp": 1693663864550, "interval": 1930}, {"eventtype": "focus", "value": "off", "timestamp": 1693664010797, "interval": 146247}, {"eventtype": "focus", "value": "on", "timestamp": 1693664010797, "interval": 0}, {"eventtype": "window_resize", "value": [1920, 957], "timestamp": 1693664011002, "interval": 205}, {"eventtype": "window_resize", "value": [1920, 1080], "timestamp": 1693664012653, "interval": 1651}, {"eventtype": "window_resize", "value": [1920, 957], "timestamp": 1693664154221, "interval": 141568}], "useragent": "Mozilla/5.0 (Windows NT 10.0; Win64; x64) AppleWebKit/537.36 (KHTML, like Gecko) Chrome/116.0.0.0 Safari/537.36", "mode": "live", "id": "w97473368:a32989821", "status": "user data saved", "Beginhit": "2023-09-02 14:02:15.049558", "Beginexp": "2023-09-02 14:02:22.379875", "Endhit": "2023-09-02 14:15:57.192683", "psiturkStatus": 3, "browser": "<redacted>", "platform": "windows", "language": "en-GB", "excludeReason": "quizfail"}