{"condition": 1, "counterbalance": 0, "assignmentId": "a70266113", "workerId": "w31647799", "hitId": "h13989183", "currenttrial": 62, "bonus": 0, "data": [{"uniqueid": "w31647799:a70266113", "current_trial": 0, "dateTime": 1693660305288, "trialdata": {"success": true, "trial_type": "fullscreen", "trial_index": 0, "time_elapsed": 4326, "internal_node_id": "0.0-0.0"}}, {"uniqueid": "w31647799:a70266113", "current_trial": 1, "dateTime": 1693660319810, "trialdata": {"view_history": [{"page_index": 0, "viewing_time": 14519}], "rt": 14519, "trial_id": "exp_instructions_misaligned", "trial_type": "instructions", "trial_index": 1, "time_elapsed": 18848, "internal_node_id": "0.0-1.0"}}, {"uniqueid": "w31647799:a70266113", "current_trial": 2, "dateTime": 1693660662390, "trialdata": {"view_history": [{"page_index": 0, "viewing_time": 174507}, {"page_index": 1, "viewing_time": 103844}, {"page_index": 2, "viewing_time": 26798}, {"page_index": 3, "viewing_time": 37430}], "rt": 342579, "trial_id": "mouselab_instructions_1_misaligned", "trial_type": "instructions", "trial_index": 2, "time_elapsed": 361428, "internal_node_id": "0.0-2.0-1.0"}}, {"uniqueid": "w31647799:a70266113", "current_trial": 3, "dateTime": 1693660779272, "trialdata": {"revealed_states": [], "clicked_states": ["2", "10", "8", "9", "11", "3", "6", "5", "27", "12", "13", "14", "19", "21", "20", "22", "15", "17", "16", "1"], "num_clicks_accrued": [0, 0, 0, 0, 0, 0, 0, 0, 0, 0, 0, 0, 0], "stateRewards": ["", -10, 10, -10, -10, 10, 10, -10, -10, -10, 10, -10, 10, -10, -10, -10, -10, -10, -10, -10, -10, -10, -10, 10, 10, -10, -10, -10, 10, 10, -10, 10, 10, -10], "withholdReward": false, "trial_id": "practice_1", "block": "test", "trialIndex": 0, "score": -16.5, "costs": -10, "simulationMode": [null, null, null, null, null], "rewards": [-10, 10, -10, -10, 10], "path": ["0", "0", "1", "2", "3", "4", "6"], "rt": [96847, 876, 821, 668, 304], "actions": ["up", "up", "up", "right", "right"], "actionTimes": [102931, 104316, 105627, 106790, 107607], "queries": {"click": {"state": {"target": ["2", "10", "8", "9", "11", "3", "6", "5", "27", "12", "13", "14", "19", "21", "20", "22", "15", "17", "16", "1"], "time": [9912, 16170, 19072, 20323, 27629, 36085, 37934, 42808, 50201, 54977, 56998, 60377, 63102, 64399, 66099, 67838, 71413, 72867, 74859, 81106]}, "edge": {"target": [], "time": []}}, "mouseover": {"state": {"target": ["1", "2", "1", "2", "2", "3", "8", "10", "8", "9", "5", "3", "10", "11", "8", "10", "10", "8", "3", "5", "3", "3", "4", "6", "5", "5", "4", "7", "7", "18", "1", "2", "1", "28", "27", "29", "26", "1", "0", "12", "12", "13", "14", "19", "21", "20", "22", "13", "15", "17", "16", "12", "7", "0", "23", "1", "7", "2", "1", "0", "1", "1", "2", "2", "1", "12"], "time": [7530, 8065, 8431, 9381, 14294, 14429, 15377, 15628, 17178, 19809, 22143, 25890, 25991, 27240, 29222, 30538, 31137, 31371, 32104, 32737, 33782, 34979, 37219, 37567, 39234, 42349, 43783, 43866, 45144, 46264, 47681, 47864, 48714, 49295, 49513, 51379, 51945, 53161, 53961, 54060, 54661, 55660, 60075, 62490, 63990, 65739, 67437, 68820, 70886, 72518, 74501, 75768, 77267, 78067, 78650, 78800, 78982, 79432, 80732, 85180, 88428, 89078, 91127, 94928, 94943, 96642]}, "edge": {"target": [], "time": []}}, "mouseout": {"state": {"target": ["4", "7", "1", "2", "1", "2", "2", "2", "3", "8", "10", "8", "9", "5", "3", "10", "11", "11", "8", "10", "10", "8", "3", "5", "3", "3", "4", "6", "5", "6", "5", "4", "7", "7", "18", "1", "2", "1", "28", "27", "29", "26", "1", "0", "12", "12", "13", "12", "13", "14", "19", "21", "21", "19", "20", "19", "22", "13", "15", "17", "16", "12", "7", "0", "23", "1", "7", "2", "1", "1", "1", "0", "1", "1", "2", "2", "1", "12"], "time": [4866, 5150, 7881, 8330, 9297, 12129, 12912, 14311, 15127, 15528, 16910, 19659, 22008, 25824, 25940, 26006, 27842, 28972, 29672, 30588, 31221, 31687, 32120, 33337, 34721, 36668, 37469, 38884, 40217, 42116, 43750, 43815, 43949, 45198, 46713, 47746, 48629, 48845, 49329, 50980, 51895, 52011, 53678, 53993, 54195, 55510, 57525, 59591, 59941, 61257, 63756, 64612, 65140, 65471, 66772, 67305, 68504, 68838, 72286, 73636, 75534, 77101, 77733, 78083, 78666, 78967, 79366, 80682, 81716, 83914, 85013, 85663, 88479, 90879, 91427, 94941, 94959, 96741]}, "edge": {"target": [], "time": []}}}, "displayed_time": "108.12", "trialTime": 116262, "trial_type": "mouselab-mdp", "trial_index": 3, "time_elapsed": 478310, "internal_node_id": "0.0-2.0-2.0-0.0"}}, {"uniqueid": "w31647799:a70266113", "current_trial": 4, "dateTime": 1693660812573, "trialdata": {"revealed_states": [], "clicked_states": ["2", "3", "4", "6", "5", "9"], "num_clicks_accrued": [0, 0, 0, 0, 0, 0, 0, 0, 0, 0, 0, 0, 0], "stateRewards": ["", 10, -10, -10, -10, -10, -10, 10, 10, 10, 10, 10, 10, 10, -10, 10, -10, 10, 10, -10, -10, -10, 10, 10, -10, 10, -10, 10, 10, 10, 10, -10, -10, 10], "withholdReward": false, "trial_id": "practice_2", "block": "test", "trialIndex": 1, "score": 10.5, "costs": -3, "simulationMode": [null, null, null, null, null], "rewards": [10, -10, -10, 10, 10], "path": ["0", "0", "1", "2", "3", "8", "9"], "rt": [20704, 5, 25, 357, 328], "actions": ["up", "up", "up", "left", "up"], "actionTimes": [23523, 24041, 24594, 25459, 26295], "queries": {"click": {"state": {"target": ["2", "3", "4", "6", "5", "9"], "time": [4563, 7455, 8688, 11789, 13682, 16268]}, "edge": {"target": [], "time": []}}, "mouseover": {"state": {"target": ["1", "2", "3", "4", "6", "5", "8", "9", "8", "10"], "time": [3710, 4126, 5842, 8175, 9607, 12789, 15571, 15854, 17038, 17155]}, "edge": {"target": [], "time": []}}, "mouseout": {"state": {"target": ["0", "1", "2", "3", "4", "6", "5", "8", "9", "8", "10", "0", "10", "10", "2", "1", "0"], "time": [3526, 3976, 5559, 7991, 9425, 12555, 14572, 15671, 17004, 17105, 17189, 30731, 30897, 31632, 31816, 31864, 31914]}, "edge": {"target": [], "time": []}}}, "displayed_time": "26.80", "trialTime": 33159, "trial_type": "mouselab-mdp", "trial_index": 4, "time_elapsed": 511611, "internal_node_id": "0.0-2.0-2.0-1.0"}}, {"uniqueid": "w31647799:a70266113", "current_trial": 5, "dateTime": 1693660837382, "trialdata": {"view_history": [{"page_index": 0, "viewing_time": 17582}, {"page_index": 1, "viewing_time": 7224}], "rt": 24807, "trial_id": "mouselab_instructions_2_misaligned", "trial_type": "instructions", "trial_index": 5, "time_elapsed": 536420, "internal_node_id": "0.0-2.0-3.0"}}, {"uniqueid": "w31647799:a70266113", "current_trial": 6, "dateTime": 1693660930423, "trialdata": {"rt": 93036, "response": {"Q0": "There is no cost for clicking on nodes.", "Q1": "The better I perform the higher my bonus will be.", "Q2": "Yes.", "Q3": "To get the highest total score.", "Q4": "Only before moving the spider.", "Q5": "10 seconds"}, "question_order": [0, 1, 2, 3, 4, 5], "correct": {"Q0": "The cost for clicking on nodes may vary between nodes.", "Q1": "The better I perform the higher my bonus will be.", "Q2": "No, the amount of cash at each node of the web may be different each time.", "Q3": "To get the highest total score.", "Q4": "Only before moving the spider.", "Q5": "3 seconds"}, "trial_id": "mouselab_quiz_misaligned", "trial_type": "survey-multi-choice", "trial_index": 6, "time_elapsed": 629461, "internal_node_id": "0.0-2.0-4.0"}}, {"uniqueid": "w31647799:a70266113", "current_trial": 7, "dateTime": 1693660940555, "trialdata": {"success": true, "trial_type": "fullscreen", "trial_index": 7, "time_elapsed": 639593, "internal_node_id": "0.0-2.1-0.1-0.1"}}, {"uniqueid": "w31647799:a70266113", "current_trial": 8, "dateTime": 1693661022160, "trialdata": {"view_history": [{"page_index": 0, "viewing_time": 24522}, {"page_index": 1, "viewing_time": 52969}, {"page_index": 2, "viewing_time": 1511}, {"page_index": 3, "viewing_time": 2601}], "rt": 81604, "trial_id": "mouselab_instructions_1_misaligned", "trial_type": "instructions", "trial_index": 8, "time_elapsed": 721198, "internal_node_id": "0.0-2.1-1.1"}}, {"uniqueid": "w31647799:a70266113", "current_trial": 9, "dateTime": 1693661050652, "trialdata": {"revealed_states": [], "clicked_states": ["1", "3", "9", "11", "5"], "num_clicks_accrued": [0, 0, 0, 0, 0, 0, 0, 0, 0, 0, 0, 0, 0], "stateRewards": ["", -10, 10, -10, -10, 10, 10, -10, -10, -10, 10, -10, 10, -10, -10, -10, -10, -10, -10, -10, -10, -10, -10, 10, 10, -10, -10, -10, 10, 10, -10, 10, 10, -10], "withholdReward": false, "trial_id": "practice_1", "block": "test", "trialIndex": 2, "score": -9, "costs": -2.5, "simulationMode": [null, null, null, null, null], "rewards": [-10, 10, -10, -10, 10], "path": ["0", "0", "1", "2", "3", "4", "5"], "rt": [12642, 55, 305, 793, 818], "actions": ["up", "up", "up", "right", "up"], "actionTimes": [16157, 16721, 17553, 18858, 20182], "queries": {"click": {"state": {"target": ["1", "3", "9", "11", "5"], "time": [4662, 6244, 7992, 10676, 12022]}, "edge": {"target": [], "time": []}}, "mouseover": {"state": {"target": ["1", "2", "3", "8", "9", "11", "8", "5"], "time": [4287, 5120, 5936, 6818, 7735, 8984, 11220, 11716]}, "edge": {"target": [], "time": []}}, "mouseout": {"state": {"target": ["12", "0", "1", "2", "3", "8", "9", "11", "8"], "time": [2654, 3136, 4876, 5819, 6735, 7652, 8601, 11217, 11250]}, "edge": {"target": [], "time": []}}}, "displayed_time": "20.70", "trialTime": 28341, "trial_type": "mouselab-mdp", "trial_index": 9, "time_elapsed": 749690, "internal_node_id": "0.0-2.1-2.1-0.1"}}, {"uniqueid": "w31647799:a70266113", "current_trial": 10, "dateTime": 1693661071862, "trialdata": {"revealed_states": [], "clicked_states": ["2", "5", "4"], "num_clicks_accrued": [0, 0, 0, 0, 0, 0, 0, 0, 0, 0, 0, 0, 0], "stateRewards": ["", 10, -10, -10, -10, -10, -10, 10, 10, 10, 10, 10, 10, 10, -10, 10, -10, 10, 10, -10, -10, -10, 10, 10, -10, 10, -10, 10, 10, 10, 10, -10, -10, 10], "withholdReward": false, "trial_id": "practice_2", "block": "test", "trialIndex": 3, "score": -28, "costs": -1.5, "simulationMode": [null, null, null, null, null], "rewards": [10, -10, -10, -10, -10], "path": ["0", "0", "1", "2", "3", "4", "5"], "rt": [11944, 323, 175, 820, 499], "actions": ["up", "up", "up", "right", "up"], "actionTimes": [14597, 15440, 16124, 17452, 18463], "queries": {"click": {"state": {"target": ["2", "5", "4"], "time": [4261, 5665, 7207]}, "edge": {"target": [], "time": []}}, "mouseover": {"state": {"target": ["1", "2", "5", "4"], "time": [3603, 3836, 5337, 6072]}, "edge": {"target": [], "time": []}}, "mouseout": {"state": {"target": ["5", "2", "1", "1", "2", "5"], "time": [1674, 1755, 1820, 3753, 4903, 6071]}, "edge": {"target": [], "time": []}}}, "displayed_time": "18.98", "trialTime": 21064, "trial_type": "mouselab-mdp", "trial_index": 10, "time_elapsed": 770900, "internal_node_id": "0.0-2.1-2.1-1.1"}}, {"uniqueid": "w31647799:a70266113", "current_trial": 11, "dateTime": 1693661077846, "trialdata": {"view_history": [{"page_index": 0, "viewing_time": 4930}, {"page_index": 1, "viewing_time": 1052}], "rt": 5982, "trial_id": "mouselab_instructions_2_misaligned", "trial_type": "instructions", "trial_index": 11, "time_elapsed": 776884, "internal_node_id": "0.0-2.1-3.1"}}, {"uniqueid": "w31647799:a70266113", "current_trial": 12, "dateTime": 1693661120015, "trialdata": {"rt": 42167, "response": {"Q0": "The cost for clicking on nodes may vary between nodes.", "Q1": "The better I perform the higher my bonus will be.", "Q2": "No, the amount of cash at each node of the web may be different each time.", "Q3": "To get the highest total score.", "Q4": "Only before moving the spider.", "Q5": "3 seconds"}, "question_order": [0, 1, 2, 3, 4, 5], "correct": {"Q0": "The cost for clicking on nodes may vary between nodes.", "Q1": "The better I perform the higher my bonus will be.", "Q2": "No, the amount of cash at each node of the web may be different each time.", "Q3": "To get the highest total score.", "Q4": "Only before moving the spider.", "Q5": "3 seconds"}, "trial_id": "mouselab_quiz_misaligned", "trial_type": "survey-multi-choice", "trial_index": 12, "time_elapsed": 819053, "internal_node_id": "0.0-2.1-4.1"}}, {"uniqueid": "w31647799:a70266113", "current_trial": 13, "dateTime": 1693661143128, "trialdata": {"rt": 23108, "response": {"Q0": "No"}, "question_order": [0], "trial_id": "repeat_check", "trial_type": "survey-multi-choice", "trial_index": 13, "time_elapsed": 842166, "internal_node_id": "0.0-4.0-0.0"}}, {"uniqueid": "w31647799:a70266113", "current_trial": 14, "dateTime": 1693661151598, "trialdata": {"rt": 8465, "stimulus": "\n<h1> Get ready to start the game! </h1>\n\nThank you for reading the instructions. Get ready start with the 40 rounds of this game.\n<br><br>\nIf you need to take a break, feel free to take one after the end of a round, before continuing to the next one.\n<br><br>\nRemember, the more money the spider gets, the bigger your bonus will be!\n<br><br>\n<div style='text-align: center;'>Press <code>space</code> to begin.</div>\n\n<br><br>\n(If, at any point, the <code>space</code> key does not take you to the next page, click once on the text and try again.)", "response": " ", "trial_id": "mdp_ready", "trial_type": "html-keyboard-response", "trial_index": 14, "time_elapsed": 850636, "internal_node_id": "0.0-6.0-0.0"}}, {"uniqueid": "w31647799:a70266113", "current_trial": 15, "dateTime": 1693661175206, "trialdata": {"revealed_states": [], "clicked_states": [], "num_clicks_accrued": [0, 0, 0, 0, 0, 0, 0, 0, 0, 0, 0, 0, 0], "stateRewards": ["", -1, 2, -6, 6, -82, -19, -39, -16, -83, 11, -33, -2, -2, 4, -6, -82, -1, -19, -6, -10, -67, -41, -2, 1, -7, 16, -23, -78, -52, 14, 31, -71, 74], "withholdReward": false, "trial_id": "mdp_trial_1", "block": "test", "trialIndex": 4, "score": -104, "costs": 0, "simulationMode": [null, null, null, null, null], "rewards": [-1, 2, -6, -16, -83], "path": ["0", "0", "1", "2", "3", "8", "9"], "rt": [6854, 764, 455, 276, 432], "actions": ["up", "up", "up", "left", "up"], "actionTimes": [10383, 11659, 12632, 13420, 14359], "queries": {"click": {"state": {"target": [], "time": []}, "edge": {"target": [], "time": []}}, "mouseover": {"state": {"target": [], "time": []}, "edge": {"target": [], "time": []}}, "mouseout": {"state": {"target": ["4", "2", "2", "4", "7", "0"], "time": [1365, 1397, 1514, 1763, 1796, 2497]}, "edge": {"target": [], "time": []}}}, "displayed_time": "17.53", "trialTime": 23447, "trial_type": "mouselab-mdp", "trial_index": 15, "time_elapsed": 874244, "internal_node_id": "0.0-6.0-1.0-0.0"}}, {"uniqueid": "w31647799:a70266113", "current_trial": 16, "dateTime": 1693661209691, "trialdata": {"revealed_states": [], "clicked_states": [], "num_clicks_accrued": [0, 0, 0, 0, 0, 0, 0, 0, 0, 0, 0, 0, 0], "stateRewards": ["", 2, 3, 3, 10, 19, -21, 6, 9, 54, 68, 16, 2, 2, -6, -8, 40, -2, -75, -2, -42, 55, 59, -1, 2, 4, -14, 11, -34, -30, -6, 61, -53, 13], "withholdReward": false, "trial_id": "mdp_trial_2", "block": "test", "trialIndex": 5, "score": -3, "costs": 0, "simulationMode": [null, null, null, null, null], "rewards": [2, 3, 3, 10, -21], "path": ["0", "0", "1", "2", "3", "4", "6"], "rt": [13582, 613, 1308, 764, 539], "actions": ["up", "up", "up", "right", "right"], "actionTimes": [24966, 26088, 27914, 29186, 30244], "queries": {"click": {"state": {"target": [], "time": []}, "edge": {"target": [], "time": []}}, "mouseover": {"state": {"target": ["1", "2", "2", "3", "2", "1"], "time": [15761, 15860, 16394, 18147, 21857, 21957]}, "edge": {"target": [], "time": []}}, "mouseout": {"state": {"target": ["0", "0", "0", "1", "2", "2", "3", "2"], "time": [3697, 4889, 15527, 15844, 15960, 17543, 21825, 21942]}, "edge": {"target": [], "time": []}}}, "displayed_time": "30.75", "trialTime": 34312, "trial_type": "mouselab-mdp", "trial_index": 16, "time_elapsed": 908729, "internal_node_id": "0.0-6.0-1.0-1.0"}}, {"uniqueid": "w31647799:a70266113", "current_trial": 17, "dateTime": 1693661235045, "trialdata": {"revealed_states": [], "clicked_states": ["2", "3", "8", "9", "5"], "num_clicks_accrued": [0, 0, 0, 0, 0, 0, 0, 0, 0, 0, 0, 0, 0], "stateRewards": ["", -2, 1, 6, -2, -10, -78, -69, 14, -15, 7, -1, 1, -1, -2, 13, 77, 32, 87, 5, -74, 30, -26, 1, 3, 4, 12, 39, 54, -43, 2, 10, 23, 13], "withholdReward": false, "trial_id": "mdp_trial_3", "block": "test", "trialIndex": 6, "score": -3.1500000000000004, "costs": -7.15, "simulationMode": [null, null, null, null, null], "rewards": [-2, 1, 6, 14, -15], "path": ["0", "0", "1", "2", "3", "8", "9"], "rt": [16548, 230, 194, 981, 2514], "actions": ["up", "up", "up", "left", "up"], "actionTimes": [18584, 19326, 20038, 21525, 24557], "queries": {"click": {"state": {"target": ["2", "3", "8", "9", "5"], "time": [3991, 5162, 6235, 7497, 10320]}, "edge": {"target": [], "time": []}}, "mouseover": {"state": {"target": ["1", "2", "3", "8", "9", "11", "8", "3", "5", "4", "7"], "time": [2634, 2952, 4785, 5633, 7166, 8299, 9414, 9582, 9815, 11313, 12563]}, "edge": {"target": [], "time": []}}, "mouseout": {"state": {"target": ["1", "1", "2", "3", "8", "9", "11", "8", "3", "5", "5", "4", "7"], "time": [1334, 2785, 4600, 5567, 6448, 8016, 9383, 9532, 9632, 10534, 11131, 12431, 13713]}, "edge": {"target": [], "time": []}}}, "displayed_time": "25.07", "trialTime": 25183, "trial_type": "mouselab-mdp", "trial_index": 17, "time_elapsed": 934083, "internal_node_id": "0.0-6.0-1.0-2.0"}}, {"uniqueid": "w31647799:a70266113", "current_trial": 18, "dateTime": 1693661254285, "trialdata": {"revealed_states": [], "clicked_states": [], "num_clicks_accrued": [0, 0, 0, 0, 0, 0, 0, 0, 0, 0, 0, 0, 0], "stateRewards": ["", 1, -1, 4, -2, -75, -75, 84, -9, -60, -79, 59, 2, -4, 8, 9, -17, -82, 80, 14, -4, 49, 49, -1, 3, 6, -11, -33, 34, 55, 9, -57, 5, 59], "withholdReward": false, "trial_id": "mdp_trial_4", "block": "test", "trialIndex": 7, "score": -65, "costs": 0, "simulationMode": [null, null, null, null, null], "rewards": [1, -1, 4, -9, -60], "path": ["0", "0", "1", "2", "3", "8", "9"], "rt": [10767, 704, 506, 453, 995], "actions": ["up", "up", "up", "left", "up"], "actionTimes": [13404, 14621, 15639, 16602, 18110], "queries": {"click": {"state": {"target": [], "time": []}, "edge": {"target": [], "time": []}}, "mouseover": {"state": {"target": ["1", "23", "24", "1", "1"], "time": [3904, 7135, 9734, 12451, 12686]}, "edge": {"target": [], "time": []}}, "mouseout": {"state": {"target": ["0", "0", "1", "23", "24", "1"], "time": [1672, 3787, 6836, 9385, 12033, 12516]}, "edge": {"target": [], "time": []}}}, "displayed_time": "18.62", "trialTime": 19071, "trial_type": "mouselab-mdp", "trial_index": 18, "time_elapsed": 953323, "internal_node_id": "0.0-6.0-1.0-3.0"}}, {"uniqueid": "w31647799:a70266113", "current_trial": 19, "dateTime": 1693661295186, "trialdata": {"revealed_states": [], "clicked_states": ["1", "2", "3", "8", "11", "10", "7", "18", "23", "24", "25", "26", "28"], "num_clicks_accrued": [0, 0, 0, 0, 0, 0, 0, 0, 0, 0, 0, 0, 0], "stateRewards": ["", 1, 2, 2, -15, -84, 28, -26, 13, 31, 86, 30, -2, 1, -1, -8, 66, -40, -1, -10, -32, 57, -17, 1, 2, -2, 9, -23, 77, 85, 12, -32, -62, -35], "withholdReward": false, "trial_id": "mdp_trial_5", "block": "test", "trialIndex": 8, "score": 88.05, "costs": -15.950000000000001, "simulationMode": [null, null, null, null, null], "rewards": [1, 2, 2, 13, 86], "path": ["0", "0", "1", "2", "3", "8", "10"], "rt": [31419, 89, 507, 159, 1036], "actions": ["up", "up", "up", "left", "down"], "actionTimes": [33320, 33922, 34940, 35607, 37152], "queries": {"click": {"state": {"target": ["1", "2", "3", "8", "11", "10", "7", "18", "23", "24", "25", "26", "28"], "time": [3265, 4933, 5876, 6683, 7693, 10934, 14163, 19168, 24584, 26069, 27234, 28254, 29655]}, "edge": {"target": [], "time": []}}, "mouseover": {"state": {"target": ["1", "2", "2", "3", "8", "11", "9", "9", "8", "10", "2", "1", "7", "6", "4", "3", "3", "2", "18", "1", "1", "1", "1", "28", "26", "24", "23", "24", "25", "26", "28"], "time": [2862, 4113, 4711, 5444, 6395, 7443, 8393, 8960, 9743, 10126, 11726, 12591, 13857, 14773, 16006, 16356, 17151, 17955, 18789, 19923, 20588, 21738, 23420, 23521, 23569, 23919, 24085, 25768, 26969, 27969, 29401]}, "edge": {"target": [], "time": []}}, "mouseout": {"state": {"target": ["1", "1", "2", "2", "3", "8", "11", "9", "9", "8", "10", "2", "1", "7", "6", "4", "3", "3", "2", "18", "1", "1", "1", "1", "28", "26", "24", "23", "24", "24", "25", "26"], "time": [1112, 3646, 4178, 5147, 6311, 7293, 8160, 8494, 9676, 9777, 11692, 12508, 13508, 14524, 15956, 16206, 16490, 17922, 17989, 19840, 20138, 21371, 23186, 23453, 23553, 23904, 24036, 25303, 26283, 26801, 27868, 28601]}, "edge": {"target": [], "time": []}}}, "displayed_time": "37.66", "trialTime": 40722, "trial_type": "mouselab-mdp", "trial_index": 19, "time_elapsed": 994223, "internal_node_id": "0.0-6.0-1.0-4.0"}}, {"uniqueid": "w31647799:a70266113", "current_trial": 20, "dateTime": 1693661330909, "trialdata": {"revealed_states": [], "clicked_states": ["1", "2", "3", "8", "10", "9", "7", "23", "24", "25", "26", "28", "30"], "num_clicks_accrued": [0, 0, 0, 0, 0, 0, 0, 0, 0, 0, 0, 0, 0], "stateRewards": ["", -1, 1, -5, -6, -78, 47, -13, 12, 48, -88, 20, 2, -3, -2, 13, -20, 37, -57, 14, -38, 30, 31, -2, -2, 8, 2, -23, 78, 28, 12, -74, -88, 8], "withholdReward": false, "trial_id": "mdp_trial_6", "block": "test", "trialIndex": 9, "score": 68.65, "costs": -15.350000000000001, "simulationMode": [null, null, null, null, null], "rewards": [-2, -2, 8, 2, 78], "path": ["0", "0", "23", "24", "25", "26", "28"], "rt": [27289, 411, 340, 812, 511], "actions": ["left", "left", "left", "up", "right"], "actionTimes": [29054, 29977, 30821, 32143, 33158], "queries": {"click": {"state": {"target": ["1", "2", "3", "8", "10", "9", "7", "23", "24", "25", "26", "28", "30"], "time": [2824, 3749, 4659, 5564, 6691, 9748, 12549, 15315, 16252, 18039, 19232, 20320, 23926]}, "edge": {"target": [], "time": []}}, "mouseover": {"state": {"target": ["1", "2", "3", "8", "10", "11", "9", "4", "7", "2", "28", "28", "23", "24", "25", "26", "28", "29", "25", "30", "31"], "time": [2459, 3425, 4326, 5224, 6008, 7441, 9289, 10672, 11838, 13073, 13304, 13604, 13938, 15937, 17669, 18968, 19917, 21467, 23099, 23484, 24900]}, "edge": {"target": [], "time": []}}, "mouseout": {"state": {"target": ["28", "23", "1", "2", "3", "8", "10", "11", "9", "4", "7", "2", "28", "28", "23", "23", "24", "25", "26", "28", "29", "25", "30", "31"], "time": [876, 1092, 3275, 4225, 5043, 5925, 6905, 9139, 10372, 11721, 13071, 13089, 13421, 13804, 15342, 15770, 17485, 18718, 19868, 21100, 23050, 23316, 24733, 24965]}, "edge": {"target": [], "time": []}}}, "displayed_time": "33.65", "trialTime": 35543, "trial_type": "mouselab-mdp", "trial_index": 20, "time_elapsed": 1029947, "internal_node_id": "0.0-6.0-1.0-5.0"}}, {"uniqueid": "w31647799:a70266113", "current_trial": 21, "dateTime": 1693661359052, "trialdata": {"revealed_states": [], "clicked_states": ["1", "2", "3", "4", "6", "8", "11", "9"], "num_clicks_accrued": [0, 0, 0, 0, 0, 0, 0, 0, 0, 0, 0, 0, 0], "stateRewards": ["", 2, -2, 7, -11, -76, -65, -23, 16, -58, 30, 81, 1, 2, 7, 14, 9, 55, -2, 6, 11, -15, 31, -1, -1, -3, 2, 15, 2, 46, 15, 18, 45, -34], "withholdReward": false, "trial_id": "mdp_trial_7", "block": "test", "trialIndex": 10, "score": 93.4, "costs": -10.6, "simulationMode": [null, null, null, null, null], "rewards": [2, -2, 7, 16, 81], "path": ["0", "0", "1", "2", "3", "8", "11"], "rt": [19330, 479, 112, 313, 40], "actions": ["up", "up", "up", "left", "left"], "actionTimes": [22970, 23980, 24628, 25446, 26005], "queries": {"click": {"state": {"target": ["1", "2", "3", "4", "6", "8", "11", "9"], "time": [6197, 7191, 8285, 9375, 10638, 13887, 15120, 18185]}, "edge": {"target": [], "time": []}}, "mouseover": {"state": {"target": ["1", "2", "3", "4", "6", "7", "5", "8", "11", "10", "9", "8", "28", "26"], "time": [4508, 6807, 7856, 9006, 10338, 11172, 12354, 13554, 14786, 15836, 16852, 18535, 18901, 19018]}, "edge": {"target": [], "time": []}}, "mouseout": {"state": {"target": ["23", "1", "2", "3", "4", "6", "7", "4", "5", "8", "11", "10", "8", "9", "8", "28"], "time": [2158, 6690, 7739, 8907, 10022, 11021, 12255, 12270, 13137, 14603, 15570, 16651, 16702, 18517, 18568, 18935]}, "edge": {"target": [], "time": []}}}, "displayed_time": "26.53", "trialTime": 27968, "trial_type": "mouselab-mdp", "trial_index": 21, "time_elapsed": 1058089, "internal_node_id": "0.0-6.0-1.0-6.0"}}, {"uniqueid": "w31647799:a70266113", "current_trial": 22, "dateTime": 1693661393191, "trialdata": {"revealed_states": [], "clicked_states": ["1", "2", "3", "8", "11", "4", "6", "5", "24", "25", "26", "28"], "num_clicks_accrued": [0, 0, 0, 0, 0, 0, 0, 0, 0, 0, 0, 0, 0], "stateRewards": ["", -2, -1, 3, -3, 71, -58, -21, 7, -10, -75, -37, 2, 4, -1, -12, -79, -29, -48, 3, -41, -10, -30, -1, -2, 1, -15, 13, 66, 22, -1, -42, -86, -55], "withholdReward": false, "trial_id": "mdp_trial_8", "block": "test", "trialIndex": 11, "score": 52.4, "costs": -15.6, "simulationMode": [null, null, null, null, null], "rewards": [-2, -1, 3, -3, 71], "path": ["0", "0", "1", "2", "3", "4", "5"], "rt": [24734, 574, 432, 624, 815], "actions": ["up", "up", "up", "right", "up"], "actionTimes": [26863, 27947, 28886, 30028, 31352], "queries": {"click": {"state": {"target": ["1", "2", "3", "8", "11", "4", "6", "5", "24", "25", "26", "28"], "time": [3636, 4531, 5469, 6308, 7168, 10325, 11261, 14561, 17553, 19424, 20686, 21612]}, "edge": {"target": [], "time": []}}, "mouseover": {"state": {"target": ["1", "2", "3", "8", "11", "10", "9", "4", "6", "7", "7", "5", "5", "3", "2", "23", "24", "25", "26", "28", "23"], "time": [3232, 4263, 5163, 5979, 6895, 7778, 8928, 9978, 10945, 12094, 13261, 13810, 14210, 15109, 15175, 15542, 17191, 18590, 20372, 21223, 22539]}, "edge": {"target": [], "time": []}}, "mouseout": {"state": {"target": ["26", "28", "23", "0", "1", "2", "3", "8", "11", "10", "8", "9", "4", "6", "6", "7", "7", "5", "5", "3", "2", "23", "24", "25", "26", "28", "23"], "time": [1014, 1165, 1481, 2899, 4064, 5047, 5863, 6778, 7578, 8512, 8711, 9629, 10862, 11473, 11895, 13060, 13777, 13927, 15092, 15126, 15192, 17175, 18374, 20240, 21156, 22522, 22555]}, "edge": {"target": [], "time": []}}}, "displayed_time": "31.87", "trialTime": 33959, "trial_type": "mouselab-mdp", "trial_index": 22, "time_elapsed": 1092229, "internal_node_id": "0.0-6.0-1.0-7.0"}}, {"uniqueid": "w31647799:a70266113", "current_trial": 23, "dateTime": 1693661417638, "trialdata": {"revealed_states": [], "clicked_states": ["1", "2", "3", "4", "7", "5", "8"], "num_clicks_accrued": [0, 0, 0, 0, 0, 0, 0, 0, 0, 0, 0, 0, 0], "stateRewards": ["", -2, -3, -3, 9, 79, 67, 22, -15, -56, 27, -85, -2, 4, -4, -15, -20, -32, 60, 15, 71, 57, 17, 1, 2, -8, 15, -37, -81, 82, 15, 21, -3, 2], "withholdReward": false, "trial_id": "mdp_trial_9", "block": "test", "trialIndex": 12, "score": 71.55, "costs": -8.450000000000001, "simulationMode": [null, null, null, null, null], "rewards": [-2, -3, -3, 9, 79], "path": ["0", "0", "1", "2", "3", "4", "5"], "rt": [16241, 573, 464, 585, 578], "actions": ["up", "up", "up", "right", "up"], "actionTimes": [18321, 19409, 20382, 21468, 22545], "queries": {"click": {"state": {"target": ["1", "2", "3", "4", "7", "5", "8"], "time": [3451, 4910, 5695, 6604, 7594, 10521, 14062]}, "edge": {"target": [], "time": []}}, "mouseover": {"state": {"target": ["1", "2", "3", "4", "7", "6", "5", "3", "3", "8"], "time": [3124, 4174, 5389, 6240, 7206, 8089, 9238, 10739, 11105, 12954]}, "edge": {"target": [], "time": []}}, "mouseout": {"state": {"target": ["0", "1", "2", "3", "4", "7", "6", "5", "3", "3"], "time": [2741, 3990, 5122, 6106, 7055, 7956, 8955, 10721, 10889, 12871]}, "edge": {"target": [], "time": []}}}, "displayed_time": "23.05", "trialTime": 24265, "trial_type": "mouselab-mdp", "trial_index": 23, "time_elapsed": 1116676, "internal_node_id": "0.0-6.0-1.0-8.0"}}, {"uniqueid": "w31647799:a70266113", "current_trial": 24, "dateTime": 1693661460038, "trialdata": {"revealed_states": [], "clicked_states": ["1", "2", "3", "4", "5", "8", "9", "10", "24", "25", "26", "27", "30", "31", "33"], "num_clicks_accrued": [0, 0, 0, 0, 0, 0, 0, 0, 0, 0, 0, 0, 0], "stateRewards": ["", 2, -1, 3, -12, -83, 6, -33, 9, 28, 24, -50, -2, -1, -2, -5, -87, 37, 82, 12, 80, -5, 10, -2, -3, -6, 9, 22, -1, 16, 9, 77, -62, 58], "withholdReward": false, "trial_id": "mdp_trial_10", "block": "test", "trialIndex": 13, "score": 53.550000000000004, "costs": -21.449999999999996, "simulationMode": [null, null, null, null, null], "rewards": [-2, -3, -6, 9, 77], "path": ["0", "0", "23", "24", "25", "30", "31"], "rt": [34453, 576, 84, 1093, 759], "actions": ["left", "left", "left", "down", "right"], "actionTimes": [35971, 37059, 37649, 39257, 40524], "queries": {"click": {"state": {"target": ["1", "2", "3", "4", "5", "8", "9", "10", "24", "25", "26", "27", "30", "31", "33"], "time": [2724, 3790, 4712, 5657, 6477, 10304, 11445, 14849, 18512, 19643, 20940, 22156, 25381, 26723, 29512]}, "edge": {"target": [], "time": []}}, "mouseover": {"state": {"target": ["1", "2", "3", "4", "5", "6", "7", "3", "8", "9", "11", "10", "28", "23", "24", "25", "26", "27", "29", "25", "30", "31", "32", "33", "30"], "time": [2330, 3481, 4412, 5245, 6145, 6911, 8277, 9310, 9576, 11010, 12509, 14359, 15841, 17240, 18206, 19373, 20639, 21788, 23121, 24637, 24953, 26403, 27736, 29251, 31551]}, "edge": {"target": [], "time": []}}, "mouseout": {"state": {"target": ["8", "1", "0", "1", "2", "3", "4", "5", "6", "7", "3", "8", "9", "11", "10", "10", "28", "23", "24", "25", "26", "27", "29", "25", "30", "31", "32", "33", "30"], "time": [665, 713, 2014, 3364, 4262, 5163, 6029, 6878, 7978, 9178, 9461, 10827, 12192, 14326, 15062, 15475, 16908, 18123, 19239, 20256, 21504, 22771, 24536, 24769, 25594, 27435, 29184, 31533, 31616]}, "edge": {"target": [], "time": []}}}, "displayed_time": "41.01", "trialTime": 42215, "trial_type": "mouselab-mdp", "trial_index": 24, "time_elapsed": 1159076, "internal_node_id": "0.0-6.0-1.0-9.0"}}, {"uniqueid": "w31647799:a70266113", "current_trial": 25, "dateTime": 1693661483328, "trialdata": {"revealed_states": [], "clicked_states": ["23", "24", "25", "26", "28", "30", "32", "22"], "num_clicks_accrued": [0, 0, 0, 0, 0, 0, 0, 0, 0, 0, 0, 0, 0], "stateRewards": ["", 2, -4, 7, 3, 23, -42, 4, 7, -81, -33, 7, -2, -4, 5, -1, 50, -57, -14, -13, -14, 44, 55, -2, -2, 5, -2, 33, 1, 57, -13, -7, 58, 87], "withholdReward": false, "trial_id": "mdp_trial_11", "block": "test", "trialIndex": 14, "score": 35.4, "costs": -10.6, "simulationMode": [null, null, null, null, null], "rewards": [-2, -2, 5, -13, 58], "path": ["0", "0", "23", "24", "25", "30", "32"], "rt": [15275, 336, 374, 782, 340], "actions": ["left", "left", "left", "down", "down"], "actionTimes": [17095, 17938, 18825, 20100, 20956], "queries": {"click": {"state": {"target": ["23", "24", "25", "26", "28", "30", "32", "22"], "time": [2958, 3798, 4562, 5340, 6257, 9455, 10369, 13375]}, "edge": {"target": [], "time": []}}, "mouseover": {"state": {"target": ["0", "23", "24", "25", "26", "28", "27", "29", "25", "30", "32", "33", "30", "22", "13", "12", "0"], "time": [2424, 2641, 3423, 4223, 5056, 5907, 6888, 7872, 8972, 9188, 10120, 11004, 12472, 13052, 14069, 14269, 14335]}, "edge": {"target": [], "time": []}}, "mouseout": {"state": {"target": ["31", "0", "0", "23", "24", "25", "26", "28", "26", "27", "29", "25", "30", "30", "32", "32", "33", "30", "22", "13", "12", "0"], "time": [775, 1341, 2491, 3325, 4190, 4907, 5772, 6589, 6688, 7622, 8588, 9106, 9668, 9921, 10670, 10870, 12470, 12486, 13820, 14252, 14303, 14918]}, "edge": {"target": [], "time": []}}}, "displayed_time": "21.45", "trialTime": 23102, "trial_type": "mouselab-mdp", "trial_index": 25, "time_elapsed": 1182366, "internal_node_id": "0.0-6.0-1.0-10.0"}}, {"uniqueid": "w31647799:a70266113", "current_trial": 26, "dateTime": 1693661503621, "trialdata": {"revealed_states": [], "clicked_states": ["12", "13", "14", "15", "18"], "num_clicks_accrued": [0, 0, 0, 0, 0, 0, 0, 0, 0, 0, 0, 0, 0], "stateRewards": ["", -2, 2, 3, -7, 76, 63, 21, 15, 35, -8, -44, 1, 1, -2, -12, 23, 24, 76, -9, 46, 66, -49, -2, -1, 7, 12, 40, -71, -45, -6, 38, -49, 46], "withholdReward": false, "trial_id": "mdp_trial_12", "block": "test", "trialIndex": 15, "score": 59.25, "costs": -4.75, "simulationMode": [null, null, null, null, null], "rewards": [1, 1, -2, -12, 76], "path": ["0", "0", "12", "13", "14", "15", "18"], "rt": [12319, 296, 66, 709, 755], "actions": ["right", "right", "right", "up", "left"], "actionTimes": [14720, 15526, 16111, 17337, 18599], "queries": {"click": {"state": {"target": ["12", "13", "14", "15", "18"], "time": [4123, 5567, 6360, 7539, 8309]}, "edge": {"target": [], "time": []}}, "mouseover": {"state": {"target": ["12", "13", "14", "15", "18", "16", "17", "17", "14"], "time": [3499, 5265, 6099, 7047, 7914, 9014, 10330, 10596, 11396]}, "edge": {"target": [], "time": []}}, "mouseout": {"state": {"target": ["0", "12", "13", "14", "15", "18", "16", "17", "17", "14"], "time": [3035, 4502, 5998, 6831, 7881, 8680, 10248, 10397, 11229, 19641]}, "edge": {"target": [], "time": []}}}, "displayed_time": "19.11", "trialTime": 20098, "trial_type": "mouselab-mdp", "trial_index": 26, "time_elapsed": 1202659, "internal_node_id": "0.0-6.0-1.0-11.0"}}, {"uniqueid": "w31647799:a70266113", "current_trial": 27, "dateTime": 1693661521092, "trialdata": {"revealed_states": [], "clicked_states": [], "num_clicks_accrued": [0, 0, 0, 0, 0, 0, 0, 0, 0, 0, 0, 0, 0], "stateRewards": ["", -1, -3, -6, -2, -7, 80, -45, -3, -38, -72, 76, 2, 1, 7, 4, -62, 14, -74, 14, -87, -21, -88, -2, 1, -7, -10, 66, 56, -76, 10, -29, -72, -70], "withholdReward": false, "trial_id": "mdp_trial_13", "block": "test", "trialIndex": 16, "score": 28, "costs": 0, "simulationMode": [null, null, null, null, null], "rewards": [2, 1, 7, 4, 14], "path": ["0", "0", "12", "13", "14", "15", "17"], "rt": [9922, 181, 462, 961, 97], "actions": ["right", "right", "right", "up", "right"], "actionTimes": [11243, 11942, 12923, 14389, 14991], "queries": {"click": {"state": {"target": [], "time": []}, "edge": {"target": [], "time": []}}, "mouseover": {"state": {"target": ["1", "1", "2", "2", "7", "7"], "time": [3924, 4578, 5175, 5820, 6379, 6868]}, "edge": {"target": [], "time": []}}, "mouseout": {"state": {"target": ["0", "1", "1", "2", "2", "7", "7"], "time": [3907, 4493, 5091, 5723, 6283, 6795, 8592]}, "edge": {"target": [], "time": []}}}, "displayed_time": "15.49", "trialTime": 17276, "trial_type": "mouselab-mdp", "trial_index": 27, "time_elapsed": 1220130, "internal_node_id": "0.0-6.0-1.0-12.0"}}, {"uniqueid": "w31647799:a70266113", "current_trial": 28, "dateTime": 1693661561602, "trialdata": {"revealed_states": [], "clicked_states": ["12", "13", "14", "19", "21", "17", "1", "2", "3", "4", "7", "5", "11", "23", "24", "25", "26"], "num_clicks_accrued": [0, 0, 0, 0, 0, 0, 0, 0, 0, 0, 0, 0, 0], "stateRewards": ["", -2, -2, -7, -13, -10, 49, -68, -1, 84, 70, 88, 1, 4, 4, 12, -57, 25, 30, 8, -1, -77, 57, 2, 3, 2, 3, -18, -80, 23, -15, -41, 70, 11], "withholdReward": false, "trial_id": "mdp_trial_14", "block": "test", "trialIndex": 17, "score": 57.45, "costs": -18.55, "simulationMode": [null, null, null, null, null], "rewards": [-2, -2, -7, -1, 88], "path": ["0", "0", "1", "2", "3", "8", "11"], "rt": [33316, 110, 450, 654, 18], "actions": ["up", "up", "up", "left", "left"], "actionTimes": [35591, 36208, 37164, 38333, 38864], "queries": {"click": {"state": {"target": ["12", "13", "14", "19", "21", "17", "1", "2", "3", "4", "7", "5", "11", "23", "24", "25", "26"], "time": [3713, 4656, 5621, 6533, 7574, 10996, 14208, 15301, 16164, 17144, 18200, 20974, 25154, 28418, 29602, 30312, 31097]}, "edge": {"target": [], "time": []}}, "mouseover": {"state": {"target": ["12", "13", "14", "19", "21", "20", "14", "15", "17", "16", "18", "1", "2", "3", "4", "7", "6", "5", "3", "8", "11", "9", "8", "10", "23", "24", "25", "26", "28"], "time": [3077, 4393, 5226, 6043, 7142, 8258, 9141, 9458, 10641, 11790, 12889, 13789, 15022, 15839, 16759, 17455, 18820, 20020, 21319, 22235, 24885, 25717, 26583, 26933, 27966, 29166, 30032, 30781, 31914]}, "edge": {"target": [], "time": []}}, "mouseout": {"state": {"target": ["0", "12", "13", "14", "19", "21", "20", "14", "15", "17", "16", "18", "1", "2", "3", "4", "7", "6", "5", "3", "8", "11", "9", "8", "10", "23", "24", "25", "26", "28"], "time": [2860, 4193, 5127, 5927, 6945, 7941, 9042, 9224, 10507, 11490, 12590, 13556, 14856, 15705, 16622, 17438, 18536, 19803, 21270, 21635, 24052, 25617, 26567, 26634, 27867, 28766, 29949, 30699, 31748, 31948]}, "edge": {"target": [], "time": []}}}, "displayed_time": "39.38", "trialTime": 40290, "trial_type": "mouselab-mdp", "trial_index": 28, "time_elapsed": 1260640, "internal_node_id": "0.0-6.0-1.0-13.0"}}, {"uniqueid": "w31647799:a70266113", "current_trial": 29, "dateTime": 1693661606861, "trialdata": {"revealed_states": [], "clicked_states": ["1", "2", "3", "4", "5", "11", "28", "25", "30", "31", "33", "19", "14", "13", "12", "15", "16", "21"], "num_clicks_accrued": [0, 0, 0, 0, 0, 0, 0, 0, 0, 0, 0, 0, 0], "stateRewards": ["", -1, 4, -5, 9, 29, -75, -42, -16, 24, -28, -41, 2, -3, 1, 10, 60, 47, 55, -1, -53, 22, -40, 2, -3, -6, 4, -26, 44, 54, 15, -76, 42, 14], "withholdReward": false, "trial_id": "mdp_trial_15", "block": "test", "trialIndex": 18, "score": 45.7, "costs": -24.3, "simulationMode": [null, null, null, null, null], "rewards": [2, -3, 1, 10, 60], "path": ["0", "0", "12", "13", "14", "15", "16"], "rt": [38488, 309, 369, 595, 84], "actions": ["right", "right", "right", "up", "up"], "actionTimes": [39921, 40735, 41611, 42719, 43308], "queries": {"click": {"state": {"target": ["1", "2", "3", "4", "5", "11", "28", "25", "30", "31", "33", "19", "14", "13", "12", "15", "16", "21"], "time": [2703, 3686, 5551, 6662, 7579, 11222, 14128, 17052, 18779, 20224, 23612, 26387, 27754, 28953, 29972, 31569, 32334, 36875]}, "edge": {"target": [], "time": []}}, "mouseover": {"state": {"target": ["1", "2", "7", "3", "4", "5", "6", "7", "11", "9", "27", "26", "28", "24", "25", "30", "31", "24", "30", "32", "33", "12", "22", "19", "14", "13", "12", "18", "15", "16", "18", "17", "19", "21", "22", "13"], "time": [2408, 3357, 4140, 4973, 6390, 7206, 8639, 9371, 10721, 11786, 12869, 13003, 13820, 14669, 16002, 18467, 19934, 20633, 21854, 21948, 22899, 24565, 24799, 25781, 27047, 28629, 29561, 30795, 31112, 31978, 32894, 33995, 35526, 36459, 37858, 39157]}, "edge": {"target": [], "time": []}}, "mouseout": {"state": {"target": ["0", "1", "2", "7", "3", "4", "5", "6", "7", "11", "9", "27", "26", "28", "24", "25", "30", "31", "24", "30", "32", "33", "12", "22", "19", "14", "13", "12", "18", "15", "16", "18", "15", "17", "19", "21", "22", "13"], "time": [2091, 3074, 4107, 4806, 6239, 7105, 7971, 9322, 10338, 11670, 12504, 12886, 13720, 14586, 15836, 17935, 19283, 20549, 21582, 21865, 22665, 24065, 24598, 25697, 26865, 28429, 29512, 30678, 31044, 31783, 32695, 33744, 33943, 34960, 36326, 37088, 39108, 44700]}, "edge": {"target": [], "time": []}}}, "displayed_time": "43.82", "trialTime": 45047, "trial_type": "mouselab-mdp", "trial_index": 29, "time_elapsed": 1305899, "internal_node_id": "0.0-6.0-1.0-14.0"}}, {"uniqueid": "w31647799:a70266113", "current_trial": 30, "dateTime": 1693661640207, "trialdata": {"revealed_states": [], "clicked_states": ["12", "13", "14", "19", "21", "16", "23", "24", "25", "26", "29", "30", "32"], "num_clicks_accrued": [0, 0, 0, 0, 0, 0, 0, 0, 0, 0, 0, 0, 0], "stateRewards": ["", 2, -1, 5, 6, 10, 86, 55, 10, -45, 63, -71, 1, -2, 5, -8, -50, -72, 36, 15, 61, 12, 33, -1, -4, 6, 5, 79, -56, -21, -16, -87, 60, -81], "withholdReward": false, "trial_id": "mdp_trial_16", "block": "test", "trialIndex": 19, "score": 29.65, "costs": -15.350000000000001, "simulationMode": [null, null, null, null, null], "rewards": [-1, -4, 6, -16, 60], "path": ["0", "0", "23", "24", "25", "30", "32"], "rt": [27121, 3, 30, 850, 75], "actions": ["left", "left", "left", "down", "down"], "actionTimes": [28520, 29026, 29568, 30922, 31513], "queries": {"click": {"state": {"target": ["12", "13", "14", "19", "21", "16", "23", "24", "25", "26", "29", "30", "32"], "time": [2541, 3407, 4224, 5082, 6790, 10351, 14370, 15295, 16520, 17504, 18475, 22245, 23153]}, "edge": {"target": [], "time": []}}, "mouseover": {"state": {"target": ["12", "13", "14", "19", "22", "21", "20", "14", "15", "16", "18", "12", "0", "23", "24", "25", "26", "29", "28", "27", "26", "25", "30", "32", "33", "31", "23"], "time": [2183, 3133, 3917, 4733, 5599, 6398, 7315, 8815, 8998, 9963, 11062, 12096, 12996, 14111, 15028, 16227, 17061, 18076, 19042, 20526, 21523, 21809, 21957, 22823, 23956, 25440, 27023]}, "edge": {"target": [], "time": []}}, "mouseout": {"state": {"target": ["0", "12", "13", "14", "19", "22", "21", "20", "14", "15", "16", "18", "12", "0", "23", "24", "25", "26", "29", "28", "27", "26", "25", "30", "32", "33", "31", "23"], "time": [1017, 2984, 3717, 4650, 5482, 6082, 7082, 8765, 8864, 9897, 10830, 11929, 12963, 14029, 14863, 16078, 16734, 17717, 18687, 20442, 21491, 21540, 21875, 22707, 23690, 25290, 26372, 27039]}, "edge": {"target": [], "time": []}}}, "displayed_time": "32.01", "trialTime": 33156, "trial_type": "mouselab-mdp", "trial_index": 30, "time_elapsed": 1339244, "internal_node_id": "0.0-6.0-1.0-15.0"}}, {"uniqueid": "w31647799:a70266113", "current_trial": 31, "dateTime": 1693661681483, "trialdata": {"revealed_states": [], "clicked_states": ["1", "2", "3", "8", "11", "5", "18", "16", "21", "30", "33", "28"], "num_clicks_accrued": [0, 0, 0, 0, 0, 0, 0, 0, 0, 0, 0, 0, 0], "stateRewards": ["", 2, 4, -6, -13, -75, -81, 30, 7, 5, 59, -65, -1, -1, 7, 14, -38, 36, -41, 1, -54, -5, 64, 2, -1, 5, 6, -19, 79, 11, 16, -33, -50, 58], "withholdReward": false, "trial_id": "mdp_trial_17", "block": "test", "trialIndex": 20, "score": -47.2, "costs": -19.2, "simulationMode": [null, null, null, null, null], "rewards": [2, -1, 5, 16, -50], "path": ["0", "0", "23", "24", "25", "30", "32"], "rt": [28901, 85, 394, 875, 272], "actions": ["left", "left", "left", "down", "down"], "actionTimes": [30508, 31103, 32010, 33391, 34171], "queries": {"click": {"state": {"target": ["1", "2", "3", "8", "11", "5", "18", "16", "21", "30", "33", "28"], "time": [3321, 4151, 5018, 5725, 6468, 10225, 13497, 16286, 19638, 22757, 23907, 26874]}, "edge": {"target": [], "time": []}}, "mouseover": {"state": {"target": ["1", "2", "3", "8", "11", "9", "4", "6", "5", "4", "7", "1", "18", "15", "17", "16", "15", "14", "14", "19", "22", "21", "20", "20", "19", "22", "31", "30", "33", "32", "25", "28", "26", "26"], "time": [2529, 3828, 4695, 5427, 6177, 6960, 8110, 8792, 9809, 10591, 10725, 12423, 13156, 13923, 14991, 15956, 16509, 16573, 16873, 17623, 18405, 19288, 20187, 20704, 21206, 21223, 21654, 22353, 23419, 24502, 25502, 26235, 27084, 27700]}, "edge": {"target": [], "time": []}}, "mouseout": {"state": {"target": ["0", "1", "2", "2", "3", "8", "11", "9", "4", "6", "5", "4", "7", "1", "18", "15", "17", "16", "15", "14", "14", "19", "22", "21", "20", "20", "19", "22", "31", "30", "33", "32", "25", "28", "26", "26"], "time": [2262, 3812, 4463, 4612, 5361, 6111, 6683, 7677, 8759, 9459, 10575, 10642, 12091, 12974, 13873, 14957, 15773, 16508, 16540, 16639, 17572, 18340, 19072, 19859, 20354, 21204, 21222, 21237, 22321, 23385, 24269, 25253, 26169, 27068, 27202, 27817]}, "edge": {"target": [], "time": []}}}, "displayed_time": "34.68", "trialTime": 41076, "trial_type": "mouselab-mdp", "trial_index": 31, "time_elapsed": 1380521, "internal_node_id": "0.0-6.0-1.0-16.0"}}, {"uniqueid": "w31647799:a70266113", "current_trial": 32, "dateTime": 1693661699708, "trialdata": {"revealed_states": [], "clicked_states": ["23", "24", "25", "30", "33", "12"], "num_clicks_accrued": [0, 0, 0, 0, 0, 0, 0, 0, 0, 0, 0, 0, 0], "stateRewards": ["", 2, -1, -4, -13, 74, 77, 3, 2, -43, -2, -11, 2, 3, 7, 11, -26, -29, -33, -3, -3, -13, -3, 1, 3, -7, 14, -59, 33, 9, -5, 34, 79, 68], "withholdReward": false, "trial_id": "mdp_trial_18", "block": "test", "trialIndex": 21, "score": 55.5, "costs": -4.5, "simulationMode": [null, null, null, null, null], "rewards": [1, 3, -7, -5, 68], "path": ["0", "0", "23", "24", "25", "30", "33"], "rt": [11035, 137, 150, 182, 492], "actions": ["left", "left", "left", "down", "left"], "actionTimes": [13272, 13926, 14572, 15254, 16263], "queries": {"click": {"state": {"target": ["23", "24", "25", "30", "33", "12"], "time": [4417, 5142, 6458, 7136, 7865, 11258]}, "edge": {"target": [], "time": []}}, "mouseover": {"state": {"target": ["23", "24", "25", "30", "33", "31", "32", "12"], "time": [4142, 4893, 6143, 6775, 7592, 8290, 9540, 10907]}, "edge": {"target": [], "time": []}}, "mouseout": {"state": {"target": ["23", "0", "23", "24", "25", "30", "33", "31", "32"], "time": [1692, 2876, 4758, 5476, 6742, 7507, 8241, 9391, 10423]}, "edge": {"target": [], "time": []}}}, "displayed_time": "16.77", "trialTime": 18000, "trial_type": "mouselab-mdp", "trial_index": 32, "time_elapsed": 1398746, "internal_node_id": "0.0-6.0-1.0-17.0"}}, {"uniqueid": "w31647799:a70266113", "current_trial": 33, "dateTime": 1693661727014, "trialdata": {"revealed_states": [], "clicked_states": ["23", "24", "25", "26", "29", "31", "30", "22", "14", "15"], "num_clicks_accrued": [0, 0, 0, 0, 0, 0, 0, 0, 0, 0, 0, 0, 0], "stateRewards": ["", -2, -4, -2, -13, -15, 87, -19, -6, -80, 30, 12, 1, 1, -8, 2, 55, 56, 15, 11, -68, -7, 55, -2, 3, -3, -3, 48, 62, 4, 1, -3, 69, -33], "withholdReward": false, "trial_id": "mdp_trial_19", "block": "test", "trialIndex": 22, "score": 46.9, "costs": -13.100000000000001, "simulationMode": [null, null, null, null, null], "rewards": [1, 1, -8, 11, 55], "path": ["0", "0", "12", "13", "14", "19", "22"], "rt": [20686, 7, 408, 249, 844], "actions": ["right", "right", "right", "down", "left"], "actionTimes": [22158, 22675, 23591, 24349, 25709], "queries": {"click": {"state": {"target": ["23", "24", "25", "26", "29", "31", "30", "22", "14", "15"], "time": [2673, 3432, 4723, 5569, 6731, 10040, 13750, 15330, 18270, 19109]}, "edge": {"target": [], "time": []}}, "mouseover": {"state": {"target": ["23", "24", "25", "26", "29", "29", "27", "28", "24", "31", "30", "32", "33", "30", "22", "13", "12", "13", "14", "15"], "time": [2041, 3108, 4457, 5256, 5907, 6422, 7107, 8190, 9456, 9605, 10603, 11404, 12255, 13435, 15019, 16052, 16786, 17535, 17902, 18617]}, "edge": {"target": [], "time": []}}, "mouseout": {"state": {"target": ["12", "23", "24", "25", "26", "29", "29", "27", "28", "24", "31", "30", "32", "33", "30", "22", "13", "12", "13", "14", "15"], "time": [858, 3042, 3990, 4936, 5875, 6107, 7006, 7856, 9423, 9506, 10487, 11288, 12037, 13320, 13924, 15885, 16702, 17501, 17618, 18584, 19321]}, "edge": {"target": [], "time": []}}}, "displayed_time": "26.21", "trialTime": 27079, "trial_type": "mouselab-mdp", "trial_index": 33, "time_elapsed": 1426051, "internal_node_id": "0.0-6.0-1.0-18.0"}}, {"uniqueid": "w31647799:a70266113", "current_trial": 34, "dateTime": 1693661775846, "trialdata": {"revealed_states": [], "clicked_states": ["1", "2", "10", "4", "7", "9", "24", "23", "25", "26", "28", "30", "33", "21", "20", "6", "11"], "num_clicks_accrued": [0, 0, 0, 0, 0, 0, 0, 0, 0, 0, 0, 0, 0], "stateRewards": ["", 1, 1, -7, -9, -44, 24, -83, -15, 44, -24, 72, -2, -3, 4, -5, 57, 55, 29, -11, 22, 12, -25, -1, 2, 7, 12, 33, -8, 47, -4, 8, 50, -4], "withholdReward": false, "trial_id": "mdp_trial_20", "block": "test", "trialIndex": 23, "score": 26.85000000000001, "costs": -25.149999999999995, "simulationMode": [null, null, null, null, null], "rewards": [1, 1, -7, -15, 72], "path": ["0", "0", "1", "2", "3", "8", "11"], "rt": [40868, 179, 597, 666, 359], "actions": ["up", "up", "up", "left", "left"], "actionTimes": [42840, 43541, 44658, 45826, 46719], "queries": {"click": {"state": {"target": ["1", "2", "10", "4", "7", "9", "24", "23", "25", "26", "28", "30", "33", "21", "20", "6", "11"], "time": [3068, 3719, 4935, 7781, 8891, 12370, 17480, 18481, 19824, 20635, 21544, 25425, 26618, 29958, 32851, 36448, 40044]}, "edge": {"target": [], "time": []}}, "mouseover": {"state": {"target": ["0", "1", "2", "10", "10", "8", "3", "4", "4", "7", "6", "6", "5", "9", "8", "11", "10", "28", "24", "23", "25", "26", "28", "27", "29", "25", "30", "33", "32", "22", "21", "20", "17", "16", "6", "5", "9", "11", "8", "3", "2"], "time": [2196, 2761, 3479, 4129, 4661, 5461, 6079, 6879, 7511, 8593, 9160, 9510, 10326, 11724, 13076, 13840, 16573, 16939, 17105, 18157, 19555, 20287, 21054, 22387, 23536, 24835, 25102, 26252, 27500, 28967, 29516, 31166, 33447, 34681, 36029, 37579, 39063, 39745, 41028, 41145, 41645]}, "edge": {"target": [], "time": []}}, "mouseout": {"state": {"target": ["15", "18", "12", "0", "1", "2", "10", "10", "8", "3", "4", "4", "7", "6", "6", "5", "9", "8", "11", "10", "28", "24", "23", "24", "25", "26", "28", "27", "29", "25", "30", "30", "33", "32", "22", "21", "20", "17", "16", "6", "5", "9", "11", "8", "3", "2"], "time": [796, 1079, 1162, 2411, 3362, 4113, 4147, 5228, 6061, 6828, 6995, 8443, 9144, 9293, 10126, 11275, 12875, 13808, 15140, 16689, 16988, 18039, 18989, 19439, 19967, 21038, 22070, 23286, 24586, 24918, 25576, 26185, 27306, 28584, 29100, 30701, 33365, 34515, 35847, 37346, 38662, 39495, 40219, 41078, 41178, 41779]}, "edge": {"target": [], "time": []}}}, "displayed_time": "47.23", "trialTime": 48611, "trial_type": "mouselab-mdp", "trial_index": 34, "time_elapsed": 1474884, "internal_node_id": "0.0-6.0-1.0-19.0"}}, {"uniqueid": "w31647799:a70266113", "current_trial": 35, "dateTime": 1693661793229, "trialdata": {"revealed_states": [], "clicked_states": ["11"], "num_clicks_accrued": [0, 0, 0, 0, 0, 0, 0, 0, 0, 0, 0, 0, 0], "stateRewards": ["", -2, 2, 8, -6, -25, 3, 87, 2, -62, -2, 74, -2, -1, 2, -1, 79, 49, -37, -14, 5, 67, -9, -1, 2, -2, 5, 15, 38, 32, -14, -38, -38, 30], "withholdReward": false, "trial_id": "mdp_trial_21", "block": "test", "trialIndex": 24, "score": 81.85, "costs": -2.15, "simulationMode": [null, null, null, null, null], "rewards": [-2, 2, 8, 2, 74], "path": ["0", "0", "1", "2", "3", "8", "11"], "rt": [6749, 103, 447, 692, 326], "actions": ["up", "up", "up", "left", "left"], "actionTimes": [8689, 9305, 10261, 11471, 12305], "queries": {"click": {"state": {"target": ["11"], "time": [3675]}, "edge": {"target": [], "time": []}}, "mouseover": {"state": {"target": ["10", "11", "9", "5", "6"], "time": [2667, 3148, 4316, 5681, 6664]}, "edge": {"target": [], "time": []}}, "mouseout": {"state": {"target": ["1", "10", "11", "9", "5"], "time": [1315, 2698, 4016, 5548, 6464]}, "edge": {"target": [], "time": []}}}, "displayed_time": "15.94", "trialTime": 17169, "trial_type": "mouselab-mdp", "trial_index": 35, "time_elapsed": 1492266, "internal_node_id": "0.0-6.0-1.0-20.0"}}, {"uniqueid": "w31647799:a70266113", "current_trial": 36, "dateTime": 1693661812242, "trialdata": {"revealed_states": [], "clicked_states": ["11", "6", "20"], "num_clicks_accrued": [0, 0, 0, 0, 0, 0, 0, 0, 0, 0, 0, 0, 0], "stateRewards": ["", -1, 3, 8, 10, -86, 61, -36, 10, 17, -60, 24, -1, -3, 3, 11, 50, 60, 33, -3, -20, 58, -6, 1, -4, -4, 13, -70, -71, 43, 14, 52, 82, -11], "withholdReward": false, "trial_id": "mdp_trial_22", "block": "test", "trialIndex": 25, "score": 74.55, "costs": -6.449999999999999, "simulationMode": [null, null, null, null, null, null], "rewards": [-1, 3, 8, 10, 61], "path": ["0", "0", "1", "2", "3", "4", "6"], "rt": [11293, 209, 40, 659, 758, 419], "actions": ["up", "up", "up", "up", "right", "right"], "actionTimes": [13144, 13356, 13915, 15100, 16367, 17294], "queries": {"click": {"state": {"target": ["11", "6", "20"], "time": [3255, 6350, 10533]}, "edge": {"target": [], "time": []}}, "mouseover": {"state": {"target": ["2", "3", "8", "11", "9", "5", "6", "16", "17", "20"], "time": [2212, 2231, 2595, 2879, 3897, 4681, 5944, 7344, 8244, 9626]}, "edge": {"target": [], "time": []}}, "mouseout": {"state": {"target": ["6", "7", "0", "2", "3", "8", "11", "9", "5", "6", "6", "16", "17", "20"], "time": [763, 879, 2192, 2229, 2572, 2696, 3547, 4564, 5596, 6567, 6944, 8060, 9160, 11259]}, "edge": {"target": [], "time": []}}}, "displayed_time": "17.81", "trialTime": 18788, "trial_type": "mouselab-mdp", "trial_index": 36, "time_elapsed": 1511280, "internal_node_id": "0.0-6.0-1.0-21.0"}}, {"uniqueid": "w31647799:a70266113", "current_trial": 37, "dateTime": 1693661840389, "trialdata": {"revealed_states": [], "clicked_states": ["29", "33", "23", "10", "5", "18", "21"], "num_clicks_accrued": [0, 0, 0, 0, 0, 0, 0, 0, 0, 0, 0, 0, 0], "stateRewards": ["", 2, 4, 7, 7, -79, -2, -21, -5, -53, 47, -21, 1, -3, -1, 7, 83, 7, 84, -7, 80, -37, 69, 2, -4, 5, 2, 4, -20, -30, 7, 71, 44, -81], "withholdReward": false, "trial_id": "mdp_trial_23", "block": "test", "trialIndex": 26, "score": 75.35, "costs": -12.65, "simulationMode": [null, null, null, null, null, null], "rewards": [1, -3, -1, 7, 84], "path": ["0", "0", "12", "13", "14", "15", "18"], "rt": [21271, 186, 165, 194, 894, 610], "actions": ["right", "right", "right", "right", "up", "left"], "actionTimes": [22644, 22833, 23508, 24236, 25636, 26735], "queries": {"click": {"state": {"target": ["29", "33", "23", "10", "5", "18", "21"], "time": [2831, 5800, 8794, 10284, 13964, 17269, 20744]}, "edge": {"target": [], "time": []}}, "mouseover": {"state": {"target": ["24", "25", "29", "27", "26", "33", "32", "31", "23", "10", "11", "9", "5", "6", "16", "18", "15", "17", "20", "21"], "time": [2000, 2051, 2416, 3584, 4502, 4784, 6016, 7982, 8298, 9533, 10930, 12114, 13447, 14578, 15744, 16944, 17728, 18211, 19511, 20376]}, "edge": {"target": [], "time": []}}, "mouseout": {"state": {"target": ["19", "0", "24", "25", "29", "27", "26", "33", "32", "31", "23", "10", "11", "9", "5", "6", "16", "18", "15", "17", "20", "21"], "time": [385, 1602, 2017, 2134, 3169, 4350, 4600, 6000, 7881, 8081, 9133, 10713, 11713, 13030, 14528, 15545, 16612, 17660, 17795, 19111, 20127, 20957]}, "edge": {"target": [], "time": []}}}, "displayed_time": "27.24", "trialTime": 27931, "trial_type": "mouselab-mdp", "trial_index": 37, "time_elapsed": 1539427, "internal_node_id": "0.0-6.0-1.0-22.0"}}, {"uniqueid": "w31647799:a70266113", "current_trial": 38, "dateTime": 1693661863293, "trialdata": {"revealed_states": [], "clicked_states": ["29", "27", "5", "17"], "num_clicks_accrued": [0, 0, 0, 0, 0, 0, 0, 0, 0, 0, 0, 0, 0], "stateRewards": ["", -2, 1, -7, 9, 8, 25, 61, -7, -17, 69, -81, 1, 4, -4, -11, 16, 67, 44, 3, 6, -45, -54, -2, 3, 6, -11, -15, 32, -47, 3, -39, -6, -88], "withholdReward": false, "trial_id": "mdp_trial_24", "block": "test", "trialIndex": 27, "score": 48.4, "costs": -8.6, "simulationMode": [null, null, null, null, null], "rewards": [1, 4, -4, -11, 67], "path": ["0", "0", "12", "13", "14", "15", "17"], "rt": [16237, 180, 308, 594, 180], "actions": ["right", "right", "right", "up", "right"], "actionTimes": [17845, 18546, 19356, 20458, 21128], "queries": {"click": {"state": {"target": ["29", "27", "5", "17"], "time": [3431, 6420, 9544, 12781]}, "edge": {"target": [], "time": []}}, "mouseover": {"state": {"target": ["29", "33", "32", "25", "26", "27", "11", "9", "5", "6", "16", "17", "20", "21", "22"], "time": [2988, 3706, 4855, 5637, 5670, 6070, 6937, 8004, 9055, 10219, 11235, 12416, 13551, 14765, 15766]}, "edge": {"target": [], "time": []}}, "mouseout": {"state": {"target": ["21", "0", "29", "33", "32", "25", "26", "27", "11", "9", "5", "6", "16", "17", "20", "21", "22"], "time": [705, 2238, 3622, 4488, 5621, 5653, 5753, 6704, 7636, 8753, 9853, 10868, 11984, 13152, 14416, 15682, 22113]}, "edge": {"target": [], "time": []}}}, "displayed_time": "21.65", "trialTime": 22685, "trial_type": "mouselab-mdp", "trial_index": 38, "time_elapsed": 1562330, "internal_node_id": "0.0-6.0-1.0-23.0"}}, {"uniqueid": "w31647799:a70266113", "current_trial": 39, "dateTime": 1693661881033, "trialdata": {"revealed_states": [], "clicked_states": ["12", "18", "21"], "num_clicks_accrued": [0, 0, 0, 0, 0, 0, 0, 0, 0, 0, 0, 0, 0], "stateRewards": ["", 2, 3, -2, -8, -8, -41, 74, 15, -23, -80, 1, 1, 3, 3, -15, -63, -78, 67, 13, 75, -41, 86, 2, -2, 6, -3, -8, -49, 50, -6, 83, 74, 80], "withholdReward": false, "trial_id": "mdp_trial_25", "block": "test", "trialIndex": 28, "score": 54.95, "costs": -4.05, "simulationMode": [null, null, null, null, null, null], "rewards": [1, 3, 3, -15, 67], "path": ["0", "0", "12", "13", "14", "15", "18"], "rt": [7467, 178, 370, 342, 911, 331], "actions": ["right", "right", "right", "right", "up", "left"], "actionTimes": [10117, 10299, 11176, 12048, 13465, 14317], "queries": {"click": {"state": {"target": ["12", "18", "21"], "time": [4409, 5463, 8963]}, "edge": {"target": [], "time": []}}, "mouseover": {"state": {"target": ["12", "18", "16", "17", "20", "21"], "time": [3790, 5073, 6055, 6805, 7705, 8405]}, "edge": {"target": [], "time": []}}, "mouseout": {"state": {"target": ["30", "18", "12", "18", "16", "17", "20", "21"], "time": [1159, 1740, 4823, 5740, 6672, 7573, 8355, 15637]}, "edge": {"target": [], "time": []}}}, "displayed_time": "16.65", "trialTime": 17505, "trial_type": "mouselab-mdp", "trial_index": 39, "time_elapsed": 1580071, "internal_node_id": "0.0-6.0-1.0-24.0"}}, {"uniqueid": "w31647799:a70266113", "current_trial": 40, "dateTime": 1693661922291, "trialdata": {"revealed_states": [], "clicked_states": ["12", "18", "20", "32", "33", "11", "6", "10", "31", "17", "5"], "num_clicks_accrued": [0, 0, 0, 0, 0, 0, 0, 0, 0, 0, 0, 0, 0], "stateRewards": ["", 1, 2, -3, -6, 50, -7, 7, -7, -80, 21, -1, 2, 2, 4, -1, 33, 84, 1, 14, -53, 81, 6, -2, -2, -3, -9, -87, -38, -59, -5, -74, -3, -71], "withholdReward": false, "trial_id": "mdp_trial_26", "block": "test", "trialIndex": 29, "score": 69.75, "costs": -21.249999999999996, "simulationMode": [null, null, null, null, null], "rewards": [2, 2, 4, -1, 84], "path": ["0", "0", "12", "13", "14", "15", "17"], "rt": [34354, 3, 451, 711, 11], "actions": ["right", "right", "right", "up", "right"], "actionTimes": [36249, 36762, 37742, 38968, 39485], "queries": {"click": {"state": {"target": ["12", "18", "20", "32", "33", "11", "6", "10", "31", "17", "5"], "time": [3245, 4692, 7671, 10682, 13500, 16786, 20348, 23172, 26562, 29360, 32215]}, "edge": {"target": [], "time": []}}, "mouseover": {"state": {"target": ["12", "18", "16", "17", "20", "20", "21", "32", "31", "30", "33", "29", "27", "11", "9", "5", "6", "16", "2", "10", "23", "24", "31", "22", "14", "17", "16", "6", "5", "9", "2", "7", "15"], "time": [2839, 4392, 5121, 6237, 6871, 7271, 8337, 10285, 11768, 12751, 13185, 14000, 15149, 16333, 17499, 18583, 19897, 21080, 22480, 22796, 24096, 25112, 25412, 27511, 28577, 28827, 30443, 31459, 31792, 33075, 34575, 34608, 35041]}, "edge": {"target": [], "time": []}}, "mouseout": {"state": {"target": ["0", "12", "18", "16", "17", "20", "20", "21", "32", "31", "30", "33", "29", "27", "11", "9", "5", "6", "6", "16", "2", "10", "10", "23", "24", "31", "22", "14", "17", "16", "6", "5", "9", "2", "7", "15"], "time": [1038, 3523, 4972, 5872, 6837, 7087, 8086, 9536, 11419, 12686, 12984, 13884, 15001, 16150, 17215, 18216, 19647, 20560, 20781, 22046, 22630, 23385, 23746, 25079, 25128, 27028, 28560, 28627, 29960, 31292, 31525, 32776, 34126, 34591, 34642, 35158]}, "edge": {"target": [], "time": []}}}, "displayed_time": "39.99", "trialTime": 41020, "trial_type": "mouselab-mdp", "trial_index": 40, "time_elapsed": 1621329, "internal_node_id": "0.0-6.0-1.0-25.0"}}, {"uniqueid": "w31647799:a70266113", "current_trial": 41, "dateTime": 1693661984775, "trialdata": {"revealed_states": [], "clicked_states": ["11", "6"], "num_clicks_accrued": [0, 0, 0, 0, 0, 0, 0, 0, 0, 0, 0, 0, 0], "stateRewards": ["", 2, -4, 1, -12, -59, -53, -74, 16, -88, -66, 66, 1, -2, 8, -9, -14, 22, 25, -1, -39, 47, -14, -1, -1, -2, 1, -4, 52, -26, 15, -7, 46, 43], "withholdReward": false, "trial_id": "mdp_trial_27", "block": "test", "trialIndex": 30, "score": 76.7, "costs": -4.3, "simulationMode": [null, null, null, null, null], "rewards": [2, -4, 1, 16, 66], "path": ["0", "0", "1", "2", "3", "8", "11"], "rt": [8234, 41, 301, 21, 89], "actions": ["up", "up", "up", "left", "left"], "actionTimes": [10524, 11080, 11905, 12442, 13043], "queries": {"click": {"state": {"target": ["11", "6"], "time": [3549, 6660]}, "edge": {"target": [], "time": []}}, "mouseover": {"state": {"target": ["1", "10", "11", "9", "5", "6", "16", "17"], "time": [2640, 2990, 3024, 4190, 5457, 6291, 7339, 8172]}, "edge": {"target": [], "time": []}}, "mouseout": {"state": {"target": ["13", "0", "0", "1", "10", "11", "9", "5", "6", "16"], "time": [1142, 1575, 1957, 2673, 3008, 3824, 5325, 6158, 7007, 8022]}, "edge": {"target": [], "time": []}}}, "displayed_time": "16.29", "trialTime": 62256, "trial_type": "mouselab-mdp", "trial_index": 41, "time_elapsed": 1683812, "internal_node_id": "0.0-6.0-1.0-26.0"}}, {"uniqueid": "w31647799:a70266113", "current_trial": 42, "dateTime": 1693662002329, "trialdata": {"revealed_states": [], "clicked_states": ["1", "2", "3", "11", "6"], "num_clicks_accrued": [0, 0, 0, 0, 0, 0, 0, 0, 0, 0, 0, 0, 0], "stateRewards": ["", -2, -3, 8, -4, -30, 31, 69, 9, 66, 87, 64, -2, 2, 8, 5, 47, 16, -39, -8, -54, 51, -19, 1, -2, -2, -11, -25, -26, 43, -9, 19, -84, 86], "withholdReward": false, "trial_id": "mdp_trial_28", "block": "test", "trialIndex": 31, "score": 70.65, "costs": -5.35, "simulationMode": [null, null, null, null, null, null], "rewards": [-2, -3, 8, 9, 64], "path": ["0", "0", "1", "2", "3", "8", "11"], "rt": [9155, 128, 178, 194, 670, 334], "actions": ["up", "up", "up", "up", "left", "left"], "actionTimes": [11771, 11901, 12610, 13310, 14468, 15315], "queries": {"click": {"state": {"target": ["1", "2", "3", "11", "6"], "time": [3623, 4325, 5234, 6262, 9149]}, "edge": {"target": [], "time": []}}, "mouseover": {"state": {"target": ["1", "2", "3", "8", "11", "9", "5", "6", "2"], "time": [3334, 4102, 4952, 5735, 5918, 6868, 7883, 8751, 9701]}, "edge": {"target": [], "time": []}}, "mouseout": {"state": {"target": ["17", "15", "18", "0", "1", "2", "3", "8", "11", "9", "5", "6", "2", "1"], "time": [1069, 1101, 1330, 3286, 3986, 4768, 5568, 5851, 6585, 7518, 8517, 9433, 9799, 16880]}, "edge": {"target": [], "time": []}}}, "displayed_time": "16.62", "trialTime": 17283, "trial_type": "mouselab-mdp", "trial_index": 42, "time_elapsed": 1701366, "internal_node_id": "0.0-6.0-1.0-27.0"}}, {"uniqueid": "w31647799:a70266113", "current_trial": 43, "dateTime": 1693662041952, "trialdata": {"revealed_states": [], "clicked_states": ["10", "5", "17", "21", "32", "27", "6"], "num_clicks_accrued": [0, 0, 0, 0, 0, 0, 0, 0, 0, 0, 0, 0, 0], "stateRewards": ["", 1, -1, -7, -7, -22, 15, -13, 13, 26, -32, 38, -1, 1, -7, -4, 16, -62, 86, 12, -54, 56, 64, -2, -1, 6, 14, -57, 37, 62, -6, -25, 50, -70], "withholdReward": false, "trial_id": "mdp_trial_29", "block": "test", "trialIndex": 32, "score": -41.05, "costs": -15.05, "simulationMode": [null, null, null, null, null], "rewards": [1, -1, -7, 13, -32], "path": ["0", "0", "1", "2", "3", "8", "10"], "rt": [32457, 1443, 74, 45, 267], "actions": ["up", "up", "up", "left", "down"], "actionTimes": [33996, 35951, 36531, 37085, 37859], "queries": {"click": {"state": {"target": ["10", "5", "17", "21", "32", "27", "6"], "time": [3317, 6274, 9723, 12720, 16355, 20055, 23747]}, "edge": {"target": [], "time": []}}, "mouseover": {"state": {"target": ["1", "10", "11", "9", "5", "5", "6", "16", "17", "20", "21", "22", "31", "30", "32", "33", "25", "26", "29", "27", "11", "9", "4", "6", "16", "15", "13", "13", "15", "17", "17", "21", "22"], "time": [2304, 2986, 3837, 4871, 5553, 5920, 6736, 7902, 8985, 11050, 12316, 13299, 14715, 15730, 15964, 17148, 17932, 18484, 18714, 19648, 20631, 21429, 23045, 23211, 24494, 26309, 26509, 26993, 27392, 27443, 28559, 29509, 29741]}, "edge": {"target": [], "time": []}}, "mouseout": {"state": {"target": ["1", "10", "11", "9", "5", "5", "6", "16", "17", "17", "20", "21", "22", "31", "30", "32", "33", "25", "26", "29", "27", "11", "9", "4", "6", "16", "15", "13", "13", "15", "17", "17", "21"], "time": [2803, 3638, 4489, 5488, 5671, 6586, 7520, 8569, 9940, 10350, 12038, 13082, 14148, 15597, 15763, 17081, 17898, 18082, 18531, 19463, 20364, 21412, 22495, 23094, 24360, 26144, 26343, 26642, 27260, 27408, 27543, 28642, 29607]}, "edge": {"target": [], "time": []}}}, "displayed_time": "38.35", "trialTime": 39350, "trial_type": "mouselab-mdp", "trial_index": 43, "time_elapsed": 1740989, "internal_node_id": "0.0-6.0-1.0-28.0"}}, {"uniqueid": "w31647799:a70266113", "current_trial": 44, "dateTime": 1693662067173, "trialdata": {"revealed_states": [], "clicked_states": ["7", "9", "27", "18", "14", "20"], "num_clicks_accrued": [0, 0, 0, 0, 0, 0, 0, 0, 0, 0, 0, 0, 0], "stateRewards": ["", -2, -1, -3, -1, -78, -6, 2, -1, 22, -88, 32, 2, 2, -7, -8, -51, -17, 54, 2, -44, 54, 75, 2, -2, -8, -15, -29, 12, -67, 15, -1, -47, -47], "withholdReward": false, "trial_id": "mdp_trial_30", "block": "test", "trialIndex": 33, "score": 31.3, "costs": -11.7, "simulationMode": [null, null, null, null, null, null], "rewards": [2, 2, -7, -8, 54], "path": ["0", "0", "12", "13", "14", "15", "18"], "rt": [17120, 195, 98, 420, 950, 437], "actions": ["right", "right", "right", "right", "up", "left"], "actionTimes": [18832, 19030, 19657, 20593, 22056, 23009], "queries": {"click": {"state": {"target": ["7", "9", "27", "18", "14", "20"], "time": [3431, 6475, 9635, 12942, 15707, 16779]}, "edge": {"target": [], "time": []}}, "mouseover": {"state": {"target": ["1", "7", "6", "5", "9", "11", "10", "27", "28", "16", "18", "15", "17", "17", "14", "20"], "time": [2464, 2782, 3947, 5013, 6130, 7113, 8045, 9262, 10327, 11544, 12542, 13475, 13527, 13943, 15076, 16327]}, "edge": {"target": [], "time": []}}, "mouseout": {"state": {"target": ["22", "12", "0", "1", "7", "6", "5", "9", "11", "10", "27", "28", "16", "18", "15", "17", "17", "14", "20", "19"], "time": [881, 1031, 2248, 2531, 3644, 4781, 5746, 6797, 7928, 8846, 10094, 11095, 12276, 13108, 13493, 13643, 14908, 16076, 16956, 24553]}, "edge": {"target": [], "time": []}}}, "displayed_time": "23.52", "trialTime": 24966, "trial_type": "mouselab-mdp", "trial_index": 44, "time_elapsed": 1766211, "internal_node_id": "0.0-6.0-1.0-29.0"}}, {"uniqueid": "w31647799:a70266113", "current_trial": 45, "dateTime": 1693662111169, "trialdata": {"revealed_states": [], "clicked_states": ["17", "5", "10", "22", "21", "31", "27", "9", "18", "25", "29", "6"], "num_clicks_accrued": [0, 0, 0, 0, 0, 0, 0, 0, 0, 0, 0, 0, 0], "stateRewards": ["", 1, 1, 1, 15, -76, 52, -32, 14, -57, 37, 49, 1, -4, -3, 6, 83, -76, 25, 9, 36, -1, -17, -1, 4, 4, -2, -22, -21, 58, -15, -57, 49, -24], "withholdReward": false, "trial_id": "mdp_trial_31", "block": "test", "trialIndex": 34, "score": 38.400000000000006, "costs": -24.599999999999994, "simulationMode": [null, null, null, null, null], "rewards": [-1, 4, 4, -2, 58], "path": ["0", "0", "23", "24", "25", "26", "29"], "rt": [37186, 90, 327, 736, 360], "actions": ["left", "left", "left", "up", "left"], "actionTimes": [38789, 39381, 40217, 41460, 42333], "queries": {"click": {"state": {"target": ["17", "5", "10", "22", "21", "31", "27", "9", "18", "25", "29", "6"], "time": [3447, 6364, 9359, 12438, 15223, 18192, 21676, 24900, 28779, 31576, 32767, 35785]}, "edge": {"target": [], "time": []}}, "mouseover": {"state": {"target": ["12", "13", "14", "17", "16", "6", "5", "9", "11", "10", "2", "7", "7", "13", "22", "19", "20", "21", "32", "31", "30", "33", "29", "27", "11", "9", "6", "16", "18", "0", "23", "24", "25", "29", "28", "1", "16", "6", "4", "3", "2"], "time": [2291, 2389, 2706, 3006, 4041, 4907, 5840, 7006, 7906, 8954, 9820, 9919, 10519, 11520, 12136, 12953, 13884, 14534, 16300, 17733, 18632, 18866, 20049, 21266, 22297, 24380, 25445, 27128, 28360, 29461, 29611, 30750, 30860, 32393, 33310, 33393, 33860, 35408, 36327, 36609, 36708]}, "edge": {"target": [], "time": []}}, "mouseout": {"state": {"target": ["23", "12", "13", "14", "17", "16", "6", "5", "9", "11", "10", "2", "7", "7", "13", "22", "22", "19", "20", "21", "32", "31", "30", "33", "29", "27", "11", "9", "6", "16", "18", "0", "23", "24", "25", "29", "28", "1", "16", "6", "4", "3"], "time": [657, 2374, 2686, 2789, 3758, 4757, 5706, 6674, 7688, 8672, 9803, 9837, 10103, 11453, 11970, 12650, 12835, 13719, 14518, 15669, 17600, 18616, 18666, 19732, 20933, 22147, 24130, 25346, 26678, 28044, 29160, 29578, 30748, 30765, 32143, 33293, 33326, 33426, 35125, 36325, 36441, 36641]}, "edge": {"target": [], "time": []}}}, "displayed_time": "42.84", "trialTime": 43749, "trial_type": "mouselab-mdp", "trial_index": 45, "time_elapsed": 1810207, "internal_node_id": "0.0-6.0-1.0-30.0"}}, {"uniqueid": "w31647799:a70266113", "current_trial": 46, "dateTime": 1693662128909, "trialdata": {"revealed_states": [], "clicked_states": ["1", "10", "5"], "num_clicks_accrued": [0, 0, 0, 0, 0, 0, 0, 0, 0, 0, 0, 0, 0], "stateRewards": ["", -2, 2, 3, -7, -31, -33, 29, -8, -57, 50, -83, -1, -1, 5, 13, -23, -62, 25, 5, -66, -85, 14, 1, -2, -1, 16, 71, 33, -19, -14, 5, -43, 79], "withholdReward": false, "trial_id": "mdp_trial_32", "block": "test", "trialIndex": 35, "score": 40.95, "costs": -4.05, "simulationMode": [null, null, null, null, null, null], "rewards": [-2, 2, 3, -8, 50], "path": ["0", "0", "1", "2", "3", "8", "10"], "rt": [7125, 147, 159, 62, 267, 548], "actions": ["up", "up", "up", "up", "left", "down"], "actionTimes": [9357, 9506, 10196, 10765, 11536, 12600], "queries": {"click": {"state": {"target": ["1", "10", "5"], "time": [3221, 4082, 6982]}, "edge": {"target": [], "time": []}}, "mouseover": {"state": {"target": ["1", "10", "11", "9", "5", "5", "6"], "time": [2906, 3790, 4623, 5573, 6256, 6590, 7541]}, "edge": {"target": [], "time": []}}, "mouseout": {"state": {"target": ["2", "0", "1", "10", "11", "9", "5", "5", "6", "7", "4", "6"], "time": [544, 1888, 3557, 4374, 5256, 6222, 6289, 7272, 13618, 15484, 15700, 15750]}, "edge": {"target": [], "time": []}}}, "displayed_time": "16.23", "trialTime": 17492, "trial_type": "mouselab-mdp", "trial_index": 46, "time_elapsed": 1827947, "internal_node_id": "0.0-6.0-1.0-31.0"}}, {"uniqueid": "w31647799:a70266113", "current_trial": 47, "dateTime": 1693662156584, "trialdata": {"revealed_states": [], "clicked_states": ["10", "6", "18", "21", "32", "28"], "num_clicks_accrued": [0, 0, 0, 0, 0, 0, 0, 0, 0, 0, 0, 0, 0], "stateRewards": ["", -2, 2, 2, -6, 9, 37, 50, -13, -7, -18, -75, -2, -4, 4, 7, 23, -57, -66, -7, -81, -48, -76, 1, 1, -8, 1, 51, -2, 70, 14, 59, 71, -37], "withholdReward": false, "trial_id": "mdp_trial_33", "block": "test", "trialIndex": 36, "score": 66.1, "costs": -12.9, "simulationMode": [null, null, null, null, null, null], "rewards": [1, 1, -8, 14, 71], "path": ["0", "0", "23", "24", "25", "30", "32"], "rt": [20464, 184, 3, 380, 860, 364], "actions": ["left", "left", "left", "left", "down", "down"], "actionTimes": [21983, 22169, 22696, 23588, 24967, 25837], "queries": {"click": {"state": {"target": ["10", "6", "18", "21", "32", "28"], "time": [2884, 6354, 9516, 12838, 15875, 20281]}, "edge": {"target": [], "time": []}}, "mouseover": {"state": {"target": ["1", "10", "11", "9", "5", "6", "16", "17", "15", "18", "13", "14", "20", "21", "22", "31", "30", "32", "33", "25", "29", "26", "28"], "time": [2234, 2482, 3400, 4151, 5066, 5832, 7048, 8064, 8846, 9096, 10295, 10995, 11395, 12528, 13378, 14244, 15361, 15528, 16310, 17709, 18109, 19524, 19791]}, "edge": {"target": [], "time": []}}, "mouseout": {"state": {"target": ["13", "12", "1", "10", "11", "9", "5", "6", "16", "17", "15", "18", "18", "13", "14", "20", "21", "22", "31", "30", "32", "33", "25", "29", "26"], "time": [766, 781, 2399, 3177, 4017, 4833, 5765, 6731, 7730, 8813, 8951, 9733, 10129, 10963, 11229, 12162, 13052, 14128, 15229, 15395, 16178, 17476, 17992, 19440, 19658]}, "edge": {"target": [], "time": []}}}, "displayed_time": "26.36", "trialTime": 27418, "trial_type": "mouselab-mdp", "trial_index": 47, "time_elapsed": 1855622, "internal_node_id": "0.0-6.0-1.0-32.0"}}, {"uniqueid": "w31647799:a70266113", "current_trial": 48, "dateTime": 1693662198118, "trialdata": {"revealed_states": [], "clicked_states": ["32", "28", "27", "22", "14", "17", "5", "7", "29", "31", "16"], "num_clicks_accrued": [0, 0, 0, 0, 0, 0, 0, 0, 0, 0, 0, 0, 0], "stateRewards": ["", 1, 2, -8, 9, 18, -83, -11, 6, -64, -48, 17, -2, -2, -5, -3, -24, -3, -86, -2, 48, -41, -22, -2, 4, 7, 8, 81, 13, -48, 10, 61, 19, 57], "withholdReward": false, "trial_id": "mdp_trial_34", "block": "test", "trialIndex": 37, "score": 57.550000000000004, "costs": -22.449999999999996, "simulationMode": [null, null, null, null, null, null], "rewards": [-2, 4, 7, 10, 61], "path": ["0", "0", "23", "24", "25", "30", "31"], "rt": [34208, 149, 92, 312, 865, 134], "actions": ["left", "left", "left", "left", "down", "right"], "actionTimes": [36203, 36354, 36954, 37788, 39158, 39809], "queries": {"click": {"state": {"target": ["32", "28", "27", "22", "14", "17", "5", "7", "29", "31", "16"], "time": [3781, 6594, 9674, 12466, 16277, 17286, 20211, 23464, 26693, 30597, 34685]}, "edge": {"target": [], "time": []}}, "mouseover": {"state": {"target": ["23", "24", "30", "32", "33", "30", "31", "24", "28", "27", "29", "27", "1", "0", "23", "0", "22", "19", "21", "20", "14", "17", "16", "6", "5", "9", "11", "2", "7", "2", "10", "26", "29", "25", "33", "30", "31", "19", "21", "20", "15", "16"], "time": [2607, 2640, 2858, 2940, 4375, 5025, 5074, 5940, 6040, 7204, 8321, 9272, 10403, 10753, 11036, 11689, 12104, 12936, 13170, 14487, 15868, 16636, 17969, 18933, 19618, 20716, 21684, 22499, 23064, 23749, 23883, 25547, 25630, 27430, 28598, 29961, 30229, 31477, 31810, 32893, 34126, 34276]}, "edge": {"target": [], "time": []}}, "mouseout": {"state": {"target": ["28", "23", "24", "30", "32", "33", "30", "31", "24", "28", "27", "29", "27", "1", "0", "23", "0", "22", "19", "21", "20", "14", "17", "16", "6", "5", "9", "11", "2", "7", "2", "10", "26", "29", "25", "33", "30", "31", "19", "21", "20", "15", "16"], "time": [1008, 2624, 2757, 2923, 4092, 5024, 5057, 5923, 5974, 6939, 8121, 9006, 10070, 10554, 10920, 11671, 11705, 12889, 13003, 14405, 15535, 16490, 17602, 18734, 19602, 20424, 21384, 22449, 22882, 23734, 23783, 25514, 25565, 27096, 28348, 29795, 30079, 30810, 31677, 32560, 33777, 34143, 34899]}, "edge": {"target": [], "time": []}}}, "displayed_time": "40.33", "trialTime": 41289, "trial_type": "mouselab-mdp", "trial_index": 48, "time_elapsed": 1897156, "internal_node_id": "0.0-6.0-1.0-33.0"}}, {"uniqueid": "w31647799:a70266113", "current_trial": 49, "dateTime": 1693662217067, "trialdata": {"revealed_states": [], "clicked_states": ["11", "6", "20"], "num_clicks_accrued": [0, 0, 0, 0, 0, 0, 0, 0, 0, 0, 0, 0, 0], "stateRewards": ["", 2, -1, 8, -2, -16, 69, -39, -7, -13, -27, -86, 2, -2, 2, 13, -34, -16, -20, -5, 19, 81, 32, -2, -1, 2, -14, 20, 80, 58, 4, 70, 12, 73], "withholdReward": false, "trial_id": "mdp_trial_35", "block": "test", "trialIndex": 38, "score": 69.55, "costs": -6.449999999999999, "simulationMode": [null, null, null, null, null], "rewards": [2, -1, 8, -2, 69], "path": ["0", "0", "1", "2", "3", "4", "6"], "rt": [12280, 42, 233, 645, 205], "actions": ["up", "up", "up", "right", "right"], "actionTimes": [13877, 14433, 15190, 16352, 17062], "queries": {"click": {"state": {"target": ["11", "6", "20"], "time": [3803, 6690, 10038]}, "edge": {"target": [], "time": []}}, "mouseover": {"state": {"target": ["1", "11", "9", "5", "6", "16", "17", "20", "21", "22", "13"], "time": [2096, 3111, 4178, 5278, 6245, 7295, 8478, 9691, 10444, 11160, 12060]}, "edge": {"target": [], "time": []}}, "mouseout": {"state": {"target": ["1", "11", "9", "5", "6", "16", "17", "20", "20", "21", "22", "13"], "time": [2512, 4095, 5145, 6012, 7028, 8012, 9110, 10277, 10310, 11127, 11943, 18106]}, "edge": {"target": [], "time": []}}}, "displayed_time": "17.57", "trialTime": 18677, "trial_type": "mouselab-mdp", "trial_index": 49, "time_elapsed": 1916104, "internal_node_id": "0.0-6.0-1.0-34.0"}}, {"uniqueid": "w31647799:a70266113", "current_trial": 50, "dateTime": 1693662235220, "trialdata": {"revealed_states": [], "clicked_states": ["11"], "num_clicks_accrued": [0, 0, 0, 0, 0, 0, 0, 0, 0, 0, 0, 0, 0], "stateRewards": ["", -1, 2, 6, 11, 21, -21, -21, -6, 48, -71, 88, -1, -3, 3, 7, 64, 2, 9, -4, 37, -67, 72, 2, 2, -8, -8, -10, 71, -40, -3, 73, 80, 47], "withholdReward": false, "trial_id": "mdp_trial_36", "block": "test", "trialIndex": 39, "score": 86.85, "costs": -2.15, "simulationMode": [null, null, null, null, null], "rewards": [-1, 2, 6, -6, 88], "path": ["0", "0", "1", "2", "3", "8", "11"], "rt": [6357, 92, 98, 119, 41], "actions": ["up", "up", "up", "left", "left"], "actionTimes": [8205, 8802, 9407, 10045, 10600], "queries": {"click": {"state": {"target": ["11"], "time": [3484]}, "edge": {"target": [], "time": []}}, "mouseover": {"state": {"target": ["1", "10", "11", "9", "5", "6", "16"], "time": [2428, 2811, 3062, 3994, 4878, 5762, 6711]}, "edge": {"target": [], "time": []}}, "mouseout": {"state": {"target": ["0", "1", "10", "11", "9", "5", "6", "16"], "time": [2230, 2494, 2862, 3778, 4646, 5595, 6462, 12807]}, "edge": {"target": [], "time": []}}}, "displayed_time": "15.85", "trialTime": 17889, "trial_type": "mouselab-mdp", "trial_index": 50, "time_elapsed": 1934258, "internal_node_id": "0.0-6.0-1.0-35.0"}}, {"uniqueid": "w31647799:a70266113", "current_trial": 51, "dateTime": 1693662254646, "trialdata": {"revealed_states": [], "clicked_states": ["10", "5", "18"], "num_clicks_accrued": [0, 0, 0, 0, 0, 0, 0, 0, 0, 0, 0, 0, 0], "stateRewards": ["", -2, 3, -5, -7, 66, 43, -60, -4, -70, -75, 4, -1, 2, 2, -13, 54, 11, -40, -1, 77, 32, 15, -2, 3, -8, -9, -35, 83, -27, 6, -74, -34, 44], "withholdReward": false, "trial_id": "mdp_trial_37", "block": "test", "trialIndex": 40, "score": 48.55, "costs": -6.449999999999999, "simulationMode": [null, null, null, null, null, null], "rewards": [-2, 3, -5, -7, 66], "path": ["0", "0", "1", "2", "3", "4", "5"], "rt": [9196, 147, 44, 77, 325, 113], "actions": ["up", "up", "up", "up", "right", "up"], "actionTimes": [11403, 11552, 12128, 12694, 13524, 14146], "queries": {"click": {"state": {"target": ["10", "5", "18"], "time": [3643, 6412, 9179]}, "edge": {"target": [], "time": []}}, "mouseover": {"state": {"target": ["1", "10", "11", "9", "5", "5", "6", "16", "18", "15", "16"], "time": [2837, 2987, 4170, 5086, 5670, 6053, 6770, 7845, 8935, 9701, 10367]}, "edge": {"target": [], "time": []}}, "mouseout": {"state": {"target": ["14", "13", "12", "0", "1", "10", "11", "9", "5", "5", "6", "16", "18", "18", "15", "16", "16"], "time": [936, 1253, 1320, 2659, 2935, 3938, 4821, 5654, 5687, 6687, 7686, 8586, 9468, 9668, 9858, 10385, 17132]}, "edge": {"target": [], "time": []}}}, "displayed_time": "16.21", "trialTime": 19148, "trial_type": "mouselab-mdp", "trial_index": 51, "time_elapsed": 1953684, "internal_node_id": "0.0-6.0-1.0-36.0"}}, {"uniqueid": "w31647799:a70266113", "current_trial": 52, "dateTime": 1693662309716, "trialdata": {"revealed_states": [], "clicked_states": ["29", "9", "7", "17", "20", "32", "24", "28", "11", "16", "22", "5", "25", "23", "31", "6"], "num_clicks_accrued": [0, 0, 0, 0, 0, 0, 0, 0, 0, 0, 0, 0, 0], "stateRewards": ["", -2, -2, -3, -6, -15, -11, 41, -12, -63, -76, 2, -2, -3, 8, 9, -36, -2, -18, -16, -32, -85, -17, -2, 1, 5, -16, 82, 35, -88, -1, 80, -82, -20], "withholdReward": false, "trial_id": "mdp_trial_38", "block": "test", "trialIndex": 41, "score": 54.00000000000001, "costs": -28.999999999999993, "simulationMode": [null, null, null, null, null], "rewards": [-2, 1, 5, -1, 80], "path": ["0", "0", "23", "24", "25", "30", "31"], "rt": [48791, 40, 318, 213, 273], "actions": ["left", "left", "left", "down", "right"], "actionTimes": [50571, 51125, 51969, 52697, 53474], "queries": {"click": {"state": {"target": ["29", "9", "7", "17", "20", "32", "24", "28", "11", "16", "22", "5", "25", "23", "31", "6"], "time": [3700, 6524, 9620, 12481, 15656, 19163, 23329, 24121, 26995, 29798, 34237, 37557, 40636, 42236, 43172, 46555]}, "edge": {"target": [], "time": []}}, "mouseover": {"state": {"target": ["23", "24", "25", "29", "27", "11", "9", "5", "6", "7", "2", "10", "16", "17", "15", "18", "13", "14", "20", "21", "22", "32", "31", "30", "33", "30", "24", "28", "25", "33", "27", "11", "27", "10", "2", "16", "6", "5", "4", "7", "12", "22", "21", "13", "5", "8", "10", "28", "25", "25", "24", "23", "31", "30", "33", "28", "2", "6"], "time": [2506, 2705, 2839, 3338, 4223, 4940, 6172, 7222, 8086, 9288, 9952, 10219, 11118, 12119, 12741, 12970, 13918, 14383, 15218, 16683, 17634, 18783, 19583, 21181, 21431, 22631, 22931, 23698, 24632, 24980, 25894, 26345, 27894, 28810, 28862, 29346, 30794, 32042, 32958, 33042, 33342, 33825, 34675, 36476, 37206, 38839, 39005, 39939, 40139, 40255, 41141, 41222, 42671, 43492, 43941, 45788, 45822, 45872]}, "edge": {"target": [], "time": []}}, "mouseout": {"state": {"target": ["17", "15", "18", "18", "23", "24", "25", "29", "27", "11", "9", "5", "6", "7", "2", "10", "16", "17", "15", "18", "13", "14", "20", "21", "22", "32", "31", "30", "33", "30", "24", "28", "28", "25", "33", "27", "11", "11", "27", "10", "2", "16", "6", "5", "4", "7", "12", "22", "21", "13", "5", "8", "10", "28", "25", "25", "24", "23", "31", "30", "33", "28", "2", "6", "6"], "time": [639, 672, 723, 939, 2573, 2738, 2939, 3957, 4773, 5927, 6772, 7970, 8971, 9936, 10068, 10902, 11919, 12738, 12836, 13784, 14267, 15135, 16383, 17367, 18201, 19550, 21164, 21347, 22546, 22680, 23664, 24433, 24531, 24647, 25846, 26229, 27207, 27544, 28794, 28828, 28878, 30015, 31759, 32925, 32991, 33059, 33424, 34658, 36442, 36492, 38223, 38889, 39921, 39972, 40172, 41139, 41172, 42539, 43490, 43672, 45772, 45804, 45838, 46768, 47168]}, "edge": {"target": [], "time": []}}}, "displayed_time": "53.98", "trialTime": 54813, "trial_type": "mouselab-mdp", "trial_index": 52, "time_elapsed": 2008754, "internal_node_id": "0.0-6.0-1.0-37.0"}}, {"uniqueid": "w31647799:a70266113", "current_trial": 53, "dateTime": 1693662336231, "trialdata": {"revealed_states": [], "clicked_states": ["11", "6", "20", "31", "29"], "num_clicks_accrued": [0, 0, 0, 0, 0, 0, 0, 0, 0, 0, 0, 0, 0], "stateRewards": ["", 2, -1, -2, -5, -47, -57, -33, -11, 31, -18, -72, -2, 1, -4, -8, -46, -53, -50, 15, -85, -9, 39, -2, -2, 1, 14, -1, -8, 53, -12, -41, -74, 62], "withholdReward": false, "trial_id": "mdp_trial_39", "block": "test", "trialIndex": 42, "score": 53.25, "costs": -10.75, "simulationMode": [null, null, null, null, null], "rewards": [-2, -2, 1, 14, 53], "path": ["0", "0", "23", "24", "25", "26", "29"], "rt": [19905, 95, 35, 302, 3], "actions": ["left", "left", "left", "up", "left"], "actionTimes": [21832, 22447, 22986, 23802, 24321], "queries": {"click": {"state": {"target": ["11", "6", "20", "31", "29"], "time": [4044, 6973, 10417, 13654, 17028]}, "edge": {"target": [], "time": []}}, "mouseover": {"state": {"target": ["1", "10", "11", "9", "5", "5", "6", "16", "17", "20", "21", "22", "31", "32", "33", "29", "26", "28", "27", "10", "2", "10"], "time": [2958, 3208, 3691, 4674, 5242, 5559, 6425, 7891, 8991, 10123, 10923, 12106, 13272, 14303, 15355, 16469, 17354, 17520, 18952, 19685, 19817, 20167]}, "edge": {"target": [], "time": []}}, "mouseout": {"state": {"target": ["1", "10", "11", "9", "5", "5", "6", "6", "16", "17", "20", "21", "22", "31", "32", "33", "29", "26", "28", "27", "10", "2"], "time": [3175, 3241, 4408, 5227, 5275, 6225, 7185, 7573, 8657, 9742, 10708, 11790, 12789, 13867, 15055, 16120, 17337, 17471, 18669, 19669, 19718, 20034]}, "edge": {"target": [], "time": []}}}, "displayed_time": "24.85", "trialTime": 26256, "trial_type": "mouselab-mdp", "trial_index": 53, "time_elapsed": 2035269, "internal_node_id": "0.0-6.0-1.0-38.0"}}, {"uniqueid": "w31647799:a70266113", "current_trial": 54, "dateTime": 1693662356096, "trialdata": {"revealed_states": [], "clicked_states": ["10", "5", "20", "31"], "num_clicks_accrued": [0, 0, 0, 0, 0, 0, 0, 0, 0, 0, 0, 0, 0], "stateRewards": ["", 1, -4, 6, -3, 40, 76, -51, 5, -24, -63, 44, -2, -2, 8, 1, 76, -85, -58, 10, 59, 20, 11, -2, 3, -3, 3, -82, -10, 54, -7, -57, -6, -32], "withholdReward": false, "trial_id": "mdp_trial_40", "block": "test", "trialIndex": 43, "score": 64.4, "costs": -8.6, "simulationMode": [null, null, null, null, null], "rewards": [-2, -2, 8, 10, 59], "path": ["0", "0", "12", "13", "14", "19", "20"], "rt": [13519, 34, 545, 338, 162], "actions": ["right", "right", "right", "down", "right"], "actionTimes": [15059, 15606, 16683, 17526, 18183], "queries": {"click": {"state": {"target": ["10", "5", "20", "31"], "time": [2753, 5634, 8486, 11972]}, "edge": {"target": [], "time": []}}, "mouseover": {"state": {"target": ["1", "10", "11", "9", "5", "5", "6", "16", "17", "20", "21", "22", "31", "31", "32"], "time": [1994, 2376, 3211, 4195, 4910, 5359, 5927, 6261, 6977, 8193, 9176, 10425, 11222, 11572, 13156]}, "edge": {"target": [], "time": []}}, "mouseout": {"state": {"target": ["10", "1", "10", "11", "9", "5", "5", "6", "16", "17", "20", "20", "21", "22", "31", "31"], "time": [676, 2260, 3027, 3895, 4892, 4976, 5911, 5978, 6927, 7777, 8810, 8927, 10276, 11123, 11340, 12789]}, "edge": {"target": [], "time": []}}}, "displayed_time": "18.72", "trialTime": 19601, "trial_type": "mouselab-mdp", "trial_index": 54, "time_elapsed": 2055133, "internal_node_id": "0.0-6.0-1.0-39.0"}}, {"uniqueid": "w31647799:a70266113", "current_trial": 55, "dateTime": 1693662423045, "trialdata": {"rt": 66945, "response": {"Q0": "$-16 to 16", "Q1": "$-32 to $32", "Q2": "$-88 to $88", "Q3": "The cost for clicking on nodes varied between nodes.", "Q4": "Very motivated"}, "question_order": [0, 1, 2, 3, 4], "trial_id": "final_quiz_control", "trial_type": "survey-multi-choice", "trial_index": 55, "time_elapsed": 2122083, "internal_node_id": "0.0-6.0-2.0"}}, {"uniqueid": "w31647799:a70266113", "current_trial": 56, "dateTime": 1693662545677, "trialdata": {"rt": 122624, "response": {"Q0": "i tried my best to reveal the nodes faster before the 3 seconds countdown exhausted", "Q1": "yes, i tend to reveal more nodes so i could go for the highest score", "Q2": "wasn't difficult"}, "trial_id": "self_report_control", "trial_type": "survey-text", "trial_index": 56, "time_elapsed": 2244715, "internal_node_id": "0.0-6.0-3.0"}}, {"uniqueid": "w31647799:a70266113", "current_trial": 57, "dateTime": 1693662618817, "trialdata": {"rt": 73137, "response": {"Q0": "Disagree", "Q1": "Disagree", "Q2": "Disagree", "Q3": "Agree", "Q4": "Disagree", "Q5": "Agree", "Q6": "Disagree"}, "question_order": [0, 1, 2, 3, 4, 5, 6], "trial_id": "self_report_2", "trial_type": "survey-multi-choice", "trial_index": 57, "time_elapsed": 2317855, "internal_node_id": "0.0-6.0-4.0"}}, {"uniqueid": "w31647799:a70266113", "current_trial": 58, "dateTime": 1693662654392, "trialdata": {"rt": 35570, "response": {"gender": "male", "age": "29", "colorblind": "0", "effort": "0"}, "trial_type": "survey-html-form", "trial_index": 58, "time_elapsed": 2353430, "internal_node_id": "0.0-6.0-5.0"}}, {"uniqueid": "w31647799:a70266113", "current_trial": 59, "dateTime": 1693662740941, "trialdata": {"rt": 86544, "response": {"Q0": "no", "Q1": "no. i have not done done this particular task before.", "Q2": "the study was excellent"}, "trial_type": "survey-text", "trial_index": 59, "time_elapsed": 2439979, "internal_node_id": "0.0-6.0-6.0"}}, {"uniqueid": "w31647799:a70266113", "current_trial": 60, "dateTime": 1693662784423, "trialdata": {"rt": 43479, "stimulus": "<h1>Completion Code Instructions (1/2)</h1>\n<br><br><br><br>\nYou have reached the end of the experiment! The completion code consists of two parts: (1) a code with 2 characters (2) a code with 6 characters. On this page, you will receive the second part of the code. The first part of the completion code will be on the next page.\n<br><br>\nThe second part of your completion code is: <b>EWEK22</b>\n<br><br>\nPlease note this down. Then, press 'Next' in order to find the first part of your completion code. Once the data has been saved, you will receive this code either in this window or in the original browser window where you started the experiment.\n <br><br>\n<h2 style='color: red;'>Note: this is <strong>NOT</strong> the full completion code. Copy this down and click 'Next' to get the full completion code on the next page.</h2>", "response": 0, "trial_type": "html-button-response", "trial_index": 60, "time_elapsed": 2483461, "internal_node_id": "0.0-6.0-7.0"}}, {"uniqueid": "w31647799:a70266113", "current_trial": 61, "dateTime": 1693662785426, "trialdata": {"success": true, "trial_type": "fullscreen", "trial_index": 61, "time_elapsed": 2484464, "internal_node_id": "0.0-7.0"}}], "questiondata": {"params": {"CODE": "C6DMOQA6", "MIN_TIME": 14, "inspectCost": 1, "startTime": "Sat Sep 02 2023 14:11:38 GMT+0100 (British Summer Time)", "bonusRate": 0.002, "variance": "1_2_4_8_44", "branching": "31123"}, "final_score": 1712}, "eventdata": [{"eventtype": "initialized", "value": null, "timestamp": 1693660298083, "interval": 0}, {"eventtype": "window_resize", "value": [1024, 654], "timestamp": 1693660298083, "interval": 0}, {"eventtype": "window_resize", "value": [1024, 654], "timestamp": 1693660298573, "interval": 490}, {"eventtype": "window_resize", "value": [1366, 768], "timestamp": 1693660304494, "interval": 5921}, {"eventtype": "focus", "value": "off", "timestamp": 1693660937664, "interval": 633170}, {"eventtype": "focus", "value": "on", "timestamp": 1693660937664, "interval": 0}, {"eventtype": "window_resize", "value": [1024, 654], "timestamp": 1693660937872, "interval": 208}, {"eventtype": "window_resize", "value": [1366, 768], "timestamp": 1693660939768, "interval": 1896}, {"eventtype": "window_resize", "value": [1024, 654], "timestamp": 1693662632727, "interval": 1692959}, {"eventtype": "window_resize", "value": [1366, 768], "timestamp": 1693662638337, "interval": 5610}], "useragent": "Mozilla/5.0 (Windows NT 10.0; Win64; x64) AppleWebKit/537.36 (KHTML, like Gecko) Chrome/116.0.0.0 Safari/537.36", "mode": "live", "id": "w31647799:a70266113", "status": "user data saved", "Beginhit": "2023-09-02 13:11:40.809369", "Beginexp": "2023-09-02 13:11:51.730004", "Endhit": "2023-09-02 13:53:13.710439", "psiturkStatus": 3, "browser": "<redacted>", "platform": "windows", "language": "en-US"}