{"condition": 1, "counterbalance": 0, "assignmentId": "a24149862", "workerId": "w30515482", "hitId": "h12088018", "currenttrial": 62, "bonus": 0, "data": [{"uniqueid": "w30515482:a24149862", "current_trial": 0, "dateTime": 1691142328458, "trialdata": {"success": true, "trial_type": "fullscreen", "trial_index": 0, "time_elapsed": 4977, "internal_node_id": "0.0-0.0"}}, {"uniqueid": "w30515482:a24149862", "current_trial": 1, "dateTime": 1691142341395, "trialdata": {"view_history": [{"page_index": 0, "viewing_time": 12922}], "rt": 12924, "trial_id": "exp_instructions_misaligned", "trial_type": "instructions", "trial_index": 1, "time_elapsed": 17914, "internal_node_id": "0.0-1.0"}}, {"uniqueid": "w30515482:a24149862", "current_trial": 2, "dateTime": 1691142346083, "trialdata": {"success": true, "trial_type": "fullscreen", "trial_index": 2, "time_elapsed": 22603, "internal_node_id": "0.0-2.0-0.0"}}, {"uniqueid": "w30515482:a24149862", "current_trial": 3, "dateTime": 1691142583359, "trialdata": {"view_history": [{"page_index": 0, "viewing_time": 59778}, {"page_index": 1, "viewing_time": 75697}, {"page_index": 2, "viewing_time": 31196}, {"page_index": 3, "viewing_time": 70593}], "rt": 237265, "trial_id": "mouselab_instructions_1_misaligned", "trial_type": "instructions", "trial_index": 3, "time_elapsed": 259878, "internal_node_id": "0.0-2.0-1.0"}}, {"uniqueid": "w30515482:a24149862", "current_trial": 4, "dateTime": 1691142614300, "trialdata": {"revealed_states": [], "clicked_states": ["23", "24"], "num_clicks_accrued": [0, 0, 0, 0, 0, 0, 0, 0, 0, 0, 0, 0, 0], "stateRewards": ["", -10, 10, -10, 10, 10, 10, 10, 10, 10, 10, 10, -10, 10, -10, -10, 10, 10, 10, -10, 10, -10, -10, 10, 10, 10, 10, -10, 10, -10, 10, 10, -10, -10], "withholdReward": false, "trial_id": "practice_1", "block": "test", "trialIndex": 0, "score": 32.5, "costs": -1, "simulationMode": [null, null, null, null, null], "rewards": [10, 10, 10, 10, -10], "path": ["0", "0", "23", "24", "25", "26", "27"], "rt": [13388, 455, 1244, 1417, 302], "actions": ["left", "left", "left", "up", "up"], "actionTimes": [16634, 17635, 19419, 21381, 22235], "queries": {"click": {"state": {"target": ["23", "24"], "time": [7684, 13391]}, "edge": {"target": [], "time": []}}, "mouseover": {"state": {"target": ["23", "24", "23", "24", "25", "24", "25"], "time": [6310, 6599, 7216, 10473, 10817, 11364, 15301]}, "edge": {"target": [], "time": []}}, "mouseout": {"state": {"target": ["28", "27", "26", "23", "0", "0", "23", "24", "23", "24", "25", "24", "25"], "time": [331, 392, 1495, 2131, 2208, 5954, 6546, 6951, 9079, 10755, 11035, 15263, 15369]}, "edge": {"target": [], "time": []}}}, "displayed_time": "22.76", "trialTime": 29953, "trial_type": "mouselab-mdp", "trial_index": 4, "time_elapsed": 290819, "internal_node_id": "0.0-2.0-2.0-0.0"}}, {"uniqueid": "w30515482:a24149862", "current_trial": 5, "dateTime": 1691142628880, "trialdata": {"revealed_states": [], "clicked_states": [], "num_clicks_accrued": [0, 0, 0, 0, 0, 0, 0, 0, 0, 0, 0, 0, 0], "stateRewards": ["", -10, 10, -10, 10, 10, -10, 10, 10, 10, -10, 10, -10, -10, -10, 10, 10, 10, 10, -10, -10, -10, -10, -10, 10, 10, 10, -10, 10, -10, -10, -10, -10, -10], "withholdReward": false, "trial_id": "practice_2", "block": "test", "trialIndex": 1, "score": -6.5, "costs": 0, "simulationMode": [null, null, null, null, null], "rewards": [-10, 10, -10, 10, -10], "path": ["0", "0", "1", "2", "3", "4", "6"], "rt": [2349, 453, 373, 3328, 153], "actions": ["up", "up", "up", "right", "right"], "actionTimes": [4148, 5146, 6076, 9940, 10631], "queries": {"click": {"state": {"target": [], "time": []}, "edge": {"target": [], "time": []}}, "mouseover": {"state": {"target": [], "time": []}, "edge": {"target": [], "time": []}}, "mouseout": {"state": {"target": ["29", "23", "0"], "time": [828, 906, 12396]}, "edge": {"target": [], "time": []}}}, "displayed_time": "11.17", "trialTime": 14146, "trial_type": "mouselab-mdp", "trial_index": 5, "time_elapsed": 305399, "internal_node_id": "0.0-2.0-2.0-1.0"}}, {"uniqueid": "w30515482:a24149862", "current_trial": 6, "dateTime": 1691142666498, "trialdata": {"view_history": [{"page_index": 0, "viewing_time": 29969}, {"page_index": 1, "viewing_time": 7642}], "rt": 37612, "trial_id": "mouselab_instructions_2_misaligned", "trial_type": "instructions", "trial_index": 6, "time_elapsed": 343018, "internal_node_id": "0.0-2.0-3.0"}}, {"uniqueid": "w30515482:a24149862", "current_trial": 7, "dateTime": 1691142719183, "trialdata": {"rt": 52677, "response": {"Q0": "The cost for clicking on nodes may vary between nodes.", "Q1": "The better I perform the higher my bonus will be.", "Q2": "No, the amount of cash at each node of the web may be different each time.", "Q3": "To get the highest total score.", "Q4": "Any time during the round.", "Q5": "3 seconds"}, "question_order": [0, 1, 2, 3, 4, 5], "correct": {"Q0": "The cost for clicking on nodes may vary between nodes.", "Q1": "The better I perform the higher my bonus will be.", "Q2": "No, the amount of cash at each node of the web may be different each time.", "Q3": "To get the highest total score.", "Q4": "Only before moving the spider.", "Q5": "3 seconds"}, "trial_id": "mouselab_quiz_misaligned", "trial_type": "survey-multi-choice", "trial_index": 7, "time_elapsed": 395703, "internal_node_id": "0.0-2.0-4.0"}}, {"uniqueid": "w30515482:a24149862", "current_trial": 8, "dateTime": 1691142728045, "trialdata": {"success": true, "trial_type": "fullscreen", "trial_index": 8, "time_elapsed": 404565, "internal_node_id": "0.0-2.1-0.1"}}, {"uniqueid": "w30515482:a24149862", "current_trial": 9, "dateTime": 1691142850931, "trialdata": {"view_history": [{"page_index": 0, "viewing_time": 91318}, {"page_index": 1, "viewing_time": 17906}, {"page_index": 2, "viewing_time": 7439}, {"page_index": 3, "viewing_time": 6217}], "rt": 122882, "trial_id": "mouselab_instructions_1_misaligned", "trial_type": "instructions", "trial_index": 9, "time_elapsed": 527450, "internal_node_id": "0.0-2.1-1.1"}}, {"uniqueid": "w30515482:a24149862", "current_trial": 10, "dateTime": 1691142868301, "trialdata": {"revealed_states": [], "clicked_states": ["23"], "num_clicks_accrued": [0, 0, 0, 0, 0, 0, 0, 0, 0, 0, 0, 0, 0], "stateRewards": ["", -10, 10, -10, 10, 10, 10, 10, 10, 10, 10, 10, -10, 10, -10, -10, 10, 10, 10, -10, 10, -10, -10, 10, 10, 10, 10, -10, 10, -10, 10, 10, -10, -10], "withholdReward": false, "trial_id": "practice_1", "block": "test", "trialIndex": 2, "score": 33, "costs": -0.5, "simulationMode": [null, null, null, null, null], "rewards": [10, 10, 10, 10, -10], "path": ["0", "0", "23", "24", "25", "26", "27"], "rt": [4573, 4441, 598, 716, 226], "actions": ["left", "left", "left", "up", "up"], "actionTimes": [6287, 11282, 12434, 13692, 14478], "queries": {"click": {"state": {"target": ["23"], "time": [4227]}, "edge": {"target": [], "time": []}}, "mouseover": {"state": {"target": ["23"], "time": [3522]}, "edge": {"target": [], "time": []}}, "mouseout": {"state": {"target": ["0", "23", "24", "25"], "time": [3071, 7412, 9974, 10097]}, "edge": {"target": [], "time": []}}}, "displayed_time": "15.02", "trialTime": 16919, "trial_type": "mouselab-mdp", "trial_index": 10, "time_elapsed": 544820, "internal_node_id": "0.0-2.1-2.1-0.1"}}, {"uniqueid": "w30515482:a24149862", "current_trial": 11, "dateTime": 1691142888486, "trialdata": {"revealed_states": [], "clicked_states": ["23", "24", "12", "1"], "num_clicks_accrued": [0, 0, 0, 0, 0, 0, 0, 0, 0, 0, 0, 0, 0], "stateRewards": ["", -10, 10, -10, 10, 10, -10, 10, 10, 10, -10, 10, -10, -10, -10, 10, 10, 10, 10, -10, -10, -10, -10, -10, 10, 10, 10, -10, 10, -10, -10, -10, -10, -10], "withholdReward": false, "trial_id": "practice_2", "block": "test", "trialIndex": 3, "score": -8.5, "costs": -2, "simulationMode": [null, null, null, null, null], "rewards": [-10, 10, 10, -10, -10], "path": ["0", "0", "23", "24", "25", "30", "32"], "rt": [10280, 180, 242, 479, 54], "actions": ["left", "left", "left", "down", "down"], "actionTimes": [13306, 14027, 14807, 15835, 16435], "queries": {"click": {"state": {"target": ["23", "24", "12", "1"], "time": [3903, 5387, 7683, 10321]}, "edge": {"target": [], "time": []}}, "mouseover": {"state": {"target": ["23", "24", "12", "1", "1"], "time": [3514, 4659, 6581, 9700, 10060]}, "edge": {"target": [], "time": []}}, "mouseout": {"state": {"target": ["25", "0", "23", "24", "23", "12", "12", "1", "1"], "time": [2106, 2446, 4142, 5611, 6416, 7899, 8486, 9872, 10558]}, "edge": {"target": [], "time": []}}}, "displayed_time": "16.98", "trialTime": 19778, "trial_type": "mouselab-mdp", "trial_index": 11, "time_elapsed": 565005, "internal_node_id": "0.0-2.1-2.1-1.1"}}, {"uniqueid": "w30515482:a24149862", "current_trial": 12, "dateTime": 1691142900582, "trialdata": {"view_history": [{"page_index": 0, "viewing_time": 9836}, {"page_index": 1, "viewing_time": 2252}], "rt": 12089, "trial_id": "mouselab_instructions_2_misaligned", "trial_type": "instructions", "trial_index": 12, "time_elapsed": 577102, "internal_node_id": "0.0-2.1-3.1"}}, {"uniqueid": "w30515482:a24149862", "current_trial": 13, "dateTime": 1691142931905, "trialdata": {"rt": 31317, "response": {"Q0": "The cost for clicking on nodes may vary between nodes.", "Q1": "The better I perform the higher my bonus will be.", "Q2": "No, the amount of cash at each node of the web may be different each time.", "Q3": "To get the highest total score.", "Q4": "Only before moving the spider.", "Q5": "3 seconds"}, "question_order": [0, 1, 2, 3, 4, 5], "correct": {"Q0": "The cost for clicking on nodes may vary between nodes.", "Q1": "The better I perform the higher my bonus will be.", "Q2": "No, the amount of cash at each node of the web may be different each time.", "Q3": "To get the highest total score.", "Q4": "Only before moving the spider.", "Q5": "3 seconds"}, "trial_id": "mouselab_quiz_misaligned", "trial_type": "survey-multi-choice", "trial_index": 13, "time_elapsed": 608425, "internal_node_id": "0.0-2.1-4.1"}}, {"uniqueid": "w30515482:a24149862", "current_trial": 14, "dateTime": 1691142965113, "trialdata": {"rt": 33191, "stimulus": "\n<h1> Get ready to start the game! </h1>\n\nThank you for reading the instructions. Get ready start with the 40 rounds of this game.\n<br><br>\nIf you need to take a break, feel free to take one after the end of a round, before continuing to the next one.\n<br><br>\nRemember, the more money the spider gets, the bigger your bonus will be!\n<br><br>\n<div style='text-align: center;'>Press <code>space</code> to begin.</div>\n\n<br><br>\n(If, at any point, the <code>space</code> key does not take you to the next page, click once on the text and try again.)", "response": " ", "trial_id": "mdp_ready", "trial_type": "html-keyboard-response", "trial_index": 14, "time_elapsed": 641633, "internal_node_id": "0.0-4.0-0.0"}}, {"uniqueid": "w30515482:a24149862", "current_trial": 15, "dateTime": 1691142986496, "trialdata": {"revealed_states": [], "clicked_states": ["23"], "num_clicks_accrued": [0, 0, 0, 0, 0, 0, 0, 0, 0, 0, 0, 0, 0], "stateRewards": ["", 1, 2, 3, 16, 63, -25, 16, -4, -14, 82, -66, -1, -3, -3, -11, -14, 19, 46, 3, -34, -82, 66, -2, -3, 4, -5, -63, 77, -37, -1, -45, -41, 84], "withholdReward": false, "trial_id": "mdp_trial_1", "block": "test", "trialIndex": 4, "score": -85.75, "costs": 0.25, "simulationMode": [null, null, null, null, null], "rewards": [-1, -3, -3, 3, -82], "path": ["0", "0", "12", "13", "14", "19", "21"], "rt": [10997, 1155, 773, 379, 744], "actions": ["right", "right", "right", "down", "down"], "actionTimes": [13392, 15085, 16410, 17339, 18607], "queries": {"click": {"state": {"target": ["23"], "time": [3880]}, "edge": {"target": [], "time": []}}, "mouseover": {"state": {"target": ["23", "31", "0", "12"], "time": [3430, 4857, 5575, 5730]}, "edge": {"target": [], "time": []}}, "mouseout": {"state": {"target": ["24", "23", "0", "23", "31", "0", "12"], "time": [1474, 1537, 3389, 4739, 5246, 5610, 10080]}, "edge": {"target": [], "time": []}}}, "displayed_time": "19.16", "trialTime": 20914, "trial_type": "mouselab-mdp", "trial_index": 15, "time_elapsed": 663015, "internal_node_id": "0.0-4.0-1.0-0.0"}}, {"uniqueid": "w30515482:a24149862", "current_trial": 16, "dateTime": 1691143006511, "trialdata": {"revealed_states": [], "clicked_states": ["1"], "num_clicks_accrued": [0, 0, 0, 0, 0, 0, 0, 0, 0, 0, 0, 0, 0], "stateRewards": ["", -2, 2, 2, -6, 9, 37, 50, -13, -7, -18, -75, -2, -4, 4, 7, 23, -57, -66, -7, -81, -48, -76, 1, 1, -8, 1, 51, -2, 70, 14, 59, 71, -37], "withholdReward": false, "trial_id": "mdp_trial_2", "block": "test", "trialIndex": 5, "score": 65.25, "costs": 0.25, "simulationMode": [null, null, null, null, null], "rewards": [1, 1, -8, 1, 70], "path": ["0", "0", "23", "24", "25", "26", "29"], "rt": [10155, 1533, 434, 736, 391], "actions": ["left", "left", "left", "up", "left"], "actionTimes": [12214, 14286, 15248, 16504, 17423], "queries": {"click": {"state": {"target": ["1"], "time": [3915]}, "edge": {"target": [], "time": []}}, "mouseover": {"state": {"target": ["23", "23", "1", "26", "29", "25", "24", "23", "31"], "time": [2602, 2925, 3508, 4466, 4509, 7085, 7155, 7413, 10139]}, "edge": {"target": [], "time": []}}, "mouseout": {"state": {"target": ["33", "0", "23", "23", "1", "26", "29", "25", "24", "23", "31"], "time": [1142, 2562, 2647, 3474, 4121, 4506, 4549, 7114, 7304, 9319, 10177]}, "edge": {"target": [], "time": []}}}, "displayed_time": "17.97", "trialTime": 19584, "trial_type": "mouselab-mdp", "trial_index": 16, "time_elapsed": 683030, "internal_node_id": "0.0-4.0-1.0-1.0"}}, {"uniqueid": "w30515482:a24149862", "current_trial": 17, "dateTime": 1691143024905, "trialdata": {"revealed_states": [], "clicked_states": ["25"], "num_clicks_accrued": [0, 0, 0, 0, 0, 0, 0, 0, 0, 0, 0, 0, 0], "stateRewards": ["", -1, 3, -7, 16, -32, -74, -48, 2, 10, 15, -30, 1, 1, -2, 10, 12, -83, 67, 13, -66, 47, 65, -2, 4, 2, -14, -8, -57, 24, 9, 65, 12, 46], "withholdReward": false, "trial_id": "mdp_trial_3", "block": "test", "trialIndex": 6, "score": 58.05, "costs": -0.95, "simulationMode": [null, null, null, null, null], "rewards": [-2, 4, 2, 9, 46], "path": ["0", "0", "23", "24", "25", "30", "33"], "rt": [3228, 407, 296, 247, 261], "actions": ["left", "left", "left", "down", "left"], "actionTimes": [5848, 6812, 7651, 8446, 9255], "queries": {"click": {"state": {"target": ["25"], "time": [4114]}, "edge": {"target": [], "time": []}}, "mouseover": {"state": {"target": ["23", "24", "25"], "time": [3348, 3443, 3785]}, "edge": {"target": [], "time": []}}, "mouseout": {"state": {"target": ["24", "23", "23", "24", "25"], "time": [1299, 1410, 3386, 3536, 10104]}, "edge": {"target": [], "time": []}}}, "displayed_time": "16.63", "trialTime": 17847, "trial_type": "mouselab-mdp", "trial_index": 17, "time_elapsed": 701424, "internal_node_id": "0.0-4.0-1.0-2.0"}}, {"uniqueid": "w30515482:a24149862", "current_trial": 18, "dateTime": 1691143043502, "trialdata": {"revealed_states": [], "clicked_states": ["12"], "num_clicks_accrued": [0, 0, 0, 0, 0, 0, 0, 0, 0, 0, 0, 0, 0], "stateRewards": ["", -1, 1, 3, -8, -23, -15, -14, -11, -23, 58, 68, 1, 3, 5, 12, -17, -41, -7, -10, -4, 82, 10, 1, 4, -4, 11, 73, 55, -55, -1, -86, -86, 54], "withholdReward": false, "trial_id": "mdp_trial_4", "block": "test", "trialIndex": 7, "score": -4.75, "costs": 0.25, "simulationMode": [null, null, null, null, null], "rewards": [1, 3, 5, -10, -4], "path": ["0", "0", "12", "13", "14", "19", "20"], "rt": [2565, 596, 479, 998, 313], "actions": ["right", "right", "right", "down", "right"], "actionTimes": [5652, 6774, 7787, 9331, 10195], "queries": {"click": {"state": {"target": ["12"], "time": [4314]}, "edge": {"target": [], "time": []}}, "mouseover": {"state": {"target": ["12"], "time": [3996]}, "edge": {"target": [], "time": []}}, "mouseout": {"state": {"target": ["25", "24", "1", "1", "0", "12", "28", "24", "32"], "time": [940, 968, 1080, 2256, 3933, 11678, 12183, 12910, 13350]}, "edge": {"target": [], "time": []}}}, "displayed_time": "17.11", "trialTime": 18164, "trial_type": "mouselab-mdp", "trial_index": 18, "time_elapsed": 720021, "internal_node_id": "0.0-4.0-1.0-3.0"}}, {"uniqueid": "w30515482:a24149862", "current_trial": 19, "dateTime": 1691143060814, "trialdata": {"revealed_states": [], "clicked_states": ["1"], "num_clicks_accrued": [0, 0, 0, 0, 0, 0, 0, 0, 0, 0, 0, 0, 0], "stateRewards": ["", -1, 2, 7, 8, 75, 67, -11, 6, 52, -17, 38, -1, 4, -8, 14, 74, -37, -17, -12, 52, 55, 71, -2, -1, -5, 2, 21, 6, -88, -14, 64, -61, -47], "withholdReward": false, "trial_id": "mdp_trial_5", "block": "test", "trialIndex": 8, "score": 0.25, "costs": 0.25, "simulationMode": [null, null, null, null, null], "rewards": [-2, -1, -5, 2, 6], "path": ["0", "0", "23", "24", "25", "26", "28"], "rt": [5789, 367, 253, 202, 185], "actions": ["left", "left", "left", "up", "right"], "actionTimes": [7445, 8345, 9164, 9903, 10648], "queries": {"click": {"state": {"target": ["1"], "time": [3884]}, "edge": {"target": [], "time": []}}, "mouseover": {"state": {"target": ["1", "1", "28", "26", "29"], "time": [2290, 2583, 4408, 4450, 4529]}, "edge": {"target": [], "time": []}}, "mouseout": {"state": {"target": ["23", "0", "1", "1", "28", "26", "29"], "time": [814, 2240, 2395, 4328, 4447, 4490, 4621]}, "edge": {"target": [], "time": []}}}, "displayed_time": "15.68", "trialTime": 16866, "trial_type": "mouselab-mdp", "trial_index": 19, "time_elapsed": 737333, "internal_node_id": "0.0-4.0-1.0-4.0"}}, {"uniqueid": "w30515482:a24149862", "current_trial": 20, "dateTime": 1691143079353, "trialdata": {"revealed_states": [], "clicked_states": [], "num_clicks_accrued": [0, 0, 0, 0, 0, 0, 0, 0, 0, 0, 0, 0, 0], "stateRewards": ["", 1, -1, 1, 13, 31, -56, 72, 2, 41, 5, 63, -2, -3, -2, 3, -71, -26, 52, 13, -31, 24, -67, 2, -2, 5, 4, 66, 43, 72, 9, 86, -26, 44], "withholdReward": false, "trial_id": "mdp_trial_6", "block": "test", "trialIndex": 9, "score": 48, "costs": 0, "simulationMode": [null, null, null, null, null], "rewards": [-2, -3, -2, 3, 52], "path": ["0", "0", "12", "13", "14", "15", "18"], "rt": [9203, 459, 311, 431, 233], "actions": ["right", "right", "right", "up", "left"], "actionTimes": [12395, 13386, 14266, 15235, 16024], "queries": {"click": {"state": {"target": [], "time": []}, "edge": {"target": [], "time": []}}, "mouseover": {"state": {"target": ["12", "0", "24", "31", "25", "25", "23", "12", "13", "14", "13", "12"], "time": [4475, 4551, 4635, 5056, 5342, 5634, 6394, 6525, 7449, 7541, 10493, 10537]}, "edge": {"target": [], "time": []}}, "mouseout": {"state": {"target": ["29", "26", "28", "12", "0", "24", "31", "25", "25", "23", "12", "13", "14", "13", "12"], "time": [2221, 2249, 2292, 4510, 4594, 4689, 5306, 5386, 6340, 6430, 7405, 7495, 10456, 10533, 10580]}, "edge": {"target": [], "time": []}}}, "displayed_time": "17.20", "trialTime": 18086, "trial_type": "mouselab-mdp", "trial_index": 20, "time_elapsed": 755872, "internal_node_id": "0.0-4.0-1.0-5.0"}}, {"uniqueid": "w30515482:a24149862", "current_trial": 21, "dateTime": 1691143098305, "trialdata": {"revealed_states": [], "clicked_states": ["14"], "num_clicks_accrued": [0, 0, 0, 0, 0, 0, 0, 0, 0, 0, 0, 0, 0], "stateRewards": ["", 2, -2, -8, 9, -20, 55, -58, 14, 42, 2, 36, 1, -3, -5, 5, -58, 57, 60, 16, 57, 30, -70, -2, 1, 3, 10, 59, 23, 77, -13, -26, 88, -72], "withholdReward": false, "trial_id": "mdp_trial_7", "block": "test", "trialIndex": 10, "score": -57.95, "costs": -0.95, "simulationMode": [null, null, null, null, null], "rewards": [2, -2, -8, 9, -58], "path": ["0", "0", "1", "2", "3", "4", "7"], "rt": [3125, 399, 963, 225, 394], "actions": ["up", "up", "up", "right", "down"], "actionTimes": [6053, 6983, 8474, 9233, 10162], "queries": {"click": {"state": {"target": ["14"], "time": [3918]}, "edge": {"target": [], "time": []}}, "mouseover": {"state": {"target": ["12", "13", "14"], "time": [3176, 3291, 3671]}, "edge": {"target": [], "time": []}}, "mouseout": {"state": {"target": ["0", "0", "12", "13", "14", "22"], "time": [679, 2021, 3248, 3404, 12142, 12454]}, "edge": {"target": [], "time": []}}}, "displayed_time": "16.97", "trialTime": 18518, "trial_type": "mouselab-mdp", "trial_index": 21, "time_elapsed": 774825, "internal_node_id": "0.0-4.0-1.0-6.0"}}, {"uniqueid": "w30515482:a24149862", "current_trial": 22, "dateTime": 1691143116922, "trialdata": {"revealed_states": [], "clicked_states": ["5", "3", "24"], "num_clicks_accrued": [0, 0, 0, 0, 0, 0, 0, 0, 0, 0, 0, 0, 0], "stateRewards": ["", 2, -3, -8, 14, -7, -51, 73, 2, 36, 36, -43, -1, 3, -4, 1, 6, 87, -65, 15, 61, -42, -83, -1, 3, -2, -7, 30, -48, 35, 13, 26, 60, 78], "withholdReward": false, "trial_id": "mdp_trial_8", "block": "test", "trialIndex": 11, "score": 19.55, "costs": -3.4499999999999997, "simulationMode": [null, null, null, null, null], "rewards": [-1, 3, -2, -7, 30], "path": ["0", "0", "23", "24", "25", "26", "27"], "rt": [9088, 356, 460, 580, 207], "actions": ["left", "left", "left", "up", "up"], "actionTimes": [12070, 12963, 13966, 15080, 15844], "queries": {"click": {"state": {"target": ["5", "3", "24"], "time": [4228, 7760, 10199]}, "edge": {"target": [], "time": []}}, "mouseover": {"state": {"target": ["4", "5", "3", "3", "11", "11", "2", "7", "2", "24"], "time": [3656, 3768, 6902, 7059, 8582, 8882, 9211, 9277, 9512, 9870]}, "edge": {"target": [], "time": []}}, "mouseout": {"state": {"target": ["12", "0", "4", "5", "3", "3", "11", "11", "2", "7", "2", "24"], "time": [1121, 3361, 3696, 5283, 6985, 8542, 8626, 8912, 9240, 9478, 9553, 11260]}, "edge": {"target": [], "time": []}}}, "displayed_time": "16.98", "trialTime": 18163, "trial_type": "mouselab-mdp", "trial_index": 22, "time_elapsed": 793441, "internal_node_id": "0.0-4.0-1.0-7.0"}}, {"uniqueid": "w30515482:a24149862", "current_trial": 23, "dateTime": 1691143135560, "trialdata": {"revealed_states": [], "clicked_states": ["27"], "num_clicks_accrued": [0, 0, 0, 0, 0, 0, 0, 0, 0, 0, 0, 0, 0], "stateRewards": ["", 1, 1, -7, -9, -44, 24, -83, -15, 44, -24, 72, -2, -3, 4, -5, 57, 55, 29, -11, 22, 12, -25, -1, 2, 7, 12, 33, -8, 47, -4, 8, 50, -4], "withholdReward": false, "trial_id": "mdp_trial_9", "block": "test", "trialIndex": 12, "score": 50.85, "costs": -2.15, "simulationMode": [null, null, null, null, null], "rewards": [-1, 2, 7, 12, 33], "path": ["0", "0", "23", "24", "25", "26", "27"], "rt": [5293, 178, 182, 249, 138], "actions": ["left", "left", "left", "up", "up"], "actionTimes": [8153, 8865, 9574, 10363, 11039], "queries": {"click": {"state": {"target": ["27"], "time": [4200]}, "edge": {"target": [], "time": []}}, "mouseover": {"state": {"target": ["25", "26", "27", "26", "29", "25", "24"], "time": [3388, 3543, 3822, 4985, 5427, 6215, 6261]}, "edge": {"target": [], "time": []}}, "mouseout": {"state": {"target": ["29", "26", "28", "0", "0", "25", "26", "27", "26", "29", "25", "24"], "time": [802, 833, 869, 1717, 2319, 3480, 3698, 4907, 5386, 6174, 6257, 6301]}, "edge": {"target": [], "time": []}}}, "displayed_time": "16.89", "trialTime": 18171, "trial_type": "mouselab-mdp", "trial_index": 23, "time_elapsed": 812079, "internal_node_id": "0.0-4.0-1.0-8.0"}}, {"uniqueid": "w30515482:a24149862", "current_trial": 24, "dateTime": 1691143153556, "trialdata": {"revealed_states": [], "clicked_states": ["32", "29"], "num_clicks_accrued": [0, 0, 0, 0, 0, 0, 0, 0, 0, 0, 0, 0, 0], "stateRewards": ["", -2, 2, -4, -4, -59, 88, 62, -3, 69, -15, -34, 1, -2, -5, 7, -54, -20, 78, -16, -74, -53, -21, 2, -4, 2, 13, -8, -44, 26, 9, 72, 4, 17], "withholdReward": false, "trial_id": "mdp_trial_10", "block": "test", "trialIndex": 13, "score": 34.7, "costs": -4.3, "simulationMode": [null, null, null, null, null], "rewards": [2, -4, 2, 13, 26], "path": ["0", "0", "23", "24", "25", "26", "29"], "rt": [9128, 31, 126, 369, 31], "actions": ["left", "left", "left", "up", "left"], "actionTimes": [11798, 12374, 13060, 13988, 14578], "queries": {"click": {"state": {"target": ["32", "29"], "time": [3544, 7984]}, "edge": {"target": [], "time": []}}, "mouseover": {"state": {"target": ["23", "32", "29", "29", "26", "10"], "time": [2816, 3183, 7367, 7632, 8727, 8890]}, "edge": {"target": [], "time": []}}, "mouseout": {"state": {"target": ["25", "24", "1", "0", "23", "32", "29", "29", "26", "10"], "time": [1283, 1714, 1822, 2811, 2848, 3772, 7402, 8723, 8771, 9643]}, "edge": {"target": [], "time": []}}}, "displayed_time": "16.67", "trialTime": 17528, "trial_type": "mouselab-mdp", "trial_index": 24, "time_elapsed": 830075, "internal_node_id": "0.0-4.0-1.0-9.0"}}, {"uniqueid": "w30515482:a24149862", "current_trial": 25, "dateTime": 1691143176245, "trialdata": {"revealed_states": [], "clicked_states": ["9", "5", "29"], "num_clicks_accrued": [0, 0, 0, 0, 0, 0, 0, 0, 0, 0, 0, 0, 0], "stateRewards": ["", 2, 4, 7, -6, -76, -81, 2, 5, -66, -3, 36, -2, -4, 6, -2, -69, 4, -49, -6, 67, 38, -67, 2, 1, 1, 6, -68, -21, 52, -16, -16, 6, -70], "withholdReward": false, "trial_id": "mdp_trial_11", "block": "test", "trialIndex": 14, "score": 55.55, "costs": -6.449999999999999, "simulationMode": [null, null, null, null, null], "rewards": [2, 1, 1, 6, 52], "path": ["0", "0", "23", "24", "25", "26", "29"], "rt": [13507, 29, 36, 910, 116], "actions": ["left", "left", "left", "up", "left"], "actionTimes": [17141, 17727, 18293, 19772, 20412], "queries": {"click": {"state": {"target": ["9", "5", "29"], "time": [4947, 8477, 13154]}, "edge": {"target": [], "time": []}}, "mouseover": {"state": {"target": ["1", "3", "9", "11", "5", "29"], "time": [4037, 4135, 4431, 7187, 8016, 12429]}, "edge": {"target": [], "time": []}}, "mouseout": {"state": {"target": ["10", "8", "8", "10", "1", "1", "3", "9", "11", "5", "29"], "time": [1709, 1751, 2163, 2410, 2566, 4085, 4336, 6674, 7784, 9373, 14357]}, "edge": {"target": [], "time": []}}}, "displayed_time": "20.97", "trialTime": 22241, "trial_type": "mouselab-mdp", "trial_index": 25, "time_elapsed": 852765, "internal_node_id": "0.0-4.0-1.0-10.0"}}, {"uniqueid": "w30515482:a24149862", "current_trial": 26, "dateTime": 1691143196328, "trialdata": {"revealed_states": [], "clicked_states": ["17", "16", "18"], "num_clicks_accrued": [0, 0, 0, 0, 0, 0, 0, 0, 0, 0, 0, 0, 0], "stateRewards": ["", 2, -3, 5, -14, -63, -9, -24, -11, -54, -43, 68, 2, -2, -4, 7, -64, 30, 47, 12, -74, 11, 86, 1, -3, 3, 10, -71, -42, -52, -1, -29, -16, 69], "withholdReward": false, "trial_id": "mdp_trial_12", "block": "test", "trialIndex": 15, "score": 43.55, "costs": -6.449999999999999, "simulationMode": [null, null, null, null, null], "rewards": [2, -2, -4, 7, 47], "path": ["0", "0", "12", "13", "14", "15", "18"], "rt": [12915, 29, 29, 402, 48], "actions": ["right", "right", "right", "up", "left"], "actionTimes": [14854, 15426, 16004, 16951, 17547], "queries": {"click": {"state": {"target": ["17", "16", "18"], "time": [3124, 6743, 10614]}, "edge": {"target": [], "time": []}}, "mouseover": {"state": {"target": ["12", "17", "15", "16", "12", "12", "18", "14", "20"], "time": [2447, 2772, 4315, 4854, 7744, 8131, 8215, 11413, 11498]}, "edge": {"target": [], "time": []}}, "mouseout": {"state": {"target": ["29", "26", "23", "12", "17", "15", "16", "12", "12", "18", "14", "20"], "time": [805, 865, 1021, 2484, 3654, 4436, 7469, 7939, 8172, 11366, 11454, 18608]}, "edge": {"target": [], "time": []}}}, "displayed_time": "18.07", "trialTime": 19628, "trial_type": "mouselab-mdp", "trial_index": 26, "time_elapsed": 872847, "internal_node_id": "0.0-4.0-1.0-11.0"}}, {"uniqueid": "w30515482:a24149862", "current_trial": 27, "dateTime": 1691143219487, "trialdata": {"revealed_states": [], "clicked_states": ["21", "32", "27", "16"], "num_clicks_accrued": [0, 0, 0, 0, 0, 0, 0, 0, 0, 0, 0, 0, 0], "stateRewards": ["", -2, -1, -3, -1, -78, -6, 2, -1, 22, -88, 32, 2, 2, -7, -8, -51, -17, 54, 2, -44, 54, 75, 2, -2, -8, -15, -29, 12, -67, 15, -1, -47, -47], "withholdReward": false, "trial_id": "mdp_trial_13", "block": "test", "trialIndex": 16, "score": 44.4, "costs": -8.6, "simulationMode": [null, null, null, null, null], "rewards": [2, 2, -7, 2, 54], "path": ["0", "0", "12", "13", "14", "19", "21"], "rt": [15472, 358, 122, 315, 97], "actions": ["right", "right", "right", "down", "down"], "actionTimes": [17549, 18444, 19129, 19988, 20609], "queries": {"click": {"state": {"target": ["21", "32", "27", "16"], "time": [3297, 6878, 10767, 14076]}, "edge": {"target": [], "time": []}}, "mouseover": {"state": {"target": ["19", "21", "32", "24", "26", "29", "29", "27", "10", "2", "7", "16", "18", "12"], "time": [2750, 3017, 5737, 9296, 9340, 9676, 10132, 10399, 11539, 11583, 11630, 11938, 14958, 15005]}, "edge": {"target": [], "time": []}}, "mouseout": {"state": {"target": ["23", "0", "19", "21", "32", "24", "26", "29", "29", "27", "10", "2", "7", "16", "18", "12"], "time": [1048, 2678, 2787, 3930, 7086, 9337, 9386, 10008, 10279, 11496, 11580, 11625, 11668, 14951, 15001, 15047]}, "edge": {"target": [], "time": []}}}, "displayed_time": "21.15", "trialTime": 22735, "trial_type": "mouselab-mdp", "trial_index": 27, "time_elapsed": 896007, "internal_node_id": "0.0-4.0-1.0-12.0"}}, {"uniqueid": "w30515482:a24149862", "current_trial": 28, "dateTime": 1691143252485, "trialdata": {"revealed_states": [], "clicked_states": ["9", "5", "32", "20", "31", "29"], "num_clicks_accrued": [0, 0, 0, 0, 0, 0, 0, 0, 0, 0, 0, 0, 0], "stateRewards": ["", -1, 1, 8, -3, -24, 11, -65, -6, -77, 48, 44, -2, 1, -2, -7, -55, -35, 33, 8, -28, 19, -53, -1, -1, -5, -5, -70, 10, 44, 8, -58, -70, 51], "withholdReward": false, "trial_id": "mdp_trial_14", "block": "test", "trialIndex": 17, "score": 19.1, "costs": -12.9, "simulationMode": [null, null, null, null, null], "rewards": [-1, -1, -5, -5, 44], "path": ["0", "0", "23", "24", "25", "26", "29"], "rt": [25277, 590, 233, 91, 80], "actions": ["left", "left", "left", "up", "left"], "actionTimes": [27803, 28941, 29716, 30361, 30982], "queries": {"click": {"state": {"target": ["9", "5", "32", "20", "31", "29"], "time": [3982, 7657, 11681, 15653, 20140, 24341]}, "edge": {"target": [], "time": []}}, "mouseover": {"state": {"target": ["1", "8", "9", "9", "23", "2", "4", "5", "4", "32", "32", "22", "19", "20", "19", "31", "31", "24", "25", "33", "29"], "time": [3102, 3177, 3249, 3545, 5850, 6881, 7155, 7311, 8183, 11035, 11346, 15045, 15091, 15301, 16381, 19386, 19874, 22842, 22890, 23169, 24091]}, "edge": {"target": [], "time": []}}, "mouseout": {"state": {"target": ["12", "0", "0", "0", "1", "8", "9", "9", "23", "2", "4", "5", "4", "32", "32", "22", "19", "20", "19", "31", "31", "24", "25", "33", "29"], "time": [785, 820, 937, 1773, 3134, 3211, 3350, 4802, 5891, 6929, 7205, 8177, 8229, 11175, 12251, 15085, 15137, 16378, 16427, 19415, 20931, 22885, 22929, 23201, 25118]}, "edge": {"target": [], "time": []}}}, "displayed_time": "31.50", "trialTime": 32556, "trial_type": "mouselab-mdp", "trial_index": 28, "time_elapsed": 929004, "internal_node_id": "0.0-4.0-1.0-13.0"}}, {"uniqueid": "w30515482:a24149862", "current_trial": 29, "dateTime": 1691143270548, "trialdata": {"revealed_states": [], "clicked_states": ["18"], "num_clicks_accrued": [0, 0, 0, 0, 0, 0, 0, 0, 0, 0, 0, 0, 0], "stateRewards": ["", 1, -1, -7, -7, -22, 15, -13, 13, 26, -32, 38, -1, 1, -7, -4, 16, -62, 86, 12, -54, 56, 64, -2, -1, 6, 14, -57, 37, 62, -6, -25, 50, -70], "withholdReward": false, "trial_id": "mdp_trial_15", "block": "test", "trialIndex": 18, "score": 72.85, "costs": -2.15, "simulationMode": [null, null, null, null, null], "rewards": [-1, 1, -7, -4, 86], "path": ["0", "0", "12", "13", "14", "15", "18"], "rt": [5039, 642, 131, 223, 51], "actions": ["right", "right", "right", "up", "left"], "actionTimes": [7501, 8688, 9357, 10111, 10712], "queries": {"click": {"state": {"target": ["18"], "time": [3546]}, "edge": {"target": [], "time": []}}, "mouseover": {"state": {"target": ["18", "18", "17", "17"], "time": [2930, 3070, 5869, 6184]}, "edge": {"target": [], "time": []}}, "mouseout": {"state": {"target": ["28", "0", "18", "18", "17", "17", "15"], "time": [580, 2828, 2966, 4316, 5949, 11684, 11718]}, "edge": {"target": [], "time": []}}}, "displayed_time": "16.50", "trialTime": 17608, "trial_type": "mouselab-mdp", "trial_index": 29, "time_elapsed": 947067, "internal_node_id": "0.0-4.0-1.0-14.0"}}, {"uniqueid": "w30515482:a24149862", "current_trial": 30, "dateTime": 1691143288533, "trialdata": {"revealed_states": [], "clicked_states": ["11", "27"], "num_clicks_accrued": [0, 0, 0, 0, 0, 0, 0, 0, 0, 0, 0, 0, 0], "stateRewards": ["", -2, 2, -1, -6, 22, 6, 6, -5, 70, -42, 65, 1, 3, 5, -6, -67, -9, 3, 14, 7, -62, -13, -2, 4, 1, 16, 42, -21, -52, -8, 32, 53, 81], "withholdReward": false, "trial_id": "mdp_trial_16", "block": "test", "trialIndex": 19, "score": 54.7, "costs": -4.3, "simulationMode": [null, null, null, null, null], "rewards": [-2, 2, -1, -5, 65], "path": ["0", "0", "1", "2", "3", "8", "11"], "rt": [8761, 676, 157, 217, 85], "actions": ["up", "up", "up", "left", "left"], "actionTimes": [11308, 12527, 13231, 14006, 14652], "queries": {"click": {"state": {"target": ["11", "27"], "time": [3477, 7519]}, "edge": {"target": [], "time": []}}, "mouseover": {"state": {"target": ["10", "11", "27"], "time": [2682, 3120, 6436]}, "edge": {"target": [], "time": []}}, "mouseout": {"state": {"target": ["0", "10", "11", "27"], "time": [1716, 2734, 4191, 8728]}, "edge": {"target": [], "time": []}}}, "displayed_time": "16.56", "trialTime": 17479, "trial_type": "mouselab-mdp", "trial_index": 30, "time_elapsed": 965053, "internal_node_id": "0.0-4.0-1.0-15.0"}}, {"uniqueid": "w30515482:a24149862", "current_trial": 31, "dateTime": 1691143310288, "trialdata": {"revealed_states": [], "clicked_states": ["27", "9", "7"], "num_clicks_accrued": [0, 0, 0, 0, 0, 0, 0, 0, 0, 0, 0, 0, 0], "stateRewards": ["", -2, 2, 8, -6, -25, 3, 87, 2, -62, -2, 74, -2, -1, 2, -1, 79, 49, -37, -14, 5, 67, -9, -1, 2, -2, 5, 15, 38, 32, -14, -38, -38, 30], "withholdReward": false, "trial_id": "mdp_trial_17", "block": "test", "trialIndex": 20, "score": 82.55, "costs": -6.449999999999999, "simulationMode": [null, null, null, null, null], "rewards": [-2, 2, 8, -6, 87], "path": ["0", "0", "1", "2", "3", "4", "7"], "rt": [12539, 599, 186, 578, 173], "actions": ["up", "up", "up", "right", "down"], "actionTimes": [14862, 15986, 16720, 17867, 18592], "queries": {"click": {"state": {"target": ["27", "9", "7"], "time": [3728, 7249, 11601]}, "edge": {"target": [], "time": []}}, "mouseover": {"state": {"target": ["28", "27", "2", "9", "8", "10", "10", "2", "7"], "time": [2965, 3306, 5714, 6143, 7873, 7916, 10642, 10986, 11221]}, "edge": {"target": [], "time": []}}, "mouseout": {"state": {"target": ["24", "23", "0", "28", "27", "2", "9", "8", "10", "10", "2", "7", "7"], "time": [1242, 1493, 2889, 3187, 4348, 5757, 7832, 7912, 7995, 10679, 11172, 12488, 20786]}, "edge": {"target": [], "time": []}}}, "displayed_time": "19.14", "trialTime": 21284, "trial_type": "mouselab-mdp", "trial_index": 31, "time_elapsed": 986807, "internal_node_id": "0.0-4.0-1.0-16.0"}}, {"uniqueid": "w30515482:a24149862", "current_trial": 32, "dateTime": 1691143335756, "trialdata": {"revealed_states": [], "clicked_states": ["21", "32", "31", "18"], "num_clicks_accrued": [0, 0, 0, 0, 0, 0, 0, 0, 0, 0, 0, 0, 0], "stateRewards": ["", 1, 4, -8, -13, -13, -87, -77, -10, -44, 54, 42, 2, -3, -4, 12, -9, -80, 52, 9, 84, -2, -65, 1, -4, -5, -6, 8, 80, 32, 13, -59, -5, -13], "withholdReward": false, "trial_id": "mdp_trial_18", "block": "test", "trialIndex": 21, "score": 50.4, "costs": -8.6, "simulationMode": [null, null, null, null, null], "rewards": [2, -3, -4, 12, 52], "path": ["0", "0", "12", "13", "14", "15", "18"], "rt": [17585, 323, 29, 294, 199], "actions": ["right", "right", "right", "up", "left"], "actionTimes": [20376, 21265, 21853, 22685, 23430], "queries": {"click": {"state": {"target": ["21", "32", "31", "18"], "time": [4190, 8509, 12159, 16735]}, "edge": {"target": [], "time": []}}, "mouseover": {"state": {"target": ["22", "21", "31", "32", "31", "31", "22", "14", "13", "18"], "time": [3597, 3893, 7652, 7998, 11505, 11756, 15651, 15917, 15987, 16262]}, "edge": {"target": [], "time": []}}, "mouseout": {"state": {"target": ["7", "0", "22", "21", "31", "32", "31", "31", "22", "14", "13", "18"], "time": [465, 1390, 3637, 4868, 7775, 9281, 11582, 12822, 15685, 15948, 16184, 16974]}, "edge": {"target": [], "time": []}}}, "displayed_time": "23.97", "trialTime": 24985, "trial_type": "mouselab-mdp", "trial_index": 32, "time_elapsed": 1012275, "internal_node_id": "0.0-4.0-1.0-17.0"}}, {"uniqueid": "w30515482:a24149862", "current_trial": 33, "dateTime": 1691143353647, "trialdata": {"revealed_states": [], "clicked_states": ["9", "27"], "num_clicks_accrued": [0, 0, 0, 0, 0, 0, 0, 0, 0, 0, 0, 0, 0], "stateRewards": ["", 1, -1, 1, -14, -10, 67, -28, -11, 72, 40, -65, -1, 1, 1, -2, 8, -55, 34, -10, 61, 33, -15, 2, -4, 7, 4, -75, 63, -21, -16, 61, 19, 21], "withholdReward": false, "trial_id": "mdp_trial_19", "block": "test", "trialIndex": 22, "score": 57.7, "costs": -4.3, "simulationMode": [null, null, null, null, null], "rewards": [1, -1, 1, -11, 72], "path": ["0", "0", "1", "2", "3", "8", "9"], "rt": [7786, 527, 94, 203, 161], "actions": ["up", "up", "up", "left", "up"], "actionTimes": [10181, 11244, 11890, 12633, 13355], "queries": {"click": {"state": {"target": ["9", "27"], "time": [3474, 6963]}, "edge": {"target": [], "time": []}}, "mouseover": {"state": {"target": ["11", "9", "27"], "time": [2837, 3213, 5270]}, "edge": {"target": [], "time": []}}, "mouseout": {"state": {"target": ["0", "11", "9", "27"], "time": [848, 2901, 4006, 8569]}, "edge": {"target": [], "time": []}}}, "displayed_time": "16.41", "trialTime": 17417, "trial_type": "mouselab-mdp", "trial_index": 33, "time_elapsed": 1030167, "internal_node_id": "0.0-4.0-1.0-18.0"}}, {"uniqueid": "w30515482:a24149862", "current_trial": 34, "dateTime": 1691143375323, "trialdata": {"revealed_states": [], "clicked_states": ["18", "20", "27"], "num_clicks_accrued": [0, 0, 0, 0, 0, 0, 0, 0, 0, 0, 0, 0, 0], "stateRewards": ["", 1, 4, 5, -5, 58, -80, 75, 6, 25, -39, 46, 2, -2, 4, 2, 59, 31, -22, -12, -61, 15, 72, 1, -2, -7, 8, 77, 76, -23, -7, 71, -15, -3], "withholdReward": false, "trial_id": "mdp_trial_20", "block": "test", "trialIndex": 23, "score": 70.55, "costs": -6.449999999999999, "simulationMode": [null, null, null, null, null], "rewards": [1, -2, -7, 8, 77], "path": ["0", "0", "23", "24", "25", "26", "27"], "rt": [13485, 284, 125, 151, 76], "actions": ["left", "left", "left", "up", "up"], "actionTimes": [16163, 17012, 17662, 18358, 18954], "queries": {"click": {"state": {"target": ["18", "20", "27"], "time": [4806, 8627, 12855]}, "edge": {"target": [], "time": []}}, "mouseover": {"state": {"target": ["12", "22", "22", "13", "14", "18", "22", "19", "20", "0", "28", "26", "27", "27", "28", "28", "26", "29"], "time": [3168, 3322, 3635, 3854, 4135, 4416, 7350, 7484, 7911, 12020, 12115, 12150, 12378, 12519, 13524, 15625, 15685, 15791]}, "edge": {"target": [], "time": []}}, "mouseout": {"state": {"target": ["28", "11", "11", "0", "0", "12", "22", "22", "13", "14", "18", "22", "19", "20", "0", "28", "26", "27", "27", "27", "28", "28", "26", "29", "26", "0"], "time": [815, 892, 1583, 1771, 1990, 3205, 3371, 3775, 4060, 4292, 5462, 7392, 7591, 9559, 12054, 12146, 12301, 12409, 13089, 13460, 13564, 15682, 15770, 20435, 20470, 20544]}, "edge": {"target": [], "time": []}}}, "displayed_time": "19.47", "trialTime": 21214, "trial_type": "mouselab-mdp", "trial_index": 34, "time_elapsed": 1051842, "internal_node_id": "0.0-4.0-1.0-19.0"}}, {"uniqueid": "w30515482:a24149862", "current_trial": 35, "dateTime": 1691143400951, "trialdata": {"revealed_states": [], "clicked_states": ["29", "28", "32", "21"], "num_clicks_accrued": [0, 0, 0, 0, 0, 0, 0, 0, 0, 0, 0, 0, 0], "stateRewards": ["", 1, -1, 8, -3, 38, 85, -20, -4, 8, 23, 73, 2, -4, 6, -13, 44, 7, -28, -11, -77, 45, -69, 1, -1, -7, -11, 75, -51, -87, 7, 36, -53, -26], "withholdReward": false, "trial_id": "mdp_trial_21", "block": "test", "trialIndex": 24, "score": 29.4, "costs": -8.6, "simulationMode": [null, null, null, null, null], "rewards": [2, -4, 6, -11, 45], "path": ["0", "0", "12", "13", "14", "19", "21"], "rt": [17184, 289, 60, 35, 64], "actions": ["right", "right", "right", "down", "down"], "actionTimes": [20477, 21319, 21945, 22500, 23106], "queries": {"click": {"state": {"target": ["29", "28", "32", "21"], "time": [4265, 8147, 12404, 16528]}, "edge": {"target": [], "time": []}}, "mouseover": {"state": {"target": ["28", "26", "29", "26", "24", "24", "28", "31", "30", "32", "21"], "time": [3550, 3586, 3896, 5004, 5085, 6899, 7627, 11763, 11803, 12101, 16186]}, "edge": {"target": [], "time": []}}, "mouseout": {"state": {"target": ["12", "28", "26", "29", "26", "24", "24", "28", "31", "30", "32", "21"], "time": [1605, 3583, 3675, 5001, 5046, 5128, 6942, 8798, 11800, 11943, 13305, 17216]}, "edge": {"target": [], "time": []}}}, "displayed_time": "23.66", "trialTime": 25193, "trial_type": "mouselab-mdp", "trial_index": 35, "time_elapsed": 1077470, "internal_node_id": "0.0-4.0-1.0-20.0"}}, {"uniqueid": "w30515482:a24149862", "current_trial": 36, "dateTime": 1691143441456, "trialdata": {"revealed_states": [], "clicked_states": ["17"], "num_clicks_accrued": [0, 0, 0, 0, 0, 0, 0, 0, 0, 0, 0, 0, 0], "stateRewards": ["", 2, -3, -2, 14, -4, 85, 46, 15, -28, 41, 31, -1, -1, -1, 5, 62, 79, 57, 12, -73, -64, 86, -1, 1, -3, -5, 68, 11, -32, 8, -80, -21, -56], "withholdReward": false, "trial_id": "mdp_trial_22", "block": "test", "trialIndex": 25, "score": 78.85, "costs": -2.15, "simulationMode": [null, null, null, null, null], "rewards": [-1, -1, -1, 5, 79], "path": ["0", "0", "12", "13", "14", "15", "17"], "rt": [5243, 349, 43, 261, 84], "actions": ["right", "right", "right", "up", "right"], "actionTimes": [30105, 30989, 31566, 32374, 33010], "queries": {"click": {"state": {"target": ["17"], "time": [26174]}, "edge": {"target": [], "time": []}}, "mouseover": {"state": {"target": ["12", "17", "17", "12"], "time": [25398, 25441, 25810, 26964]}, "edge": {"target": [], "time": []}}, "mouseout": {"state": {"target": ["0", "12", "17", "17", "12"], "time": [25390, 25436, 25485, 26925, 27005]}, "edge": {"target": [], "time": []}}}, "displayed_time": "38.87", "trialTime": 40047, "trial_type": "mouselab-mdp", "trial_index": 36, "time_elapsed": 1117975, "internal_node_id": "0.0-4.0-1.0-21.0"}}, {"uniqueid": "w30515482:a24149862", "current_trial": 37, "dateTime": 1691143459567, "trialdata": {"revealed_states": [], "clicked_states": ["18"], "num_clicks_accrued": [0, 0, 0, 0, 0, 0, 0, 0, 0, 0, 0, 0, 0], "stateRewards": ["", -1, 4, -5, 9, 29, -75, -42, -16, 24, -28, -41, 2, -3, 1, 10, 60, 47, 55, -1, -53, 22, -40, 2, -3, -6, 4, -26, 44, 54, 15, -76, 42, 14], "withholdReward": false, "trial_id": "mdp_trial_23", "block": "test", "trialIndex": 26, "score": 62.85, "costs": -2.15, "simulationMode": [null, null, null, null, null], "rewards": [2, -3, 1, 10, 55], "path": ["0", "0", "12", "13", "14", "15", "18"], "rt": [4852, 498, 89, 411, 681], "actions": ["right", "right", "right", "up", "left"], "actionTimes": [6859, 7912, 8523, 9467, 10683], "queries": {"click": {"state": {"target": ["18"], "time": [3062]}, "edge": {"target": [], "time": []}}, "mouseover": {"state": {"target": ["13", "18", "12"], "time": [2360, 2661, 3816]}, "edge": {"target": [], "time": []}}, "mouseout": {"state": {"target": ["12", "0", "23", "31", "0", "13", "18", "12"], "time": [198, 247, 308, 1153, 2221, 2625, 3775, 3857]}, "edge": {"target": [], "time": []}}}, "displayed_time": "16.03", "trialTime": 17545, "trial_type": "mouselab-mdp", "trial_index": 37, "time_elapsed": 1136087, "internal_node_id": "0.0-4.0-1.0-22.0"}}, {"uniqueid": "w30515482:a24149862", "current_trial": 38, "dateTime": 1691143477267, "trialdata": {"revealed_states": [], "clicked_states": ["10"], "num_clicks_accrued": [0, 0, 0, 0, 0, 0, 0, 0, 0, 0, 0, 0, 0], "stateRewards": ["", 2, -1, -1, 7, 11, -40, -22, -2, 69, 37, 8, -2, 4, -8, -12, -2, -72, -3, -12, 17, 63, 12, 1, 3, -7, 6, 25, 61, 61, -9, 28, -17, 27], "withholdReward": false, "trial_id": "mdp_trial_24", "block": "test", "trialIndex": 27, "score": 32.85, "costs": -2.15, "simulationMode": [null, null, null, null, null], "rewards": [2, -1, -1, -2, 37], "path": ["0", "0", "1", "2", "3", "8", "10"], "rt": [5041, 527, 657, 312, 290], "actions": ["up", "up", "up", "left", "down"], "actionTimes": [7196, 8254, 9446, 10298, 11143], "queries": {"click": {"state": {"target": ["10"], "time": [3215]}, "edge": {"target": [], "time": []}}, "mouseover": {"state": {"target": ["10"], "time": [2794]}, "edge": {"target": [], "time": []}}, "mouseout": {"state": {"target": ["0", "10", "10", "23"], "time": [2342, 3909, 12247, 14815]}, "edge": {"target": [], "time": []}}}, "displayed_time": "16.19", "trialTime": 17153, "trial_type": "mouselab-mdp", "trial_index": 38, "time_elapsed": 1153786, "internal_node_id": "0.0-4.0-1.0-23.0"}}, {"uniqueid": "w30515482:a24149862", "current_trial": 39, "dateTime": 1691143495129, "trialdata": {"revealed_states": [], "clicked_states": ["20", "28"], "num_clicks_accrued": [0, 0, 0, 0, 0, 0, 0, 0, 0, 0, 0, 0, 0], "stateRewards": ["", 1, -4, -6, -1, -21, 17, -72, 10, 77, 67, -46, -1, 4, -2, 14, -66, -49, -45, -15, -52, 23, -67, 2, -2, -2, 15, -3, 45, -64, 5, -44, 83, 61], "withholdReward": false, "trial_id": "mdp_trial_25", "block": "test", "trialIndex": 28, "score": 53.7, "costs": -4.3, "simulationMode": [null, null, null, null, null], "rewards": [2, -2, -2, 15, 45], "path": ["0", "0", "23", "24", "25", "26", "28"], "rt": [9858, 504, 201, 527, 293], "actions": ["left", "left", "left", "up", "right"], "actionTimes": [11301, 12344, 13097, 14167, 14991], "queries": {"click": {"state": {"target": ["20", "28"], "time": [2956, 7647]}, "edge": {"target": [], "time": []}}, "mouseover": {"state": {"target": ["0", "13", "19", "20", "19", "23", "24", "26", "29", "26", "28"], "time": [1547, 2145, 2395, 2618, 3503, 6322, 6358, 6600, 6778, 7156, 7242]}, "edge": {"target": [], "time": []}}, "mouseout": {"state": {"target": ["0", "0", "0", "13", "19", "20", "19", "23", "24", "26", "29", "26", "28"], "time": [530, 904, 1619, 2223, 2583, 3498, 3540, 6354, 6397, 6742, 7119, 7199, 8455]}, "edge": {"target": [], "time": []}}}, "displayed_time": "15.52", "trialTime": 17291, "trial_type": "mouselab-mdp", "trial_index": 39, "time_elapsed": 1171648, "internal_node_id": "0.0-4.0-1.0-24.0"}}, {"uniqueid": "w30515482:a24149862", "current_trial": 40, "dateTime": 1691143514076, "trialdata": {"revealed_states": [], "clicked_states": ["29"], "num_clicks_accrued": [0, 0, 0, 0, 0, 0, 0, 0, 0, 0, 0, 0, 0], "stateRewards": ["", -1, -4, -1, -11, 43, 69, 39, 4, 17, -20, -82, -2, -1, 4, 8, -79, 24, -79, 11, 36, 64, 41, 2, 4, -1, 11, -79, -47, 75, -3, 63, -36, -19], "withholdReward": false, "trial_id": "mdp_trial_26", "block": "test", "trialIndex": 29, "score": 23.85, "costs": -2.15, "simulationMode": [null, null, null, null, null], "rewards": [-1, -4, -1, -11, 43], "path": ["0", "0", "1", "2", "3", "4", "5"], "rt": [4866, 2685, 203, 592, 145], "actions": ["up", "up", "up", "right", "up"], "actionTimes": [8030, 11258, 12003, 13125, 13830], "queries": {"click": {"state": {"target": ["29"], "time": [4668]}, "edge": {"target": [], "time": []}}, "mouseover": {"state": {"target": ["28", "26", "29"], "time": [4048, 4091, 4393]}, "edge": {"target": [], "time": []}}, "mouseout": {"state": {"target": ["27", "28", "26", "29", "29", "26", "10", "10"], "time": [992, 4086, 4190, 5338, 9666, 9725, 9818, 10193]}, "edge": {"target": [], "time": []}}}, "displayed_time": "17.17", "trialTime": 18437, "trial_type": "mouselab-mdp", "trial_index": 40, "time_elapsed": 1190595, "internal_node_id": "0.0-4.0-1.0-25.0"}}, {"uniqueid": "w30515482:a24149862", "current_trial": 41, "dateTime": 1691143540938, "trialdata": {"revealed_states": [], "clicked_states": ["27", "29", "28", "33"], "num_clicks_accrued": [0, 0, 0, 0, 0, 0, 0, 0, 0, 0, 0, 0, 0], "stateRewards": ["", -1, -3, -3, 1, -38, 2, -53, -2, -1, -81, 70, -1, 1, -5, -9, 46, 15, 35, -1, -22, 38, 59, -2, 4, -8, 13, 1, -83, -43, 4, 76, 13, 48], "withholdReward": false, "trial_id": "mdp_trial_27", "block": "test", "trialIndex": 30, "score": 37.4, "costs": -8.6, "simulationMode": [null, null, null, null, null], "rewards": [-2, 4, -8, 4, 48], "path": ["0", "0", "23", "24", "25", "30", "33"], "rt": [18166, 564, 174, 488, 361], "actions": ["left", "left", "left", "down", "left"], "actionTimes": [20694, 21806, 22532, 23554, 24464], "queries": {"click": {"state": {"target": ["27", "29", "28", "33"], "time": [3851, 8390, 12956, 16872]}, "edge": {"target": [], "time": []}}, "mouseover": {"state": {"target": ["23", "24", "25", "29", "27", "29", "25", "28", "33", "30"], "time": [2765, 2880, 3037, 3178, 3464, 8071, 12108, 12201, 16555, 17436]}, "edge": {"target": [], "time": []}}, "mouseout": {"state": {"target": ["10", "0", "23", "24", "25", "29", "27", "29", "25", "28", "33", "30"], "time": [858, 2723, 2814, 2958, 3084, 3429, 4090, 9304, 12143, 13888, 17432, 17476]}, "edge": {"target": [], "time": []}}}, "displayed_time": "25.02", "trialTime": 26385, "trial_type": "mouselab-mdp", "trial_index": 41, "time_elapsed": 1217457, "internal_node_id": "0.0-4.0-1.0-26.0"}}, {"uniqueid": "w30515482:a24149862", "current_trial": 42, "dateTime": 1691143559163, "trialdata": {"revealed_states": [], "clicked_states": ["32"], "num_clicks_accrued": [0, 0, 0, 0, 0, 0, 0, 0, 0, 0, 0, 0, 0], "stateRewards": ["", 1, -1, 4, 5, -32, 18, 20, 6, -88, -74, 9, -2, 1, -2, -14, 34, -77, -38, -1, 80, -36, 73, 2, 3, -8, 10, -48, -73, -71, -11, -22, 20, 54], "withholdReward": false, "trial_id": "mdp_trial_28", "block": "test", "trialIndex": 31, "score": 3.8500000000000014, "costs": -2.15, "simulationMode": [null, null, null, null, null], "rewards": [2, 3, -8, -11, 20], "path": ["0", "0", "23", "24", "25", "30", "32"], "rt": [4525, 51, 138, 54, 94], "actions": ["left", "left", "left", "down", "down"], "actionTimes": [7058, 7650, 8335, 8933, 9581], "queries": {"click": {"state": {"target": ["32"], "time": [3768]}, "edge": {"target": [], "time": []}}, "mouseover": {"state": {"target": ["23", "30", "32"], "time": [2953, 3123, 3420]}, "edge": {"target": [], "time": []}}, "mouseout": {"state": {"target": ["0", "0", "0", "23", "30", "32"], "time": [1214, 1881, 2028, 3002, 3203, 3976]}, "edge": {"target": [], "time": []}}}, "displayed_time": "16.55", "trialTime": 17733, "trial_type": "mouselab-mdp", "trial_index": 42, "time_elapsed": 1235683, "internal_node_id": "0.0-4.0-1.0-27.0"}}, {"uniqueid": "w30515482:a24149862", "current_trial": 43, "dateTime": 1691143578762, "trialdata": {"revealed_states": [], "clicked_states": ["17", "16", "21"], "num_clicks_accrued": [0, 0, 0, 0, 0, 0, 0, 0, 0, 0, 0, 0, 0], "stateRewards": ["", 1, 1, -2, 7, -31, -6, 76, 1, -36, -16, -53, 2, 1, 7, 13, -47, -10, 47, -7, 72, 46, -56, -2, -2, -2, 11, -80, 44, 38, 16, 67, 85, -78], "withholdReward": false, "trial_id": "mdp_trial_29", "block": "test", "trialIndex": 32, "score": 42.55, "costs": -6.449999999999999, "simulationMode": [null, null, null, null, null], "rewards": [2, 1, 7, -7, 46], "path": ["0", "0", "12", "13", "14", "19", "21"], "rt": [12406, 44, 28, 80, 59], "actions": ["right", "right", "right", "down", "down"], "actionTimes": [14847, 15425, 16005, 16619, 17216], "queries": {"click": {"state": {"target": ["17", "16", "21"], "time": [3346, 7508, 11513]}, "edge": {"target": [], "time": []}}, "mouseover": {"state": {"target": ["12", "15", "17", "13", "12", "16", "12", "22", "19", "21"], "time": [2737, 2888, 3027, 4082, 6764, 7161, 8198, 10869, 11040, 11165]}, "edge": {"target": [], "time": []}}, "mouseout": {"state": {"target": ["0", "12", "15", "17", "13", "12", "16", "12", "22", "19", "21"], "time": [2702, 2785, 2921, 4042, 4126, 6803, 8118, 8283, 10946, 11077, 12082]}, "edge": {"target": [], "time": []}}}, "displayed_time": "17.76", "trialTime": 19044, "trial_type": "mouselab-mdp", "trial_index": 43, "time_elapsed": 1255282, "internal_node_id": "0.0-4.0-1.0-28.0"}}, {"uniqueid": "w30515482:a24149862", "current_trial": 44, "dateTime": 1691143614389, "trialdata": {"revealed_states": [], "clicked_states": ["11", "6", "9", "28", "29", "32"], "num_clicks_accrued": [0, 0, 0, 0, 0, 0, 0, 0, 0, 0, 0, 0, 0], "stateRewards": ["", 2, -1, 5, 8, 75, -35, -77, 1, -9, -81, -58, 1, 2, -7, 5, 77, -16, 19, 16, -10, -18, 40, -2, 3, 7, -5, 64, 1, -62, 10, 27, 10, 65], "withholdReward": false, "trial_id": "mdp_trial_30", "block": "test", "trialIndex": 33, "score": 7.100000000000001, "costs": -12.9, "simulationMode": [null, null, null, null, null], "rewards": [1, 2, -7, 5, 19], "path": ["0", "0", "12", "13", "14", "15", "18"], "rt": [27720, 171, 131, 165, 48], "actions": ["right", "right", "right", "up", "left"], "actionTimes": [30565, 31260, 31936, 32606, 33211], "queries": {"click": {"state": {"target": ["11", "6", "9", "28", "29", "32"], "time": [4125, 7511, 12547, 16893, 20978, 26104]}, "edge": {"target": [], "time": []}}, "mouseover": {"state": {"target": ["1", "9", "11", "6", "2", "2", "9", "8", "28", "24", "28", "24", "29", "33", "32"], "time": [3000, 3298, 3744, 6291, 9960, 10792, 11169, 13286, 13400, 16102, 16461, 20402, 20527, 24517, 25827]}, "edge": {"target": [], "time": []}}, "mouseout": {"state": {"target": ["0", "0", "0", "1", "9", "11", "6", "2", "2", "9", "8", "28", "24", "28", "24", "29", "33", "32"], "time": [89, 1703, 2172, 3033, 3703, 4810, 7718, 10037, 10835, 13283, 13326, 14065, 16154, 17518, 20442, 22035, 25595, 26852]}, "edge": {"target": [], "time": []}}}, "displayed_time": "33.76", "trialTime": 35024, "trial_type": "mouselab-mdp", "trial_index": 44, "time_elapsed": 1290908, "internal_node_id": "0.0-4.0-1.0-29.0"}}, {"uniqueid": "w30515482:a24149862", "current_trial": 45, "dateTime": 1691143639616, "trialdata": {"revealed_states": [], "clicked_states": ["20", "16", "9", "5"], "num_clicks_accrued": [0, 0, 0, 0, 0, 0, 0, 0, 0, 0, 0, 0, 0], "stateRewards": ["", -2, -1, 3, -3, 71, -58, -21, 7, -10, -75, -37, 2, 4, -1, -12, -79, -29, -48, 3, -41, -10, -30, -1, -2, 1, -15, 13, 66, 22, -1, -42, -86, -55], "withholdReward": false, "trial_id": "mdp_trial_31", "block": "test", "trialIndex": 34, "score": 59.4, "costs": -8.6, "simulationMode": [null, null, null, null, null], "rewards": [-2, -1, 3, -3, 71], "path": ["0", "0", "1", "2", "3", "4", "5"], "rt": [17154, 599, 114, 317, 139], "actions": ["up", "up", "up", "right", "up"], "actionTimes": [19350, 20487, 21153, 21987, 22684], "queries": {"click": {"state": {"target": ["20", "16", "9", "5"], "time": [3309, 7662, 12160, 15529]}, "edge": {"target": [], "time": []}}, "mouseover": {"state": {"target": ["20", "22", "22", "15", "16", "3", "9", "5"], "time": [2829, 3902, 6815, 6896, 7112, 11641, 11742, 14805]}, "edge": {"target": [], "time": []}}, "mouseout": {"state": {"target": ["25", "24", "1", "0", "20", "22", "22", "15", "16", "3", "9", "9", "5"], "time": [769, 799, 1498, 2706, 3859, 3943, 6852, 7035, 8337, 11687, 12372, 14495, 16364]}, "edge": {"target": [], "time": []}}}, "displayed_time": "23.23", "trialTime": 24688, "trial_type": "mouselab-mdp", "trial_index": 45, "time_elapsed": 1316135, "internal_node_id": "0.0-4.0-1.0-30.0"}}, {"uniqueid": "w30515482:a24149862", "current_trial": 46, "dateTime": 1691143665820, "trialdata": {"revealed_states": [], "clicked_states": ["9", "27", "29", "16"], "num_clicks_accrued": [0, 0, 0, 0, 0, 0, 0, 0, 0, 0, 0, 0, 0], "stateRewards": ["", -2, -3, 1, -14, 48, -49, 67, -1, -35, -48, 3, -2, 1, -4, -5, 86, -84, 39, 1, 48, 41, -42, -1, -4, 2, -7, 18, -86, 17, 7, -9, 57, -69], "withholdReward": false, "trial_id": "mdp_trial_32", "block": "test", "trialIndex": 35, "score": 67.4, "costs": -8.6, "simulationMode": [null, null, null, null, null], "rewards": [-2, 1, -4, -5, 86], "path": ["0", "0", "12", "13", "14", "15", "16"], "rt": [18379, 595, 163, 333, 155], "actions": ["right", "right", "right", "up", "up"], "actionTimes": [20672, 21799, 22501, 23394, 24079], "queries": {"click": {"state": {"target": ["9", "27", "29", "16"], "time": [3616, 7429, 11741, 16670]}, "edge": {"target": [], "time": []}}, "mouseover": {"state": {"target": ["2", "9", "27", "29", "28", "1", "15", "17", "17", "16", "18"], "time": [2938, 3295, 7113, 11367, 15497, 15534, 15578, 15624, 16003, 16264, 17499]}, "edge": {"target": [], "time": []}}, "mouseout": {"state": {"target": ["4", "0", "2", "9", "27", "29", "28", "1", "15", "17", "17", "16", "18"], "time": [464, 2898, 2986, 5096, 8827, 12857, 15530, 15574, 15619, 15762, 16201, 17492, 17555]}, "edge": {"target": [], "time": []}}}, "displayed_time": "24.63", "trialTime": 25683, "trial_type": "mouselab-mdp", "trial_index": 46, "time_elapsed": 1342339, "internal_node_id": "0.0-4.0-1.0-31.0"}}, {"uniqueid": "w30515482:a24149862", "current_trial": 47, "dateTime": 1691143691394, "trialdata": {"revealed_states": [], "clicked_states": ["17", "21", "32", "31"], "num_clicks_accrued": [0, 0, 0, 0, 0, 0, 0, 0, 0, 0, 0, 0, 0], "stateRewards": ["", -1, 3, 1, -7, 56, 76, 57, 3, 11, -9, 14, 1, -2, 2, 8, -77, -3, 79, -5, 88, 24, -66, -2, -1, 7, -7, -30, 14, -76, 11, -36, 28, -6], "withholdReward": false, "trial_id": "mdp_trial_33", "block": "test", "trialIndex": 36, "score": 34.4, "costs": -8.6, "simulationMode": [null, null, null, null, null], "rewards": [-2, -1, 7, 11, 28], "path": ["0", "0", "23", "24", "25", "30", "32"], "rt": [17969, 364, 159, 161, 114], "actions": ["left", "left", "left", "down", "down"], "actionTimes": [20100, 20991, 21675, 22386, 23032], "queries": {"click": {"state": {"target": ["17", "21", "32", "31"], "time": [3057, 7680, 12213, 16779]}, "edge": {"target": [], "time": []}}, "mouseover": {"state": {"target": ["15", "17", "19", "21", "32", "31"], "time": [2559, 2828, 6517, 7471, 11945, 16437]}, "edge": {"target": [], "time": []}}, "mouseout": {"state": {"target": ["0", "23", "15", "17", "19", "21", "32", "31"], "time": [475, 757, 2762, 4414, 6570, 7913, 12845, 18084]}, "edge": {"target": [], "time": []}}}, "displayed_time": "23.57", "trialTime": 25068, "trial_type": "mouselab-mdp", "trial_index": 47, "time_elapsed": 1367913, "internal_node_id": "0.0-4.0-1.0-32.0"}}, {"uniqueid": "w30515482:a24149862", "current_trial": 48, "dateTime": 1691143716153, "trialdata": {"revealed_states": [], "clicked_states": ["16", "3", "9", "27"], "num_clicks_accrued": [0, 0, 0, 0, 0, 0, 0, 0, 0, 0, 0, 0, 0], "stateRewards": ["", -2, -3, -7, 7, -54, -69, -4, -14, -77, 22, 40, -2, -1, 5, 6, -35, 50, -60, 10, -28, 75, 57, 1, -4, -2, 2, 68, 34, -18, 12, 3, -21, -43], "withholdReward": false, "trial_id": "mdp_trial_34", "block": "test", "trialIndex": 37, "score": 57.6, "costs": -7.4, "simulationMode": [null, null, null, null, null], "rewards": [1, -4, -2, 2, 68], "path": ["0", "0", "23", "24", "25", "26", "27"], "rt": [16109, 28, 86, 65, 30], "actions": ["left", "left", "left", "up", "up"], "actionTimes": [20202, 20763, 21398, 22015, 22608], "queries": {"click": {"state": {"target": ["16", "3", "9", "27"], "time": [4908, 10156, 11910, 16377]}, "edge": {"target": [], "time": []}}, "mouseover": {"state": {"target": ["7", "16", "18", "12", "13", "1", "3", "8", "11", "9", "9", "27"], "time": [4272, 4616, 5931, 8575, 8814, 8948, 9826, 10666, 10921, 11117, 11653, 16004]}, "edge": {"target": [], "time": []}}, "mouseout": {"state": {"target": ["0", "0", "7", "16", "18", "12", "13", "1", "3", "8", "11", "9", "9", "27"], "time": [1043, 2437, 4308, 5926, 5971, 8777, 8886, 9546, 10663, 10707, 11074, 11197, 12155, 17173]}, "edge": {"target": [], "time": []}}}, "displayed_time": "23.14", "trialTime": 24265, "trial_type": "mouselab-mdp", "trial_index": 48, "time_elapsed": 1392673, "internal_node_id": "0.0-4.0-1.0-33.0"}}, {"uniqueid": "w30515482:a24149862", "current_trial": 49, "dateTime": 1691143733842, "trialdata": {"revealed_states": [], "clicked_states": ["29", "27"], "num_clicks_accrued": [0, 0, 0, 0, 0, 0, 0, 0, 0, 0, 0, 0, 0], "stateRewards": ["", 1, 2, 7, 13, 88, -71, 27, 3, 60, 5, -53, -2, 2, -6, -1, -30, 79, 47, -4, -14, 46, 68, 1, 1, 8, 10, -14, 86, 48, -11, -67, -44, 5], "withholdReward": false, "trial_id": "mdp_trial_35", "block": "test", "trialIndex": 38, "score": 63.7, "costs": -4.3, "simulationMode": [null, null, null, null, null], "rewards": [1, 1, 8, 10, 48], "path": ["0", "0", "23", "24", "25", "26", "29"], "rt": [9264, 78, 112, 610, 283], "actions": ["left", "left", "left", "up", "left"], "actionTimes": [11466, 12099, 12762, 13924, 14753], "queries": {"click": {"state": {"target": ["29", "27"], "time": [3122, 7738]}, "edge": {"target": [], "time": []}}, "mouseover": {"state": {"target": ["28", "26", "29", "27", "27"], "time": [2351, 2604, 2807, 7189, 7454]}, "edge": {"target": [], "time": []}}, "mouseout": {"state": {"target": ["11", "10", "0", "28", "26", "29", "27", "27"], "time": [790, 820, 2289, 2448, 2745, 4113, 7227, 7973]}, "edge": {"target": [], "time": []}}}, "displayed_time": "16.21", "trialTime": 17146, "trial_type": "mouselab-mdp", "trial_index": 49, "time_elapsed": 1410362, "internal_node_id": "0.0-4.0-1.0-34.0"}}, {"uniqueid": "w30515482:a24149862", "current_trial": 50, "dateTime": 1691143750757, "trialdata": {"revealed_states": [], "clicked_states": ["33", "32"], "num_clicks_accrued": [0, 0, 0, 0, 0, 0, 0, 0, 0, 0, 0, 0, 0], "stateRewards": ["", -1, 3, 8, 10, -86, 61, -36, 10, 17, -60, 24, -1, -3, 3, 11, 50, 60, 33, -3, -20, 58, -6, 1, -4, -4, 13, -70, -71, 43, 14, 52, 82, -11], "withholdReward": false, "trial_id": "mdp_trial_36", "block": "test", "trialIndex": 39, "score": 84.7, "costs": -4.3, "simulationMode": [null, null, null, null, null], "rewards": [1, -4, -4, 14, 82], "path": ["0", "0", "23", "24", "25", "30", "32"], "rt": [10158, 72, 140, 117, 144], "actions": ["left", "left", "left", "down", "down"], "actionTimes": [11689, 12300, 12995, 13660, 14340], "queries": {"click": {"state": {"target": ["33", "32"], "time": [3411, 8056]}, "edge": {"target": [], "time": []}}, "mouseover": {"state": {"target": ["24", "30", "33", "32"], "time": [2532, 2639, 2937, 7692]}, "edge": {"target": [], "time": []}}, "mouseout": {"state": {"target": ["28", "0", "24", "30", "33", "32"], "time": [619, 997, 2571, 2750, 4250, 8301]}, "edge": {"target": [], "time": []}}}, "displayed_time": "15.54", "trialTime": 16367, "trial_type": "mouselab-mdp", "trial_index": 50, "time_elapsed": 1427277, "internal_node_id": "0.0-4.0-1.0-35.0"}}, {"uniqueid": "w30515482:a24149862", "current_trial": 51, "dateTime": 1691143768598, "trialdata": {"revealed_states": [], "clicked_states": ["5"], "num_clicks_accrued": [0, 0, 0, 0, 0, 0, 0, 0, 0, 0, 0, 0, 0], "stateRewards": ["", 1, -1, 8, 4, 76, -33, -17, -3, -1, -54, -74, -2, 2, -5, 13, -51, 63, 83, 1, 84, 29, -36, 2, -1, 7, -12, -10, -44, -43, -14, 8, -69, 19], "withholdReward": false, "trial_id": "mdp_trial_37", "block": "test", "trialIndex": 40, "score": 85.85, "costs": -2.15, "simulationMode": [null, null, null, null, null], "rewards": [1, -1, 8, 4, 76], "path": ["0", "0", "1", "2", "3", "4", "5"], "rt": [5062, 107, 67, 113, 114], "actions": ["up", "up", "up", "right", "up"], "actionTimes": [7426, 8062, 8683, 9333, 10003], "queries": {"click": {"state": {"target": ["5"], "time": [3408]}, "edge": {"target": [], "time": []}}, "mouseover": {"state": {"target": ["4", "5"], "time": [2955, 3040]}, "edge": {"target": [], "time": []}}, "mouseout": {"state": {"target": ["8", "10", "0", "0", "4", "5"], "time": [1017, 1324, 1375, 1732, 2995, 3914]}, "edge": {"target": [], "time": []}}}, "displayed_time": "16.39", "trialTime": 17341, "trial_type": "mouselab-mdp", "trial_index": 51, "time_elapsed": 1445117, "internal_node_id": "0.0-4.0-1.0-36.0"}}, {"uniqueid": "w30515482:a24149862", "current_trial": 52, "dateTime": 1691143786797, "trialdata": {"revealed_states": [], "clicked_states": ["16", "18"], "num_clicks_accrued": [0, 0, 0, 0, 0, 0, 0, 0, 0, 0, 0, 0, 0], "stateRewards": ["", 2, 1, -3, 7, 46, 11, -36, 16, 71, 5, 1, 2, -2, -8, -3, -4, 6, 55, 7, 68, -54, 2, 1, 1, 6, -6, 42, -4, -84, -11, -65, 63, 25], "withholdReward": false, "trial_id": "mdp_trial_38", "block": "test", "trialIndex": 41, "score": 39.7, "costs": -4.3, "simulationMode": [null, null, null, null, null], "rewards": [2, -2, -8, -3, 55], "path": ["0", "0", "12", "13", "14", "15", "18"], "rt": [9653, 641, 229, 524, 198], "actions": ["right", "right", "right", "up", "left"], "actionTimes": [12107, 13310, 14084, 15157, 15892], "queries": {"click": {"state": {"target": ["16", "18"], "time": [3585, 7806]}, "edge": {"target": [], "time": []}}, "mouseover": {"state": {"target": ["18", "15", "16", "18"], "time": [2920, 2995, 3232, 7524]}, "edge": {"target": [], "time": []}}, "mouseout": {"state": {"target": ["12", "0", "18", "15", "16", "18", "18"], "time": [1432, 2764, 2954, 3170, 7228, 8017, 8703]}, "edge": {"target": [], "time": []}}}, "displayed_time": "16.47", "trialTime": 17684, "trial_type": "mouselab-mdp", "trial_index": 52, "time_elapsed": 1463316, "internal_node_id": "0.0-4.0-1.0-37.0"}}, {"uniqueid": "w30515482:a24149862", "current_trial": 53, "dateTime": 1691143813216, "trialdata": {"revealed_states": [], "clicked_states": ["20", "28", "16", "9"], "num_clicks_accrued": [0, 0, 0, 0, 0, 0, 0, 0, 0, 0, 0, 0, 0], "stateRewards": ["", 1, 1, -3, 2, 22, -25, -11, -5, 50, 49, 3, 1, -1, 8, 14, -85, -30, 57, -6, -39, -16, 59, -2, -1, 5, 5, 59, -16, 8, 4, 67, 56, -9], "withholdReward": false, "trial_id": "mdp_trial_39", "block": "test", "trialIndex": 42, "score": 35.4, "costs": -8.6, "simulationMode": [null, null, null, null, null], "rewards": [1, 1, -3, -5, 50], "path": ["0", "0", "1", "2", "3", "8", "9"], "rt": [18533, 69, 133, 388, 220], "actions": ["up", "up", "up", "left", "up"], "actionTimes": [20933, 21559, 22248, 23179, 23937], "queries": {"click": {"state": {"target": ["20", "28", "16", "9"], "time": [4022, 8409, 12961, 17038]}, "edge": {"target": [], "time": []}}, "mouseover": {"state": {"target": ["12", "13", "19", "20", "24", "28", "27", "10", "15", "16", "18", "13", "2", "9"], "time": [3340, 3387, 3479, 3662, 7558, 8058, 11876, 12032, 12366, 12485, 13580, 13627, 16493, 16536]}, "edge": {"target": [], "time": []}}, "mouseout": {"state": {"target": ["0", "12", "13", "19", "20", "24", "28", "27", "10", "15", "16", "18", "13", "2", "9"], "time": [3336, 3380, 3434, 3558, 5019, 7593, 9933, 11955, 12064, 12414, 13537, 13622, 13677, 16530, 17271]}, "edge": {"target": [], "time": []}}}, "displayed_time": "24.48", "trialTime": 25850, "trial_type": "mouselab-mdp", "trial_index": 53, "time_elapsed": 1489735, "internal_node_id": "0.0-4.0-1.0-38.0"}}, {"uniqueid": "w30515482:a24149862", "current_trial": 54, "dateTime": 1691143845553, "trialdata": {"revealed_states": [], "clicked_states": ["5", "10", "27", "16", "32"], "num_clicks_accrued": [0, 0, 0, 0, 0, 0, 0, 0, 0, 0, 0, 0, 0], "stateRewards": ["", -2, -3, -6, -7, 9, 16, 65, 5, -41, 20, -25, -1, -4, 1, -11, -49, -4, 71, 1, 39, -62, 52, -2, -3, 7, -9, -28, -70, 84, 8, 24, -58, 82], "withholdReward": false, "trial_id": "mdp_trial_40", "block": "test", "trialIndex": 43, "score": 38.25, "costs": -10.75, "simulationMode": [null, null, null, null, null], "rewards": [-1, -4, 1, 1, 52], "path": ["0", "0", "12", "13", "14", "19", "22"], "rt": [23401, 537, 169, 423, 342], "actions": ["right", "right", "right", "down", "left"], "actionTimes": [26290, 27358, 28078, 29061, 29940], "queries": {"click": {"state": {"target": ["5", "10", "27", "16", "32"], "time": [3813, 8016, 12085, 16739, 22169]}, "edge": {"target": [], "time": []}}, "mouseover": {"state": {"target": ["2", "4", "5", "8", "10", "27", "29", "18", "15", "16", "0", "32"], "time": [3134, 3305, 3452, 7412, 7705, 11743, 15533, 15894, 15934, 16334, 20431, 21611]}, "edge": {"target": [], "time": []}}, "mouseout": {"state": {"target": ["2", "1", "12", "0", "0", "2", "4", "5", "5", "8", "10", "27", "29", "18", "15", "16", "0", "32"], "time": [799, 864, 1248, 1782, 2964, 3212, 3400, 4507, 7377, 7454, 8835, 12586, 15768, 15930, 15971, 17427, 20466, 22779]}, "edge": {"target": [], "time": []}}}, "displayed_time": "30.47", "trialTime": 31772, "trial_type": "mouselab-mdp", "trial_index": 54, "time_elapsed": 1522072, "internal_node_id": "0.0-4.0-1.0-39.0"}}, {"uniqueid": "w30515482:a24149862", "current_trial": 55, "dateTime": 1691143917193, "trialdata": {"rt": 71619, "response": {"Q0": "$-2 to $2", "Q1": "$-16 to $16", "Q2": "$-88 to $88", "Q3": "The cost for clicking on nodes varied between nodes.", "Q4": "Very motivated"}, "question_order": [0, 1, 2, 3, 4], "trial_id": "final_quiz_control", "trial_type": "survey-multi-choice", "trial_index": 55, "time_elapsed": 1593712, "internal_node_id": "0.0-4.0-2.0"}}, {"uniqueid": "w30515482:a24149862", "current_trial": 56, "dateTime": 1691144007526, "trialdata": {"rt": 90314, "response": {"Q0": "I used the node inspector to determine the node value of the last node and moved in the direction based on the highest value of the last node", "Q1": "I used the same strategy throughout", "Q2": "Not difficult"}, "trial_id": "self_report_control", "trial_type": "survey-text", "trial_index": 56, "time_elapsed": 1684046, "internal_node_id": "0.0-4.0-3.0"}}, {"uniqueid": "w30515482:a24149862", "current_trial": 57, "dateTime": 1691144061580, "trialdata": {"rt": 54043, "response": {"Q0": "Strongly disagree", "Q1": "Strongly disagree", "Q2": "Agree", "Q3": "Strongly agree", "Q4": "Neither disagree nor agree", "Q5": "Strongly agree", "Q6": "Strongly disagree"}, "question_order": [0, 1, 2, 3, 4, 5, 6], "trial_id": "self_report_2", "trial_type": "survey-multi-choice", "trial_index": 57, "time_elapsed": 1738100, "internal_node_id": "0.0-4.0-4.0"}}, {"uniqueid": "w30515482:a24149862", "current_trial": 58, "dateTime": 1691144078287, "trialdata": {"rt": 16692, "response": {"gender": "female", "age": "23", "colorblind": "0", "effort": "0"}, "trial_type": "survey-html-form", "trial_index": 58, "time_elapsed": 1754807, "internal_node_id": "0.0-4.0-5.0"}}, {"uniqueid": "w30515482:a24149862", "current_trial": 59, "dateTime": 1691144119613, "trialdata": {"rt": 41311, "response": {"Q0": "No, everything was straightfoward and easy to understand", "Q1": "No", "Q2": "Everything went well with the HIT"}, "trial_type": "survey-text", "trial_index": 59, "time_elapsed": 1796133, "internal_node_id": "0.0-4.0-6.0"}}, {"uniqueid": "w30515482:a24149862", "current_trial": 60, "dateTime": 1691144124863, "trialdata": {"rt": 5242, "stimulus": "Press 'Finish HIT' in order to reach the completion code. Once the data has been saved, you will receive the code either in this window or in the original browser window where you started the experiment.\n", "response": 0, "trial_type": "html-button-response", "trial_index": 60, "time_elapsed": 1801383, "internal_node_id": "0.0-5.0"}}, {"uniqueid": "w30515482:a24149862", "current_trial": 61, "dateTime": 1691144125875, "trialdata": {"success": true, "trial_type": "fullscreen", "trial_index": 61, "time_elapsed": 1802395, "internal_node_id": "0.0-6.0"}}], "questiondata": {"params": {"CODE": "C6DMOQA6", "MIN_TIME": 14, "inspectCost": 1, "startTime": "Fri Aug 04 2023 11:45:19 GMT+0200 (South Africa Standard Time)", "bonusRate": 0.002, "variance": "1_2_4_8_44", "branching": "31123"}, "final_score": 1618.35}, "eventdata": [{"eventtype": "initialized", "value": null, "timestamp": 1691142319148, "interval": 0}, {"eventtype": "window_resize", "value": [1025, 604], "timestamp": 1691142319148, "interval": 0}, {"eventtype": "window_resize", "value": [1025, 604], "timestamp": 1691142319624, "interval": 476}, {"eventtype": "window_resize", "value": [1280, 618], "timestamp": 1691142323489, "interval": 3865}, {"eventtype": "window_resize", "value": [1280, 720], "timestamp": 1691142327703, "interval": 4214}, {"eventtype": "focus", "value": "off", "timestamp": 1691142725330, "interval": 397627}, {"eventtype": "focus", "value": "on", "timestamp": 1691142725331, "interval": 1}, {"eventtype": "window_resize", "value": [1280, 618], "timestamp": 1691142725553, "interval": 222}, {"eventtype": "window_resize", "value": [1280, 720], "timestamp": 1691142727307, "interval": 1754}, {"eventtype": "window_resize", "value": [1280, 618], "timestamp": 1691144125156, "interval": 1397849}], "useragent": "Mozilla/5.0 (Windows NT 10.0; Win64; x64) AppleWebKit/537.36 (KHTML, like Gecko) Chrome/115.0.0.0 Safari/537.36 Edg/115.0.1901.188", "mode": "live", "id": "w30515482:a24149862", "status": "user data saved", "Beginhit": "2023-08-04 09:45:14.047491", "Beginexp": "2023-08-04 09:45:28.604947", "Endhit": "2023-08-04 10:15:27.030725", "psiturkStatus": 3, "browser": "<redacted>", "platform": "windows", "language": "en-US"}