{"condition": 0, "counterbalance": 0, "assignmentId": "a66483057", "workerId": "w37151391", "hitId": "h34902684", "currenttrial": 55, "bonus": 0, "data": [{"uniqueid": "w37151391:a66483057", "current_trial": 0, "dateTime": 1691161340594, "trialdata": {"success": true, "trial_type": "fullscreen", "trial_index": 0, "time_elapsed": 6115, "internal_node_id": "0.0-0.0"}}, {"uniqueid": "w37151391:a66483057", "current_trial": 1, "dateTime": 1691161354969, "trialdata": {"view_history": [{"page_index": 0, "viewing_time": 14362}], "rt": 14362, "trial_id": "exp_instructions_control", "trial_type": "instructions", "trial_index": 1, "time_elapsed": 20491, "internal_node_id": "0.0-1.0"}}, {"uniqueid": "w37151391:a66483057", "current_trial": 2, "dateTime": 1691161360321, "trialdata": {"success": true, "trial_type": "fullscreen", "trial_index": 2, "time_elapsed": 25843, "internal_node_id": "0.0-2.0-0.0"}}, {"uniqueid": "w37151391:a66483057", "current_trial": 3, "dateTime": 1691161625338, "trialdata": {"view_history": [{"page_index": 0, "viewing_time": 68846}, {"page_index": 1, "viewing_time": 101228}, {"page_index": 2, "viewing_time": 32626}, {"page_index": 3, "viewing_time": 62308}], "rt": 265009, "trial_id": "mouselab_instructions_1_control", "trial_type": "instructions", "trial_index": 3, "time_elapsed": 290859, "internal_node_id": "0.0-2.0-1.0"}}, {"uniqueid": "w37151391:a66483057", "current_trial": 4, "dateTime": 1691161670685, "trialdata": {"revealed_states": [], "clicked_states": ["23", "28", "26", "25", "30", "32", "33", "29", "24", "12", "14", "22", "20", "21", "15", "18", "17", "16"], "num_clicks_accrued": [0, 0, 0, 0, 0, 0, 0, 0, 0, 0, 0, 0, 0], "stateRewards": ["", 10, 10, 10, 10, 10, -10, 10, -10, 10, -10, 10, -10, -10, 10, -10, 10, 10, -10, -10, -10, -10, -10, -10, -10, -10, 10, -10, -10, 10, -10, 10, 10, -10], "withholdReward": false, "trial_id": "practice_1", "block": "test", "trialIndex": 0, "score": -35.5, "costs": -9, "simulationMode": [null, null, null, null, null], "rewards": [-10, -10, -10, 10, -10], "path": ["0", "0", "23", "24", "25", "26", "27"], "rt": [28297, 1174, 715, 1181, 1], "actions": ["left", "left", "left", "up", "up"], "actionTimes": [29622, 31300, 32520, 34207, 34727], "queries": {"click": {"state": {"target": ["23", "28", "26", "25", "30", "32", "33", "29", "24", "12", "14", "22", "20", "21", "15", "18", "17", "16"], "time": [3306, 4996, 6132, 7824, 9658, 10689, 12422, 13747, 15382, 17034, 18278, 19570, 20833, 21964, 23100, 24328, 26088, 27481]}, "edge": {"target": [], "time": []}}, "mouseover": {"state": {"target": ["23", "24", "28", "10", "26", "29", "29", "25", "30", "30", "32", "30", "32", "33", "29", "27", "29", "26", "28", "24", "31", "31", "12", "13", "14", "22", "19", "20", "21", "19", "14", "15", "18", "17", "16", "13", "22"], "time": [3093, 4074, 4613, 5444, 5997, 6365, 7317, 7536, 8082, 8369, 8784, 9089, 10003, 11308, 13196, 13328, 13545, 14185, 14246, 15019, 15867, 16101, 16773, 17319, 17888, 18790, 19909, 20225, 21529, 22498, 22581, 22748, 23649, 24802, 27211, 28243, 28276]}, "edge": {"target": [], "time": []}}, "mouseout": {"state": {"target": ["0", "23", "23", "24", "28", "28", "10", "26", "29", "29", "25", "30", "30", "32", "30", "32", "33", "29", "27", "29", "29", "26", "28", "24", "31", "31", "12", "13", "14", "22", "19", "20", "21", "19", "14", "15", "18", "15", "17", "16", "13", "22"], "time": [3043, 3384, 3641, 4563, 5105, 5360, 5694, 6332, 7047, 7381, 8066, 8133, 8717, 9023, 9970, 11038, 12930, 13263, 13481, 13845, 14166, 14213, 14985, 15834, 15951, 16487, 17286, 17873, 18676, 19876, 19926, 21365, 22464, 22547, 22631, 23466, 24685, 24768, 26881, 28145, 28260, 28310]}, "edge": {"target": [], "time": []}}}, "displayed_time": "35.25", "trialTime": 44061, "trial_type": "mouselab-mdp", "trial_index": 4, "time_elapsed": 336206, "internal_node_id": "0.0-2.0-2.0-0.0"}}, {"uniqueid": "w37151391:a66483057", "current_trial": 5, "dateTime": 1691161689759, "trialdata": {"revealed_states": [], "clicked_states": [], "num_clicks_accrued": [0, 0, 0, 0, 0, 0, 0, 0, 0, 0, 0, 0, 0], "stateRewards": ["", -10, 10, -10, 10, 10, -10, 10, 10, -10, 10, 10, 10, -10, -10, -10, -10, -10, -10, -10, -10, -10, 10, 10, -10, 10, 10, 10, 10, -10, 10, 10, -10, 10], "withholdReward": false, "trial_id": "practice_2", "block": "test", "trialIndex": 1, "score": -26.5, "costs": 0, "simulationMode": [null, null, null, null, null], "rewards": [10, -10, -10, -10, -10], "path": ["0", "0", "12", "13", "14", "15", "16"], "rt": [1770, 941, 278, 995, 1], "actions": ["right", "right", "right", "up", "up"], "actionTimes": [3821, 5259, 6043, 7531, 8038], "queries": {"click": {"state": {"target": [], "time": []}, "edge": {"target": [], "time": []}}, "mouseover": {"state": {"target": [], "time": []}, "edge": {"target": [], "time": []}}, "mouseout": {"state": {"target": ["0", "0", "1", "18", "15", "18", "13", "22"], "time": [10588, 11914, 11965, 15873, 16040, 16107, 16241, 16341]}, "edge": {"target": [], "time": []}}}, "displayed_time": "8.56", "trialTime": 18859, "trial_type": "mouselab-mdp", "trial_index": 5, "time_elapsed": 355279, "internal_node_id": "0.0-2.0-2.0-1.0"}}, {"uniqueid": "w37151391:a66483057", "current_trial": 6, "dateTime": 1691161747621, "trialdata": {"view_history": [{"page_index": 0, "viewing_time": 55343}, {"page_index": 1, "viewing_time": 2509}], "rt": 57853, "trial_id": "mouselab_instructions_2_control", "trial_type": "instructions", "trial_index": 6, "time_elapsed": 413143, "internal_node_id": "0.0-2.0-3.0"}}, {"uniqueid": "w37151391:a66483057", "current_trial": 7, "dateTime": 1691161812639, "trialdata": {"rt": 65013, "response": {"Q0": "The cost for clicking on nodes may vary between nodes.", "Q1": "The better I perform the higher my bonus will be.", "Q2": "No, the amount of cash at each node of the web may be different each time.", "Q3": "To get the highest total score.", "Q4": "Only before moving the spider.", "Q5": "3 seconds"}, "question_order": [0, 1, 2, 3, 4, 5], "correct": {"Q0": "The cost for clicking on nodes may vary between nodes.", "Q1": "The better I perform the higher my bonus will be.", "Q2": "No, the amount of cash at each node of the web may be different each time.", "Q3": "To get the highest total score.", "Q4": "Only before moving the spider.", "Q5": "3 seconds"}, "trial_id": "mouselab_quiz_control", "trial_type": "survey-multi-choice", "trial_index": 7, "time_elapsed": 478160, "internal_node_id": "0.0-2.0-4.0"}}, {"uniqueid": "w37151391:a66483057", "current_trial": 8, "dateTime": 1691161825131, "trialdata": {"rt": 12484, "stimulus": "\n<h1> Get ready to start the game! </h1>\n\nThank you for reading the instructions. Get ready start with the 40 rounds of this game.\n<br><br>\nIf you need to take a break, feel free to take one after the end of a round, before continuing to the next one.\n<br><br>\nRemember, the more money the spider gets, the bigger your bonus will be!\n<br><br>\n<div style='text-align: center;'>Press <code>space</code> to begin.</div>\n\n<br><br>\n(If, at any point, the <code>space</code> key does not take you to the next page, click once on the text and try again.)", "response": " ", "trial_id": "mdp_ready", "trial_type": "html-keyboard-response", "trial_index": 8, "time_elapsed": 490653, "internal_node_id": "0.0-4.0-0.0"}}, {"uniqueid": "w37151391:a66483057", "current_trial": 9, "dateTime": 1691161846857, "trialdata": {"revealed_states": [], "clicked_states": [], "num_clicks_accrued": [0, 0, 0, 0, 0, 0, 0, 0, 0, 0, 0, 0, 0], "stateRewards": ["", -1, 3, -5, -2, -13, -9, -34, -7, -81, 32, 35, -2, -2, 1, -14, -32, 81, 7, 4, 82, 56, -8, -1, 3, -8, 6, -24, -24, -53, 2, 38, 61, 54], "withholdReward": false, "trial_id": "mdp_trial_1", "block": "test", "trialIndex": 2, "score": 22, "costs": 0, "simulationMode": [null, null, null, null, null], "rewards": [-1, 3, -5, -7, 32], "path": ["0", "0", "1", "2", "3", "8", "10"], "rt": [1905, 359, 486, 1725, 2550], "actions": ["up", "up", "up", "left", "down"], "actionTimes": [5126, 5981, 6957, 9181, 12233], "queries": {"click": {"state": {"target": [], "time": []}, "edge": {"target": [], "time": []}}, "mouseover": {"state": {"target": [], "time": []}, "edge": {"target": [], "time": []}}, "mouseout": {"state": {"target": ["22", "23", "0", "12", "12"], "time": [1411, 1831, 17428, 17562, 19208]}, "edge": {"target": [], "time": []}}}, "displayed_time": "17.22", "trialTime": 21509, "trial_type": "mouselab-mdp", "trial_index": 9, "time_elapsed": 512377, "internal_node_id": "0.0-4.0-1.0-0.0"}}, {"uniqueid": "w37151391:a66483057", "current_trial": 10, "dateTime": 1691161866200, "trialdata": {"revealed_states": [], "clicked_states": [], "num_clicks_accrued": [0, 0, 0, 0, 0, 0, 0, 0, 0, 0, 0, 0, 0], "stateRewards": ["", -2, -1, -4, -15, -14, -67, 32, -3, -59, 63, 31, 2, -1, -7, -15, 71, -66, -27, -3, -54, -39, 72, 2, 1, 1, -13, 77, -40, 35, -9, 35, 75, 57], "withholdReward": false, "trial_id": "mdp_trial_2", "block": "test", "trialIndex": 3, "score": 70, "costs": 0, "simulationMode": [null, null, null, null, null], "rewards": [2, 1, 1, -9, 75], "path": ["0", "0", "23", "24", "25", "30", "32"], "rt": [6190, 617, 559, 952, 279], "actions": ["left", "left", "left", "down", "down"], "actionTimes": [8626, 9743, 10808, 12266, 13044], "queries": {"click": {"state": {"target": [], "time": []}, "edge": {"target": [], "time": []}}, "mouseover": {"state": {"target": [], "time": []}, "edge": {"target": [], "time": []}}, "mouseout": {"state": {"target": ["12"], "time": [841]}, "edge": {"target": [], "time": []}}}, "displayed_time": "16.44", "trialTime": 19120, "trial_type": "mouselab-mdp", "trial_index": 10, "time_elapsed": 531720, "internal_node_id": "0.0-4.0-1.0-1.0"}}, {"uniqueid": "w37151391:a66483057", "current_trial": 11, "dateTime": 1691161884500, "trialdata": {"revealed_states": [], "clicked_states": [], "num_clicks_accrued": [0, 0, 0, 0, 0, 0, 0, 0, 0, 0, 0, 0, 0], "stateRewards": ["", -2, 1, -3, -16, -39, -52, 30, -7, -41, -59, 11, 2, 1, 8, 2, -11, -26, -42, -13, 87, -59, -48, -1, -1, -1, 16, -79, 31, 50, -1, -84, 34, -82], "withholdReward": false, "trial_id": "mdp_trial_3", "block": "test", "trialIndex": 4, "score": 2, "costs": 0, "simulationMode": [null, null, null, null, null], "rewards": [2, 1, 8, 2, -11], "path": ["0", "0", "12", "13", "14", "15", "16"], "rt": [4894, 544, 348, 519, 76], "actions": ["right", "right", "right", "up", "up"], "actionTimes": [6098, 7140, 7979, 9004, 9579], "queries": {"click": {"state": {"target": [], "time": []}, "edge": {"target": [], "time": []}}, "mouseover": {"state": {"target": ["0"], "time": [1211]}, "edge": {"target": [], "time": []}}, "mouseout": {"state": {"target": ["0", "0"], "time": [550, 5707]}, "edge": {"target": [], "time": []}}}, "displayed_time": "15.21", "trialTime": 18071, "trial_type": "mouselab-mdp", "trial_index": 11, "time_elapsed": 550020, "internal_node_id": "0.0-4.0-1.0-2.0"}}, {"uniqueid": "w37151391:a66483057", "current_trial": 12, "dateTime": 1691161902751, "trialdata": {"revealed_states": [], "clicked_states": [], "num_clicks_accrued": [0, 0, 0, 0, 0, 0, 0, 0, 0, 0, 0, 0, 0], "stateRewards": ["", 1, -1, 8, -3, 38, 85, -20, -4, 8, 23, 73, 2, -4, 6, -13, 44, 7, -28, -11, -77, 45, -69, 1, -1, -7, -11, 75, -51, -87, 7, 36, -53, -26], "withholdReward": false, "trial_id": "mdp_trial_4", "block": "test", "trialIndex": 5, "score": 38, "costs": 0, "simulationMode": [null, null, null, null, null], "rewards": [2, -4, 6, -11, 45], "path": ["0", "0", "12", "13", "14", "19", "21"], "rt": [3137, 483, 1595, 1230, 362], "actions": ["right", "right", "right", "down", "down"], "actionTimes": [5006, 5987, 8085, 9808, 10660], "queries": {"click": {"state": {"target": [], "time": []}, "edge": {"target": [], "time": []}}, "mouseover": {"state": {"target": [], "time": []}, "edge": {"target": [], "time": []}}, "mouseout": {"state": {"target": ["0", "0", "23"], "time": [33, 612, 980]}, "edge": {"target": [], "time": []}}}, "displayed_time": "15.87", "trialTime": 18012, "trial_type": "mouselab-mdp", "trial_index": 12, "time_elapsed": 568272, "internal_node_id": "0.0-4.0-1.0-3.0"}}, {"uniqueid": "w37151391:a66483057", "current_trial": 13, "dateTime": 1691161920747, "trialdata": {"revealed_states": [], "clicked_states": [], "num_clicks_accrued": [0, 0, 0, 0, 0, 0, 0, 0, 0, 0, 0, 0, 0], "stateRewards": ["", 1, -2, -8, -13, 4, 34, -84, -4, -49, 88, -70, -1, 3, -4, 10, -77, 13, -34, 15, -21, -16, 27, 1, -2, 8, -8, -6, 38, -26, 6, -15, 66, -3], "withholdReward": false, "trial_id": "mdp_trial_5", "block": "test", "trialIndex": 6, "score": -69, "costs": 0, "simulationMode": [null, null, null, null, null], "rewards": [-1, 3, -4, 10, -77], "path": ["0", "0", "12", "13", "14", "15", "16"], "rt": [4454, 290, 323, 616, 210], "actions": ["right", "right", "right", "up", "up"], "actionTimes": [5496, 6289, 7105, 8218, 8946], "queries": {"click": {"state": {"target": [], "time": []}, "edge": {"target": [], "time": []}}, "mouseover": {"state": {"target": [], "time": []}, "edge": {"target": [], "time": []}}, "mouseout": {"state": {"target": ["0", "0"], "time": [7433, 14162]}, "edge": {"target": [], "time": []}}}, "displayed_time": "15.04", "trialTime": 17757, "trial_type": "mouselab-mdp", "trial_index": 13, "time_elapsed": 586268, "internal_node_id": "0.0-4.0-1.0-4.0"}}, {"uniqueid": "w37151391:a66483057", "current_trial": 14, "dateTime": 1691161938596, "trialdata": {"revealed_states": [], "clicked_states": [], "num_clicks_accrued": [0, 0, 0, 0, 0, 0, 0, 0, 0, 0, 0, 0, 0], "stateRewards": ["", 2, 1, -3, 7, 46, 11, -36, 16, 71, 5, 1, 2, -2, -8, -3, -4, 6, 55, 7, 68, -54, 2, 1, 1, 6, -6, 42, -4, -84, -11, -65, 63, 25], "withholdReward": false, "trial_id": "mdp_trial_6", "block": "test", "trialIndex": 7, "score": 18, "costs": 0, "simulationMode": [null, null, null, null, null], "rewards": [2, 1, -3, 7, 11], "path": ["0", "0", "1", "2", "3", "4", "6"], "rt": [2456, 701, 211, 803, 203], "actions": ["up", "up", "up", "right", "right"], "actionTimes": [4253, 5468, 6181, 7477, 8181], "queries": {"click": {"state": {"target": [], "time": []}, "edge": {"target": [], "time": []}}, "mouseover": {"state": {"target": [], "time": []}, "edge": {"target": [], "time": []}}, "mouseout": {"state": {"target": ["0"], "time": [4317]}, "edge": {"target": [], "time": []}}}, "displayed_time": "15.80", "trialTime": 17609, "trial_type": "mouselab-mdp", "trial_index": 14, "time_elapsed": 604116, "internal_node_id": "0.0-4.0-1.0-5.0"}}, {"uniqueid": "w37151391:a66483057", "current_trial": 15, "dateTime": 1691161958008, "trialdata": {"revealed_states": [], "clicked_states": [], "num_clicks_accrued": [0, 0, 0, 0, 0, 0, 0, 0, 0, 0, 0, 0, 0], "stateRewards": ["", 1, 2, 3, 16, 63, -25, 16, -4, -14, 82, -66, -1, -3, -3, -11, -14, 19, 46, 3, -34, -82, 66, -2, -3, 4, -5, -63, 77, -37, -1, -45, -41, 84], "withholdReward": false, "trial_id": "mdp_trial_7", "block": "test", "trialIndex": 8, "score": 84, "costs": 0, "simulationMode": [null, null, null, null, null], "rewards": [1, 2, 3, -4, 82], "path": ["0", "0", "1", "2", "3", "8", "10"], "rt": [2473, 288, 391, 3337, 2580], "actions": ["up", "up", "up", "left", "down"], "actionTimes": [3850, 4632, 5520, 9353, 12436], "queries": {"click": {"state": {"target": [], "time": []}, "edge": {"target": [], "time": []}}, "mouseover": {"state": {"target": [], "time": []}, "edge": {"target": [], "time": []}}, "mouseout": {"state": {"target": [], "time": []}, "edge": {"target": [], "time": []}}}, "displayed_time": "15.38", "trialTime": 19161, "trial_type": "mouselab-mdp", "trial_index": 15, "time_elapsed": 623529, "internal_node_id": "0.0-4.0-1.0-6.0"}}, {"uniqueid": "w37151391:a66483057", "current_trial": 16, "dateTime": 1691161975851, "trialdata": {"revealed_states": [], "clicked_states": [], "num_clicks_accrued": [0, 0, 0, 0, 0, 0, 0, 0, 0, 0, 0, 0, 0], "stateRewards": ["", -2, 1, -7, 9, 8, 25, 61, -7, -17, 69, -81, 1, 4, -4, -11, 16, 67, 44, 3, 6, -45, -54, -2, 3, 6, -11, -15, 32, -47, 3, -39, -6, -88], "withholdReward": false, "trial_id": "mdp_trial_8", "block": "test", "trialIndex": 9, "score": 28, "costs": 0, "simulationMode": [null, null, null, null, null], "rewards": [-2, 3, 6, -11, 32], "path": ["0", "0", "23", "24", "25", "26", "28"], "rt": [2179, 245, 309, 1670, 576], "actions": ["left", "left", "left", "up", "right"], "actionTimes": [4210, 4980, 5797, 7964, 9036], "queries": {"click": {"state": {"target": [], "time": []}, "edge": {"target": [], "time": []}}, "mouseover": {"state": {"target": [], "time": []}, "edge": {"target": [], "time": []}}, "mouseout": {"state": {"target": ["0"], "time": [17539]}, "edge": {"target": [], "time": []}}}, "displayed_time": "16.03", "trialTime": 17600, "trial_type": "mouselab-mdp", "trial_index": 16, "time_elapsed": 641372, "internal_node_id": "0.0-4.0-1.0-7.0"}}, {"uniqueid": "w37151391:a66483057", "current_trial": 17, "dateTime": 1691161993100, "trialdata": {"revealed_states": [], "clicked_states": [], "num_clicks_accrued": [0, 0, 0, 0, 0, 0, 0, 0, 0, 0, 0, 0, 0], "stateRewards": ["", -1, -3, 3, 5, 56, 39, 50, -1, -80, 33, -46, 1, -2, -6, -8, 87, 48, 54, -11, -20, -64, -54, -2, 3, -7, -3, 12, 88, 35, -16, -46, -70, -3], "withholdReward": false, "trial_id": "mdp_trial_9", "block": "test", "trialIndex": 10, "score": -68, "costs": 0, "simulationMode": [null, null, null, null, null], "rewards": [-2, 3, -7, -16, -46], "path": ["0", "0", "23", "24", "25", "30", "31"], "rt": [4345, 401, 139, 687, 563], "actions": ["left", "left", "left", "down", "right"], "actionTimes": [5529, 6431, 7071, 8254, 9318], "queries": {"click": {"state": {"target": [], "time": []}, "edge": {"target": [], "time": []}}, "mouseover": {"state": {"target": ["0"], "time": [1248]}, "edge": {"target": [], "time": []}}, "mouseout": {"state": {"target": ["0", "0"], "time": [886, 5556]}, "edge": {"target": [], "time": []}}}, "displayed_time": "15.19", "trialTime": 16987, "trial_type": "mouselab-mdp", "trial_index": 17, "time_elapsed": 658620, "internal_node_id": "0.0-4.0-1.0-8.0"}}, {"uniqueid": "w37151391:a66483057", "current_trial": 18, "dateTime": 1691162010772, "trialdata": {"revealed_states": [], "clicked_states": [], "num_clicks_accrued": [0, 0, 0, 0, 0, 0, 0, 0, 0, 0, 0, 0, 0], "stateRewards": ["", 2, -1, -3, 16, -3, -16, -62, -1, 13, -26, 43, -1, 4, 3, -9, -54, -37, -3, -12, -71, -68, -57, 1, -3, 2, -9, 2, -2, -9, -11, 84, -52, 55], "withholdReward": false, "trial_id": "mdp_trial_10", "block": "test", "trialIndex": 11, "score": 40, "costs": 0, "simulationMode": [null, null, null, null, null], "rewards": [2, -1, -3, -1, 43], "path": ["0", "0", "1", "2", "3", "8", "11"], "rt": [1330, 711, 148, 3463, 211], "actions": ["up", "up", "up", "left", "left"], "actionTimes": [3140, 4355, 4994, 8963, 9667], "queries": {"click": {"state": {"target": [], "time": []}, "edge": {"target": [], "time": []}}, "mouseover": {"state": {"target": [], "time": []}, "edge": {"target": [], "time": []}}, "mouseout": {"state": {"target": ["23", "0", "0"], "time": [838, 1088, 2951]}, "edge": {"target": [], "time": []}}}, "displayed_time": "15.81", "trialTime": 17407, "trial_type": "mouselab-mdp", "trial_index": 18, "time_elapsed": 676293, "internal_node_id": "0.0-4.0-1.0-9.0"}}, {"uniqueid": "w37151391:a66483057", "current_trial": 19, "dateTime": 1691162027997, "trialdata": {"revealed_states": [], "clicked_states": [], "num_clicks_accrued": [0, 0, 0, 0, 0, 0, 0, 0, 0, 0, 0, 0, 0], "stateRewards": ["", 1, -4, -4, 8, 1, -79, 68, -10, -79, 8, -74, -1, -3, -6, 14, 43, 23, 9, 5, -51, 63, 61, -2, 4, 6, -10, 69, -32, 57, 15, -80, -80, -77], "withholdReward": false, "trial_id": "mdp_trial_11", "block": "test", "trialIndex": 12, "score": 69, "costs": 0, "simulationMode": [null, null, null, null, null], "rewards": [1, -4, -4, 8, 68], "path": ["0", "0", "1", "2", "3", "4", "7"], "rt": [2590, 220, 366, 745, 237], "actions": ["up", "up", "up", "right", "down"], "actionTimes": [3974, 4693, 5574, 6821, 7550], "queries": {"click": {"state": {"target": [], "time": []}, "edge": {"target": [], "time": []}}, "mouseover": {"state": {"target": [], "time": []}, "edge": {"target": [], "time": []}}, "mouseout": {"state": {"target": ["0"], "time": [2940]}, "edge": {"target": [], "time": []}}}, "displayed_time": "15.38", "trialTime": 16955, "trial_type": "mouselab-mdp", "trial_index": 19, "time_elapsed": 693517, "internal_node_id": "0.0-4.0-1.0-10.0"}}, {"uniqueid": "w37151391:a66483057", "current_trial": 20, "dateTime": 1691162046092, "trialdata": {"revealed_states": [], "clicked_states": [], "num_clicks_accrued": [0, 0, 0, 0, 0, 0, 0, 0, 0, 0, 0, 0, 0], "stateRewards": ["", -1, -3, -7, -4, -85, -70, 79, 8, 84, -66, 42, 2, -2, -3, -16, -54, -66, 68, -3, 21, -14, 7, -2, -1, -3, -8, 75, 80, 86, -7, -84, 73, -16], "withholdReward": false, "trial_id": "mdp_trial_12", "block": "test", "trialIndex": 13, "score": -20, "costs": 0, "simulationMode": [null, null, null, null, null], "rewards": [2, -2, -3, -3, -14], "path": ["0", "0", "12", "13", "14", "19", "21"], "rt": [1061, 359, 384, 805, 313], "actions": ["right", "right", "right", "down", "down"], "actionTimes": [3207, 4062, 4942, 6245, 7054], "queries": {"click": {"state": {"target": [], "time": []}, "edge": {"target": [], "time": []}}, "mouseover": {"state": {"target": [], "time": []}, "edge": {"target": [], "time": []}}, "mouseout": {"state": {"target": ["0"], "time": [2993]}, "edge": {"target": [], "time": []}}}, "displayed_time": "16.15", "trialTime": 17829, "trial_type": "mouselab-mdp", "trial_index": 20, "time_elapsed": 711613, "internal_node_id": "0.0-4.0-1.0-11.0"}}, {"uniqueid": "w37151391:a66483057", "current_trial": 21, "dateTime": 1691162065724, "trialdata": {"revealed_states": [], "clicked_states": [], "num_clicks_accrued": [0, 0, 0, 0, 0, 0, 0, 0, 0, 0, 0, 0, 0], "stateRewards": ["", -2, -1, 3, -3, 71, -58, -21, 7, -10, -75, -37, 2, 4, -1, -12, -79, -29, -48, 3, -41, -10, -30, -1, -2, 1, -15, 13, 66, 22, -1, -42, -86, -55], "withholdReward": false, "trial_id": "mdp_trial_13", "block": "test", "trialIndex": 14, "score": -61, "costs": 0, "simulationMode": [null, null, null, null, null], "rewards": [-2, -1, 3, -3, -58], "path": ["0", "0", "1", "2", "3", "4", "6"], "rt": [1336, 368, 107, 705, 762], "actions": ["up", "up", "up", "right", "right"], "actionTimes": [5295, 6158, 6765, 7965, 9225], "queries": {"click": {"state": {"target": [], "time": []}, "edge": {"target": [], "time": []}}, "mouseover": {"state": {"target": [], "time": []}, "edge": {"target": [], "time": []}}, "mouseout": {"state": {"target": ["0"], "time": [5712]}, "edge": {"target": [], "time": []}}}, "displayed_time": "17.96", "trialTime": 19387, "trial_type": "mouselab-mdp", "trial_index": 21, "time_elapsed": 731244, "internal_node_id": "0.0-4.0-1.0-12.0"}}, {"uniqueid": "w37151391:a66483057", "current_trial": 22, "dateTime": 1691162087883, "trialdata": {"revealed_states": [], "clicked_states": ["1", "23", "12", "21"], "num_clicks_accrued": [0, 0, 0, 0, 0, 0, 0, 0, 0, 0, 0, 0, 0], "stateRewards": ["", -1, 4, 3, 12, -27, 34, -33, 3, -63, 1, 6, 2, 2, -6, -11, -77, -85, 68, -6, 51, 81, -60, -2, -2, 1, 15, 20, 15, 68, -10, -14, 6, -4], "withholdReward": false, "trial_id": "mdp_trial_14", "block": "test", "trialIndex": 15, "score": -95.6, "costs": -5.6, "simulationMode": [null, null, null, null, null], "rewards": [2, 2, -6, -11, -77], "path": ["0", "0", "12", "13", "14", "15", "16"], "rt": [12779, 506, 300, 590, 641], "actions": ["right", "right", "right", "up", "up"], "actionTimes": [14277, 15282, 16082, 17171, 18306], "queries": {"click": {"state": {"target": ["1", "23", "12", "21"], "time": [3387, 5418, 7296, 11688]}, "edge": {"target": [], "time": []}}, "mouseover": {"state": {"target": ["1", "2", "10", "24", "23", "24", "0", "12", "22", "21", "21"], "time": [3054, 4051, 4368, 4652, 5191, 6038, 6239, 6272, 8045, 8159, 10066]}, "edge": {"target": [], "time": []}}, "mouseout": {"state": {"target": ["0", "1", "2", "10", "24", "23", "24", "23", "0", "12", "22", "21", "21"], "time": [2752, 3968, 4101, 4419, 5013, 5905, 6172, 6222, 6255, 7927, 8061, 9814, 12502]}, "edge": {"target": [], "time": []}}}, "displayed_time": "18.80", "trialTime": 21886, "trial_type": "mouselab-mdp", "trial_index": 22, "time_elapsed": 753404, "internal_node_id": "0.0-4.0-1.0-13.0"}}, {"uniqueid": "w37151391:a66483057", "current_trial": 23, "dateTime": 1691162104755, "trialdata": {"revealed_states": [], "clicked_states": [], "num_clicks_accrued": [0, 0, 0, 0, 0, 0, 0, 0, 0, 0, 0, 0, 0], "stateRewards": ["", -1, -4, -6, -15, 21, -67, -63, 9, 51, 69, -14, -1, 3, 8, -8, 39, 72, 63, 15, 19, 47, 15, 1, 4, 5, 16, -18, 34, 35, -14, -80, 40, 1], "withholdReward": false, "trial_id": "mdp_trial_15", "block": "test", "trialIndex": 16, "score": 61, "costs": 0, "simulationMode": [null, null, null, null, null], "rewards": [1, 4, 5, 16, 35], "path": ["0", "0", "23", "24", "25", "26", "29"], "rt": [1447, 105, 362, 1077, 417], "actions": ["left", "left", "left", "up", "left"], "actionTimes": [2573, 3179, 4051, 5620, 6532], "queries": {"click": {"state": {"target": [], "time": []}, "edge": {"target": [], "time": []}}, "mouseover": {"state": {"target": [], "time": []}, "edge": {"target": [], "time": []}}, "mouseout": {"state": {"target": ["0"], "time": [5114]}, "edge": {"target": [], "time": []}}}, "displayed_time": "15.13", "trialTime": 16615, "trial_type": "mouselab-mdp", "trial_index": 23, "time_elapsed": 770276, "internal_node_id": "0.0-4.0-1.0-14.0"}}, {"uniqueid": "w37151391:a66483057", "current_trial": 24, "dateTime": 1691162121904, "trialdata": {"revealed_states": [], "clicked_states": [], "num_clicks_accrued": [0, 0, 0, 0, 0, 0, 0, 0, 0, 0, 0, 0, 0], "stateRewards": ["", -1, -4, -3, 1, -45, -67, -24, 14, 32, 22, 22, -1, 1, -5, -7, 72, 84, -79, -5, 19, -40, -2, -1, -2, 8, -3, 84, -25, -28, 11, 64, -66, 77], "withholdReward": false, "trial_id": "mdp_trial_16", "block": "test", "trialIndex": 17, "score": 80, "costs": 0, "simulationMode": [null, null, null, null, null], "rewards": [-1, -2, 8, 11, 64], "path": ["0", "0", "23", "24", "25", "30", "31"], "rt": [3323, 341, 140, 927, 1605], "actions": ["left", "left", "left", "down", "right"], "actionTimes": [4792, 5639, 6271, 7694, 9795], "queries": {"click": {"state": {"target": [], "time": []}, "edge": {"target": [], "time": []}}, "mouseover": {"state": {"target": [], "time": []}, "edge": {"target": [], "time": []}}, "mouseout": {"state": {"target": ["0"], "time": [1741]}, "edge": {"target": [], "time": []}}}, "displayed_time": "15.47", "trialTime": 16863, "trial_type": "mouselab-mdp", "trial_index": 24, "time_elapsed": 787424, "internal_node_id": "0.0-4.0-1.0-15.0"}}, {"uniqueid": "w37151391:a66483057", "current_trial": 25, "dateTime": 1691162138883, "trialdata": {"revealed_states": [], "clicked_states": [], "num_clicks_accrued": [0, 0, 0, 0, 0, 0, 0, 0, 0, 0, 0, 0, 0], "stateRewards": ["", 2, -3, 5, 11, -79, 54, 11, -9, -78, 33, 22, -2, -1, 2, 14, 43, 34, 1, 10, 49, -65, 39, -1, 1, -1, 3, -16, -2, 11, 2, 12, 48, -65], "withholdReward": false, "trial_id": "mdp_trial_17", "block": "test", "trialIndex": 18, "score": -64, "costs": 0, "simulationMode": [null, null, null, null, null], "rewards": [2, -3, 5, 11, -79], "path": ["0", "0", "1", "2", "3", "4", "5"], "rt": [4369, 291, 304, 648, 449], "actions": ["up", "up", "up", "right", "up"], "actionTimes": [5762, 6556, 7364, 8524, 9484], "queries": {"click": {"state": {"target": [], "time": []}, "edge": {"target": [], "time": []}}, "mouseover": {"state": {"target": [], "time": []}, "edge": {"target": [], "time": []}}, "mouseout": {"state": {"target": ["0"], "time": [1716]}, "edge": {"target": [], "time": []}}}, "displayed_time": "15.39", "trialTime": 16664, "trial_type": "mouselab-mdp", "trial_index": 25, "time_elapsed": 804404, "internal_node_id": "0.0-4.0-1.0-16.0"}}, {"uniqueid": "w37151391:a66483057", "current_trial": 26, "dateTime": 1691162156651, "trialdata": {"revealed_states": [], "clicked_states": [], "num_clicks_accrued": [0, 0, 0, 0, 0, 0, 0, 0, 0, 0, 0, 0, 0], "stateRewards": ["", 2, 4, -6, -13, -75, -81, 30, 7, 5, 59, -65, -1, -1, 7, 14, -38, 36, -41, 1, -54, -5, 64, 2, -1, 5, 6, -19, 79, 11, 16, -33, -50, 58], "withholdReward": false, "trial_id": "mdp_trial_18", "block": "test", "trialIndex": 19, "score": -58, "costs": 0, "simulationMode": [null, null, null, null, null], "rewards": [2, 4, -6, 7, -65], "path": ["0", "0", "1", "2", "3", "8", "11"], "rt": [1340, 312, 159, 394, 749], "actions": ["up", "up", "up", "left", "left"], "actionTimes": [2998, 3804, 4459, 5356, 6597], "queries": {"click": {"state": {"target": [], "time": []}, "edge": {"target": [], "time": []}}, "mouseover": {"state": {"target": [], "time": []}, "edge": {"target": [], "time": []}}, "mouseout": {"state": {"target": ["0"], "time": [1858]}, "edge": {"target": [], "time": []}}}, "displayed_time": "15.66", "trialTime": 17504, "trial_type": "mouselab-mdp", "trial_index": 26, "time_elapsed": 822172, "internal_node_id": "0.0-4.0-1.0-17.0"}}, {"uniqueid": "w37151391:a66483057", "current_trial": 27, "dateTime": 1691162174027, "trialdata": {"revealed_states": [], "clicked_states": [], "num_clicks_accrued": [0, 0, 0, 0, 0, 0, 0, 0, 0, 0, 0, 0, 0], "stateRewards": ["", -2, -2, -3, -6, -15, -11, 41, -12, -63, -76, 2, -2, -3, 8, 9, -36, -2, -18, -16, -32, -85, -17, -2, 1, 5, -16, 82, 35, -88, -1, 80, -82, -20], "withholdReward": false, "trial_id": "mdp_trial_19", "block": "test", "trialIndex": 20, "score": -24, "costs": 0, "simulationMode": [null, null, null, null, null], "rewards": [-2, -2, -3, -6, -11], "path": ["0", "0", "1", "2", "3", "4", "6"], "rt": [1411, 232, 589, 604, 376], "actions": ["up", "up", "up", "right", "right"], "actionTimes": [2966, 3701, 4789, 5893, 6765], "queries": {"click": {"state": {"target": [], "time": []}, "edge": {"target": [], "time": []}}, "mouseover": {"state": {"target": [], "time": []}, "edge": {"target": [], "time": []}}, "mouseout": {"state": {"target": ["0", "2", "3", "5", "6", "6", "6", "4", "4", "7"], "time": [1745, 8232, 8292, 8382, 9884, 11084, 12164, 14024, 14237, 14375]}, "edge": {"target": [], "time": []}}}, "displayed_time": "15.56", "trialTime": 17081, "trial_type": "mouselab-mdp", "trial_index": 27, "time_elapsed": 839547, "internal_node_id": "0.0-4.0-1.0-18.0"}}, {"uniqueid": "w37151391:a66483057", "current_trial": 28, "dateTime": 1691162192423, "trialdata": {"revealed_states": [], "clicked_states": [], "num_clicks_accrued": [0, 0, 0, 0, 0, 0, 0, 0, 0, 0, 0, 0, 0], "stateRewards": ["", 1, 1, -5, 10, -31, 73, 14, -8, -23, 63, -70, -1, 2, 8, 7, 25, -59, 27, -10, -40, -71, -15, -2, 3, -8, -5, -19, 77, -34, 7, 67, 63, 19], "withholdReward": false, "trial_id": "mdp_trial_20", "block": "test", "trialIndex": 21, "score": -72, "costs": 0, "simulationMode": [null, null, null, null, null], "rewards": [-1, 2, 8, -10, -71], "path": ["0", "0", "12", "13", "14", "19", "21"], "rt": [2236, 265, 385, 1051, 618], "actions": ["right", "right", "right", "down", "down"], "actionTimes": [3747, 4508, 5396, 6948, 8068], "queries": {"click": {"state": {"target": [], "time": []}, "edge": {"target": [], "time": []}}, "mouseover": {"state": {"target": [], "time": []}, "edge": {"target": [], "time": []}}, "mouseout": {"state": {"target": ["12", "0", "0"], "time": [953, 3038, 16272]}, "edge": {"target": [], "time": []}}}, "displayed_time": "15.51", "trialTime": 18116, "trial_type": "mouselab-mdp", "trial_index": 28, "time_elapsed": 857943, "internal_node_id": "0.0-4.0-1.0-19.0"}}, {"uniqueid": "w37151391:a66483057", "current_trial": 29, "dateTime": 1691162209391, "trialdata": {"revealed_states": [], "clicked_states": [], "num_clicks_accrued": [0, 0, 0, 0, 0, 0, 0, 0, 0, 0, 0, 0, 0], "stateRewards": ["", -2, -3, -5, 8, 27, 11, 43, -6, -24, -87, 69, -2, 1, 1, 9, 19, 48, -37, 9, -14, 45, 62, 1, 2, 1, 16, -81, -41, 22, 4, -6, -63, 47], "withholdReward": false, "trial_id": "mdp_trial_21", "block": "test", "trialIndex": 22, "score": -55, "costs": 0, "simulationMode": [null, null, null, null, null], "rewards": [1, 2, 1, 4, -63], "path": ["0", "0", "23", "24", "25", "30", "32"], "rt": [1370, 104, 175, 997, 318], "actions": ["left", "left", "left", "down", "down"], "actionTimes": [2398, 2995, 3682, 5172, 5980], "queries": {"click": {"state": {"target": [], "time": []}, "edge": {"target": [], "time": []}}, "mouseover": {"state": {"target": [], "time": []}, "edge": {"target": [], "time": []}}, "mouseout": {"state": {"target": ["0", "22"], "time": [7937, 12034]}, "edge": {"target": [], "time": []}}}, "displayed_time": "15.03", "trialTime": 16659, "trial_type": "mouselab-mdp", "trial_index": 29, "time_elapsed": 874911, "internal_node_id": "0.0-4.0-1.0-20.0"}}, {"uniqueid": "w37151391:a66483057", "current_trial": 30, "dateTime": 1691162226213, "trialdata": {"revealed_states": [], "clicked_states": [], "num_clicks_accrued": [0, 0, 0, 0, 0, 0, 0, 0, 0, 0, 0, 0, 0], "stateRewards": ["", -1, 2, 5, -6, 13, -64, -47, 8, -79, -80, -33, 1, 2, -2, -16, 56, -71, -10, 3, 29, 44, 85, -1, 4, 5, 4, -36, -56, 19, 8, 52, -13, -2], "withholdReward": false, "trial_id": "mdp_trial_22", "block": "test", "trialIndex": 23, "score": -19, "costs": 0, "simulationMode": [null, null, null, null, null], "rewards": [-1, 2, 5, 8, -33], "path": ["0", "0", "1", "2", "3", "8", "11"], "rt": [635, 745, 284, 940, 391], "actions": ["up", "up", "up", "left", "left"], "actionTimes": [2041, 3287, 4063, 5503, 6391], "queries": {"click": {"state": {"target": [], "time": []}, "edge": {"target": [], "time": []}}, "mouseover": {"state": {"target": [], "time": []}, "edge": {"target": [], "time": []}}, "mouseout": {"state": {"target": ["0"], "time": [1873]}, "edge": {"target": [], "time": []}}}, "displayed_time": "15.41", "trialTime": 16548, "trial_type": "mouselab-mdp", "trial_index": 30, "time_elapsed": 891732, "internal_node_id": "0.0-4.0-1.0-21.0"}}, {"uniqueid": "w37151391:a66483057", "current_trial": 31, "dateTime": 1691162243020, "trialdata": {"revealed_states": [], "clicked_states": [], "num_clicks_accrued": [0, 0, 0, 0, 0, 0, 0, 0, 0, 0, 0, 0, 0], "stateRewards": ["", 1, 4, 7, -16, -84, -6, -46, -12, -7, -49, -26, -1, 2, -4, 2, 22, 37, -64, 1, 88, -13, -10, 1, -4, -2, 5, 2, -10, -34, 9, 66, 55, 38], "withholdReward": false, "trial_id": "mdp_trial_23", "block": "test", "trialIndex": 24, "score": -12, "costs": 0, "simulationMode": [null, null, null, null, null], "rewards": [-1, 2, -4, 1, -10], "path": ["0", "0", "12", "13", "14", "19", "22"], "rt": [1830, 329, 286, 1206, 2126], "actions": ["right", "right", "right", "down", "left"], "actionTimes": [3039, 3867, 4659, 6363, 8987], "queries": {"click": {"state": {"target": [], "time": []}, "edge": {"target": [], "time": []}}, "mouseover": {"state": {"target": [], "time": []}, "edge": {"target": [], "time": []}}, "mouseout": {"state": {"target": ["0"], "time": [1856]}, "edge": {"target": [], "time": []}}}, "displayed_time": "15.21", "trialTime": 16495, "trial_type": "mouselab-mdp", "trial_index": 31, "time_elapsed": 908540, "internal_node_id": "0.0-4.0-1.0-22.0"}}, {"uniqueid": "w37151391:a66483057", "current_trial": 32, "dateTime": 1691162259643, "trialdata": {"revealed_states": [], "clicked_states": [], "num_clicks_accrued": [0, 0, 0, 0, 0, 0, 0, 0, 0, 0, 0, 0, 0], "stateRewards": ["", 1, -1, 4, 5, -32, 18, 20, 6, -88, -74, 9, -2, 1, -2, -14, 34, -77, -38, -1, 80, -36, 73, 2, 3, -8, 10, -48, -73, -71, -11, -22, 20, 54], "withholdReward": false, "trial_id": "mdp_trial_24", "block": "test", "trialIndex": 25, "score": -36, "costs": 0, "simulationMode": [null, null, null, null, null], "rewards": [2, 3, -8, -11, -22], "path": ["0", "0", "23", "24", "25", "30", "31"], "rt": [2408, 510, 340, 2474, 293], "actions": ["left", "left", "left", "down", "right"], "actionTimes": [3584, 4596, 5428, 8399, 9194], "queries": {"click": {"state": {"target": [], "time": []}, "edge": {"target": [], "time": []}}, "mouseover": {"state": {"target": [], "time": []}, "edge": {"target": [], "time": []}}, "mouseout": {"state": {"target": ["0"], "time": [3238]}, "edge": {"target": [], "time": []}}}, "displayed_time": "15.18", "trialTime": 16306, "trial_type": "mouselab-mdp", "trial_index": 32, "time_elapsed": 925163, "internal_node_id": "0.0-4.0-1.0-23.0"}}, {"uniqueid": "w37151391:a66483057", "current_trial": 33, "dateTime": 1691162276380, "trialdata": {"revealed_states": [], "clicked_states": [], "num_clicks_accrued": [0, 0, 0, 0, 0, 0, 0, 0, 0, 0, 0, 0, 0], "stateRewards": ["", 2, -1, 5, 6, 10, 86, 55, 10, -45, 63, -71, 1, -2, 5, -8, -50, -72, 36, 15, 61, 12, 33, -1, -4, 6, 5, 79, -56, -21, -16, -87, 60, -81], "withholdReward": false, "trial_id": "mdp_trial_25", "block": "test", "trialIndex": 26, "score": -50, "costs": 0, "simulationMode": [null, null, null, null, null], "rewards": [-1, -4, 6, 5, -56], "path": ["0", "0", "23", "24", "25", "26", "28"], "rt": [1357, 403, 59, 807, 1783], "actions": ["left", "left", "left", "up", "right"], "actionTimes": [2473, 3368, 3927, 5240, 7520], "queries": {"click": {"state": {"target": [], "time": []}, "edge": {"target": [], "time": []}}, "mouseover": {"state": {"target": [], "time": []}, "edge": {"target": [], "time": []}}, "mouseout": {"state": {"target": ["0"], "time": [1551]}, "edge": {"target": [], "time": []}}}, "displayed_time": "15.12", "trialTime": 16444, "trial_type": "mouselab-mdp", "trial_index": 33, "time_elapsed": 941901, "internal_node_id": "0.0-4.0-1.0-24.0"}}, {"uniqueid": "w37151391:a66483057", "current_trial": 34, "dateTime": 1691162294061, "trialdata": {"revealed_states": [], "clicked_states": [], "num_clicks_accrued": [0, 0, 0, 0, 0, 0, 0, 0, 0, 0, 0, 0, 0], "stateRewards": ["", 1, -1, 8, 4, 76, -33, -17, -3, -1, -54, -74, -2, 2, -5, 13, -51, 63, 83, 1, 84, 29, -36, 2, -1, 7, -12, -10, -44, -43, -14, 8, -69, 19], "withholdReward": false, "trial_id": "mdp_trial_26", "block": "test", "trialIndex": 27, "score": -49, "costs": 0, "simulationMode": [null, null, null, null, null], "rewards": [1, -1, 8, -3, -54], "path": ["0", "0", "1", "2", "3", "8", "10"], "rt": [4157, 399, 378, 430, 2114], "actions": ["up", "up", "up", "left", "down"], "actionTimes": [5382, 6283, 7164, 8085, 10704], "queries": {"click": {"state": {"target": [], "time": []}, "edge": {"target": [], "time": []}}, "mouseover": {"state": {"target": ["4"], "time": [3445]}, "edge": {"target": [], "time": []}}, "mouseout": {"state": {"target": ["0", "4"], "time": [1861, 3462]}, "edge": {"target": [], "time": []}}}, "displayed_time": "15.22", "trialTime": 17372, "trial_type": "mouselab-mdp", "trial_index": 34, "time_elapsed": 959582, "internal_node_id": "0.0-4.0-1.0-25.0"}}, {"uniqueid": "w37151391:a66483057", "current_trial": 35, "dateTime": 1691162311908, "trialdata": {"revealed_states": [], "clicked_states": [], "num_clicks_accrued": [0, 0, 0, 0, 0, 0, 0, 0, 0, 0, 0, 0, 0], "stateRewards": ["", -1, 3, -4, -14, 78, 67, 2, 13, -32, 28, 39, -2, 1, -4, -4, -4, -42, -86, 11, 64, -29, -32, -1, -4, 2, -7, 5, 68, -61, 2, -21, 85, 50], "withholdReward": false, "trial_id": "mdp_trial_27", "block": "test", "trialIndex": 28, "score": -21, "costs": 0, "simulationMode": [null, null, null, null, null], "rewards": [-1, 3, -4, 13, -32], "path": ["0", "0", "1", "2", "3", "8", "9"], "rt": [2115, 9, 9, 671, 431], "actions": ["up", "up", "up", "left", "up"], "actionTimes": [3605, 4110, 4631, 5823, 6753], "queries": {"click": {"state": {"target": [], "time": []}, "edge": {"target": [], "time": []}}, "mouseover": {"state": {"target": [], "time": []}, "edge": {"target": [], "time": []}}, "mouseout": {"state": {"target": ["19", "22", "0", "0", "10"], "time": [790, 857, 1743, 9016, 11635]}, "edge": {"target": [], "time": []}}}, "displayed_time": "15.50", "trialTime": 17563, "trial_type": "mouselab-mdp", "trial_index": 35, "time_elapsed": 977428, "internal_node_id": "0.0-4.0-1.0-26.0"}}, {"uniqueid": "w37151391:a66483057", "current_trial": 36, "dateTime": 1691162329747, "trialdata": {"revealed_states": [], "clicked_states": [], "num_clicks_accrued": [0, 0, 0, 0, 0, 0, 0, 0, 0, 0, 0, 0, 0], "stateRewards": ["", 1, -3, 4, 13, -72, 52, 5, 5, -58, 5, 14, 2, 1, 3, -14, -86, -4, 73, 6, -58, -50, 49, 2, -3, -4, 2, 33, -41, 42, -11, 81, 45, 53], "withholdReward": false, "trial_id": "mdp_trial_28", "block": "test", "trialIndex": 29, "score": -57, "costs": 0, "simulationMode": [null, null, null, null, null], "rewards": [1, -3, 4, 13, -72], "path": ["0", "0", "1", "2", "3", "4", "5"], "rt": [2113, 289, 664, 1799, 214], "actions": ["up", "up", "up", "right", "up"], "actionTimes": [4595, 5385, 6546, 8850, 9569], "queries": {"click": {"state": {"target": [], "time": []}, "edge": {"target": [], "time": []}}, "mouseover": {"state": {"target": [], "time": []}, "edge": {"target": [], "time": []}}, "mouseout": {"state": {"target": ["15", "13", "0"], "time": [1573, 1790, 2756]}, "edge": {"target": [], "time": []}}}, "displayed_time": "16.48", "trialTime": 17509, "trial_type": "mouselab-mdp", "trial_index": 36, "time_elapsed": 995268, "internal_node_id": "0.0-4.0-1.0-27.0"}}, {"uniqueid": "w37151391:a66483057", "current_trial": 37, "dateTime": 1691162347635, "trialdata": {"revealed_states": [], "clicked_states": [], "num_clicks_accrued": [0, 0, 0, 0, 0, 0, 0, 0, 0, 0, 0, 0, 0], "stateRewards": ["", 1, -3, -4, -11, -56, 61, -47, -16, -28, -9, 69, -2, -3, -4, -8, 40, -86, 59, -4, 80, 27, 54, -1, 3, -1, 8, 67, 23, 50, 6, 83, -43, -29], "withholdReward": false, "trial_id": "mdp_trial_29", "block": "test", "trialIndex": 30, "score": 23, "costs": 0, "simulationMode": [null, null, null, null, null], "rewards": [-2, -3, -4, -8, 40], "path": ["0", "0", "12", "13", "14", "15", "16"], "rt": [1308, 462, 302, 684, 880], "actions": ["right", "right", "right", "up", "up"], "actionTimes": [3210, 4192, 4985, 6168, 7552], "queries": {"click": {"state": {"target": [], "time": []}, "edge": {"target": [], "time": []}}, "mouseover": {"state": {"target": [], "time": []}, "edge": {"target": [], "time": []}}, "mouseout": {"state": {"target": ["0", "0"], "time": [2764, 8263]}, "edge": {"target": [], "time": []}}}, "displayed_time": "15.90", "trialTime": 17580, "trial_type": "mouselab-mdp", "trial_index": 37, "time_elapsed": 1013156, "internal_node_id": "0.0-4.0-1.0-28.0"}}, {"uniqueid": "w37151391:a66483057", "current_trial": 38, "dateTime": 1691162366123, "trialdata": {"revealed_states": [], "clicked_states": [], "num_clicks_accrued": [0, 0, 0, 0, 0, 0, 0, 0, 0, 0, 0, 0, 0], "stateRewards": ["", -2, 1, 6, -2, -10, -78, -69, 14, -15, 7, -1, 1, -1, -2, 13, 77, 32, 87, 5, -74, 30, -26, 1, 3, 4, 12, 39, 54, -43, 2, 10, 23, 13], "withholdReward": false, "trial_id": "mdp_trial_30", "block": "test", "trialIndex": 31, "score": -66, "costs": 0, "simulationMode": [null, null, null, null, null], "rewards": [-2, 1, 6, -2, -69], "path": ["0", "0", "1", "2", "3", "4", "7"], "rt": [7557, 517, 234, 580, 198], "actions": ["up", "up", "up", "right", "down"], "actionTimes": [10035, 11059, 11795, 12875, 13596], "queries": {"click": {"state": {"target": [], "time": []}, "edge": {"target": [], "time": []}}, "mouseover": {"state": {"target": [], "time": []}, "edge": {"target": [], "time": []}}, "mouseout": {"state": {"target": ["0"], "time": [755]}, "edge": {"target": [], "time": []}}}, "displayed_time": "16.48", "trialTime": 18162, "trial_type": "mouselab-mdp", "trial_index": 38, "time_elapsed": 1031644, "internal_node_id": "0.0-4.0-1.0-29.0"}}, {"uniqueid": "w37151391:a66483057", "current_trial": 39, "dateTime": 1691162383851, "trialdata": {"revealed_states": [], "clicked_states": [], "num_clicks_accrued": [0, 0, 0, 0, 0, 0, 0, 0, 0, 0, 0, 0, 0], "stateRewards": ["", -2, 2, 5, -14, -56, 64, 84, -5, 52, 39, 85, -2, 1, 7, 8, 21, 29, -78, -9, -10, -69, 10, -2, -1, -7, 15, 72, 20, 41, -2, 52, 80, 22], "withholdReward": false, "trial_id": "mdp_trial_31", "block": "test", "trialIndex": 32, "score": 77, "costs": 0, "simulationMode": [null, null, null, null, null], "rewards": [-2, -1, -7, 15, 72], "path": ["0", "0", "23", "24", "25", "26", "27"], "rt": [1213, 397, 215, 976, 363], "actions": ["left", "left", "left", "up", "up"], "actionTimes": [3018, 3919, 4639, 6119, 6975], "queries": {"click": {"state": {"target": [], "time": []}, "edge": {"target": [], "time": []}}, "mouseover": {"state": {"target": [], "time": []}, "edge": {"target": [], "time": []}}, "mouseout": {"state": {"target": ["0", "0", "0", "0"], "time": [1169, 1265, 12411, 12703]}, "edge": {"target": [], "time": []}}}, "displayed_time": "15.81", "trialTime": 17443, "trial_type": "mouselab-mdp", "trial_index": 39, "time_elapsed": 1049372, "internal_node_id": "0.0-4.0-1.0-30.0"}}, {"uniqueid": "w37151391:a66483057", "current_trial": 40, "dateTime": 1691162403256, "trialdata": {"revealed_states": [], "clicked_states": [], "num_clicks_accrued": [0, 0, 0, 0, 0, 0, 0, 0, 0, 0, 0, 0, 0], "stateRewards": ["", -1, 2, -2, 5, 80, -61, -27, 12, 44, -26, -75, -2, -4, 1, -16, 42, -49, -50, 4, -44, 2, 80, -2, -2, 5, -2, 59, 10, 24, 7, -48, -86, -44], "withholdReward": false, "trial_id": "mdp_trial_32", "block": "test", "trialIndex": 33, "score": 79, "costs": 0, "simulationMode": [null, null, null, null, null], "rewards": [-2, -4, 1, 4, 80], "path": ["0", "0", "12", "13", "14", "19", "22"], "rt": [8992, 381, 64, 687, 380], "actions": ["right", "right", "right", "down", "left"], "actionTimes": [11861, 12749, 13317, 14525, 15404], "queries": {"click": {"state": {"target": [], "time": []}, "edge": {"target": [], "time": []}}, "mouseover": {"state": {"target": [], "time": []}, "edge": {"target": [], "time": []}}, "mouseout": {"state": {"target": ["0"], "time": [4233]}, "edge": {"target": [], "time": []}}}, "displayed_time": "16.87", "trialTime": 19086, "trial_type": "mouselab-mdp", "trial_index": 40, "time_elapsed": 1068777, "internal_node_id": "0.0-4.0-1.0-31.0"}}, {"uniqueid": "w37151391:a66483057", "current_trial": 41, "dateTime": 1691162428058, "trialdata": {"revealed_states": [], "clicked_states": [], "num_clicks_accrued": [0, 0, 0, 0, 0, 0, 0, 0, 0, 0, 0, 0, 0], "stateRewards": ["", -1, -3, -7, -7, -76, 30, -49, 11, -70, 56, 2, 1, 4, -3, -14, -59, -83, -25, -9, -21, -67, -73, -2, 4, 4, -9, -11, -32, 60, 9, -87, 22, -64], "withholdReward": false, "trial_id": "mdp_trial_33", "block": "test", "trialIndex": 34, "score": 56, "costs": 0, "simulationMode": [null, null, null, null, null], "rewards": [-1, -3, -7, 11, 56], "path": ["0", "0", "1", "2", "3", "8", "10"], "rt": [12688, 672, 432, 640, 1976], "actions": ["up", "up", "up", "left", "down"], "actionTimes": [14991, 16161, 17089, 18234, 20705], "queries": {"click": {"state": {"target": [], "time": []}, "edge": {"target": [], "time": []}}, "mouseover": {"state": {"target": [], "time": []}, "edge": {"target": [], "time": []}}, "mouseout": {"state": {"target": [], "time": []}, "edge": {"target": [], "time": []}}}, "displayed_time": "21.20", "trialTime": 24474, "trial_type": "mouselab-mdp", "trial_index": 41, "time_elapsed": 1093577, "internal_node_id": "0.0-4.0-1.0-32.0"}}, {"uniqueid": "w37151391:a66483057", "current_trial": 42, "dateTime": 1691162450714, "trialdata": {"revealed_states": [], "clicked_states": [], "num_clicks_accrued": [0, 0, 0, 0, 0, 0, 0, 0, 0, 0, 0, 0, 0], "stateRewards": ["", -1, 4, -6, -5, -22, -38, -38, -2, -56, 88, 14, -1, -1, -7, -6, 61, -60, 21, 11, 57, 31, -30, -2, -2, 6, -9, -44, -70, -44, -15, 34, 16, -78], "withholdReward": false, "trial_id": "mdp_trial_34", "block": "test", "trialIndex": 35, "score": 21, "costs": 0, "simulationMode": [null, null, null, null, null], "rewards": [-2, -2, 6, -15, 34], "path": ["0", "0", "23", "24", "25", "30", "31"], "rt": [10784, 209, 180, 1783, 2342], "actions": ["left", "left", "left", "down", "right"], "actionTimes": [12570, 13275, 13979, 16267, 19113], "queries": {"click": {"state": {"target": [], "time": []}, "edge": {"target": [], "time": []}}, "mouseover": {"state": {"target": [], "time": []}, "edge": {"target": [], "time": []}}, "mouseout": {"state": {"target": ["0"], "time": [8022]}, "edge": {"target": [], "time": []}}}, "displayed_time": "19.61", "trialTime": 22340, "trial_type": "mouselab-mdp", "trial_index": 42, "time_elapsed": 1116234, "internal_node_id": "0.0-4.0-1.0-33.0"}}, {"uniqueid": "w37151391:a66483057", "current_trial": 43, "dateTime": 1691162470967, "trialdata": {"revealed_states": [], "clicked_states": [], "num_clicks_accrued": [0, 0, 0, 0, 0, 0, 0, 0, 0, 0, 0, 0, 0], "stateRewards": ["", -2, 1, -8, 12, -65, -79, 16, 7, -80, -17, -45, -2, 2, -5, -2, -85, 23, -4, -7, 48, 27, -76, 2, 3, 5, 2, 43, 71, -13, 7, -49, 59, -31], "withholdReward": false, "trial_id": "mdp_trial_35", "block": "test", "trialIndex": 36, "score": 19, "costs": 0, "simulationMode": [null, null, null, null, null], "rewards": [-2, 1, -8, 12, 16], "path": ["0", "0", "1", "2", "3", "4", "7"], "rt": [1448, 422, 1511, 8057, 1002], "actions": ["up", "up", "up", "right", "down"], "actionTimes": [2944, 3862, 5869, 14423, 15933], "queries": {"click": {"state": {"target": [], "time": []}, "edge": {"target": [], "time": []}}, "mouseover": {"state": {"target": [], "time": []}, "edge": {"target": [], "time": []}}, "mouseout": {"state": {"target": ["0"], "time": [1805]}, "edge": {"target": [], "time": []}}}, "displayed_time": "16.44", "trialTime": 19926, "trial_type": "mouselab-mdp", "trial_index": 43, "time_elapsed": 1136488, "internal_node_id": "0.0-4.0-1.0-34.0"}}, {"uniqueid": "w37151391:a66483057", "current_trial": 44, "dateTime": 1691162488483, "trialdata": {"revealed_states": [], "clicked_states": [], "num_clicks_accrued": [0, 0, 0, 0, 0, 0, 0, 0, 0, 0, 0, 0, 0], "stateRewards": ["", -2, -1, -2, -15, 87, 57, 29, -10, 77, -80, -7, 1, -3, 6, 14, -11, 87, -59, 4, -71, 16, -11, 2, 2, -7, 2, -47, 61, 50, 14, -20, 17, 81], "withholdReward": false, "trial_id": "mdp_trial_36", "block": "test", "trialIndex": 37, "score": 37, "costs": 0, "simulationMode": [null, null, null, null, null], "rewards": [-2, -1, -2, -15, 57], "path": ["0", "0", "1", "2", "3", "4", "6"], "rt": [1208, 6, 185, 649, 164], "actions": ["up", "up", "up", "right", "right"], "actionTimes": [2641, 3153, 3850, 4999, 5666], "queries": {"click": {"state": {"target": [], "time": []}, "edge": {"target": [], "time": []}}, "mouseover": {"state": {"target": [], "time": []}, "edge": {"target": [], "time": []}}, "mouseout": {"state": {"target": [], "time": []}, "edge": {"target": [], "time": []}}}, "displayed_time": "15.44", "trialTime": 17190, "trial_type": "mouselab-mdp", "trial_index": 44, "time_elapsed": 1154004, "internal_node_id": "0.0-4.0-1.0-35.0"}}, {"uniqueid": "w37151391:a66483057", "current_trial": 45, "dateTime": 1691162506048, "trialdata": {"revealed_states": [], "clicked_states": [], "num_clicks_accrued": [0, 0, 0, 0, 0, 0, 0, 0, 0, 0, 0, 0, 0], "stateRewards": ["", 1, 2, 2, -15, -84, 28, -26, 13, 31, 86, 30, -2, 1, -1, -8, 66, -40, -1, -10, -32, 57, -17, 1, 2, -2, 9, -23, 77, 85, 12, -32, -62, -35], "withholdReward": false, "trial_id": "mdp_trial_37", "block": "test", "trialIndex": 38, "score": 45, "costs": 0, "simulationMode": [null, null, null, null, null], "rewards": [-2, 1, -1, -10, 57], "path": ["0", "0", "12", "13", "14", "19", "21"], "rt": [3910, 444, 290, 3729, 1803], "actions": ["right", "right", "right", "down", "down"], "actionTimes": [5486, 6433, 7233, 11454, 13753], "queries": {"click": {"state": {"target": [], "time": []}, "edge": {"target": [], "time": []}}, "mouseover": {"state": {"target": ["0"], "time": [5463]}, "edge": {"target": [], "time": []}}, "mouseout": {"state": {"target": ["0"], "time": [2329]}, "edge": {"target": [], "time": []}}}, "displayed_time": "15.58", "trialTime": 17217, "trial_type": "mouselab-mdp", "trial_index": 45, "time_elapsed": 1171568, "internal_node_id": "0.0-4.0-1.0-36.0"}}, {"uniqueid": "w37151391:a66483057", "current_trial": 46, "dateTime": 1691162525764, "trialdata": {"revealed_states": [], "clicked_states": [], "num_clicks_accrued": [0, 0, 0, 0, 0, 0, 0, 0, 0, 0, 0, 0, 0], "stateRewards": ["", -2, -4, -2, -13, -15, 87, -19, -6, -80, 30, 12, 1, 1, -8, 2, 55, 56, 15, 11, -68, -7, 55, -2, 3, -3, -3, 48, 62, 4, 1, -3, 69, -33], "withholdReward": false, "trial_id": "mdp_trial_38", "block": "test", "trialIndex": 39, "score": -94, "costs": 0, "simulationMode": [null, null, null, null, null], "rewards": [-2, -4, -2, -6, -80], "path": ["0", "0", "1", "2", "3", "8", "9"], "rt": [1181, 392, 366, 1097, 4726], "actions": ["up", "up", "up", "left", "up"], "actionTimes": [5128, 6018, 6874, 8475, 13707], "queries": {"click": {"state": {"target": [], "time": []}, "edge": {"target": [], "time": []}}, "mouseover": {"state": {"target": [], "time": []}, "edge": {"target": [], "time": []}}, "mouseout": {"state": {"target": [], "time": []}, "edge": {"target": [], "time": []}}}, "displayed_time": "17.95", "trialTime": 19383, "trial_type": "mouselab-mdp", "trial_index": 46, "time_elapsed": 1191284, "internal_node_id": "0.0-4.0-1.0-37.0"}}, {"uniqueid": "w37151391:a66483057", "current_trial": 47, "dateTime": 1691162543085, "trialdata": {"revealed_states": [], "clicked_states": [], "num_clicks_accrued": [0, 0, 0, 0, 0, 0, 0, 0, 0, 0, 0, 0, 0], "stateRewards": ["", -1, -4, -1, -11, 43, 69, 39, 4, 17, -20, -82, -2, -1, 4, 8, -79, 24, -79, 11, 36, 64, 41, 2, 4, -1, 11, -79, -47, 75, -3, 63, -36, -19], "withholdReward": false, "trial_id": "mdp_trial_39", "block": "test", "trialIndex": 40, "score": 65, "costs": 0, "simulationMode": [null, null, null, null, null], "rewards": [2, 4, -1, -3, 63], "path": ["0", "0", "23", "24", "25", "30", "31"], "rt": [2791, 295, 431, 968, 2550], "actions": ["left", "left", "left", "down", "right"], "actionTimes": [4290, 5082, 6018, 7490, 10542], "queries": {"click": {"state": {"target": [], "time": []}, "edge": {"target": [], "time": []}}, "mouseover": {"state": {"target": ["0", "0"], "time": [1522, 2183]}, "edge": {"target": [], "time": []}}, "mouseout": {"state": {"target": ["24", "16", "15", "18", "12", "0", "0", "0"], "time": [16, 443, 829, 925, 1109, 1510, 1876, 2466]}, "edge": {"target": [], "time": []}}}, "displayed_time": "15.50", "trialTime": 16992, "trial_type": "mouselab-mdp", "trial_index": 47, "time_elapsed": 1208606, "internal_node_id": "0.0-4.0-1.0-38.0"}}, {"uniqueid": "w37151391:a66483057", "current_trial": 48, "dateTime": 1691162560635, "trialdata": {"revealed_states": [], "clicked_states": [], "num_clicks_accrued": [0, 0, 0, 0, 0, 0, 0, 0, 0, 0, 0, 0, 0], "stateRewards": ["", 1, 4, -8, -5, -15, -7, 21, 13, -30, 40, -65, 1, 1, 5, -14, 35, 27, -38, -11, 36, -58, -47, -2, 4, -3, 13, -16, -49, 22, 15, -56, -44, -10], "withholdReward": false, "trial_id": "mdp_trial_40", "block": "test", "trialIndex": 41, "score": -20, "costs": 0, "simulationMode": [null, null, null, null, null], "rewards": [1, 4, -8, 13, -30], "path": ["0", "0", "1", "2", "3", "8", "9"], "rt": [2245, 150, 243, 948, 479], "actions": ["up", "up", "up", "left", "up"], "actionTimes": [3952, 4602, 5347, 6787, 7771], "queries": {"click": {"state": {"target": [], "time": []}, "edge": {"target": [], "time": []}}, "mouseover": {"state": {"target": [], "time": []}, "edge": {"target": [], "time": []}}, "mouseout": {"state": {"target": ["1", "1"], "time": [913, 1162]}, "edge": {"target": [], "time": []}}}, "displayed_time": "15.71", "trialTime": 17239, "trial_type": "mouselab-mdp", "trial_index": 48, "time_elapsed": 1226156, "internal_node_id": "0.0-4.0-1.0-39.0"}}, {"uniqueid": "w37151391:a66483057", "current_trial": 49, "dateTime": 1691162638762, "trialdata": {"rt": 78115, "response": {"Q0": "$-16 to 16", "Q1": "$-4 to $4", "Q2": "$-88 to $88", "Q3": "The cost for clicking on nodes varied between nodes.", "Q4": "Slightly motivated"}, "question_order": [0, 1, 2, 3, 4], "trial_id": "final_quiz_control", "trial_type": "survey-multi-choice", "trial_index": 49, "time_elapsed": 1304284, "internal_node_id": "0.0-4.0-2.0"}}, {"uniqueid": "w37151391:a66483057", "current_trial": 50, "dateTime": 1691162735394, "trialdata": {"rt": 96418, "response": {"Q0": "Trial and error", "Q1": "No, I tried the node inspector, it did not increase my chances ", "Q2": "It appeared that losses were higher than wins in magnitude"}, "trial_id": "self_report_control", "trial_type": "survey-text", "trial_index": 50, "time_elapsed": 1400916, "internal_node_id": "0.0-4.0-3.0"}}, {"uniqueid": "w37151391:a66483057", "current_trial": 51, "dateTime": 1691162761265, "trialdata": {"rt": 25850, "response": {"gender": "female", "age": "30", "colorblind": "0", "effort": "0"}, "trial_type": "survey-html-form", "trial_index": 51, "time_elapsed": 1426787, "internal_node_id": "0.0-4.0-4.0"}}, {"uniqueid": "w37151391:a66483057", "current_trial": 52, "dateTime": 1691162819952, "trialdata": {"rt": 58682, "response": {"Q0": "Initially I thought the spider could move backwards", "Q1": "No", "Q2": "None"}, "trial_type": "survey-text", "trial_index": 52, "time_elapsed": 1485474, "internal_node_id": "0.0-4.0-5.0"}}, {"uniqueid": "w37151391:a66483057", "current_trial": 53, "dateTime": 1691162822102, "trialdata": {"rt": 2146, "stimulus": "Press 'Finish HIT' in order to reach the completion code. Once the data has been saved, you will receive the code either in this window or in the original browser window where you started the experiment.\n", "response": 0, "trial_type": "html-button-response", "trial_index": 53, "time_elapsed": 1487624, "internal_node_id": "0.0-5.0"}}, {"uniqueid": "w37151391:a66483057", "current_trial": 54, "dateTime": 1691162823109, "trialdata": {"success": true, "trial_type": "fullscreen", "trial_index": 54, "time_elapsed": 1488631, "internal_node_id": "0.0-6.0"}}], "questiondata": {"params": {"CODE": "C6DMOQA6", "MIN_TIME": 14, "inspectCost": 1, "startTime": "Fri Aug 04 2023 17:02:12 GMT+0200 (South Africa Standard Time)", "bonusRate": 0.002, "variance": "1_2_4_8_44", "branching": "31123"}, "final_score": -76.6}, "eventdata": [{"eventtype": "initialized", "value": null, "timestamp": 1691161332109, "interval": 0}, {"eventtype": "window_resize", "value": [1024, 767], "timestamp": 1691161332109, "interval": 0}, {"eventtype": "window_resize", "value": [1024, 767], "timestamp": 1691161332596, "interval": 487}, {"eventtype": "window_resize", "value": [1440, 900], "timestamp": 1691161339968, "interval": 7372}, {"eventtype": "window_resize", "value": [1024, 767], "timestamp": 1691161343499, "interval": 3531}, {"eventtype": "window_resize", "value": [1334, 786], "timestamp": 1691161346999, "interval": 3500}, {"eventtype": "window_resize", "value": [1314, 793], "timestamp": 1691161347499, "interval": 500}, {"eventtype": "window_resize", "value": [1334, 793], "timestamp": 1691161349859, "interval": 2360}, {"eventtype": "window_resize", "value": [1351, 793], "timestamp": 1691161350999, "interval": 1140}, {"eventtype": "window_resize", "value": [1440, 900], "timestamp": 1691161359543, "interval": 8544}, {"eventtype": "window_resize", "value": [1351, 793], "timestamp": 1691161362496, "interval": 2953}], "useragent": "Mozilla/5.0 (Windows NT 10.0; Win64; x64) AppleWebKit/537.36 (KHTML, like Gecko) Chrome/115.0.0.0 Safari/537.36", "mode": "live", "id": "w37151391:a66483057", "status": "user data saved", "Beginhit": "2023-08-04 15:02:08.205995", "Beginexp": "2023-08-04 15:02:20.805544", "Endhit": "2023-08-04 15:27:04.193744", "psiturkStatus": 3, "browser": "<redacted>", "platform": "windows", "language": "en-US"}