{"condition": 0, "counterbalance": 0, "assignmentId": "a44510376", "workerId": "w93144615", "hitId": "h10305708", "currenttrial": 55, "bonus": 0, "data": [{"uniqueid": "w93144615:a44510376", "current_trial": 0, "dateTime": 1691165662739, "trialdata": {"success": true, "trial_type": "fullscreen", "trial_index": 0, "time_elapsed": 7420, "internal_node_id": "0.0-0.0"}}, {"uniqueid": "w93144615:a44510376", "current_trial": 1, "dateTime": 1691165777815, "trialdata": {"view_history": [{"page_index": 0, "viewing_time": 115066}], "rt": 115067, "trial_id": "exp_instructions_control", "trial_type": "instructions", "trial_index": 1, "time_elapsed": 122497, "internal_node_id": "0.0-1.0"}}, {"uniqueid": "w93144615:a44510376", "current_trial": 2, "dateTime": 1691165782210, "trialdata": {"success": true, "trial_type": "fullscreen", "trial_index": 2, "time_elapsed": 126892, "internal_node_id": "0.0-2.0-0.0"}}, {"uniqueid": "w93144615:a44510376", "current_trial": 3, "dateTime": 1691166148865, "trialdata": {"view_history": [{"page_index": 0, "viewing_time": 117731}, {"page_index": 1, "viewing_time": 105825}, {"page_index": 2, "viewing_time": 48878}, {"page_index": 3, "viewing_time": 94218}], "rt": 366652, "trial_id": "mouselab_instructions_1_control", "trial_type": "instructions", "trial_index": 3, "time_elapsed": 493546, "internal_node_id": "0.0-2.0-1.0"}}, {"uniqueid": "w93144615:a44510376", "current_trial": 4, "dateTime": 1691166185070, "trialdata": {"revealed_states": [], "clicked_states": ["2", "13", "24", "23"], "num_clicks_accrued": [0, 0, 0, 0, 0, 0, 0, 0, 0, 0, 0, 0, 0], "stateRewards": ["", -10, -10, -10, -10, 10, -10, 10, -10, -10, -10, -10, 10, 10, -10, -10, -10, 10, 10, -10, -10, -10, -10, -10, -10, 10, 10, 10, 10, -10, 10, 10, -10, -10], "withholdReward": false, "trial_id": "practice_1", "block": "test", "trialIndex": 0, "score": 11.5, "costs": -2, "simulationMode": [null, null, null, null, null], "rewards": [-10, -10, 10, 10, 10], "path": ["0", "0", "23", "24", "25", "26", "27"], "rt": [21553, 1759, 1508, 659, 373], "actions": ["left", "left", "left", "up", "up"], "actionTimes": [25143, 27412, 29428, 30596, 31476], "queries": {"click": {"state": {"target": ["2", "13", "24", "23"], "time": [8269, 14316, 17548, 18845]}, "edge": {"target": [], "time": []}}, "mouseover": {"state": {"target": ["1", "2", "1", "0", "12", "13", "12", "0", "23", "23", "24", "24", "23", "22", "0", "0", "0", "0", "23", "21"], "time": [6431, 7098, 10212, 10579, 12179, 12596, 15396, 15496, 15911, 16279, 16879, 17262, 18394, 19762, 20313, 21512, 21829, 22696, 23279, 24096]}, "edge": {"target": [], "time": []}}, "mouseout": {"state": {"target": ["0", "1", "2", "1", "0", "12", "13", "12", "0", "23", "23", "24", "24", "23", "22", "0", "0", "0", "0", "23", "21"], "time": [6341, 6945, 10095, 10345, 12129, 12462, 15379, 15446, 15900, 16162, 16846, 17112, 18378, 19651, 19828, 20462, 21546, 22213, 22729, 23982, 24129]}, "edge": {"target": [], "time": []}}}, "displayed_time": "31.99", "trialTime": 35349, "trial_type": "mouselab-mdp", "trial_index": 4, "time_elapsed": 529751, "internal_node_id": "0.0-2.0-2.0-0.0"}}, {"uniqueid": "w93144615:a44510376", "current_trial": 5, "dateTime": 1691166219198, "trialdata": {"revealed_states": [], "clicked_states": ["1", "13", "24"], "num_clicks_accrued": [0, 0, 0, 0, 0, 0, 0, 0, 0, 0, 0, 0, 0], "stateRewards": ["", -10, -10, -10, 10, -10, -10, 10, -10, 10, 10, -10, -10, -10, 10, 10, 10, -10, -10, 10, -10, -10, -10, 10, 10, -10, 10, -10, -10, -10, -10, 10, -10, 10], "withholdReward": false, "trial_id": "practice_2", "block": "test", "trialIndex": 1, "score": -28, "costs": -1.5, "simulationMode": [null, null, null, null, null], "rewards": [-10, -10, -10, -10, 10], "path": ["0", "0", "1", "2", "3", "8", "9"], "rt": [17414, 363, 4362, 2360, 194], "actions": ["up", "up", "up", "left", "up"], "actionTimes": [20558, 21420, 26284, 29148, 29852], "queries": {"click": {"state": {"target": ["1", "13", "24"], "time": [7306, 11121, 14011]}, "edge": {"target": [], "time": []}}, "mouseover": {"state": {"target": ["22", "1", "13", "22", "13", "23", "24", "24"], "time": [4099, 7016, 9116, 10616, 10666, 13134, 13187, 13534]}, "edge": {"target": [], "time": []}}, "mouseout": {"state": {"target": ["19", "22", "0", "22", "1", "13", "22", "13", "23", "24", "24"], "time": [2048, 2164, 3165, 4133, 8784, 9783, 10633, 11316, 13157, 13219, 14166]}, "edge": {"target": [], "time": []}}}, "displayed_time": "30.36", "trialTime": 33613, "trial_type": "mouselab-mdp", "trial_index": 5, "time_elapsed": 563879, "internal_node_id": "0.0-2.0-2.0-1.0"}}, {"uniqueid": "w93144615:a44510376", "current_trial": 6, "dateTime": 1691166360279, "trialdata": {"view_history": [{"page_index": 0, "viewing_time": 95190}, {"page_index": 1, "viewing_time": 45885}], "rt": 141077, "trial_id": "mouselab_instructions_2_control", "trial_type": "instructions", "trial_index": 6, "time_elapsed": 704961, "internal_node_id": "0.0-2.0-3.0"}}, {"uniqueid": "w93144615:a44510376", "current_trial": 7, "dateTime": 1691166414700, "trialdata": {"rt": 54410, "response": {"Q0": "The cost for clicking on nodes may vary between nodes.", "Q1": "The better I perform the higher my bonus will be.", "Q2": "No, the amount of cash at each node of the web may be different each time.", "Q3": "To get the highest total score.", "Q4": "Only before moving the spider.", "Q5": "3 seconds"}, "question_order": [0, 1, 2, 3, 4, 5], "correct": {"Q0": "The cost for clicking on nodes may vary between nodes.", "Q1": "The better I perform the higher my bonus will be.", "Q2": "No, the amount of cash at each node of the web may be different each time.", "Q3": "To get the highest total score.", "Q4": "Only before moving the spider.", "Q5": "3 seconds"}, "trial_id": "mouselab_quiz_control", "trial_type": "survey-multi-choice", "trial_index": 7, "time_elapsed": 759382, "internal_node_id": "0.0-2.0-4.0"}}, {"uniqueid": "w93144615:a44510376", "current_trial": 8, "dateTime": 1691166449741, "trialdata": {"rt": 35029, "stimulus": "\n<h1> Get ready to start the game! </h1>\n\nThank you for reading the instructions. Get ready start with the 40 rounds of this game.\n<br><br>\nIf you need to take a break, feel free to take one after the end of a round, before continuing to the next one.\n<br><br>\nRemember, the more money the spider gets, the bigger your bonus will be!\n<br><br>\n<div style='text-align: center;'>Press <code>space</code> to begin.</div>\n\n<br><br>\n(If, at any point, the <code>space</code> key does not take you to the next page, click once on the text and try again.)", "response": " ", "trial_id": "mdp_ready", "trial_type": "html-keyboard-response", "trial_index": 8, "time_elapsed": 794423, "internal_node_id": "0.0-4.0-0.0"}}, {"uniqueid": "w93144615:a44510376", "current_trial": 9, "dateTime": 1691166479774, "trialdata": {"revealed_states": [], "clicked_states": ["2", "13", "12", "23", "24"], "num_clicks_accrued": [0, 0, 0, 0, 0, 0, 0, 0, 0, 0, 0, 0, 0], "stateRewards": ["", 2, -4, 7, 3, 23, -42, 4, 7, -81, -33, 7, -2, -4, 5, -1, 50, -57, -14, -13, -14, 44, 55, -2, -2, 5, -2, 33, 1, 57, -13, -7, 58, 87], "withholdReward": false, "trial_id": "mdp_trial_1", "block": "test", "trialIndex": 2, "score": 41, "costs": -7, "simulationMode": [null, null, null, null, null], "rewards": [-2, -4, 5, -1, 50], "path": ["0", "0", "12", "13", "14", "15", "16"], "rt": [16172, 832, 585, 718, 379], "actions": ["right", "right", "right", "up", "up"], "actionTimes": [19407, 20750, 21838, 23070, 23950], "queries": {"click": {"state": {"target": ["2", "13", "12", "23", "24"], "time": [5508, 7170, 11259, 13028, 14560]}, "edge": {"target": [], "time": []}}, "mouseover": {"state": {"target": ["1", "2", "18", "14", "14", "13", "12", "12", "0", "23", "24"], "time": [4801, 5247, 6411, 6546, 6811, 6944, 8212, 11046, 11795, 12012, 13545]}, "edge": {"target": [], "time": []}}, "mouseout": {"state": {"target": ["22", "21", "0", "0", "1", "2", "18", "14", "14", "13", "12", "12", "0", "23", "24"], "time": [1510, 2101, 2377, 4771, 4995, 6246, 6430, 6644, 6912, 8130, 10579, 11778, 11812, 13513, 15012]}, "edge": {"target": [], "time": []}}}, "displayed_time": "24.45", "trialTime": 29486, "trial_type": "mouselab-mdp", "trial_index": 9, "time_elapsed": 824455, "internal_node_id": "0.0-4.0-1.0-0.0"}}, {"uniqueid": "w93144615:a44510376", "current_trial": 10, "dateTime": 1691166511038, "trialdata": {"revealed_states": [], "clicked_states": ["2", "1", "3", "13"], "num_clicks_accrued": [0, 0, 0, 0, 0, 0, 0, 0, 0, 0, 0, 0, 0], "stateRewards": ["", -1, 1, -6, -1, 80, 23, 2, -11, 73, -81, 59, 1, 3, 5, -1, -26, 28, -3, 16, -59, -13, -50, -2, -2, 2, 15, -50, 86, 17, -4, 37, 35, 44], "withholdReward": false, "trial_id": "mdp_trial_2", "block": "test", "trialIndex": 3, "score": 6.399999999999999, "costs": -5.6, "simulationMode": [null, null, null, null, null], "rewards": [1, 3, 5, 16, -13], "path": ["0", "0", "12", "13", "14", "19", "21"], "rt": [19525, 465, 330, 744, 247], "actions": ["right", "right", "right", "down", "down"], "actionTimes": [23279, 24253, 25085, 26333, 27085], "queries": {"click": {"state": {"target": ["2", "1", "3", "13"], "time": [6301, 10475, 13994, 18470]}, "edge": {"target": [], "time": []}}, "mouseover": {"state": {"target": ["22", "0", "1", "2", "1", "0", "0", "1", "2", "3", "4", "7", "12", "12", "13", "12"], "time": [4197, 4281, 4364, 5914, 7087, 7118, 9664, 9747, 12898, 12948, 14496, 17498, 17548, 17830, 18215, 21332]}, "edge": {"target": [], "time": []}}, "mouseout": {"state": {"target": ["22", "23", "0", "22", "0", "1", "2", "1", "0", "0", "1", "2", "3", "4", "7", "12", "12", "13", "12"], "time": [2012, 2162, 3777, 4231, 4298, 5697, 7064, 7113, 7135, 9698, 10647, 12931, 14471, 17465, 17515, 17598, 18165, 19030, 21915]}, "edge": {"target": [], "time": []}}}, "displayed_time": "27.59", "trialTime": 30717, "trial_type": "mouselab-mdp", "trial_index": 10, "time_elapsed": 855719, "internal_node_id": "0.0-4.0-1.0-1.0"}}, {"uniqueid": "w93144615:a44510376", "current_trial": 11, "dateTime": 1691166532446, "trialdata": {"revealed_states": [], "clicked_states": ["2", "24", "13"], "num_clicks_accrued": [0, 0, 0, 0, 0, 0, 0, 0, 0, 0, 0, 0, 0], "stateRewards": ["", -2, -3, 8, -4, -30, 31, 69, 9, 66, 87, 64, -2, 2, 8, 5, 47, 16, -39, -8, -54, 51, -19, 1, -2, -2, -11, -25, -26, 43, -9, 19, -84, 86], "withholdReward": false, "trial_id": "mdp_trial_3", "block": "test", "trialIndex": 4, "score": 46.8, "costs": -4.199999999999999, "simulationMode": [null, null, null, null, null], "rewards": [-2, 2, 8, -8, 51], "path": ["0", "0", "12", "13", "14", "19", "21"], "rt": [11850, 369, 510, 294, 1255], "actions": ["right", "right", "right", "down", "down"], "actionTimes": [13582, 14462, 15485, 16286, 18046], "queries": {"click": {"state": {"target": ["2", "24", "13"], "time": [3971, 7036, 9841]}, "edge": {"target": [], "time": []}}, "mouseover": {"state": {"target": ["22", "12", "2", "1", "0", "31", "24", "13"], "time": [2502, 2601, 3018, 4137, 4201, 6452, 6802, 9335]}, "edge": {"target": [], "time": []}}, "mouseout": {"state": {"target": ["0", "22", "12", "2", "1", "0", "31", "24", "13"], "time": [483, 2535, 2618, 4118, 4169, 4234, 6485, 7234, 10035]}, "edge": {"target": [], "time": []}}}, "displayed_time": "18.56", "trialTime": 20862, "trial_type": "mouselab-mdp", "trial_index": 11, "time_elapsed": 877127, "internal_node_id": "0.0-4.0-1.0-2.0"}}, {"uniqueid": "w93144615:a44510376", "current_trial": 12, "dateTime": 1691166574366, "trialdata": {"revealed_states": [], "clicked_states": ["2", "3", "13", "19", "24"], "num_clicks_accrued": [0, 0, 0, 0, 0, 0, 0, 0, 0, 0, 0, 0, 0], "stateRewards": ["", -2, 2, -4, -4, -59, 88, 62, -3, 69, -15, -34, 1, -2, -5, 7, -54, -20, 78, -16, -74, -53, -21, 2, -4, 2, 13, -8, -44, 26, 9, 72, 4, 17], "withholdReward": false, "trial_id": "mdp_trial_4", "block": "test", "trialIndex": 5, "score": 55, "costs": -7, "simulationMode": [null, null, null, null, null], "rewards": [-2, 2, -4, -3, 69], "path": ["0", "0", "1", "2", "3", "8", "9"], "rt": [22060, 1562, 2968, 799, 395], "actions": ["up", "up", "up", "left", "up"], "actionTimes": [23901, 25963, 29435, 30732, 31627], "queries": {"click": {"state": {"target": ["2", "3", "13", "19", "24"], "time": [4664, 7946, 11726, 15222, 18483]}, "edge": {"target": [], "time": []}}, "mouseover": {"state": {"target": ["21", "22", "12", "2", "1", "12", "3", "19", "13", "12", "14", "19", "24", "31", "30", "31", "23", "23", "23", "1"], "time": [3909, 3943, 4043, 4276, 4825, 7293, 7643, 10561, 10960, 14343, 14710, 15010, 17960, 20910, 21110, 22194, 22260, 22394, 22677, 22745]}, "edge": {"target": [], "time": []}}, "mouseout": {"state": {"target": ["0", "21", "22", "12", "2", "2", "1", "12", "2", "3", "19", "13", "12", "14", "19", "24", "24", "31", "30", "31", "23", "23", "23"], "time": [1862, 3926, 3959, 4059, 4736, 4809, 4842, 7444, 7593, 8143, 10593, 11926, 14393, 14877, 15393, 18677, 20860, 20977, 22160, 22227, 22277, 22411, 22694]}, "edge": {"target": [], "time": []}}}, "displayed_time": "32.14", "trialTime": 41372, "trial_type": "mouselab-mdp", "trial_index": 12, "time_elapsed": 919048, "internal_node_id": "0.0-4.0-1.0-3.0"}}, {"uniqueid": "w93144615:a44510376", "current_trial": 13, "dateTime": 1691166607405, "trialdata": {"revealed_states": [], "clicked_states": ["2", "4", "3"], "num_clicks_accrued": [0, 0, 0, 0, 0, 0, 0, 0, 0, 0, 0, 0, 0], "stateRewards": ["", 2, -1, 5, 8, 75, -35, -77, 1, -9, -81, -58, 1, 2, -7, 5, 77, -16, 19, 16, -10, -18, 40, -2, 3, 7, -5, 64, 1, -62, 10, 27, 10, 65], "withholdReward": false, "trial_id": "mdp_trial_5", "block": "test", "trialIndex": 6, "score": -67.2, "costs": -4.199999999999999, "simulationMode": [null, null, null, null, null], "rewards": [2, -1, 5, 8, -77], "path": ["0", "0", "1", "2", "3", "4", "7"], "rt": [14826, 203, 304, 623, 849], "actions": ["up", "up", "up", "right", "down"], "actionTimes": [17467, 18169, 18986, 20121, 21481], "queries": {"click": {"state": {"target": ["2", "4", "3"], "time": [4818, 8719, 12281]}, "edge": {"target": [], "time": []}}, "mouseover": {"state": {"target": ["20", "14", "13", "1", "2", "0", "0", "1", "3", "4", "7", "3", "2", "1", "0"], "time": [2672, 3159, 3181, 3625, 4192, 5431, 7660, 7709, 8026, 8459, 8946, 11960, 12776, 12797, 12817]}, "edge": {"target": [], "time": []}}, "mouseout": {"state": {"target": ["1", "26", "29", "27", "28", "1", "20", "14", "13", "1", "2", "0", "0", "1", "2", "3", "4", "7", "3", "2", "1", "0"], "time": [1240, 1291, 1306, 1606, 1706, 1773, 3092, 3175, 3194, 3692, 5425, 5449, 7675, 7742, 7859, 8425, 8925, 8986, 12759, 12792, 12812, 12832]}, "edge": {"target": [], "time": []}}}, "displayed_time": "21.98", "trialTime": 32441, "trial_type": "mouselab-mdp", "trial_index": 13, "time_elapsed": 952087, "internal_node_id": "0.0-4.0-1.0-4.0"}}, {"uniqueid": "w93144615:a44510376", "current_trial": 14, "dateTime": 1691166632365, "trialdata": {"revealed_states": [], "clicked_states": [], "num_clicks_accrued": [0, 0, 0, 0, 0, 0, 0, 0, 0, 0, 0, 0, 0], "stateRewards": ["", -2, 3, -1, 2, -72, 63, 20, -1, 62, -66, 39, -2, 3, -6, 14, 22, 47, 1, 8, -49, -1, -41, 2, 2, -6, -16, -64, -60, -34, 16, 54, 22, -7], "withholdReward": false, "trial_id": "mdp_trial_6", "block": "test", "trialIndex": 7, "score": 2, "costs": 0, "simulationMode": [null, null, null, null, null], "rewards": [-2, 3, -6, 8, -1], "path": ["0", "0", "12", "13", "14", "19", "21"], "rt": [13809, 383, 813, 1144, 265], "actions": ["right", "right", "right", "down", "down"], "actionTimes": [16686, 17580, 18893, 20540, 21324], "queries": {"click": {"state": {"target": [], "time": []}, "edge": {"target": [], "time": []}}, "mouseover": {"state": {"target": ["13", "12", "13", "22", "0"], "time": [4557, 4823, 5123, 6523, 8307]}, "edge": {"target": [], "time": []}}, "mouseout": {"state": {"target": ["0", "13", "12", "13", "22", "0"], "time": [2088, 4773, 5073, 6506, 6557, 8940]}, "edge": {"target": [], "time": []}}}, "displayed_time": "21.83", "trialTime": 24364, "trial_type": "mouselab-mdp", "trial_index": 14, "time_elapsed": 977047, "internal_node_id": "0.0-4.0-1.0-5.0"}}, {"uniqueid": "w93144615:a44510376", "current_trial": 15, "dateTime": 1691166658957, "trialdata": {"revealed_states": [], "clicked_states": [], "num_clicks_accrued": [0, 0, 0, 0, 0, 0, 0, 0, 0, 0, 0, 0, 0], "stateRewards": ["", 2, -4, 1, -12, -59, -53, -74, 16, -88, -66, 66, 1, -2, 8, -9, -14, 22, 25, -1, -39, 47, -14, -1, -1, -2, 1, -4, 52, -26, 15, -7, 46, 43], "withholdReward": false, "trial_id": "mdp_trial_7", "block": "test", "trialIndex": 8, "score": -16, "costs": 0, "simulationMode": [null, null, null, null, null], "rewards": [1, -2, 8, -9, -14], "path": ["0", "0", "12", "13", "14", "15", "16"], "rt": [12483, 231, 378, 631, 136], "actions": ["right", "right", "right", "up", "up"], "actionTimes": [19882, 20632, 21512, 22648, 23288], "queries": {"click": {"state": {"target": [], "time": []}, "edge": {"target": [], "time": []}}, "mouseover": {"state": {"target": ["21", "22", "1", "8", "8", "2", "2", "1", "0"], "time": [7661, 7861, 10294, 10327, 10494, 10761, 11011, 12034, 12061]}, "edge": {"target": [], "time": []}}, "mouseout": {"state": {"target": ["0", "21", "22", "1", "8", "8", "2", "2", "1", "0"], "time": [7433, 7679, 7911, 10311, 10361, 10528, 10811, 12028, 12048, 12078]}, "edge": {"target": [], "time": []}}}, "displayed_time": "23.80", "trialTime": 25992, "trial_type": "mouselab-mdp", "trial_index": 15, "time_elapsed": 1003638, "internal_node_id": "0.0-4.0-1.0-6.0"}}, {"uniqueid": "w93144615:a44510376", "current_trial": 16, "dateTime": 1691166683853, "trialdata": {"revealed_states": [], "clicked_states": ["2", "13", "4"], "num_clicks_accrued": [0, 0, 0, 0, 0, 0, 0, 0, 0, 0, 0, 0, 0], "stateRewards": ["", 1, 2, -3, 6, -88, 74, -45, 7, -46, 40, -77, 1, -4, 4, 3, 22, -25, -59, 8, -83, 19, -60, -1, -1, -1, -8, 26, -29, 64, -7, -88, -51, -55], "withholdReward": false, "trial_id": "mdp_trial_8", "block": "test", "trialIndex": 9, "score": 75.8, "costs": -4.199999999999999, "simulationMode": [null, null, null, null, null], "rewards": [1, 2, -3, 6, 74], "path": ["0", "0", "1", "2", "3", "4", "6"], "rt": [13800, 371, 171, 370, 239], "actions": ["up", "up", "up", "right", "right"], "actionTimes": [16188, 17065, 17753, 18633, 19385], "queries": {"click": {"state": {"target": ["2", "13", "4"], "time": [4323, 6263, 8881]}, "edge": {"target": [], "time": []}}, "mouseover": {"state": {"target": ["15", "7", "2", "18", "13", "22", "12", "3", "4", "1", "0", "0", "1", "2", "4", "6", "5", "4"], "time": [3940, 4007, 4040, 4923, 5255, 6638, 8257, 8557, 8724, 9089, 9189, 13391, 13425, 13457, 13574, 13640, 13857, 14293]}, "edge": {"target": [], "time": []}}, "mouseout": {"state": {"target": ["23", "0", "15", "7", "2", "18", "13", "22", "12", "3", "4", "1", "0", "0", "1", "2", "4", "6", "5", "4"], "time": [1721, 1887, 3974, 4023, 4805, 4955, 6472, 6755, 8274, 8707, 9039, 9123, 9247, 13418, 13440, 13490, 13624, 13774, 14274, 14308]}, "edge": {"target": [], "time": []}}}, "displayed_time": "19.90", "trialTime": 24249, "trial_type": "mouselab-mdp", "trial_index": 16, "time_elapsed": 1028535, "internal_node_id": "0.0-4.0-1.0-7.0"}}, {"uniqueid": "w93144615:a44510376", "current_trial": 17, "dateTime": 1691166707518, "trialdata": {"revealed_states": [], "clicked_states": ["2", "4", "8", "9"], "num_clicks_accrued": [0, 0, 0, 0, 0, 0, 0, 0, 0, 0, 0, 0, 0], "stateRewards": ["", -2, -1, 3, -3, 71, -58, -21, 7, -10, -75, -37, 2, 4, -1, -12, -79, -29, -48, 3, -41, -10, -30, -1, -2, 1, -15, 13, 66, 22, -1, -42, -86, -55], "withholdReward": false, "trial_id": "mdp_trial_9", "block": "test", "trialIndex": 10, "score": -73.6, "costs": -5.6, "simulationMode": [null, null, null, null, null], "rewards": [-2, -1, 3, 7, -75], "path": ["0", "0", "1", "2", "3", "8", "10"], "rt": [14358, 137, 143, 500, 300], "actions": ["up", "up", "up", "left", "down"], "actionTimes": [15872, 16510, 17166, 18174, 18974], "queries": {"click": {"state": {"target": ["2", "4", "8", "9"], "time": [3384, 6444, 8956, 12204]}, "edge": {"target": [], "time": []}}, "mouseover": {"state": {"target": ["20", "19", "22", "13", "12", "2", "1", "12", "7", "4", "0", "10", "8", "10", "10", "9", "10", "23"], "time": [1984, 2007, 2034, 2134, 2169, 3151, 4001, 5718, 6001, 6301, 6733, 8434, 8701, 9116, 10985, 11534, 12399, 12516]}, "edge": {"target": [], "time": []}}, "mouseout": {"state": {"target": ["0", "20", "19", "22", "13", "12", "2", "1", "12", "7", "4", "0", "10", "8", "10", "10", "8", "9", "8", "10", "23"], "time": [965, 2000, 2020, 2050, 2153, 2185, 3984, 4017, 5751, 6101, 6650, 6750, 8635, 9100, 9133, 11185, 11268, 12350, 12383, 12416, 12569]}, "edge": {"target": [], "time": []}}}, "displayed_time": "19.48", "trialTime": 23006, "trial_type": "mouselab-mdp", "trial_index": 17, "time_elapsed": 1052199, "internal_node_id": "0.0-4.0-1.0-8.0"}}, {"uniqueid": "w93144615:a44510376", "current_trial": 18, "dateTime": 1691166747438, "trialdata": {"revealed_states": [], "clicked_states": ["24", "30", "26", "13", "16", "19", "2", "4", "8"], "num_clicks_accrued": [0, 0, 0, 0, 0, 0, 0, 0, 0, 0, 0, 0, 0], "stateRewards": ["", -2, -2, -3, -6, -15, -11, 41, -12, -63, -76, 2, -2, -3, 8, 9, -36, -2, -18, -16, -32, -85, -17, -2, 1, 5, -16, 82, 35, -88, -1, 80, -82, -20], "withholdReward": false, "trial_id": "mdp_trial_10", "block": "test", "trialIndex": 11, "score": 15.399999999999999, "costs": -12.600000000000001, "simulationMode": [null, null, null, null, null], "rewards": [-2, -2, -3, -6, 41], "path": ["0", "0", "1", "2", "3", "4", "7"], "rt": [26816, 147, 232, 348, 396], "actions": ["up", "up", "up", "right", "down"], "actionTimes": [31934, 32589, 33325, 34173, 35069], "queries": {"click": {"state": {"target": ["24", "30", "26", "13", "16", "19", "2", "4", "8"], "time": [7773, 10225, 12190, 14889, 18017, 20528, 23183, 25329, 27730]}, "edge": {"target": [], "time": []}}, "mouseover": {"state": {"target": ["15", "18", "23", "24", "24", "31", "30", "25", "26", "24", "13", "14", "15", "16", "15", "14", "13", "14", "19", "20", "22", "2", "4", "6", "8", "2", "14", "13", "13", "13", "12", "1", "2", "7"], "time": [6652, 6785, 7001, 7208, 7668, 9785, 10036, 10917, 10951, 12451, 14753, 16753, 17553, 17820, 18484, 19803, 19986, 20086, 20236, 22537, 22653, 22869, 24569, 26452, 27587, 27918, 30020, 30053, 30136, 30420, 30444, 30472, 30537, 30937]}, "edge": {"target": [], "time": []}}, "mouseout": {"state": {"target": ["12", "1", "0", "0", "15", "18", "23", "24", "24", "31", "30", "25", "26", "24", "13", "14", "15", "16", "15", "14", "13", "14", "19", "20", "19", "22", "2", "4", "6", "8", "2", "14", "13", "13", "13", "12", "1", "2", "7"], "time": [3666, 3833, 3983, 6369, 6685, 6836, 7202, 7252, 8585, 9968, 10900, 10934, 12418, 12468, 16486, 17470, 17736, 18451, 18519, 19836, 20019, 20119, 20751, 22564, 22636, 22703, 24419, 26435, 26469, 27871, 27935, 30037, 30120, 30170, 30437, 30458, 30503, 30587, 30970]}, "edge": {"target": [], "time": []}}}, "displayed_time": "35.58", "trialTime": 39310, "trial_type": "mouselab-mdp", "trial_index": 18, "time_elapsed": 1092119, "internal_node_id": "0.0-4.0-1.0-9.0"}}, {"uniqueid": "w93144615:a44510376", "current_trial": 19, "dateTime": 1691166766925, "trialdata": {"revealed_states": [], "clicked_states": ["2", "4", "8", "10"], "num_clicks_accrued": [0, 0, 0, 0, 0, 0, 0, 0, 0, 0, 0, 0, 0], "stateRewards": ["", 2, -4, 4, 9, 69, 9, -75, 12, -86, 66, 25, -1, 3, 2, -13, -88, -3, 1, 4, -69, 49, -84, 2, -1, 4, 2, -18, -81, -52, -15, -69, -54, 25], "withholdReward": false, "trial_id": "mdp_trial_11", "block": "test", "trialIndex": 12, "score": 74.4, "costs": -5.6, "simulationMode": [null, null, null, null, null], "rewards": [2, -4, 4, 12, 66], "path": ["0", "0", "1", "2", "3", "8", "10"], "rt": [10835, 334, 172, 385, 220], "actions": ["up", "up", "up", "left", "down"], "actionTimes": [12937, 13783, 14455, 15351, 16071], "queries": {"click": {"state": {"target": ["2", "4", "8", "10"], "time": [3211, 5293, 7489, 9763]}, "edge": {"target": [], "time": []}}, "mouseover": {"state": {"target": ["19", "12", "2", "12", "21", "13", "4", "8", "10", "10"], "time": [2681, 2736, 3010, 3861, 4410, 4494, 5045, 5990, 7678, 9363]}, "edge": {"target": [], "time": []}}, "mouseout": {"state": {"target": ["12", "12", "0", "19", "12", "2", "12", "21", "13", "2", "4", "8", "10", "10"], "time": [1243, 1376, 2125, 2723, 2861, 3746, 3895, 4427, 4661, 4744, 5878, 7660, 7711, 9928]}, "edge": {"target": [], "time": []}}}, "displayed_time": "16.57", "trialTime": 18855, "trial_type": "mouselab-mdp", "trial_index": 19, "time_elapsed": 1111606, "internal_node_id": "0.0-4.0-1.0-10.0"}}, {"uniqueid": "w93144615:a44510376", "current_trial": 20, "dateTime": 1691166799613, "trialdata": {"revealed_states": [], "clicked_states": ["10", "9", "7", "5", "27", "32"], "num_clicks_accrued": [0, 0, 0, 0, 0, 0, 0, 0, 0, 0, 0, 0, 0], "stateRewards": ["", 2, -3, 5, 11, -79, 54, 11, -9, -78, 33, 22, -2, -1, 2, 14, 43, 34, 1, 10, 49, -65, 39, -1, 1, -1, 3, -16, -2, 11, 2, 12, 48, -65], "withholdReward": false, "trial_id": "mdp_trial_12", "block": "test", "trialIndex": 13, "score": 40.6, "costs": -8.4, "simulationMode": [null, null, null, null, null], "rewards": [-1, 1, -1, 2, 48], "path": ["0", "0", "23", "24", "25", "30", "32"], "rt": [22891, 132, 603, 623, 288], "actions": ["left", "left", "left", "down", "down"], "actionTimes": [25204, 25842, 26946, 28082, 28882], "queries": {"click": {"state": {"target": ["10", "9", "7", "5", "27", "32"], "time": [3888, 6206, 8900, 11061, 14608, 17152]}, "edge": {"target": [], "time": []}}, "mouseover": {"state": {"target": ["10", "8", "8", "9", "5", "6", "7", "4", "5", "4", "3", "10", "27", "27", "24", "31", "31", "32", "31", "31", "30", "29", "26", "11", "11", "26", "28", "10", "29", "25", "31"], "time": [2736, 4386, 5836, 6086, 6802, 8387, 8753, 10740, 10793, 13053, 13086, 13336, 14120, 14370, 15152, 15202, 15320, 16887, 19753, 20353, 20536, 20920, 21170, 21287, 21587, 21754, 21953, 22137, 22870, 23620, 23703]}, "edge": {"target": [], "time": []}}, "mouseout": {"state": {"target": ["0", "0", "10", "10", "8", "10", "8", "9", "5", "6", "7", "7", "4", "5", "5", "4", "3", "10", "27", "27", "24", "31", "31", "32", "31", "31", "30", "29", "26", "11", "11", "26", "28", "10", "29", "25", "31"], "time": [1384, 2652, 4068, 4368, 4518, 4568, 5886, 6752, 6819, 8487, 8979, 10686, 10786, 11118, 13036, 13070, 13220, 14070, 14136, 15119, 15185, 15235, 15451, 17317, 19803, 20403, 20603, 21137, 21187, 21337, 21670, 21937, 21987, 22553, 23604, 23654, 23754]}, "edge": {"target": [], "time": []}}}, "displayed_time": "29.39", "trialTime": 32066, "trial_type": "mouselab-mdp", "trial_index": 20, "time_elapsed": 1144294, "internal_node_id": "0.0-4.0-1.0-11.0"}}, {"uniqueid": "w93144615:a44510376", "current_trial": 21, "dateTime": 1691166821917, "trialdata": {"revealed_states": [], "clicked_states": ["10", "11", "9", "5", "6"], "num_clicks_accrued": [0, 0, 0, 0, 0, 0, 0, 0, 0, 0, 0, 0, 0], "stateRewards": ["", 1, -1, 1, 13, 31, -56, 72, 2, 41, 5, 63, -2, -3, -2, 3, -71, -26, 52, 13, -31, 24, -67, 2, -2, 5, 4, 66, 43, 72, 9, 86, -26, 44], "withholdReward": false, "trial_id": "mdp_trial_13", "block": "test", "trialIndex": 14, "score": 59, "costs": -7, "simulationMode": [null, null, null, null, null], "rewards": [1, -1, 1, 2, 63], "path": ["0", "0", "1", "2", "3", "8", "11"], "rt": [14558, 224, 195, 535, 155], "actions": ["up", "up", "up", "left", "left"], "actionTimes": [16197, 16931, 17635, 18675, 19331], "queries": {"click": {"state": {"target": ["10", "11", "9", "5", "6"], "time": [3371, 5545, 7715, 10518, 12956]}, "edge": {"target": [], "time": []}}, "mouseover": {"state": {"target": ["1", "26", "26", "9", "8", "10", "2", "1", "11", "9", "9", "5", "5", "5", "6"], "time": [2183, 2617, 2651, 2918, 3034, 3101, 3955, 4321, 5418, 5917, 6200, 7950, 9718, 10079, 12701]}, "edge": {"target": [], "time": []}}, "mouseout": {"state": {"target": ["0", "1", "26", "26", "9", "8", "10", "2", "1", "11", "9", "9", "5", "5", "5", "6"], "time": [2067, 2518, 2634, 2717, 3000, 3067, 3949, 3971, 4449, 5833, 5949, 7905, 7968, 9751, 10733, 13100]}, "edge": {"target": [], "time": []}}}, "displayed_time": "19.86", "trialTime": 21683, "trial_type": "mouselab-mdp", "trial_index": 21, "time_elapsed": 1166598, "internal_node_id": "0.0-4.0-1.0-12.0"}}, {"uniqueid": "w93144615:a44510376", "current_trial": 22, "dateTime": 1691166841965, "trialdata": {"revealed_states": [], "clicked_states": ["11", "9", "10", "6"], "num_clicks_accrued": [0, 0, 0, 0, 0, 0, 0, 0, 0, 0, 0, 0, 0], "stateRewards": ["", -1, 3, 1, -7, 56, 76, 57, 3, 11, -9, 14, 1, -2, 2, 8, -77, -3, 79, -5, 88, 24, -66, -2, -1, 7, -7, -30, 14, -76, 11, -36, 28, -6], "withholdReward": false, "trial_id": "mdp_trial_14", "block": "test", "trialIndex": 15, "score": 66.4, "costs": -5.6, "simulationMode": [null, null, null, null, null], "rewards": [-1, 3, 1, -7, 76], "path": ["0", "0", "1", "2", "3", "4", "6"], "rt": [11219, 143, 165, 282, 325], "actions": ["up", "up", "up", "right", "right"], "actionTimes": [13115, 13769, 14457, 15242, 16073], "queries": {"click": {"state": {"target": ["11", "9", "10", "6"], "time": [2845, 4781, 7075, 9212]}, "edge": {"target": [], "time": []}}, "mouseover": {"state": {"target": ["1", "10", "8", "11", "8", "9", "10", "10", "6", "5"], "time": [2288, 2337, 2435, 2668, 3303, 3903, 5038, 6737, 9104, 11455]}, "edge": {"target": [], "time": []}}, "mouseout": {"state": {"target": ["6", "12", "0", "1", "10", "8", "11", "8", "9", "9", "10", "10", "6", "5"], "time": [669, 754, 1929, 2303, 2353, 2469, 3286, 3320, 4848, 4970, 5055, 7236, 9420, 11987]}, "edge": {"target": [], "time": []}}}, "displayed_time": "16.57", "trialTime": 19433, "trial_type": "mouselab-mdp", "trial_index": 22, "time_elapsed": 1186646, "internal_node_id": "0.0-4.0-1.0-13.0"}}, {"uniqueid": "w93144615:a44510376", "current_trial": 23, "dateTime": 1691166868975, "trialdata": {"revealed_states": [], "clicked_states": ["9", "11", "6", "5"], "num_clicks_accrued": [0, 0, 0, 0, 0, 0, 0, 0, 0, 0, 0, 0, 0], "stateRewards": ["", 1, 1, 7, -11, 80, -20, -53, -14, 3, 31, 27, 2, -1, -8, -10, 33, 41, 86, 9, 78, -37, -13, -1, -2, -6, -8, -80, 75, 4, -16, -49, -74, 24], "withholdReward": false, "trial_id": "mdp_trial_15", "block": "test", "trialIndex": 16, "score": 72.4, "costs": -5.6, "simulationMode": [null, null, null, null, null], "rewards": [1, 1, 7, -11, 80], "path": ["0", "0", "1", "2", "3", "4", "5"], "rt": [12909, 141, 185, 327, 229], "actions": ["up", "up", "up", "right", "up"], "actionTimes": [14637, 15291, 15995, 16827, 17563], "queries": {"click": {"state": {"target": ["9", "11", "6", "5"], "time": [3294, 5595, 8762, 11318]}, "edge": {"target": [], "time": []}}, "mouseover": {"state": {"target": ["12", "1", "2", "3", "8", "11", "9", "8", "11", "10", "2", "7", "6", "5"], "time": [1756, 2359, 2510, 2644, 2694, 2727, 3111, 3910, 5461, 7745, 8244, 8268, 8595, 11011]}, "edge": {"target": [], "time": []}}, "mouseout": {"state": {"target": ["16", "12", "0", "12", "1", "2", "3", "8", "11", "9", "8", "11", "10", "2", "7", "6", "5", "22", "12", "18", "7", "2", "0"], "time": [708, 943, 1751, 2274, 2459, 2542, 2664, 2710, 2861, 3876, 3943, 6577, 8228, 8261, 8284, 8993, 11511, 20645, 21712, 23128, 25095, 25229, 25513]}, "edge": {"target": [], "time": []}}}, "displayed_time": "18.07", "trialTime": 26349, "trial_type": "mouselab-mdp", "trial_index": 23, "time_elapsed": 1213656, "internal_node_id": "0.0-4.0-1.0-14.0"}}, {"uniqueid": "w93144615:a44510376", "current_trial": 24, "dateTime": 1691166889325, "trialdata": {"revealed_states": [], "clicked_states": ["32", "33", "27", "29"], "num_clicks_accrued": [0, 0, 0, 0, 0, 0, 0, 0, 0, 0, 0, 0, 0], "stateRewards": ["", 2, 3, 8, 11, 25, -80, 6, -4, -56, 84, -23, -2, -4, -3, 4, -51, -9, -61, -15, -64, 67, -35, 1, -1, -7, -6, 83, 59, -15, 12, -79, 56, 41], "withholdReward": false, "trial_id": "mdp_trial_16", "block": "test", "trialIndex": 17, "score": 64.4, "costs": -5.6, "simulationMode": [null, null, null, null, null], "rewards": [1, -1, -7, -6, 83], "path": ["0", "0", "23", "24", "25", "26", "27"], "rt": [12567, 141, 179, 200, 155], "actions": ["left", "left", "left", "up", "up"], "actionTimes": [14019, 14673, 15361, 16065, 16721], "queries": {"click": {"state": {"target": ["32", "33", "27", "29"], "time": [2826, 5280, 7942, 11280]}, "edge": {"target": [], "time": []}}, "mouseover": {"state": {"target": ["0", "23", "32", "33", "30", "28", "27", "23", "24", "25", "29"], "time": [2027, 2393, 2727, 5093, 5448, 7460, 7744, 10228, 10710, 10844, 11027]}, "edge": {"target": [], "time": []}}, "mouseout": {"state": {"target": ["0", "0", "23", "32", "32", "33", "30", "28", "27", "23", "24", "25", "29"], "time": [1911, 2377, 2410, 2992, 4843, 5442, 5465, 7493, 8492, 10244, 10810, 10861, 11393]}, "edge": {"target": [], "time": []}}}, "displayed_time": "17.23", "trialTime": 19713, "trial_type": "mouselab-mdp", "trial_index": 24, "time_elapsed": 1234006, "internal_node_id": "0.0-4.0-1.0-15.0"}}, {"uniqueid": "w93144615:a44510376", "current_trial": 25, "dateTime": 1691166915869, "trialdata": {"revealed_states": [], "clicked_states": ["11", "6", "17", "20", "21", "33"], "num_clicks_accrued": [0, 0, 0, 0, 0, 0, 0, 0, 0, 0, 0, 0, 0], "stateRewards": ["", 2, -1, -3, 16, -3, -16, -62, -1, 13, -26, 43, -1, 4, 3, -9, -54, -37, -3, -12, -71, -68, -57, 1, -3, 2, -9, 2, -2, -9, -11, 84, -52, 55], "withholdReward": false, "trial_id": "mdp_trial_17", "block": "test", "trialIndex": 18, "score": 35.6, "costs": -8.4, "simulationMode": [null, null, null, null, null], "rewards": [1, -3, 2, -11, 55], "path": ["0", "0", "23", "24", "25", "30", "33"], "rt": [17366, 106, 162, 278, 263], "actions": ["left", "left", "left", "down", "left"], "actionTimes": [19325, 19932, 20604, 21387, 22156], "queries": {"click": {"state": {"target": ["11", "6", "17", "20", "21", "33"], "time": [3088, 5195, 7734, 10182, 12770, 15852]}, "edge": {"target": [], "time": []}}, "mouseover": {"state": {"target": ["1", "10", "8", "11", "28", "18", "16", "6", "17", "20", "21", "20", "31", "30", "33", "30", "31", "22", "19"], "time": [2337, 2522, 2602, 2803, 3402, 3753, 3820, 4436, 7488, 10021, 12454, 15038, 15204, 15287, 15521, 16042, 16065, 16114, 16137]}, "edge": {"target": [], "time": []}}, "mouseout": {"state": {"target": ["0", "1", "10", "8", "11", "28", "18", "16", "6", "17", "20", "21", "20", "31", "30", "33", "30", "31", "22", "19"], "time": [2291, 2370, 2571, 2754, 3319, 3552, 3786, 3838, 5353, 7903, 10387, 12971, 15055, 15254, 15354, 16036, 16060, 16083, 16132, 16155]}, "edge": {"target": [], "time": []}}}, "displayed_time": "22.68", "trialTime": 25900, "trial_type": "mouselab-mdp", "trial_index": 25, "time_elapsed": 1260550, "internal_node_id": "0.0-4.0-1.0-16.0"}}, {"uniqueid": "w93144615:a44510376", "current_trial": 26, "dateTime": 1691166936621, "trialdata": {"revealed_states": [], "clicked_states": ["6", "11"], "num_clicks_accrued": [0, 0, 0, 0, 0, 0, 0, 0, 0, 0, 0, 0, 0], "stateRewards": ["", -1, 1, -2, 5, 73, 15, 61, 8, 7, 38, 76, 2, 2, -4, -6, -6, -26, 43, -5, -45, -85, -35, -2, 1, -4, 15, -10, 69, 72, -11, 84, -49, -38], "withholdReward": false, "trial_id": "mdp_trial_18", "block": "test", "trialIndex": 19, "score": 79.2, "costs": -2.8, "simulationMode": [null, null, null, null, null], "rewards": [-1, 1, -2, 8, 76], "path": ["0", "0", "1", "2", "3", "8", "11"], "rt": [8486, 152, 234, 92, 197], "actions": ["up", "up", "up", "left", "left"], "actionTimes": [12905, 13564, 14295, 14887, 15591], "queries": {"click": {"state": {"target": ["6", "11"], "time": [7161, 9035]}, "edge": {"target": [], "time": []}}, "mouseover": {"state": {"target": ["1", "2", "4", "6", "4", "3", "2", "2", "8", "11", "28", "28", "9", "2"], "time": [4923, 5540, 6756, 6873, 7706, 7744, 7802, 8222, 8355, 8522, 9488, 9622, 11306, 12007]}, "edge": {"target": [], "time": []}}, "mouseout": {"state": {"target": ["21", "0", "1", "2", "4", "6", "4", "3", "2", "2", "8", "11", "28", "28", "11", "9", "2"], "time": [3504, 4823, 5023, 6690, 6840, 7688, 7723, 7797, 7837, 8255, 8388, 9439, 9505, 9671, 10940, 11389, 12074]}, "edge": {"target": [], "time": []}}}, "displayed_time": "18.42", "trialTime": 20103, "trial_type": "mouselab-mdp", "trial_index": 26, "time_elapsed": 1281303, "internal_node_id": "0.0-4.0-1.0-17.0"}}, {"uniqueid": "w93144615:a44510376", "current_trial": 27, "dateTime": 1691166958861, "trialdata": {"revealed_states": [], "clicked_states": ["9", "11", "6", "10", "5", "29"], "num_clicks_accrued": [0, 0, 0, 0, 0, 0, 0, 0, 0, 0, 0, 0, 0], "stateRewards": ["", 1, -1, -7, -7, -22, 15, -13, 13, 26, -32, 38, -1, 1, -7, -4, 16, -62, 86, 12, -54, 56, 64, -2, -1, 6, 14, -57, 37, 62, -6, -25, 50, -70], "withholdReward": false, "trial_id": "mdp_trial_19", "block": "test", "trialIndex": 20, "score": 70.6, "costs": -8.4, "simulationMode": [null, null, null, null, null], "rewards": [-2, -1, 6, 14, 62], "path": ["0", "0", "23", "24", "25", "26", "29"], "rt": [14788, 97, 313, 137, 208], "actions": ["left", "left", "left", "up", "left"], "actionTimes": [16166, 16772, 17588, 18228, 18932], "queries": {"click": {"state": {"target": ["9", "11", "6", "10", "5", "29"], "time": [2317, 3939, 5916, 7825, 10116, 12679]}, "edge": {"target": [], "time": []}}, "mouseover": {"state": {"target": ["1", "8", "9", "11", "8", "3", "4", "6", "7", "10", "2", "4", "5", "4", "2", "24", "31", "25", "29", "30"], "time": [1720, 1969, 2136, 2885, 4302, 4337, 4418, 4768, 6435, 7218, 9804, 9837, 9887, 10286, 10326, 10602, 12004, 12252, 12554, 12921]}, "edge": {"target": [], "time": []}}, "mouseout": {"state": {"target": ["2", "1", "0", "1", "8", "9", "11", "8", "3", "4", "6", "7", "10", "2", "4", "5", "4", "2", "24", "31", "25", "29", "30"], "time": [368, 451, 799, 1737, 2053, 2501, 4268, 4319, 4385, 4718, 6118, 6452, 8168, 9821, 9853, 10269, 10307, 10344, 10636, 12049, 12319, 12854, 12944]}, "edge": {"target": [], "time": []}}}, "displayed_time": "19.44", "trialTime": 21572, "trial_type": "mouselab-mdp", "trial_index": 27, "time_elapsed": 1303543, "internal_node_id": "0.0-4.0-1.0-18.0"}}, {"uniqueid": "w93144615:a44510376", "current_trial": 28, "dateTime": 1691166983054, "trialdata": {"revealed_states": [], "clicked_states": ["32", "29", "17", "21", "5", "11"], "num_clicks_accrued": [0, 0, 0, 0, 0, 0, 0, 0, 0, 0, 0, 0, 0], "stateRewards": ["", 2, 4, 7, 7, -79, -2, -21, -5, -53, 47, -21, 1, -3, -1, 7, 83, 7, 84, -7, 80, -37, 69, 2, -4, 5, 2, 4, -20, -30, 7, 71, 44, -81], "withholdReward": false, "trial_id": "mdp_trial_20", "block": "test", "trialIndex": 21, "score": 45.6, "costs": -8.4, "simulationMode": [null, null, null, null, null], "rewards": [2, -4, 5, 7, 44], "path": ["0", "0", "23", "24", "25", "30", "32"], "rt": [17118, 77, 311, 150, 283], "actions": ["left", "left", "left", "down", "down"], "actionTimes": [18785, 19376, 20192, 20848, 21632], "queries": {"click": {"state": {"target": ["32", "29", "17", "21", "5", "11"], "time": [2556, 5268, 7923, 10263, 13287, 16007]}, "edge": {"target": [], "time": []}}, "mouseover": {"state": {"target": ["32", "25", "29", "25", "31", "19", "14", "17", "14", "22", "21", "12", "7", "4", "5", "4", "7", "12", "12", "1", "10", "11", "0"], "time": [2194, 4678, 4727, 5444, 5481, 7310, 7361, 7694, 8094, 8131, 10127, 12277, 12511, 12611, 12844, 13529, 13551, 13590, 15279, 15394, 15561, 15829, 16276]}, "edge": {"target": [], "time": []}}, "mouseout": {"state": {"target": ["0", "32", "25", "29", "25", "31", "19", "14", "17", "14", "22", "21", "12", "7", "4", "5", "4", "7", "12", "12", "1", "10", "11", "0"], "time": [2111, 2976, 4696, 5426, 5463, 5506, 7344, 7544, 8076, 8113, 8150, 10339, 12295, 12561, 12777, 13509, 13546, 13570, 13609, 15297, 15495, 15678, 16209, 16295]}, "edge": {"target": [], "time": []}}}, "displayed_time": "22.13", "trialTime": 23521, "trial_type": "mouselab-mdp", "trial_index": 28, "time_elapsed": 1327735, "internal_node_id": "0.0-4.0-1.0-19.0"}}, {"uniqueid": "w93144615:a44510376", "current_trial": 29, "dateTime": 1691167000461, "trialdata": {"revealed_states": [], "clicked_states": ["6"], "num_clicks_accrued": [0, 0, 0, 0, 0, 0, 0, 0, 0, 0, 0, 0, 0], "stateRewards": ["", 1, 1, -3, 7, 49, 78, 26, -5, 26, 48, -43, -1, -3, 2, -5, 4, -1, -60, 10, -35, 51, 81, -2, 1, -7, -5, -39, -86, -54, 4, -3, 74, 77], "withholdReward": false, "trial_id": "mdp_trial_21", "block": "test", "trialIndex": 22, "score": 82.6, "costs": -1.4, "simulationMode": [null, null, null, null, null], "rewards": [1, 1, -3, 7, 78], "path": ["0", "0", "1", "2", "3", "4", "6"], "rt": [5889, 420, 255, 432, 541], "actions": ["up", "up", "up", "right", "right"], "actionTimes": [7205, 8132, 8884, 9828, 10868], "queries": {"click": {"state": {"target": ["6"], "time": [2763]}, "edge": {"target": [], "time": []}}, "mouseover": {"state": {"target": ["20", "19", "12", "4", "6", "0", "10", "11"], "time": [1773, 1824, 1992, 2408, 2523, 2972, 5541, 5624]}, "edge": {"target": [], "time": []}}, "mouseout": {"state": {"target": ["0", "0", "20", "19", "12", "4", "6", "0", "10", "11"], "time": [305, 1341, 1806, 1839, 2040, 2457, 2889, 2991, 5558, 6391]}, "edge": {"target": [], "time": []}}}, "displayed_time": "15.32", "trialTime": 16740, "trial_type": "mouselab-mdp", "trial_index": 29, "time_elapsed": 1345142, "internal_node_id": "0.0-4.0-1.0-20.0"}}, {"uniqueid": "w93144615:a44510376", "current_trial": 30, "dateTime": 1691167022493, "trialdata": {"revealed_states": [], "clicked_states": ["9", "5", "21", "17", "16"], "num_clicks_accrued": [0, 0, 0, 0, 0, 0, 0, 0, 0, 0, 0, 0, 0], "stateRewards": ["", -2, 1, 6, -2, -10, -78, -69, 14, -15, 7, -1, 1, -1, -2, 13, 77, 32, 87, 5, -74, 30, -26, 1, 3, 4, 12, 39, 54, -43, 2, 10, 23, 13], "withholdReward": false, "trial_id": "mdp_trial_22", "block": "test", "trialIndex": 23, "score": 81, "costs": -7, "simulationMode": [null, null, null, null, null], "rewards": [1, -1, -2, 13, 77], "path": ["0", "0", "12", "13", "14", "15", "16"], "rt": [15183, 169, 175, 226, 166], "actions": ["right", "right", "right", "up", "up"], "actionTimes": [16801, 17472, 18144, 18880, 19552], "queries": {"click": {"state": {"target": ["9", "5", "21", "17", "16"], "time": [2466, 5642, 7945, 10569, 13892]}, "edge": {"target": [], "time": []}}, "mouseover": {"state": {"target": ["10", "8", "9", "8", "10", "23", "28", "4", "5", "4", "22", "22", "21", "22", "17", "16"], "time": [2032, 2082, 2314, 2653, 2676, 2712, 4466, 5000, 5449, 5800, 6099, 6197, 7666, 9917, 10216, 13749]}, "edge": {"target": [], "time": []}}, "mouseout": {"state": {"target": ["0", "10", "8", "9", "8", "10", "23", "28", "4", "5", "4", "22", "22", "21", "22", "17", "16"], "time": [1932, 2049, 2231, 2647, 2671, 2695, 2731, 4616, 5049, 5781, 5819, 6148, 6314, 8098, 9935, 10733, 14016]}, "edge": {"target": [], "time": []}}}, "displayed_time": "20.05", "trialTime": 21296, "trial_type": "mouselab-mdp", "trial_index": 30, "time_elapsed": 1367174, "internal_node_id": "0.0-4.0-1.0-21.0"}}, {"uniqueid": "w93144615:a44510376", "current_trial": 31, "dateTime": 1691167044046, "trialdata": {"revealed_states": [], "clicked_states": ["21", "17", "29", "32", "9"], "num_clicks_accrued": [0, 0, 0, 0, 0, 0, 0, 0, 0, 0, 0, 0, 0], "stateRewards": ["", 2, 3, 3, 10, 19, -21, 6, 9, 54, 68, 16, 2, 2, -6, -8, 40, -2, -75, -2, -42, 55, 59, -1, 2, 4, -14, 11, -34, -30, -6, 61, -53, 13], "withholdReward": false, "trial_id": "mdp_trial_23", "block": "test", "trialIndex": 24, "score": 44, "costs": -7, "simulationMode": [null, null, null, null, null], "rewards": [2, 2, -6, -2, 55], "path": ["0", "0", "12", "13", "14", "19", "21"], "rt": [14827, 138, 207, 260, 214], "actions": ["right", "right", "right", "down", "down"], "actionTimes": [16343, 16982, 17685, 18470, 19191], "queries": {"click": {"state": {"target": ["21", "17", "29", "32", "9"], "time": [2349, 4789, 7429, 10121, 13123]}, "edge": {"target": [], "time": []}}, "mouseover": {"state": {"target": ["20", "21", "17", "12", "0", "24", "25", "29", "31", "32", "30", "25", "8", "9", "8", "10", "23"], "time": [1740, 2106, 4590, 6824, 6848, 6889, 6990, 7190, 7607, 10007, 12174, 12390, 12740, 12940, 13326, 13350, 13390]}, "edge": {"target": [], "time": []}}, "mouseout": {"state": {"target": ["20", "19", "22", "0", "20", "21", "17", "12", "0", "24", "25", "29", "29", "31", "32", "30", "25", "8", "9", "8", "10", "23"], "time": [405, 438, 571, 1542, 1990, 2488, 4922, 6842, 6882, 6907, 7057, 7505, 7574, 7627, 10251, 12357, 12423, 12807, 13307, 13345, 13370, 13408]}, "edge": {"target": [], "time": []}}}, "displayed_time": "19.69", "trialTime": 20839, "trial_type": "mouselab-mdp", "trial_index": 31, "time_elapsed": 1388727, "internal_node_id": "0.0-4.0-1.0-22.0"}}, {"uniqueid": "w93144615:a44510376", "current_trial": 32, "dateTime": 1691167069822, "trialdata": {"revealed_states": [], "clicked_states": ["6", "11", "9", "5", "21", "17", "29"], "num_clicks_accrued": [0, 0, 0, 0, 0, 0, 0, 0, 0, 0, 0, 0, 0], "stateRewards": ["", -1, 1, 8, -3, -24, 11, -65, -6, -77, 48, 44, -2, 1, -2, -7, -55, -35, 33, 8, -28, 19, -53, -1, -1, -5, -5, -70, 10, 44, 8, -58, -70, 51], "withholdReward": false, "trial_id": "mdp_trial_24", "block": "test", "trialIndex": 25, "score": 36.2, "costs": -9.8, "simulationMode": [null, null, null, null, null], "rewards": [-1, 1, 8, -6, 44], "path": ["0", "0", "1", "2", "3", "8", "11"], "rt": [18317, 116, 156, 82, 170], "actions": ["up", "up", "up", "left", "left"], "actionTimes": [19700, 20323, 20979, 21570, 22243], "queries": {"click": {"state": {"target": ["6", "11", "9", "5", "21", "17", "29"], "time": [3142, 5174, 7498, 9703, 12013, 14332, 16768]}, "edge": {"target": [], "time": []}}, "mouseover": {"state": {"target": ["0", "0", "0", "1", "2", "4", "6", "6", "16", "11", "8", "9", "8", "10", "16", "5", "6", "16", "17", "20", "21", "20", "17", "14", "24", "29", "30"], "time": [1408, 1669, 1934, 2018, 2168, 2268, 2383, 3035, 3366, 4718, 7035, 7335, 7671, 7707, 7984, 9568, 9869, 9908, 9933, 11602, 11902, 13986, 14186, 16253, 16304, 16652, 16968]}, "edge": {"target": [], "time": []}}, "mouseout": {"state": {"target": ["24", "23", "0", "0", "0", "0", "1", "2", "4", "6", "6", "16", "11", "8", "9", "8", "10", "16", "5", "6", "16", "17", "20", "21", "20", "17", "14", "24", "29", "30"], "time": [400, 583, 915, 1501, 1688, 1968, 2084, 2218, 2333, 2450, 3317, 3616, 5384, 7252, 7652, 7702, 7850, 8034, 9850, 9887, 9928, 9951, 11669, 12102, 14005, 14567, 16285, 16321, 16903, 16988]}, "edge": {"target": [], "time": []}}}, "displayed_time": "22.74", "trialTime": 25091, "trial_type": "mouselab-mdp", "trial_index": 32, "time_elapsed": 1414503, "internal_node_id": "0.0-4.0-1.0-23.0"}}, {"uniqueid": "w93144615:a44510376", "current_trial": 33, "dateTime": 1691167088861, "trialdata": {"revealed_states": [], "clicked_states": ["32", "29", "27"], "num_clicks_accrued": [0, 0, 0, 0, 0, 0, 0, 0, 0, 0, 0, 0, 0], "stateRewards": ["", -1, -4, 8, 8, -68, 47, 24, -7, -61, 49, -69, -1, -1, 8, -7, 42, 1, -45, -11, 10, -63, -6, 1, 4, 6, -16, 79, -37, -58, -12, 81, 18, -53], "withholdReward": false, "trial_id": "mdp_trial_25", "block": "test", "trialIndex": 26, "score": 69.8, "costs": -4.199999999999999, "simulationMode": [null, null, null, null, null], "rewards": [1, 4, 6, -16, 79], "path": ["0", "0", "23", "24", "25", "26", "27"], "rt": [8207, 118, 140, 147, 151], "actions": ["left", "left", "left", "up", "up"], "actionTimes": [11483, 12105, 12745, 13401, 14057], "queries": {"click": {"state": {"target": ["32", "29", "27"], "time": [4272, 6197, 8480]}, "edge": {"target": [], "time": []}}, "mouseover": {"state": {"target": ["31", "32", "29", "27", "26", "25", "33"], "time": [3667, 4083, 5666, 8334, 10308, 10367, 10600]}, "edge": {"target": [], "time": []}}, "mouseout": {"state": {"target": ["32", "30", "23", "31", "32", "29", "27", "26", "25", "33"], "time": [1998, 2215, 2499, 3717, 5115, 8117, 10301, 10334, 10467, 10667]}, "edge": {"target": [], "time": []}}}, "displayed_time": "17.28", "trialTime": 18345, "trial_type": "mouselab-mdp", "trial_index": 33, "time_elapsed": 1433542, "internal_node_id": "0.0-4.0-1.0-24.0"}}, {"uniqueid": "w93144615:a44510376", "current_trial": 34, "dateTime": 1691167116846, "trialdata": {"revealed_states": [], "clicked_states": ["6", "9", "11", "29", "32", "27", "20"], "num_clicks_accrued": [0, 0, 0, 0, 0, 0, 0, 0, 0, 0, 0, 0, 0], "stateRewards": ["", 2, -1, 3, -12, -83, 6, -33, 9, 28, 24, -50, -2, -1, -2, -5, -87, 37, 82, 12, 80, -5, 10, -2, -3, -6, 9, 22, -1, 16, 9, 77, -62, 58], "withholdReward": false, "trial_id": "mdp_trial_26", "block": "test", "trialIndex": 27, "score": 77.2, "costs": -9.8, "simulationMode": [null, null, null, null, null], "rewards": [-2, -1, -2, 12, 80], "path": ["0", "0", "12", "13", "14", "19", "20"], "rt": [20063, 114, 152, 222, 209], "actions": ["right", "right", "right", "down", "right"], "actionTimes": [22465, 23087, 23743, 24463, 25183], "queries": {"click": {"state": {"target": ["6", "9", "11", "29", "32", "27", "20"], "time": [3926, 6274, 8793, 11410, 13862, 16526, 19458]}, "edge": {"target": [], "time": []}}, "mouseover": {"state": {"target": ["1", "2", "6", "16", "16", "3", "9", "11", "11", "29", "29", "33", "32", "27", "26", "21", "20", "22", "19"], "time": [2902, 2985, 3769, 4751, 5769, 5869, 6102, 6518, 8484, 11119, 11269, 13470, 13670, 16403, 16738, 18787, 18970, 20558, 20585]}, "edge": {"target": [], "time": []}}, "mouseout": {"state": {"target": ["33", "26", "28", "0", "1", "2", "6", "16", "16", "3", "9", "11", "11", "29", "29", "33", "32", "27", "26", "21", "20", "22", "19", "20"], "time": [1234, 1484, 1501, 2869, 2935, 3318, 4600, 4786, 5788, 5936, 6451, 6551, 8926, 11138, 11619, 13536, 13991, 16718, 16758, 18808, 19602, 20580, 20604, 21504]}, "edge": {"target": [], "time": []}}}, "displayed_time": "25.69", "trialTime": 27247, "trial_type": "mouselab-mdp", "trial_index": 34, "time_elapsed": 1461527, "internal_node_id": "0.0-4.0-1.0-25.0"}}, {"uniqueid": "w93144615:a44510376", "current_trial": 35, "dateTime": 1691167145325, "trialdata": {"revealed_states": [], "clicked_states": ["6", "9", "11", "29", "32", "20", "17", "16"], "num_clicks_accrued": [0, 0, 0, 0, 0, 0, 0, 0, 0, 0, 0, 0, 0], "stateRewards": ["", 1, -4, 6, -3, 40, 76, -51, 5, -24, -63, 44, -2, -2, 8, 1, 76, -85, -58, 10, 59, 20, 11, -2, 3, -3, 3, -82, -10, 54, -7, -57, -6, -32], "withholdReward": false, "trial_id": "mdp_trial_27", "block": "test", "trialIndex": 28, "score": 69.8, "costs": -11.200000000000001, "simulationMode": [null, null, null, null, null], "rewards": [-2, -2, 8, 1, 76], "path": ["0", "0", "12", "13", "14", "15", "16"], "rt": [21683, 175, 147, 166, 157], "actions": ["right", "right", "right", "up", "up"], "actionTimes": [23300, 23986, 24658, 25330, 25986], "queries": {"click": {"state": {"target": ["6", "9", "11", "29", "32", "20", "17", "16"], "time": [2711, 5000, 7258, 9454, 11894, 14630, 17059, 19430]}, "edge": {"target": [], "time": []}}, "mouseover": {"state": {"target": ["1", "7", "4", "6", "15", "9", "11", "11", "29", "32", "21", "20", "17", "16"], "time": [2090, 2340, 2376, 2540, 2922, 4524, 5239, 7007, 9207, 11524, 14124, 14474, 16907, 19291]}, "edge": {"target": [], "time": []}}, "mouseout": {"state": {"target": ["17", "15", "12", "0", "1", "7", "4", "6", "6", "15", "9", "9", "11", "11", "29", "32", "32", "21", "20", "17", "16"], "time": [104, 572, 771, 1037, 2240, 2358, 2423, 2774, 2872, 2956, 5065, 5188, 5356, 7322, 9640, 12013, 13791, 14224, 14790, 17180, 19571]}, "edge": {"target": [], "time": []}}}, "displayed_time": "26.50", "trialTime": 27746, "trial_type": "mouselab-mdp", "trial_index": 35, "time_elapsed": 1490007, "internal_node_id": "0.0-4.0-1.0-26.0"}}, {"uniqueid": "w93144615:a44510376", "current_trial": 36, "dateTime": 1691167168061, "trialdata": {"revealed_states": [], "clicked_states": ["6", "17", "21", "20", "11", "9"], "num_clicks_accrued": [0, 0, 0, 0, 0, 0, 0, 0, 0, 0, 0, 0, 0], "stateRewards": ["", 1, -4, -6, -1, -21, 17, -72, 10, 77, 67, -46, -1, 4, -2, 14, -66, -49, -45, -15, -52, 23, -67, 2, -2, -2, 15, -3, 45, -64, 5, -44, 83, 61], "withholdReward": false, "trial_id": "mdp_trial_28", "block": "test", "trialIndex": 29, "score": 69.6, "costs": -8.4, "simulationMode": [null, null, null, null, null], "rewards": [1, -4, -6, 10, 77], "path": ["0", "0", "1", "2", "3", "8", "9"], "rt": [15414, 107, 195, 183, 220], "actions": ["up", "up", "up", "left", "up"], "actionTimes": [17700, 18322, 19026, 19714, 20434], "queries": {"click": {"state": {"target": ["6", "17", "21", "20", "11", "9"], "time": [3341, 5668, 8210, 10316, 12270, 14674]}, "edge": {"target": [], "time": []}}, "mouseover": {"state": {"target": ["1", "2", "4", "6", "17", "20", "21", "20", "23", "10", "11", "9", "14", "13", "18", "16"], "time": [2691, 2792, 2875, 3076, 5493, 7859, 7960, 10194, 10809, 10910, 11026, 14561, 16611, 16709, 16763, 16817]}, "edge": {"target": [], "time": []}}, "mouseout": {"state": {"target": ["0", "1", "2", "4", "6", "6", "17", "20", "21", "20", "23", "10", "11", "9", "14", "13", "18", "16"], "time": [2658, 2710, 2825, 2910, 3407, 3492, 5842, 7892, 8327, 10448, 10845, 10945, 12692, 14854, 16632, 16758, 16785, 16831]}, "edge": {"target": [], "time": []}}}, "displayed_time": "20.93", "trialTime": 22034, "trial_type": "mouselab-mdp", "trial_index": 36, "time_elapsed": 1512742, "internal_node_id": "0.0-4.0-1.0-27.0"}}, {"uniqueid": "w93144615:a44510376", "current_trial": 37, "dateTime": 1691167198797, "trialdata": {"revealed_states": [], "clicked_states": ["6", "9", "11", "10", "7", "27", "33", "31"], "num_clicks_accrued": [0, 0, 0, 0, 0, 0, 0, 0, 0, 0, 0, 0, 0], "stateRewards": ["", 1, 3, 1, -13, 52, -28, 67, -14, 3, 63, -70, -1, -4, 7, -11, -10, 47, -18, 6, 69, -9, -61, 2, 3, -6, 10, 63, -34, 40, -6, -79, -35, -32], "withholdReward": false, "trial_id": "mdp_trial_29", "block": "test", "trialIndex": 30, "score": 47.8, "costs": -11.200000000000001, "simulationMode": [null, null, null, null, null], "rewards": [1, 3, 1, -13, 67], "path": ["0", "0", "1", "2", "3", "4", "7"], "rt": [22002, 234, 156, 179, 166], "actions": ["up", "up", "up", "right", "down"], "actionTimes": [25725, 26459, 27115, 27803, 28475], "queries": {"click": {"state": {"target": ["6", "9", "11", "10", "7", "27", "33", "31"], "time": [5212, 7319, 9628, 12134, 15021, 18083, 20375, 22920]}, "edge": {"target": [], "time": []}}, "mouseover": {"state": {"target": ["1", "2", "3", "4", "6", "6", "5", "9", "11", "10", "28", "28", "28", "27", "2", "7", "7", "1", "10", "27", "33", "32", "31"], "time": [4137, 4186, 4370, 4503, 4570, 5105, 6803, 7137, 9520, 11954, 12306, 12469, 13970, 14353, 14602, 14636, 14869, 17171, 17654, 17871, 20120, 22404, 22754]}, "edge": {"target": [], "time": []}}, "mouseout": {"state": {"target": ["16", "18", "1", "2", "3", "4", "6", "6", "5", "9", "11", "10", "28", "28", "28", "27", "2", "7", "7", "1", "10", "27", "27", "33", "32", "31"], "time": [2651, 2767, 4156, 4220, 4469, 4536, 4737, 5385, 6870, 7485, 9770, 12286, 12341, 12603, 14001, 14535, 14620, 14718, 15169, 17191, 17674, 18135, 18255, 20498, 22471, 23070]}, "edge": {"target": [], "time": []}}}, "displayed_time": "28.98", "trialTime": 29994, "trial_type": "mouselab-mdp", "trial_index": 37, "time_elapsed": 1543478, "internal_node_id": "0.0-4.0-1.0-28.0"}}, {"uniqueid": "w93144615:a44510376", "current_trial": 38, "dateTime": 1691167225965, "trialdata": {"revealed_states": [], "clicked_states": ["16", "20", "21", "32", "29", "27", "9"], "num_clicks_accrued": [0, 0, 0, 0, 0, 0, 0, 0, 0, 0, 0, 0, 0], "stateRewards": ["", 1, 1, 1, -3, -7, -1, -41, -10, 20, -72, -63, 1, -4, -2, 2, -66, 30, -84, -2, 49, 23, 71, -1, -4, 4, -12, 67, 5, 18, -16, 88, 56, -5], "withholdReward": false, "trial_id": "mdp_trial_30", "block": "test", "trialIndex": 31, "score": 44.2, "costs": -9.8, "simulationMode": [null, null, null, null, null], "rewards": [-1, -4, 4, -12, 67], "path": ["0", "0", "23", "24", "25", "26", "27"], "rt": [19671, 85, 126, 100, 124], "actions": ["left", "left", "left", "up", "up"], "actionTimes": [21083, 21673, 22297, 22905, 23545], "queries": {"click": {"state": {"target": ["16", "20", "21", "32", "29", "27", "9"], "time": [2426, 4436, 6631, 9572, 12933, 15254, 18363]}, "edge": {"target": [], "time": []}}, "mouseover": {"state": {"target": ["16", "20", "21", "21", "22", "31", "32", "31", "30", "30", "25", "29", "29", "25", "26", "27", "24", "24", "10", "8", "9", "3", "0"], "time": [2132, 4233, 5932, 6233, 8650, 9100, 9284, 11932, 11982, 12467, 12494, 12531, 12784, 14817, 14856, 15117, 15438, 17634, 17701, 17754, 18001, 18507, 18608]}, "edge": {"target": [], "time": []}}, "mouseout": {"state": {"target": ["12", "0", "16", "16", "20", "21", "21", "22", "31", "32", "31", "30", "30", "25", "29", "29", "29", "25", "26", "27", "27", "24", "24", "10", "8", "9", "3", "0"], "time": [348, 1438, 2447, 2632, 4615, 6033, 6783, 8884, 9151, 9699, 11949, 12201, 12487, 12513, 12548, 12986, 13099, 14837, 14950, 15319, 15403, 15458, 17654, 17734, 17951, 18486, 18527, 18629]}, "edge": {"target": [], "time": []}}}, "displayed_time": "24.05", "trialTime": 26425, "trial_type": "mouselab-mdp", "trial_index": 38, "time_elapsed": 1570647, "internal_node_id": "0.0-4.0-1.0-29.0"}}, {"uniqueid": "w93144615:a44510376", "current_trial": 39, "dateTime": 1691167251933, "trialdata": {"revealed_states": [], "clicked_states": ["9", "17", "20", "22", "33", "27", "28", "6"], "num_clicks_accrued": [0, 0, 0, 0, 0, 0, 0, 0, 0, 0, 0, 0, 0], "stateRewards": ["", -1, -3, -3, 1, -38, 2, -53, -2, -1, -81, 70, -1, 1, -5, -9, 46, 15, 35, -1, -22, 38, 59, -2, 4, -8, 13, 1, -83, -43, 4, 76, 13, 48], "withholdReward": false, "trial_id": "mdp_trial_31", "block": "test", "trialIndex": 32, "score": 41.8, "costs": -11.200000000000001, "simulationMode": [null, null, null, null, null], "rewards": [-1, 1, -5, -1, 59], "path": ["0", "0", "12", "13", "14", "19", "22"], "rt": [19489, 112, 108, 148, 90], "actions": ["right", "right", "right", "down", "left"], "actionTimes": [21114, 21736, 22344, 23000, 23592], "queries": {"click": {"state": {"target": ["9", "17", "20", "22", "33", "27", "28", "6"], "time": [2520, 4366, 6210, 8257, 10759, 13294, 15647, 18585]}, "edge": {"target": [], "time": []}}, "mouseover": {"state": {"target": ["1", "10", "8", "9", "2", "7", "17", "20", "21", "22", "31", "30", "33", "27", "24", "23", "28", "23", "18", "6", "12"], "time": [2084, 2123, 2155, 2415, 2899, 2954, 3068, 5049, 7381, 8066, 10316, 10356, 10583, 13032, 13515, 15199, 15465, 15817, 17750, 18200, 18815]}, "edge": {"target": [], "time": []}}, "mouseout": {"state": {"target": ["0", "1", "10", "8", "9", "2", "7", "17", "20", "21", "22", "31", "30", "33", "27", "24", "23", "28", "23", "18", "6", "12"], "time": [2065, 2104, 2140, 2197, 2680, 2920, 2974, 4565, 6363, 7432, 8464, 10337, 10515, 11047, 13464, 13537, 15266, 15783, 15837, 17783, 18748, 18836]}, "edge": {"target": [], "time": []}}}, "displayed_time": "24.10", "trialTime": 25240, "trial_type": "mouselab-mdp", "trial_index": 39, "time_elapsed": 1596614, "internal_node_id": "0.0-4.0-1.0-30.0"}}, {"uniqueid": "w93144615:a44510376", "current_trial": 40, "dateTime": 1691167280766, "trialdata": {"revealed_states": [], "clicked_states": ["4", "17", "21", "16", "27", "9", "33", "32"], "num_clicks_accrued": [0, 0, 0, 0, 0, 0, 0, 0, 0, 0, 0, 0, 0], "stateRewards": ["", 1, 2, 2, -15, -84, 28, -26, 13, 31, 86, 30, -2, 1, -1, -8, 66, -40, -1, -10, -32, 57, -17, 1, 2, -2, 9, -23, 77, 85, 12, -32, -62, -35], "withholdReward": false, "trial_id": "mdp_trial_32", "block": "test", "trialIndex": 33, "score": 44.8, "costs": -11.200000000000001, "simulationMode": [null, null, null, null, null], "rewards": [-2, 1, -1, -8, 66], "path": ["0", "0", "12", "13", "14", "15", "16"], "rt": [22300, 66, 171, 497, 247], "actions": ["right", "right", "right", "up", "up"], "actionTimes": [23562, 24136, 24824, 25816, 26568], "queries": {"click": {"state": {"target": ["4", "17", "21", "16", "27", "9", "33", "32"], "time": [2443, 4767, 7123, 9561, 13138, 15846, 18348, 21238]}, "edge": {"target": [], "time": []}}, "mouseover": {"state": {"target": ["13", "18", "4", "17", "21", "16", "1", "27", "9", "33", "32"], "time": [1782, 1947, 2198, 4565, 6965, 9315, 12269, 12882, 15668, 18021, 20767]}, "edge": {"target": [], "time": []}}, "mouseout": {"state": {"target": ["0", "13", "18", "4", "17", "21", "16", "16", "1", "27", "9", "33", "32"], "time": [597, 1812, 1997, 2585, 4906, 7315, 9701, 12249, 12289, 13290, 15955, 18505, 21398]}, "edge": {"target": [], "time": []}}}, "displayed_time": "27.07", "trialTime": 28104, "trial_type": "mouselab-mdp", "trial_index": 40, "time_elapsed": 1625447, "internal_node_id": "0.0-4.0-1.0-31.0"}}, {"uniqueid": "w93144615:a44510376", "current_trial": 41, "dateTime": 1691167309742, "trialdata": {"revealed_states": [], "clicked_states": ["5", "11", "32", "29", "27", "31", "20"], "num_clicks_accrued": [0, 0, 0, 0, 0, 0, 0, 0, 0, 0, 0, 0, 0], "stateRewards": ["", -2, -1, -5, 10, -36, -70, 68, -9, 86, 71, -10, 2, -4, 7, -7, 66, 44, -66, -13, -69, 43, 15, -2, 2, 6, -13, 62, 57, 50, -10, -69, 42, -72], "withholdReward": false, "trial_id": "mdp_trial_33", "block": "test", "trialIndex": 34, "score": 45.2, "costs": -9.8, "simulationMode": [null, null, null, null, null], "rewards": [-2, 2, 6, -13, 62], "path": ["0", "0", "23", "24", "25", "26", "27"], "rt": [22133, 626, 195, 200, 173], "actions": ["left", "left", "left", "up", "up"], "actionTimes": [23517, 24651, 25355, 26059, 26731], "queries": {"click": {"state": {"target": ["5", "11", "32", "29", "27", "31", "20"], "time": [2803, 5496, 8338, 10641, 13927, 17962, 20466]}, "edge": {"target": [], "time": []}}, "mouseover": {"state": {"target": ["1", "23", "7", "4", "5", "11", "33", "32", "29", "27", "28", "24", "31", "32", "31", "22", "19", "20", "19"], "time": [1554, 1972, 2203, 2319, 2555, 5307, 7855, 8038, 10505, 13705, 14143, 14185, 14211, 14237, 17022, 19939, 19979, 20255, 20599]}, "edge": {"target": [], "time": []}}, "mouseout": {"state": {"target": ["29", "23", "0", "1", "23", "7", "4", "5", "11", "33", "32", "29", "29", "29", "27", "27", "28", "24", "31", "32", "31", "22", "19", "20", "19"], "time": [436, 718, 1511, 1587, 2008, 2219, 2352, 2831, 5608, 7971, 8520, 10794, 13206, 13488, 13981, 14088, 14164, 14206, 14232, 14259, 18088, 19972, 20000, 20519, 20620]}, "edge": {"target": [], "time": []}}}, "displayed_time": "27.24", "trialTime": 28252, "trial_type": "mouselab-mdp", "trial_index": 41, "time_elapsed": 1654423, "internal_node_id": "0.0-4.0-1.0-32.0"}}, {"uniqueid": "w93144615:a44510376", "current_trial": 42, "dateTime": 1691167350557, "trialdata": {"revealed_states": [], "clicked_states": ["5", "17", "16", "21", "20", "29", "27", "9", "11", "6", "7", "10", "32"], "num_clicks_accrued": [0, 0, 0, 0, 0, 0, 0, 0, 0, 0, 0, 0, 0], "stateRewards": ["", 2, 4, -3, 16, -58, 30, -35, 11, -60, 47, 27, -2, -1, -7, -16, 23, -70, 68, -10, -65, -43, -34, -2, 1, 7, 9, -63, 34, -31, -8, -12, -86, 59], "withholdReward": false, "trial_id": "mdp_trial_34", "block": "test", "trialIndex": 35, "score": 42.8, "costs": -18.2, "simulationMode": [null, null, null, null, null], "rewards": [2, 4, -3, 11, 47], "path": ["0", "0", "1", "2", "3", "8", "10"], "rt": [34392, 138, 433, 12, 151], "actions": ["up", "up", "up", "left", "down"], "actionTimes": [35848, 36486, 37430, 37942, 38613], "queries": {"click": {"state": {"target": ["5", "17", "16", "21", "20", "29", "27", "9", "11", "6", "7", "10", "32"], "time": [2688, 5135, 7438, 9953, 12399, 15109, 17406, 20016, 22550, 25041, 27598, 30090, 33005]}, "edge": {"target": [], "time": []}}, "mouseover": {"state": {"target": ["1", "3", "5", "5", "17", "16", "21", "20", "30", "29", "30", "23", "26", "27", "28", "0", "10", "8", "9", "12", "1", "11", "6", "6", "7", "22", "19", "10", "23", "32"], "time": [1789, 1856, 1939, 2391, 4925, 7308, 9709, 12175, 14442, 14825, 15302, 17025, 17075, 17124, 17562, 19375, 19442, 19508, 19859, 21941, 22042, 22409, 22760, 24825, 27443, 28025, 28084, 29894, 30250, 32676]}, "edge": {"target": [], "time": []}}, "mouseout": {"state": {"target": ["12", "1", "3", "5", "5", "5", "17", "17", "16", "16", "21", "20", "30", "29", "30", "23", "26", "27", "27", "28", "0", "10", "8", "9", "12", "1", "11", "6", "6", "6", "7", "22", "19", "10", "23", "32"], "time": [705, 1827, 1906, 2072, 2772, 2889, 5244, 7058, 7508, 7584, 10083, 12496, 14525, 15266, 15323, 17047, 17096, 17459, 17541, 17583, 19409, 19475, 19625, 20174, 21953, 22142, 22707, 22781, 25114, 25191, 27755, 28046, 28174, 30213, 30273, 33159]}, "edge": {"target": [], "time": []}}}, "displayed_time": "39.11", "trialTime": 40102, "trial_type": "mouselab-mdp", "trial_index": 42, "time_elapsed": 1695239, "internal_node_id": "0.0-4.0-1.0-33.0"}}, {"uniqueid": "w93144615:a44510376", "current_trial": 43, "dateTime": 1691167376317, "trialdata": {"revealed_states": [], "clicked_states": ["5", "17", "11", "29", "27", "32", "31"], "num_clicks_accrued": [0, 0, 0, 0, 0, 0, 0, 0, 0, 0, 0, 0, 0], "stateRewards": ["", -1, -3, -5, -14, -13, -47, 79, 8, -60, -64, 41, -1, 2, 3, 13, -46, 61, -79, -11, -64, -65, 23, 1, -2, 6, -14, 46, 32, 21, 7, 75, -66, 15], "withholdReward": false, "trial_id": "mdp_trial_35", "block": "test", "trialIndex": 36, "score": 77.2, "costs": -9.8, "simulationMode": [null, null, null, null, null], "rewards": [1, -2, 6, 7, 75], "path": ["0", "0", "23", "24", "25", "30", "31"], "rt": [19461, 155, 191, 148, 171], "actions": ["left", "left", "left", "down", "right"], "actionTimes": [20925, 21579, 22283, 22939, 23611], "queries": {"click": {"state": {"target": ["5", "17", "11", "29", "27", "32", "31"], "time": [2359, 4541, 7699, 10422, 12828, 15079, 17583]}, "edge": {"target": [], "time": []}}, "mouseover": {"state": {"target": ["1", "2", "3", "5", "17", "1", "11", "16", "21", "31", "25", "29", "25", "30", "24", "26", "27", "32", "31"], "time": [1736, 1823, 1886, 2103, 4420, 7003, 7553, 7916, 9554, 9853, 9937, 10170, 10642, 10669, 12404, 12453, 12704, 14854, 17387]}, "edge": {"target": [], "time": []}}, "mouseout": {"state": {"target": ["0", "1", "2", "3", "5", "17", "1", "11", "11", "16", "21", "31", "25", "29", "29", "25", "30", "24", "26", "27", "32", "31", "31"], "time": [1703, 1803, 1853, 1936, 2522, 4687, 7025, 7785, 7860, 7937, 9577, 9875, 10087, 10493, 10621, 10664, 10691, 12426, 12520, 12883, 15207, 17651, 17743]}, "edge": {"target": [], "time": []}}}, "displayed_time": "24.11", "trialTime": 24955, "trial_type": "mouselab-mdp", "trial_index": 43, "time_elapsed": 1720998, "internal_node_id": "0.0-4.0-1.0-34.0"}}, {"uniqueid": "w93144615:a44510376", "current_trial": 44, "dateTime": 1691167397293, "trialdata": {"revealed_states": [], "clicked_states": ["31", "20", "21", "33", "27"], "num_clicks_accrued": [0, 0, 0, 0, 0, 0, 0, 0, 0, 0, 0, 0, 0], "stateRewards": ["", -1, -2, 8, -6, -79, -6, 87, 9, -5, -66, -38, 2, 2, 5, -6, -82, 74, 85, -8, 67, -30, -15, 1, -2, -2, -2, 87, 64, 49, 7, 2, -38, -9], "withholdReward": false, "trial_id": "mdp_trial_36", "block": "test", "trialIndex": 37, "score": 75, "costs": -7, "simulationMode": [null, null, null, null, null], "rewards": [1, -2, -2, -2, 87], "path": ["0", "0", "23", "24", "25", "26", "27"], "rt": [14942, 97, 138, 128, 167], "actions": ["left", "left", "left", "up", "up"], "actionTimes": [16268, 16875, 17515, 18139, 18812], "queries": {"click": {"state": {"target": ["31", "20", "21", "33", "27"], "time": [2123, 4789, 8368, 10774, 13205]}, "edge": {"target": [], "time": []}}, "mouseover": {"state": {"target": ["31", "31", "21", "20", "32", "21", "33", "30", "27", "24"], "time": [1807, 1974, 4074, 4424, 7692, 8224, 10674, 10913, 12991, 13416]}, "edge": {"target": [], "time": []}}, "mouseout": {"state": {"target": ["23", "0", "31", "31", "21", "20", "32", "21", "33", "30", "27", "24"], "time": [572, 1724, 1856, 2275, 4124, 5023, 7875, 8463, 10890, 10934, 13376, 13437]}, "edge": {"target": [], "time": []}}}, "displayed_time": "19.31", "trialTime": 20267, "trial_type": "mouselab-mdp", "trial_index": 44, "time_elapsed": 1741974, "internal_node_id": "0.0-4.0-1.0-35.0"}}, {"uniqueid": "w93144615:a44510376", "current_trial": 45, "dateTime": 1691167428557, "trialdata": {"revealed_states": [], "clicked_states": ["6", "20", "21", "9", "27", "32", "33", "28", "10"], "num_clicks_accrued": [0, 0, 0, 0, 0, 0, 0, 0, 0, 0, 0, 0, 0], "stateRewards": ["", 1, 1, 1, 15, -76, 52, -32, 14, -57, 37, 49, 1, -4, -3, 6, 83, -76, 25, 9, 36, -1, -17, -1, 4, 4, -2, -22, -21, 58, -15, -57, 49, -24], "withholdReward": false, "trial_id": "mdp_trial_37", "block": "test", "trialIndex": 38, "score": 57.4, "costs": -12.600000000000001, "simulationMode": [null, null, null, null, null], "rewards": [1, 1, 1, 15, 52], "path": ["0", "0", "1", "2", "3", "4", "6"], "rt": [24267, 235, 143, 53, 190], "actions": ["up", "up", "up", "right", "right"], "actionTimes": [26225, 26960, 27600, 28160, 28864], "queries": {"click": {"state": {"target": ["6", "20", "21", "9", "27", "32", "33", "28", "10"], "time": [3241, 5120, 7295, 10051, 12673, 14942, 17795, 20725, 23720]}, "edge": {"target": [], "time": []}}, "mouseover": {"state": {"target": ["14", "15", "16", "6", "6", "20", "21", "5", "9", "5", "4", "3", "8", "27", "26", "24", "32", "32", "33", "24", "28", "4", "3", "8", "10"], "time": [1985, 2017, 2067, 2486, 3086, 4518, 7108, 9618, 9853, 10320, 11970, 11998, 12220, 12520, 12860, 12906, 14592, 14720, 17471, 20204, 20503, 22854, 23171, 23421, 23487]}, "edge": {"target": [], "time": []}}, "mouseout": {"state": {"target": ["23", "0", "14", "15", "16", "6", "6", "20", "21", "5", "9", "5", "4", "3", "8", "27", "26", "24", "32", "32", "32", "33", "24", "28", "4", "3", "8", "10", "10"], "time": [614, 1284, 1997, 2050, 2386, 2832, 3408, 5484, 7455, 9737, 10142, 10344, 11992, 12186, 12270, 12838, 12883, 12929, 14654, 15102, 17187, 17922, 20354, 20870, 23120, 23270, 23454, 23792, 23874]}, "edge": {"target": [], "time": []}}}, "displayed_time": "29.37", "trialTime": 30592, "trial_type": "mouselab-mdp", "trial_index": 45, "time_elapsed": 1773238, "internal_node_id": "0.0-4.0-1.0-36.0"}}, {"uniqueid": "w93144615:a44510376", "current_trial": 46, "dateTime": 1691167447743, "trialdata": {"revealed_states": [], "clicked_states": ["5", "17"], "num_clicks_accrued": [0, 0, 0, 0, 0, 0, 0, 0, 0, 0, 0, 0, 0], "stateRewards": ["", 2, -3, -2, 14, -4, 85, 46, 15, -28, 41, 31, -1, -1, -1, 5, 62, 79, 57, 12, -73, -64, 86, -1, 1, -3, -5, 68, 11, -32, 8, -80, -21, -56], "withholdReward": false, "trial_id": "mdp_trial_38", "block": "test", "trialIndex": 39, "score": 78.2, "costs": -2.8, "simulationMode": [null, null, null, null, null], "rewards": [-1, -1, -1, 5, 79], "path": ["0", "0", "12", "13", "14", "15", "17"], "rt": [6160, 59, 102, 158, 131], "actions": ["right", "right", "right", "up", "right"], "actionTimes": [7644, 8203, 8811, 9467, 10107], "queries": {"click": {"state": {"target": ["5", "17"], "time": [2307, 4609]}, "edge": {"target": [], "time": []}}, "mouseover": {"state": {"target": ["1", "2", "4", "5", "6", "17"], "time": [1511, 1554, 1838, 2055, 2839, 4438]}, "edge": {"target": [], "time": []}}, "mouseout": {"state": {"target": ["0", "1", "2", "4", "5", "6", "17"], "time": [685, 1522, 1603, 1860, 2534, 2861, 4767]}, "edge": {"target": [], "time": []}}}, "displayed_time": "15.49", "trialTime": 18428, "trial_type": "mouselab-mdp", "trial_index": 46, "time_elapsed": 1792424, "internal_node_id": "0.0-4.0-1.0-37.0"}}, {"uniqueid": "w93144615:a44510376", "current_trial": 47, "dateTime": 1691167476669, "trialdata": {"revealed_states": [], "clicked_states": ["29", "16", "20", "21", "33", "28", "9"], "num_clicks_accrued": [0, 0, 0, 0, 0, 0, 0, 0, 0, 0, 0, 0, 0], "stateRewards": ["", 1, -2, -2, 10, -31, -77, 35, 9, -47, 8, 48, -2, 1, -4, -3, -26, -50, 43, -11, 76, -38, 17, 1, -1, 6, 10, 15, -9, 12, -8, 85, 11, -55], "withholdReward": false, "trial_id": "mdp_trial_39", "block": "test", "trialIndex": 40, "score": 50.2, "costs": -9.8, "simulationMode": [null, null, null, null, null], "rewards": [-2, 1, -4, -11, 76], "path": ["0", "0", "12", "13", "14", "19", "20"], "rt": [20178, 220, 174, 131, 138], "actions": ["right", "right", "right", "down", "right"], "actionTimes": [22004, 22722, 23394, 24034, 24674], "queries": {"click": {"state": {"target": ["29", "16", "20", "21", "33", "28", "9"], "time": [2790, 5328, 7675, 10856, 13693, 16532, 18987]}, "edge": {"target": [], "time": []}}, "mouseover": {"state": {"target": ["27", "28", "12", "1", "27", "29", "25", "31", "24", "24", "13", "15", "16", "20", "21", "19", "31", "30", "33", "31", "26", "28", "24", "23", "11", "9", "8", "10", "23"], "time": [1897, 2015, 2132, 2232, 2332, 2600, 3387, 3430, 4248, 4325, 4815, 5032, 5081, 7532, 10466, 11625, 13149, 13299, 13483, 15767, 16166, 16299, 16687, 18400, 18500, 18733, 19140, 19169, 19216]}, "edge": {"target": [], "time": []}}, "mouseout": {"state": {"target": ["0", "27", "28", "12", "1", "27", "29", "29", "25", "31", "24", "24", "13", "15", "16", "16", "20", "21", "20", "19", "20", "20", "31", "30", "33", "31", "26", "28", "24", "23", "11", "9", "8", "10", "23"], "time": [745, 1982, 2037, 2200, 2265, 2415, 2878, 3364, 3408, 3504, 4288, 4363, 4838, 5055, 5412, 5492, 7831, 11040, 11603, 11686, 11775, 13049, 13249, 13349, 13902, 15789, 16216, 16664, 16710, 18424, 18700, 19135, 19164, 19193, 19240]}, "edge": {"target": [], "time": []}}}, "displayed_time": "25.17", "trialTime": 28114, "trial_type": "mouselab-mdp", "trial_index": 47, "time_elapsed": 1821350, "internal_node_id": "0.0-4.0-1.0-38.0"}}, {"uniqueid": "w93144615:a44510376", "current_trial": 48, "dateTime": 1691167494895, "trialdata": {"revealed_states": [], "clicked_states": ["5", "17", "2"], "num_clicks_accrued": [0, 0, 0, 0, 0, 0, 0, 0, 0, 0, 0, 0, 0], "stateRewards": ["", 1, 1, 4, 11, 83, -66, 18, -16, -23, 5, 25, 1, -3, 1, -12, 18, 24, -86, -11, -64, 36, 40, 2, 1, -6, 13, 55, 29, 72, -2, 81, -72, -41], "withholdReward": false, "trial_id": "mdp_trial_40", "block": "test", "trialIndex": 41, "score": 95.8, "costs": -4.199999999999999, "simulationMode": [null, null, null, null, null], "rewards": [1, 1, 4, 11, 83], "path": ["0", "0", "1", "2", "3", "4", "5"], "rt": [9143, 280, 118, 63, 152], "actions": ["up", "up", "up", "right", "up"], "actionTimes": [10322, 11105, 11729, 12289, 12961], "queries": {"click": {"state": {"target": ["5", "17", "2"], "time": [2008, 3899, 7164]}, "edge": {"target": [], "time": []}}, "mouseover": {"state": {"target": ["1", "2", "5", "6", "16", "17", "13", "12", "7", "2", "18", "15", "18", "10", "11"], "time": [1353, 1403, 1604, 2470, 2549, 2957, 5855, 5971, 6472, 6605, 7355, 8205, 8237, 8492, 8805]}, "edge": {"target": [], "time": []}}, "mouseout": {"state": {"target": ["0", "1", "2", "5", "6", "16", "17", "13", "12", "7", "2", "18", "17", "15", "18", "10"], "time": [671, 1370, 1454, 2083, 2492, 2572, 4405, 5939, 5995, 6545, 7314, 7378, 8200, 8232, 8375, 8514]}, "edge": {"target": [], "time": []}}}, "displayed_time": "15.18", "trialTime": 17410, "trial_type": "mouselab-mdp", "trial_index": 48, "time_elapsed": 1839576, "internal_node_id": "0.0-4.0-1.0-39.0"}}, {"uniqueid": "w93144615:a44510376", "current_trial": 49, "dateTime": 1691167572890, "trialdata": {"rt": 77982, "response": {"Q0": "$-2 to $2", "Q1": "$-16 to $16", "Q2": "$-88 to $88", "Q3": "The cost for clicking on nodes varied between nodes.", "Q4": "Very motivated"}, "question_order": [0, 1, 2, 3, 4], "trial_id": "final_quiz_control", "trial_type": "survey-multi-choice", "trial_index": 49, "time_elapsed": 1917571, "internal_node_id": "0.0-4.0-2.0"}}, {"uniqueid": "w93144615:a44510376", "current_trial": 50, "dateTime": 1691167694265, "trialdata": {"rt": 121358, "response": {"Q0": "I was checking the last nodes and picked one with the highest number", "Q1": "yes,because at the beginning I was clicking on random nodes", "Q2": "It wasn't very difficult "}, "trial_id": "self_report_control", "trial_type": "survey-text", "trial_index": 50, "time_elapsed": 2038947, "internal_node_id": "0.0-4.0-3.0"}}, {"uniqueid": "w93144615:a44510376", "current_trial": 51, "dateTime": 1691167718963, "trialdata": {"rt": 24690, "response": {"gender": "female", "age": "39", "colorblind": "0", "effort": "0"}, "trial_type": "survey-html-form", "trial_index": 51, "time_elapsed": 2063645, "internal_node_id": "0.0-4.0-4.0"}}, {"uniqueid": "w93144615:a44510376", "current_trial": 52, "dateTime": 1691167783109, "trialdata": {"rt": 64135, "response": {"Q0": "No,everything was clear, especially after exercise ", "Q1": "No,it was my first time", "Q2": "It was fun,thank you:)"}, "trial_type": "survey-text", "trial_index": 52, "time_elapsed": 2127790, "internal_node_id": "0.0-4.0-5.0"}}, {"uniqueid": "w93144615:a44510376", "current_trial": 53, "dateTime": 1691167789695, "trialdata": {"rt": 6570, "stimulus": "Press 'Finish HIT' in order to reach the completion code. Once the data has been saved, you will receive the code either in this window or in the original browser window where you started the experiment.\n", "response": 0, "trial_type": "html-button-response", "trial_index": 53, "time_elapsed": 2134376, "internal_node_id": "0.0-5.0"}}, {"uniqueid": "w93144615:a44510376", "current_trial": 54, "dateTime": 1691167790706, "trialdata": {"success": true, "trial_type": "fullscreen", "trial_index": 54, "time_elapsed": 2135388, "internal_node_id": "0.0-6.0"}}], "questiondata": {"params": {"CODE": "C6DMOQA6", "MIN_TIME": 14, "inspectCost": 1, "startTime": "Fri Aug 04 2023 17:14:14 GMT+0100 (Brytyjski czas letni)", "bonusRate": 0.002, "variance": "1_2_4_8_44", "branching": "31123"}, "final_score": 1924.4}, "eventdata": [{"eventtype": "initialized", "value": null, "timestamp": 1691165653771, "interval": 0}, {"eventtype": "window_resize", "value": [1024, 746], "timestamp": 1691165653771, "interval": 0}, {"eventtype": "window_resize", "value": [1024, 746], "timestamp": 1691165654186, "interval": 415}, {"eventtype": "window_resize", "value": [1536, 864], "timestamp": 1691165661978, "interval": 7792}, {"eventtype": "window_resize", "value": [1024, 746], "timestamp": 1691167789986, "interval": 2128008}], "useragent": "Mozilla/5.0 (X11; CrOS x86_64 14541.0.0) AppleWebKit/537.36 (KHTML, like Gecko) Chrome/114.0.0.0 Safari/537.36", "mode": "live", "id": "w93144615:a44510376", "status": "user data saved", "Beginhit": "2023-08-04 16:14:12.168187", "Beginexp": "2023-08-04 16:14:22.503058", "Endhit": "2023-08-04 16:49:50.922579", "psiturkStatus": 3, "browser": "<redacted>", "platform": "chromeos", "language": "pl-PL"}