{"condition": 1, "counterbalance": 0, "assignmentId": "a80637348", "workerId": "w76774497", "hitId": "h67382170", "currenttrial": 56, "bonus": 0, "data": [{"uniqueid": "w76774497:a80637348", "current_trial": 0, "dateTime": 1693395951985, "trialdata": {"success": true, "trial_type": "fullscreen", "trial_index": 0, "time_elapsed": 2964, "internal_node_id": "0.0-0.0"}}, {"uniqueid": "w76774497:a80637348", "current_trial": 1, "dateTime": 1693395966929, "trialdata": {"view_history": [{"page_index": 0, "viewing_time": 14941}], "rt": 14941, "trial_id": "exp_instructions_misaligned", "trial_type": "instructions", "trial_index": 1, "time_elapsed": 17908, "internal_node_id": "0.0-1.0"}}, {"uniqueid": "w76774497:a80637348", "current_trial": 2, "dateTime": 1693396092006, "trialdata": {"view_history": [{"page_index": 0, "viewing_time": 54424}, {"page_index": 1, "viewing_time": 46788}, {"page_index": 2, "viewing_time": 17967}, {"page_index": 3, "viewing_time": 5896}], "rt": 125075, "trial_id": "mouselab_instructions_1_misaligned", "trial_type": "instructions", "trial_index": 2, "time_elapsed": 142985, "internal_node_id": "0.0-2.0-1.0"}}, {"uniqueid": "w76774497:a80637348", "current_trial": 3, "dateTime": 1693396122543, "trialdata": {"revealed_states": [], "clicked_states": ["5", "6", "16", "17", "20", "21", "32", "33", "29", "27", "11", "9"], "num_clicks_accrued": [0, 0, 0, 0, 0, 0, 0, 0, 0, 0, 0, 0, 0], "stateRewards": ["", -10, -10, -10, -10, -10, -10, -10, -10, -10, 10, -10, -10, 10, -10, -10, -10, -10, -10, -10, 10, 10, -10, 10, 10, 10, 10, -10, 10, -10, -10, -10, 10, 10], "withholdReward": false, "trial_id": "practice_1", "block": "test", "trialIndex": 0, "score": -12.5, "costs": -6, "simulationMode": [null, null, null, null, null], "rewards": [-10, 10, -10, -10, 10], "path": ["0", "0", "12", "13", "14", "19", "20"], "rt": [21400, 275, 158, 131, 136], "actions": ["right", "right", "right", "down", "right"], "actionTimes": [23211, 23993, 24671, 25335, 25985], "queries": {"click": {"state": {"target": ["5", "6", "16", "17", "20", "21", "32", "33", "29", "27", "11", "9"], "time": [2643, 5215, 6772, 8179, 9692, 11376, 13248, 15081, 16434, 17735, 19133, 20410]}, "edge": {"target": [], "time": []}}, "mouseover": {"state": {"target": ["10", "2", "3", "5", "5", "6", "6", "16", "17", "20", "21", "31", "31", "30", "33", "32", "32", "33", "29", "27", "11", "9"], "time": [2191, 2247, 2289, 2361, 2431, 2962, 4940, 6016, 7248, 9033, 10731, 12257, 12509, 12573, 12738, 12981, 13106, 14884, 16023, 17071, 18750, 19557]}, "edge": {"target": [], "time": []}}, "mouseout": {"state": {"target": ["12", "0", "10", "2", "3", "5", "5", "6", "6", "16", "16", "17", "20", "21", "31", "31", "30", "33", "32", "32", "33", "29", "27", "11", "9"], "time": [670, 836, 2212, 2285, 2323, 2398, 2881, 3760, 5589, 6895, 7098, 8497, 9936, 12025, 12312, 12551, 12627, 12755, 12998, 13524, 15484, 16739, 18027, 19370, 20848]}, "edge": {"target": [], "time": []}}}, "displayed_time": "26.50", "trialTime": 29835, "trial_type": "mouselab-mdp", "trial_index": 3, "time_elapsed": 173522, "internal_node_id": "0.0-2.0-2.0-0.0"}}, {"uniqueid": "w76774497:a80637348", "current_trial": 4, "dateTime": 1693396141023, "trialdata": {"revealed_states": [], "clicked_states": ["5", "20", "32", "29"], "num_clicks_accrued": [0, 0, 0, 0, 0, 0, 0, 0, 0, 0, 0, 0, 0], "stateRewards": ["", 10, 10, 10, 10, -10, -10, 10, 10, 10, -10, 10, 10, 10, 10, -10, 10, -10, -10, -10, -10, 10, 10, 10, -10, 10, 10, -10, -10, 10, 10, 10, -10, -10], "withholdReward": false, "trial_id": "practice_2", "block": "test", "trialIndex": 1, "score": 31.5, "costs": -2, "simulationMode": [null, null, null, null, null], "rewards": [10, -10, 10, 10, 10], "path": ["0", "0", "23", "24", "25", "26", "29"], "rt": [9529, 167, 127, 139, 24], "actions": ["left", "left", "left", "up", "left"], "actionTimes": [12472, 13147, 13804, 14474, 15032], "queries": {"click": {"state": {"target": ["5", "20", "32", "29"], "time": [4189, 6067, 7974, 9754]}, "edge": {"target": [], "time": []}}, "mouseover": {"state": {"target": ["18", "15", "16", "6", "5", "4", "7", "18", "15", "20", "19", "29", "25", "32", "25", "29", "26", "28"], "time": [3469, 3526, 3684, 3735, 3962, 4441, 4478, 4588, 4662, 5969, 6333, 7190, 7511, 7850, 9394, 9648, 10110, 10150]}, "edge": {"target": [], "time": []}}, "mouseout": {"state": {"target": ["8", "10", "0", "18", "15", "16", "6", "5", "4", "7", "18", "15", "20", "19", "29", "25", "32", "25", "29", "26"], "time": [2246, 2385, 3032, 3497, 3594, 3706, 3770, 4405, 4476, 4514, 4626, 5725, 6111, 6367, 7462, 7528, 8138, 9410, 10075, 10148]}, "edge": {"target": [], "time": []}}}, "displayed_time": "15.54", "trialTime": 18222, "trial_type": "mouselab-mdp", "trial_index": 4, "time_elapsed": 192002, "internal_node_id": "0.0-2.0-2.0-1.0"}}, {"uniqueid": "w76774497:a80637348", "current_trial": 5, "dateTime": 1693396159376, "trialdata": {"view_history": [{"page_index": 0, "viewing_time": 12095}, {"page_index": 1, "viewing_time": 6256}], "rt": 18351, "trial_id": "mouselab_instructions_2_misaligned", "trial_type": "instructions", "trial_index": 5, "time_elapsed": 210354, "internal_node_id": "0.0-2.0-3.0"}}, {"uniqueid": "w76774497:a80637348", "current_trial": 6, "dateTime": 1693396190984, "trialdata": {"rt": 31604, "response": {"Q0": "The cost for clicking on nodes may vary between nodes.", "Q1": "The better I perform the higher my bonus will be.", "Q2": "No, the amount of cash at each node of the web may be different each time.", "Q3": "To get the highest total score.", "Q4": "Only before moving the spider.", "Q5": "3 seconds"}, "question_order": [0, 1, 2, 3, 4, 5], "correct": {"Q0": "The cost for clicking on nodes may vary between nodes.", "Q1": "The better I perform the higher my bonus will be.", "Q2": "No, the amount of cash at each node of the web may be different each time.", "Q3": "To get the highest total score.", "Q4": "Only before moving the spider.", "Q5": "3 seconds"}, "trial_id": "mouselab_quiz_misaligned", "trial_type": "survey-multi-choice", "trial_index": 6, "time_elapsed": 241963, "internal_node_id": "0.0-2.0-4.0"}}, {"uniqueid": "w76774497:a80637348", "current_trial": 7, "dateTime": 1693396194662, "trialdata": {"rt": 3673, "response": {"Q0": "No"}, "question_order": [0], "trial_id": "repeat_check", "trial_type": "survey-multi-choice", "trial_index": 7, "time_elapsed": 245641, "internal_node_id": "0.0-4.0-0.0"}}, {"uniqueid": "w76774497:a80637348", "current_trial": 8, "dateTime": 1693396197586, "trialdata": {"rt": 2921, "stimulus": "\n<h1> Get ready to start the game! </h1>\n\nThank you for reading the instructions. Get ready start with the 40 rounds of this game.\n<br><br>\nIf you need to take a break, feel free to take one after the end of a round, before continuing to the next one.\n<br><br>\nRemember, the more money the spider gets, the bigger your bonus will be!\n<br><br>\n<div style='text-align: center;'>Press <code>space</code> to begin.</div>\n\n<br><br>\n(If, at any point, the <code>space</code> key does not take you to the next page, click once on the text and try again.)", "response": " ", "trial_id": "mdp_ready", "trial_type": "html-keyboard-response", "trial_index": 8, "time_elapsed": 248565, "internal_node_id": "0.0-6.0-0.0"}}, {"uniqueid": "w76774497:a80637348", "current_trial": 9, "dateTime": 1693396216796, "trialdata": {"revealed_states": [], "clicked_states": ["5", "16", "20"], "num_clicks_accrued": [0, 0, 0, 0, 0, 0, 0, 0, 0, 0, 0, 0, 0], "stateRewards": ["", -1, -2, 8, -6, -79, -6, 87, 9, -5, -66, -38, 2, 2, 5, -6, -82, 74, 85, -8, 67, -30, -15, 1, -2, -2, -2, 87, 64, 49, 7, 2, -38, -9], "withholdReward": false, "trial_id": "mdp_trial_1", "block": "test", "trialIndex": 2, "score": 61.55, "costs": -6.449999999999999, "simulationMode": [null, null, null, null, null], "rewards": [2, 2, 5, -8, 67], "path": ["0", "0", "12", "13", "14", "19", "20"], "rt": [12039, 24, 303, 126, 66], "actions": ["right", "right", "right", "down", "right"], "actionTimes": [14189, 14741, 15563, 16216, 16810], "queries": {"click": {"state": {"target": ["5", "16", "20"], "time": [2909, 6911, 10310]}, "edge": {"target": [], "time": []}}, "mouseover": {"state": {"target": ["1", "2", "4", "5", "16", "16", "16", "18", "20", "23", "1", "18", "14", "19", "22", "22"], "time": [2468, 2521, 2588, 2753, 3223, 5519, 6335, 7161, 10212, 10651, 11022, 11224, 11392, 13453, 13523, 13742]}, "edge": {"target": [], "time": []}}, "mouseout": {"state": {"target": ["21", "0", "1", "2", "4", "5", "16", "16", "16", "18", "20", "23", "1", "18", "14", "20", "19", "22", "22", "22"], "time": [614, 1211, 2496, 2556, 2683, 3153, 3254, 5898, 7126, 7198, 10405, 10684, 11055, 11291, 11453, 13168, 13470, 13598, 14412, 18348]}, "edge": {"target": [], "time": []}}}, "displayed_time": "17.32", "trialTime": 18941, "trial_type": "mouselab-mdp", "trial_index": 9, "time_elapsed": 267775, "internal_node_id": "0.0-6.0-1.0-0.0"}}, {"uniqueid": "w76774497:a80637348", "current_trial": 10, "dateTime": 1693396234286, "trialdata": {"revealed_states": [], "clicked_states": ["5", "29"], "num_clicks_accrued": [0, 0, 0, 0, 0, 0, 0, 0, 0, 0, 0, 0, 0], "stateRewards": ["", 2, -1, -1, 7, 11, -40, -22, -2, 69, 37, 8, -2, 4, -8, -12, -2, -72, -3, -12, 17, 63, 12, 1, 3, -7, 6, 25, 61, 61, -9, 28, -17, 27], "withholdReward": false, "trial_id": "mdp_trial_2", "block": "test", "trialIndex": 3, "score": 59.7, "costs": -4.3, "simulationMode": [null, null, null, null, null], "rewards": [1, 3, -7, 6, 61], "path": ["0", "0", "23", "24", "25", "26", "29"], "rt": [7778, 145, 242, 41, 127], "actions": ["left", "left", "left", "up", "left"], "actionTimes": [9052, 9726, 10474, 11037, 11688], "queries": {"click": {"state": {"target": ["5", "29"], "time": [2116, 5625]}, "edge": {"target": [], "time": []}}, "mouseover": {"state": {"target": ["6", "5", "2", "24", "26", "29", "10", "2", "7", "3", "9"], "time": [1820, 1984, 2374, 2834, 3542, 3730, 5962, 5996, 6034, 6220, 6291]}, "edge": {"target": [], "time": []}}, "mouseout": {"state": {"target": ["22", "12", "12", "12", "6", "5", "2", "24", "26", "29", "10", "2", "7", "3", "9", "8", "10"], "time": [474, 578, 806, 1029, 1863, 2304, 2407, 2999, 3607, 5855, 5994, 6033, 6153, 6254, 13242, 16429, 16506]}, "edge": {"target": [], "time": []}}}, "displayed_time": "15.85", "trialTime": 17236, "trial_type": "mouselab-mdp", "trial_index": 10, "time_elapsed": 285265, "internal_node_id": "0.0-6.0-1.0-1.0"}}, {"uniqueid": "w76774497:a80637348", "current_trial": 11, "dateTime": 1693396253628, "trialdata": {"revealed_states": [], "clicked_states": ["5", "17", "21"], "num_clicks_accrued": [0, 0, 0, 0, 0, 0, 0, 0, 0, 0, 0, 0, 0], "stateRewards": ["", -2, 1, -5, 2, -68, 80, 33, 10, 67, -59, 20, -1, -3, 3, 14, 74, -2, 24, -16, 63, 80, 46, -1, 4, 6, 12, 83, -38, -43, -4, 43, 14, -79], "withholdReward": false, "trial_id": "mdp_trial_3", "block": "test", "trialIndex": 4, "score": 56.55, "costs": -6.449999999999999, "simulationMode": [null, null, null, null, null], "rewards": [-1, -3, 3, -16, 80], "path": ["0", "0", "12", "13", "14", "19", "21"], "rt": [11524, 94, 382, 189, 60], "actions": ["right", "right", "right", "down", "down"], "actionTimes": [14624, 15250, 16143, 16860, 17431], "queries": {"click": {"state": {"target": ["5", "17", "21"], "time": [3718, 7052, 11142]}, "edge": {"target": [], "time": []}}, "mouseover": {"state": {"target": ["1", "2", "3", "5", "4", "7", "7", "15", "17", "15", "12", "13", "15", "16", "15", "14", "19", "21", "21"], "time": [3305, 3365, 3434, 3516, 3973, 4011, 4622, 4795, 4924, 7320, 10221, 10279, 10394, 10547, 10756, 10791, 10824, 10861, 11019]}, "edge": {"target": [], "time": []}}, "mouseout": {"state": {"target": ["23", "1", "1", "2", "1", "2", "3", "5", "4", "7", "7", "15", "17", "15", "12", "13", "15", "16", "15", "14", "19", "21", "21", "26", "24"], "time": [438, 582, 1312, 1355, 3347, 3399, 3468, 3937, 4010, 4079, 4655, 4892, 7319, 7353, 10249, 10339, 10492, 10735, 10789, 10822, 10859, 10891, 11355, 18234, 18345]}, "edge": {"target": [], "time": []}}}, "displayed_time": "18.03", "trialTime": 19087, "trial_type": "mouselab-mdp", "trial_index": 11, "time_elapsed": 304607, "internal_node_id": "0.0-6.0-1.0-2.0"}}, {"uniqueid": "w76774497:a80637348", "current_trial": 12, "dateTime": 1693396276592, "trialdata": {"revealed_states": [], "clicked_states": ["5", "16", "20", "32", "29"], "num_clicks_accrued": [0, 0, 0, 0, 0, 0, 0, 0, 0, 0, 0, 0, 0], "stateRewards": ["", 1, -1, 4, -2, -75, -75, 84, -9, -60, -79, 59, 2, -4, 8, 9, -17, -82, 80, 14, -4, 49, 49, -1, 3, 6, -11, -33, 34, 55, 9, -57, 5, 59], "withholdReward": false, "trial_id": "mdp_trial_4", "block": "test", "trialIndex": 5, "score": 41.25, "costs": -10.75, "simulationMode": [null, null, null, null, null], "rewards": [-1, 3, 6, -11, 55], "path": ["0", "0", "23", "24", "25", "26", "29"], "rt": [17025, 94, 166, 31, 95], "actions": ["left", "left", "left", "up", "left"], "actionTimes": [18264, 18866, 19559, 20105, 20708], "queries": {"click": {"state": {"target": ["5", "16", "20", "32", "29"], "time": [1848, 5253, 8416, 11542, 14999]}, "edge": {"target": [], "time": []}}, "mouseover": {"state": {"target": ["1", "7", "4", "5", "23", "6", "16", "15", "14", "20", "20", "21", "32", "33", "29", "26", "11"], "time": [1406, 1536, 1594, 1676, 2444, 3547, 3711, 5415, 5453, 5897, 6075, 8838, 9539, 14723, 14896, 17129, 17471]}, "edge": {"target": [], "time": []}}, "mouseout": {"state": {"target": ["23", "0", "1", "7", "4", "5", "23", "6", "16", "15", "14", "20", "20", "21", "32", "33", "29", "26"], "time": [848, 1349, 1455, 1565, 1634, 2006, 2479, 3581, 5380, 5452, 5486, 5928, 8770, 8912, 14687, 14745, 15159, 17164]}, "edge": {"target": [], "time": []}}}, "displayed_time": "21.22", "trialTime": 22708, "trial_type": "mouselab-mdp", "trial_index": 12, "time_elapsed": 327571, "internal_node_id": "0.0-6.0-1.0-3.0"}}, {"uniqueid": "w76774497:a80637348", "current_trial": 13, "dateTime": 1693396294716, "trialdata": {"revealed_states": [], "clicked_states": ["5"], "num_clicks_accrued": [0, 0, 0, 0, 0, 0, 0, 0, 0, 0, 0, 0, 0], "stateRewards": ["", -1, 1, 6, -6, 70, 66, 67, -16, -75, -35, 37, -1, 4, 4, -6, 47, -9, 63, 15, 21, -63, 13, 1, 3, -6, 10, 79, -29, 18, -15, 9, -67, -19], "withholdReward": false, "trial_id": "mdp_trial_5", "block": "test", "trialIndex": 6, "score": 67.85, "costs": -2.15, "simulationMode": [null, null, null, null, null], "rewards": [-1, 1, 6, -6, 70], "path": ["0", "0", "1", "2", "3", "4", "5"], "rt": [4396, 24, 176, 123, 99], "actions": ["up", "up", "up", "right", "up"], "actionTimes": [6183, 6715, 7404, 8050, 8674], "queries": {"click": {"state": {"target": ["5"], "time": [2571]}, "edge": {"target": [], "time": []}}, "mouseover": {"state": {"target": ["1", "2", "5"], "time": [1930, 1984, 2431]}, "edge": {"target": [], "time": []}}, "mouseout": {"state": {"target": ["11", "10", "1", "0", "1", "2", "5", "16", "15", "22"], "time": [1222, 1257, 1299, 1857, 1959, 2019, 2846, 9770, 9805, 9847]}, "edge": {"target": [], "time": []}}}, "displayed_time": "16.43", "trialTime": 17853, "trial_type": "mouselab-mdp", "trial_index": 13, "time_elapsed": 345695, "internal_node_id": "0.0-6.0-1.0-4.0"}}, {"uniqueid": "w76774497:a80637348", "current_trial": 14, "dateTime": 1693396311989, "trialdata": {"revealed_states": [], "clicked_states": ["5", "9", "16"], "num_clicks_accrued": [0, 0, 0, 0, 0, 0, 0, 0, 0, 0, 0, 0, 0], "stateRewards": ["", -1, -2, -8, 8, -27, -82, 19, -14, -62, 4, 1, -2, 2, 6, 10, 73, -51, -2, 2, 73, -48, 54, -1, 2, -4, 11, -25, 47, 86, 15, 33, 43, -42], "withholdReward": false, "trial_id": "mdp_trial_6", "block": "test", "trialIndex": 7, "score": 82.55, "costs": -6.449999999999999, "simulationMode": [null, null, null, null, null], "rewards": [-2, 2, 6, 10, 73], "path": ["0", "0", "12", "13", "14", "15", "16"], "rt": [10289, 236, 131, 128, 44], "actions": ["right", "right", "right", "up", "up"], "actionTimes": [12073, 12821, 13480, 14131, 14707], "queries": {"click": {"state": {"target": ["5", "9", "16"], "time": [2388, 5594, 8720]}, "edge": {"target": [], "time": []}}, "mouseover": {"state": {"target": ["1", "4", "5", "4", "18", "13", "7", "9", "1", "12", "15", "16", "15", "17"], "time": [1904, 1965, 2228, 2552, 2624, 2688, 3181, 3648, 5869, 5912, 6286, 6554, 10272, 10481]}, "edge": {"target": [], "time": []}}, "mouseout": {"state": {"target": ["0", "1", "4", "5", "4", "18", "13", "7", "9", "1", "12", "15", "16", "15", "17", "14", "19"], "time": [901, 1920, 1991, 2550, 2586, 2659, 2747, 3277, 5835, 5910, 6152, 6406, 9128, 10341, 15553, 15622, 15928]}, "edge": {"target": [], "time": []}}}, "displayed_time": "16.70", "trialTime": 17010, "trial_type": "mouselab-mdp", "trial_index": 14, "time_elapsed": 362968, "internal_node_id": "0.0-6.0-1.0-5.0"}}, {"uniqueid": "w76774497:a80637348", "current_trial": 15, "dateTime": 1693396328805, "trialdata": {"revealed_states": [], "clicked_states": ["5", "16"], "num_clicks_accrued": [0, 0, 0, 0, 0, 0, 0, 0, 0, 0, 0, 0, 0], "stateRewards": ["", -1, -4, -3, 1, -45, -67, -24, 14, 32, 22, 22, -1, 1, -5, -7, 72, 84, -79, -5, 19, -40, -2, -1, -2, 8, -3, 84, -25, -28, 11, 64, -66, 77], "withholdReward": false, "trial_id": "mdp_trial_7", "block": "test", "trialIndex": 8, "score": 55.7, "costs": -4.3, "simulationMode": [null, null, null, null, null], "rewards": [-1, 1, -5, -7, 72], "path": ["0", "0", "12", "13", "14", "15", "16"], "rt": [7701, 59, 25, 154, 53], "actions": ["right", "right", "right", "up", "up"], "actionTimes": [8555, 9127, 9685, 10361, 10923], "queries": {"click": {"state": {"target": ["5", "16"], "time": [1585, 5030]}, "edge": {"target": [], "time": []}}, "mouseover": {"state": {"target": ["1", "7", "4", "5", "4", "0", "13", "15", "16", "20", "20"], "time": [1100, 1162, 1259, 1392, 1781, 1887, 2360, 2825, 4911, 5506, 5761]}, "edge": {"target": [], "time": []}}, "mouseout": {"state": {"target": ["0", "1", "7", "4", "5", "4", "0", "13", "15", "16", "20", "20", "21"], "time": [627, 1117, 1204, 1356, 1746, 1818, 2134, 2725, 2924, 5188, 5533, 12480, 12564]}, "edge": {"target": [], "time": []}}}, "displayed_time": "15.84", "trialTime": 16561, "trial_type": "mouselab-mdp", "trial_index": 15, "time_elapsed": 379784, "internal_node_id": "0.0-6.0-1.0-6.0"}}, {"uniqueid": "w76774497:a80637348", "current_trial": 16, "dateTime": 1693396367963, "trialdata": {"revealed_states": [], "clicked_states": ["5", "9", "17", "21", "32", "29", "33", "11", "27"], "num_clicks_accrued": [0, 0, 0, 0, 0, 0, 0, 0, 0, 0, 0, 0, 0], "stateRewards": ["", -2, -3, 1, -14, 48, -49, 67, -1, -35, -48, 3, -2, 1, -4, -5, 86, -84, 39, 1, 48, 41, -42, -1, -4, 2, -7, 18, -86, 17, 7, -9, 57, -69], "withholdReward": false, "trial_id": "mdp_trial_8", "block": "test", "trialIndex": 9, "score": 41.650000000000006, "costs": -19.349999999999998, "simulationMode": [null, null, null, null, null], "rewards": [-1, -4, 2, 7, 57], "path": ["0", "0", "23", "24", "25", "30", "32"], "rt": [32914, 158, 203, 91, 160], "actions": ["left", "left", "left", "down", "down"], "actionTimes": [35136, 35824, 36552, 37178, 37870], "queries": {"click": {"state": {"target": ["5", "9", "17", "21", "32", "29", "33", "11", "27"], "time": [2843, 6587, 9962, 13388, 17497, 21152, 24777, 28645, 31833]}, "edge": {"target": [], "time": []}}, "mouseover": {"state": {"target": ["7", "6", "6", "5", "4", "7", "18", "17", "15", "7", "8", "9", "3", "15", "15", "10", "11", "27", "10", "17", "12", "23", "29", "27", "3", "4", "5", "20", "21", "24", "23", "31", "32", "33", "29", "33", "32", "11", "25", "26", "27", "26", "25"], "time": [2335, 2387, 2550, 2723, 3041, 3117, 3570, 3813, 6130, 6168, 6206, 6431, 6817, 6924, 7050, 7161, 7456, 7977, 9004, 9709, 10236, 10272, 10341, 10547, 10619, 10656, 10835, 11832, 11999, 14002, 14071, 17041, 17332, 19629, 20936, 24665, 24997, 28574, 28970, 29730, 29860, 32130, 32202]}, "edge": {"target": [], "time": []}}, "mouseout": {"state": {"target": ["0", "1", "7", "4", "5", "4", "0", "7", "6", "6", "5", "4", "7", "18", "17", "15", "7", "8", "9", "9", "3", "15", "15", "10", "11", "27", "10", "17", "17", "12", "23", "29", "27", "3", "4", "5", "20", "21", "24", "23", "31", "32", "33", "29", "32", "32", "32", "33", "32", "11", "25", "26", "27", "26", "25", "31"], "time": [403, 522, 841, 889, 1099, 1577, 1973, 2353, 2420, 2567, 3039, 3075, 3536, 3607, 6111, 6167, 6204, 6242, 6658, 6781, 6853, 6957, 7086, 7198, 7617, 8933, 9038, 10035, 10161, 10270, 10305, 10414, 10582, 10655, 10688, 11035, 11930, 13716, 14036, 14767, 17215, 17540, 20332, 21367, 21985, 22286, 24576, 24962, 25032, 28866, 29035, 29797, 32097, 32201, 37830, 37931]}, "edge": {"target": [], "time": []}}}, "displayed_time": "38.40", "trialTime": 38900, "trial_type": "mouselab-mdp", "trial_index": 16, "time_elapsed": 418942, "internal_node_id": "0.0-6.0-1.0-7.0"}}, {"uniqueid": "w76774497:a80637348", "current_trial": 17, "dateTime": 1693396389294, "trialdata": {"revealed_states": [], "clicked_states": ["5", "16", "9", "6"], "num_clicks_accrued": [0, 0, 0, 0, 0, 0, 0, 0, 0, 0, 0, 0, 0], "stateRewards": ["", 1, 4, -4, 14, 35, 51, 19, -13, 54, 78, -74, -2, -1, -3, 13, -11, -42, -73, -15, -24, -3, -69, 2, -1, 5, 16, -27, 73, 58, 9, -60, 5, -60], "withholdReward": false, "trial_id": "mdp_trial_9", "block": "test", "trialIndex": 10, "score": 33.4, "costs": -8.6, "simulationMode": [null, null, null, null, null], "rewards": [1, 4, -4, -13, 54], "path": ["0", "0", "1", "2", "3", "8", "9"], "rt": [15568, 25, 24, 280, 23], "actions": ["up", "up", "up", "left", "up"], "actionTimes": [17516, 18068, 18604, 19402, 19933], "queries": {"click": {"state": {"target": ["5", "16", "9", "6"], "time": [2639, 6068, 9623, 14026]}, "edge": {"target": [], "time": []}}, "mouseover": {"state": {"target": ["1", "2", "3", "5", "3", "27", "1", "16", "16", "15", "14", "1", "10", "1", "14", "20", "14", "9", "11", "27", "4", "6", "2", "10", "2"], "time": [2235, 2290, 2330, 2499, 2844, 3503, 4556, 4996, 5459, 6256, 6294, 6696, 6764, 7877, 8121, 8569, 9198, 9572, 9935, 10037, 10377, 10584, 14374, 14415, 14662]}, "edge": {"target": [], "time": []}}, "mouseout": {"state": {"target": ["23", "1", "1", "0", "1", "2", "3", "5", "3", "27", "1", "16", "16", "15", "14", "1", "10", "1", "14", "20", "14", "9", "11", "27", "4", "6", "2", "10", "2", "7"], "time": [464, 603, 1380, 2174, 2263, 2329, 2363, 2807, 2887, 3537, 4696, 5031, 6221, 6292, 6329, 6732, 7777, 7911, 8300, 9180, 9234, 9718, 9969, 10203, 10412, 14306, 14411, 14627, 14698, 20574]}, "edge": {"target": [], "time": []}}}, "displayed_time": "20.45", "trialTime": 21067, "trial_type": "mouselab-mdp", "trial_index": 17, "time_elapsed": 440273, "internal_node_id": "0.0-6.0-1.0-8.0"}}, {"uniqueid": "w76774497:a80637348", "current_trial": 18, "dateTime": 1693396415457, "trialdata": {"revealed_states": [], "clicked_states": ["16", "5", "29", "32", "20", "11"], "num_clicks_accrued": [0, 0, 0, 0, 0, 0, 0, 0, 0, 0, 0, 0, 0], "stateRewards": ["", 1, 2, 8, -2, 23, -69, -18, -16, 54, -21, 71, -1, -4, 7, 11, 43, -6, 88, 6, -55, 72, 43, 1, -3, -2, -1, 68, -31, -54, 4, -8, 25, -2], "withholdReward": false, "trial_id": "mdp_trial_10", "block": "test", "trialIndex": 11, "score": 53.1, "costs": -12.9, "simulationMode": [null, null, null, null, null], "rewards": [1, 2, 8, -16, 71], "path": ["0", "0", "1", "2", "3", "8", "11"], "rt": [20707, 156, 122, 108, 73], "actions": ["up", "up", "up", "left", "left"], "actionTimes": [22388, 23073, 23707, 24335, 24920], "queries": {"click": {"state": {"target": ["16", "5", "29", "32", "20", "11"], "time": [2474, 5767, 8943, 12110, 15336, 18833]}, "edge": {"target": [], "time": []}}, "mouseover": {"state": {"target": ["1", "16", "15", "16", "15", "14", "10", "3", "4", "5", "29", "1", "1", "23", "31", "32", "32", "21", "20", "21", "23", "28", "11", "8", "7", "8", "8", "9"], "time": [1886, 2067, 2173, 2393, 2664, 2733, 3107, 3509, 3545, 3880, 6943, 9608, 9958, 10203, 10280, 10353, 10730, 12780, 13352, 16903, 17593, 17628, 18772, 19023, 19433, 19805, 20038, 21230]}, "edge": {"target": [], "time": []}}, "mouseout": {"state": {"target": ["0", "1", "16", "15", "16", "15", "14", "10", "3", "4", "5", "29", "1", "1", "23", "31", "32", "32", "21", "20", "21", "23", "28", "11", "11", "8", "7", "8", "8", "9", "2"], "time": [809, 1941, 2150, 2202, 2662, 2698, 2831, 3181, 3544, 3579, 6091, 9043, 9738, 10169, 10244, 10317, 10528, 12437, 13242, 15633, 17301, 17627, 17664, 18931, 19021, 19057, 19503, 19899, 20067, 25557, 25696]}, "edge": {"target": [], "time": []}}}, "displayed_time": "25.43", "trialTime": 25904, "trial_type": "mouselab-mdp", "trial_index": 18, "time_elapsed": 466436, "internal_node_id": "0.0-6.0-1.0-9.0"}}, {"uniqueid": "w76774497:a80637348", "current_trial": 19, "dateTime": 1693396431466, "trialdata": {"revealed_states": [], "clicked_states": ["5"], "num_clicks_accrued": [0, 0, 0, 0, 0, 0, 0, 0, 0, 0, 0, 0, 0], "stateRewards": ["", 1, -1, 8, 4, 76, -33, -17, -3, -1, -54, -74, -2, 2, -5, 13, -51, 63, 83, 1, 84, 29, -36, 2, -1, 7, -12, -10, -44, -43, -14, 8, -69, 19], "withholdReward": false, "trial_id": "mdp_trial_11", "block": "test", "trialIndex": 12, "score": 85.85, "costs": -2.15, "simulationMode": [null, null, null, null, null], "rewards": [1, -1, 8, 4, 76], "path": ["0", "0", "1", "2", "3", "4", "5"], "rt": [4138, 24, 69, 1101, 50], "actions": ["up", "up", "up", "right", "up"], "actionTimes": [5165, 5703, 6291, 7923, 8484], "queries": {"click": {"state": {"target": ["5"], "time": [1709]}, "edge": {"target": [], "time": []}}, "mouseover": {"state": {"target": ["1", "2", "3", "5", "4", "15", "17", "15", "17"], "time": [1297, 1350, 1386, 1574, 1906, 1977, 2279, 2348, 3962]}, "edge": {"target": [], "time": []}}, "mouseout": {"state": {"target": ["1", "1", "0", "1", "2", "3", "5", "5", "4", "15", "17", "15", "17", "15", "13", "14", "20"], "time": [664, 762, 1034, 1325, 1384, 1422, 1781, 1905, 1939, 2013, 2312, 2383, 5039, 9373, 9684, 10039, 10122]}, "edge": {"target": [], "time": []}}}, "displayed_time": "15.54", "trialTime": 15751, "trial_type": "mouselab-mdp", "trial_index": 19, "time_elapsed": 482445, "internal_node_id": "0.0-6.0-1.0-10.0"}}, {"uniqueid": "w76774497:a80637348", "current_trial": 20, "dateTime": 1693396464550, "trialdata": {"revealed_states": [], "clicked_states": ["5", "17", "21", "33", "27", "9", "29", "32"], "num_clicks_accrued": [0, 0, 0, 0, 0, 0, 0, 0, 0, 0, 0, 0, 0], "stateRewards": ["", 2, 3, 6, -5, -74, -53, 17, -12, 46, 44, 18, -2, 4, 1, -8, 22, -23, -49, 9, -45, 55, 81, 1, -1, -7, -16, -83, -71, -45, 2, 51, 82, 61], "withholdReward": false, "trial_id": "mdp_trial_12", "block": "test", "trialIndex": 13, "score": 59.8, "costs": -17.2, "simulationMode": [null, null, null, null, null], "rewards": [1, -1, -7, 2, 82], "path": ["0", "0", "23", "24", "25", "30", "32"], "rt": [27269, 23, 231, 171, 25], "actions": ["left", "left", "left", "down", "down"], "actionTimes": [28923, 29473, 30221, 30900, 31455], "queries": {"click": {"state": {"target": ["5", "17", "21", "33", "27", "9", "29", "32"], "time": [2340, 5479, 8606, 12012, 15510, 18791, 22268, 25355]}, "edge": {"target": [], "time": []}}, "mouseover": {"state": {"target": ["6", "5", "17", "15", "22", "21", "33", "33", "32", "30", "25", "26", "27", "26", "8", "9", "11", "29", "33", "33", "29", "32"], "time": [1925, 2252, 3513, 5831, 6102, 6819, 9871, 10771, 14059, 15000, 15062, 15098, 15292, 17174, 17314, 17664, 19013, 19088, 19750, 20062, 22229, 23954]}, "edge": {"target": [], "time": []}}, "mouseout": {"state": {"target": ["17", "4", "7", "0", "6", "5", "17", "15", "22", "21", "33", "33", "33", "21", "21", "32", "30", "25", "26", "27", "33", "33", "33", "33", "26", "8", "9", "9", "11", "27", "29", "33", "33", "29", "29", "32"], "time": [1002, 1182, 1224, 1745, 1943, 2384, 5829, 5865, 6137, 8847, 10119, 12081, 12285, 12876, 13133, 14973, 15035, 15097, 15137, 15701, 16049, 16502, 16601, 16666, 17207, 17377, 18886, 18978, 19049, 19085, 19121, 19785, 20714, 22362, 22546, 26158]}, "edge": {"target": [], "time": []}}}, "displayed_time": "31.98", "trialTime": 32827, "trial_type": "mouselab-mdp", "trial_index": 20, "time_elapsed": 515529, "internal_node_id": "0.0-6.0-1.0-11.0"}}, {"uniqueid": "w76774497:a80637348", "current_trial": 21, "dateTime": 1693396499134, "trialdata": {"revealed_states": [], "clicked_states": ["5", "17", "21", "29", "11", "32", "33", "9", "27"], "num_clicks_accrued": [0, 0, 0, 0, 0, 0, 0, 0, 0, 0, 0, 0, 0], "stateRewards": ["", -1, -4, 8, 8, -68, 47, 24, -7, -61, 49, -69, -1, -1, 8, -7, 42, 1, -45, -11, 10, -63, -6, 1, 4, 6, -16, 79, -37, -58, -12, 81, 18, -53], "withholdReward": false, "trial_id": "mdp_trial_13", "block": "test", "trialIndex": 14, "score": 54.650000000000006, "costs": -19.349999999999998, "simulationMode": [null, null, null, null, null], "rewards": [1, 4, 6, -16, 79], "path": ["0", "0", "23", "24", "25", "26", "27"], "rt": [29843, 188, 211, 58, 49], "actions": ["left", "left", "left", "up", "up"], "actionTimes": [30445, 31142, 31884, 32465, 33020], "queries": {"click": {"state": {"target": ["5", "17", "21", "29", "11", "32", "33", "9", "27"], "time": [1375, 4706, 7833, 10949, 14114, 17224, 20507, 23943, 27070]}, "edge": {"target": [], "time": []}}, "mouseover": {"state": {"target": ["1", "3", "5", "4", "2", "1", "13", "14", "17", "14", "24", "14", "21", "31", "31", "29", "29", "27", "11", "27", "33", "30", "32", "33", "30", "28", "11", "9", "28", "26", "27"], "time": [988, 1041, 1134, 1578, 1614, 2037, 2863, 2929, 3459, 5036, 5346, 5554, 6413, 8246, 8307, 8952, 9796, 11726, 12250, 14358, 14663, 14702, 15429, 17966, 23609, 23661, 23698, 23767, 24209, 24445, 24512]}, "edge": {"target": [], "time": []}}, "mouseout": {"state": {"target": ["23", "0", "0", "1", "3", "5", "5", "4", "2", "1", "13", "14", "17", "14", "24", "14", "21", "31", "31", "29", "29", "27", "11", "27", "33", "30", "32", "32", "33", "32", "32", "30", "28", "11", "9", "28", "26", "27"], "time": [210, 285, 946, 1005, 1079, 1447, 1575, 1609, 1647, 2074, 2897, 3053, 5000, 5074, 5481, 5589, 8073, 8278, 8506, 9366, 11048, 11761, 14357, 14391, 14700, 14912, 17322, 17497, 20725, 21461, 23574, 23628, 23696, 23731, 24103, 24244, 24479, 28116]}, "edge": {"target": [], "time": []}}}, "displayed_time": "33.53", "trialTime": 34303, "trial_type": "mouselab-mdp", "trial_index": 21, "time_elapsed": 550113, "internal_node_id": "0.0-6.0-1.0-12.0"}}, {"uniqueid": "w76774497:a80637348", "current_trial": 22, "dateTime": 1693396516101, "trialdata": {"revealed_states": [], "clicked_states": ["5"], "num_clicks_accrued": [0, 0, 0, 0, 0, 0, 0, 0, 0, 0, 0, 0, 0], "stateRewards": ["", -2, 4, -3, -13, 63, -36, 62, 11, 78, 34, -51, 2, -2, 8, -6, -40, -18, 31, 9, 64, 39, 79, 1, 4, -4, 15, -12, 76, 73, -10, -77, 86, -4], "withholdReward": false, "trial_id": "mdp_trial_14", "block": "test", "trialIndex": 15, "score": 46.85, "costs": -2.15, "simulationMode": [null, null, null, null, null], "rewards": [-2, 4, -3, -13, 63], "path": ["0", "0", "1", "2", "3", "4", "5"], "rt": [3851, 73, 172, 50, 102], "actions": ["up", "up", "up", "right", "up"], "actionTimes": [5875, 6464, 7163, 7719, 8330], "queries": {"click": {"state": {"target": ["5"], "time": [2461]}, "edge": {"target": [], "time": []}}, "mouseover": {"state": {"target": ["7", "4", "5", "5", "3", "11", "8", "6", "16"], "time": [2107, 2127, 2163, 2420, 2748, 2853, 3168, 4864, 5176]}, "edge": {"target": [], "time": []}}, "mouseout": {"state": {"target": ["10", "2", "12", "7", "4", "5", "5", "3", "11", "8", "6"], "time": [1530, 1551, 1766, 2126, 2161, 2196, 2678, 2782, 3100, 3201, 4898]}, "edge": {"target": [], "time": []}}}, "displayed_time": "16.47", "trialTime": 16698, "trial_type": "mouselab-mdp", "trial_index": 22, "time_elapsed": 567079, "internal_node_id": "0.0-6.0-1.0-13.0"}}, {"uniqueid": "w76774497:a80637348", "current_trial": 23, "dateTime": 1693396563535, "trialdata": {"revealed_states": [], "clicked_states": ["5", "17", "32", "27", "9", "29", "16", "21", "20", "33", "11", "6"], "num_clicks_accrued": [0, 0, 0, 0, 0, 0, 0, 0, 0, 0, 0, 0, 0], "stateRewards": ["", -1, 1, 8, -3, -24, 11, -65, -6, -77, 48, 44, -2, 1, -2, -7, -55, -35, 33, 8, -28, 19, -53, -1, -1, -5, -5, -70, 10, 44, 8, -58, -70, 51], "withholdReward": false, "trial_id": "mdp_trial_15", "block": "test", "trialIndex": 16, "score": 26.200000000000003, "costs": -25.799999999999994, "simulationMode": [null, null, null, null, null], "rewards": [-1, -1, -5, 8, 51], "path": ["0", "0", "23", "24", "25", "30", "33"], "rt": [42163, 26, 246, 66, 48], "actions": ["left", "left", "left", "down", "left"], "actionTimes": [43490, 44025, 44791, 45368, 45942], "queries": {"click": {"state": {"target": ["5", "17", "32", "27", "9", "29", "16", "21", "20", "33", "11", "6"], "time": [1998, 5108, 8262, 11382, 14469, 17804, 21029, 24456, 28223, 31752, 36258, 39932]}, "edge": {"target": [], "time": []}}, "mouseover": {"state": {"target": ["4", "5", "18", "15", "17", "32", "27", "9", "26", "29", "17", "16", "28", "26", "10", "21", "31", "29", "26", "28", "13", "19", "20", "31", "29", "29", "33", "29", "29", "27", "11", "25", "24", "1", "7", "6", "7", "1", "33", "33"], "time": [1689, 1921, 2320, 2714, 2786, 6255, 9096, 12113, 15058, 17631, 18377, 18521, 21547, 21585, 22367, 24117, 25077, 25214, 25544, 25580, 25655, 25693, 25730, 28926, 29230, 29569, 31553, 32129, 32857, 35081, 35347, 36913, 39477, 39531, 39568, 39809, 40206, 40243, 40449, 43309]}, "edge": {"target": [], "time": []}}, "mouseout": {"state": {"target": ["16", "7", "0", "4", "5", "18", "15", "17", "32", "27", "9", "26", "29", "17", "16", "28", "26", "29", "10", "21", "31", "29", "26", "28", "13", "19", "20", "31", "21", "29", "29", "33", "29", "29", "27", "11", "25", "33", "24", "1", "7", "6", "7", "1", "33", "33", "30", "31"], "time": [543, 945, 1418, 1707, 2248, 2383, 2749, 5318, 8556, 11857, 14791, 17604, 18067, 18416, 21405, 21584, 21799, 22331, 22404, 24678, 25112, 25543, 25578, 25616, 25691, 25728, 28547, 28962, 29159, 29265, 31477, 32053, 32162, 32941, 35136, 36774, 36949, 39427, 39495, 39567, 39602, 40173, 40242, 40278, 40890, 46485, 46552, 46600]}, "edge": {"target": [], "time": []}}}, "displayed_time": "46.46", "trialTime": 47176, "trial_type": "mouselab-mdp", "trial_index": 23, "time_elapsed": 614514, "internal_node_id": "0.0-6.0-1.0-14.0"}}, {"uniqueid": "w76774497:a80637348", "current_trial": 24, "dateTime": 1693396591958, "trialdata": {"revealed_states": [], "clicked_states": ["5", "20", "29", "32", "16", "9", "33"], "num_clicks_accrued": [0, 0, 0, 0, 0, 0, 0, 0, 0, 0, 0, 0, 0], "stateRewards": ["", -2, 2, 3, -7, -31, -33, 29, -8, -57, 50, -83, -1, -1, 5, 13, -23, -62, 25, 5, -66, -85, 14, 1, -2, -1, 16, 71, 33, -19, -14, 5, -43, 79], "withholdReward": false, "trial_id": "mdp_trial_16", "block": "test", "trialIndex": 17, "score": 47.95, "costs": -15.05, "simulationMode": [null, null, null, null, null], "rewards": [1, -2, -1, -14, 79], "path": ["0", "0", "23", "24", "25", "30", "33"], "rt": [23660, 54, 112, 26, 145], "actions": ["left", "left", "left", "down", "left"], "actionTimes": [24291, 24876, 25515, 26074, 26769], "queries": {"click": {"state": {"target": ["5", "20", "29", "32", "16", "9", "33"], "time": [1352, 4490, 7867, 10982, 14085, 17279, 20666]}, "edge": {"target": [], "time": []}}, "mouseover": {"state": {"target": ["1", "7", "4", "5", "4", "2", "24", "1", "18", "15", "20", "28", "26", "29", "21", "21", "32", "32", "18", "16", "13", "27", "8", "9", "11", "27", "29", "33", "24", "29", "26", "25", "26", "27", "27"], "time": [751, 807, 959, 1133, 1545, 1581, 1727, 2512, 2587, 2661, 3269, 6159, 6195, 6266, 8334, 8702, 8997, 9139, 11549, 11789, 14462, 14932, 15380, 16541, 17529, 17565, 17603, 20496, 20925, 21632, 21801, 21905, 23434, 23498, 24248]}, "edge": {"target": [], "time": []}}, "mouseout": {"state": {"target": ["29", "26", "28", "0", "1", "7", "4", "5", "4", "2", "24", "1", "18", "15", "20", "20", "28", "26", "29", "21", "21", "32", "32", "18", "16", "16", "13", "27", "8", "9", "11", "27", "29", "33", "24", "29", "26", "25", "26", "27", "27", "1", "12"], "time": [77, 105, 278, 695, 769, 846, 976, 1544, 1579, 1618, 2443, 2551, 2623, 2726, 4588, 4741, 6193, 6229, 8194, 8458, 8857, 9027, 11410, 11582, 14183, 14390, 14498, 14965, 15508, 17494, 17565, 17601, 17638, 20739, 21265, 21665, 21833, 21940, 23465, 23810, 27304, 27553, 27602]}, "edge": {"target": [], "time": []}}}, "displayed_time": "27.31", "trialTime": 28132, "trial_type": "mouselab-mdp", "trial_index": 24, "time_elapsed": 642937, "internal_node_id": "0.0-6.0-1.0-15.0"}}, {"uniqueid": "w76774497:a80637348", "current_trial": 25, "dateTime": 1693396617196, "trialdata": {"revealed_states": [], "clicked_states": ["5", "17", "21", "33", "27", "29"], "num_clicks_accrued": [0, 0, 0, 0, 0, 0, 0, 0, 0, 0, 0, 0, 0], "stateRewards": ["", 1, 2, -6, -13, -51, 22, -4, -12, -44, -12, 6, -2, -2, -2, -14, -46, -4, -77, -2, 36, -79, 41, 2, -4, 2, -6, -55, 59, 70, -5, 39, -19, 24], "withholdReward": false, "trial_id": "mdp_trial_17", "block": "test", "trialIndex": 18, "score": 51.1, "costs": -12.9, "simulationMode": [null, null, null, null, null], "rewards": [2, -4, 2, -6, 70], "path": ["0", "0", "23", "24", "25", "26", "29"], "rt": [20521, 134, 275, 37, 78], "actions": ["left", "left", "left", "up", "left"], "actionTimes": [21075, 21720, 22501, 23066, 23657], "queries": {"click": {"state": {"target": ["5", "17", "21", "33", "27", "29"], "time": [1525, 4646, 7788, 10882, 14348, 17508]}, "edge": {"target": [], "time": []}}, "mouseover": {"state": {"target": ["1", "7", "6", "4", "5", "4", "13", "14", "17", "8", "3", "16", "17", "0", "23", "24", "28", "1", "20", "21", "33", "30", "29", "27", "29", "32"], "time": [719, 774, 843, 1066, 1289, 1745, 1964, 2037, 2385, 3551, 3586, 3660, 3956, 4975, 5012, 5049, 5275, 5414, 5897, 6445, 9111, 13934, 14044, 14238, 17391, 20744]}, "edge": {"target": [], "time": []}}, "mouseout": {"state": {"target": ["23", "0", "1", "7", "6", "4", "5", "4", "13", "14", "17", "8", "3", "16", "17", "0", "23", "24", "28", "1", "20", "21", "33", "30", "29", "27", "27", "29", "29", "32"], "time": [274, 343, 740, 809, 1024, 1095, 1710, 1781, 2000, 2069, 2689, 3585, 3623, 3697, 4867, 5010, 5046, 5083, 5375, 5452, 6375, 7976, 11173, 13951, 14079, 14592, 17018, 17607, 17783, 24174]}, "edge": {"target": [], "time": []}}}, "displayed_time": "24.18", "trialTime": 24953, "trial_type": "mouselab-mdp", "trial_index": 25, "time_elapsed": 668175, "internal_node_id": "0.0-6.0-1.0-16.0"}}, {"uniqueid": "w76774497:a80637348", "current_trial": 26, "dateTime": 1693396637743, "trialdata": {"revealed_states": [], "clicked_states": ["5", "17", "21", "32"], "num_clicks_accrued": [0, 0, 0, 0, 0, 0, 0, 0, 0, 0, 0, 0, 0], "stateRewards": ["", -1, -4, -1, -11, 43, 69, 39, 4, 17, -20, -82, -2, -1, 4, 8, -79, 24, -79, 11, 36, 64, 41, 2, 4, -1, 11, -79, -47, 75, -3, 63, -36, -19], "withholdReward": false, "trial_id": "mdp_trial_18", "block": "test", "trialIndex": 19, "score": 67.4, "costs": -8.6, "simulationMode": [null, null, null, null, null], "rewards": [-2, -1, 4, 11, 64], "path": ["0", "0", "12", "13", "14", "19", "21"], "rt": [14555, 237, 67, 25, 47], "actions": ["right", "right", "right", "down", "down"], "actionTimes": [15492, 16264, 16840, 17375, 17943], "queries": {"click": {"state": {"target": ["5", "17", "21", "32"], "time": [1826, 5310, 8553, 12251]}, "edge": {"target": [], "time": []}}, "mouseover": {"state": {"target": ["1", "2", "3", "5", "5", "17", "4", "18", "13", "28", "1", "20", "21", "0", "5", "5", "4", "1", "23", "31", "32"], "time": [1216, 1351, 1421, 1492, 1702, 5064, 5633, 6269, 6660, 6835, 6964, 8025, 8361, 8892, 9166, 9516, 9946, 10017, 10129, 10546, 10766]}, "edge": {"target": [], "time": []}}, "mouseout": {"state": {"target": ["31", "24", "1", "2", "3", "5", "5", "5", "17", "4", "5", "18", "13", "28", "1", "20", "21", "0", "5", "5", "4", "1", "23", "31", "32", "21"], "time": [292, 368, 1327, 1386, 1458, 1525, 1921, 3599, 5409, 5700, 6129, 6303, 6696, 6928, 7000, 8174, 8819, 8927, 9417, 9944, 9980, 10058, 10443, 10579, 12405, 19076]}, "edge": {"target": [], "time": []}}}, "displayed_time": "18.45", "trialTime": 20278, "trial_type": "mouselab-mdp", "trial_index": 26, "time_elapsed": 688722, "internal_node_id": "0.0-6.0-1.0-17.0"}}, {"uniqueid": "w76774497:a80637348", "current_trial": 27, "dateTime": 1693396660908, "trialdata": {"revealed_states": [], "clicked_states": ["5"], "num_clicks_accrued": [0, 0, 0, 0, 0, 0, 0, 0, 0, 0, 0, 0, 0], "stateRewards": ["", -2, 3, 3, -14, 62, 36, 49, 16, 11, 17, -84, 2, -1, 6, 2, -82, -73, 49, -6, -87, 48, 50, -1, -2, -1, -16, -11, 37, -44, 4, 55, 73, -10], "withholdReward": false, "trial_id": "mdp_trial_19", "block": "test", "trialIndex": 20, "score": 49.85, "costs": -2.15, "simulationMode": [null, null, null, null, null], "rewards": [-2, 3, 3, -14, 62], "path": ["0", "0", "1", "2", "3", "4", "5"], "rt": [4231, 97, 88, 468, 28], "actions": ["up", "up", "up", "right", "up"], "actionTimes": [6035, 6645, 7256, 8256, 8811], "queries": {"click": {"state": {"target": ["5"], "time": [2467]}, "edge": {"target": [], "time": []}}, "mouseover": {"state": {"target": ["1", "5", "25", "28"], "time": [2029, 2342, 3463, 3721]}, "edge": {"target": [], "time": []}}, "mouseout": {"state": {"target": ["12", "0", "1", "5", "25", "28", "21", "22", "12", "7", "12"], "time": [3, 1973, 2047, 2633, 3562, 4081, 9514, 13219, 13618, 13709, 14354]}, "edge": {"target": [], "time": []}}}, "displayed_time": "16.47", "trialTime": 22854, "trial_type": "mouselab-mdp", "trial_index": 27, "time_elapsed": 711886, "internal_node_id": "0.0-6.0-1.0-18.0"}}, {"uniqueid": "w76774497:a80637348", "current_trial": 28, "dateTime": 1693396686906, "trialdata": {"revealed_states": [], "clicked_states": ["5", "20", "32", "29", "9"], "num_clicks_accrued": [0, 0, 0, 0, 0, 0, 0, 0, 0, 0, 0, 0, 0], "stateRewards": ["", -1, 2, -7, -12, -62, 12, -13, 5, 77, -71, 83, 1, -4, 7, 15, -42, -87, -4, 5, -25, 44, 88, -1, 4, -5, -8, 14, 51, 8, -5, 83, -24, -19], "withholdReward": false, "trial_id": "mdp_trial_20", "block": "test", "trialIndex": 21, "score": 65.25, "costs": -10.75, "simulationMode": [null, null, null, null, null], "rewards": [-1, 2, -7, 5, 77], "path": ["0", "0", "1", "2", "3", "8", "9"], "rt": [17081, 52, 110, 583, 93], "actions": ["up", "up", "up", "left", "up"], "actionTimes": [21376, 21938, 22576, 23689, 24290], "queries": {"click": {"state": {"target": ["5", "20", "32", "29", "9"], "time": [4909, 8010, 11121, 14424, 17576]}, "edge": {"target": [], "time": []}}, "mouseover": {"state": {"target": ["1", "7", "4", "5", "18", "14", "20", "32", "23", "29", "29", "2", "7", "11", "9", "11", "27"], "time": [4378, 4448, 4501, 4815, 5444, 5765, 6016, 9031, 11903, 11975, 12206, 14790, 14829, 15226, 15511, 17904, 19547]}, "edge": {"target": [], "time": []}}, "mouseout": {"state": {"target": ["21", "21", "0", "1", "7", "4", "5", "18", "14", "20", "20", "32", "23", "29", "29", "2", "7", "11", "9", "11", "27", "28", "0", "12"], "time": [3281, 3481, 3898, 4396, 4465, 4752, 5105, 5479, 5835, 8110, 8259, 11455, 11938, 12039, 14686, 14826, 14863, 15265, 17699, 17939, 25118, 25167, 25229, 25333]}, "edge": {"target": [], "time": []}}}, "displayed_time": "24.82", "trialTime": 25732, "trial_type": "mouselab-mdp", "trial_index": 28, "time_elapsed": 737884, "internal_node_id": "0.0-6.0-1.0-19.0"}}, {"uniqueid": "w76774497:a80637348", "current_trial": 29, "dateTime": 1693396735373, "trialdata": {"revealed_states": [], "clicked_states": ["5", "17", "21", "32", "27", "33", "29", "11", "9", "6", "16", "20"], "num_clicks_accrued": [0, 0, 0, 0, 0, 0, 0, 0, 0, 0, 0, 0, 0], "stateRewards": ["", -2, 1, -3, -16, -39, -52, 30, -7, -41, -59, 11, 2, 1, 8, 2, -11, -26, -42, -13, 87, -59, -48, -1, -1, -1, 16, -79, 31, 50, -1, -84, 34, -82], "withholdReward": false, "trial_id": "mdp_trial_21", "block": "test", "trialIndex": 22, "score": 59.2, "costs": -25.799999999999994, "simulationMode": [null, null, null, null, null], "rewards": [2, 1, 8, -13, 87], "path": ["0", "0", "12", "13", "14", "19", "20"], "rt": [43039, 202, 26, 24, 150], "actions": ["right", "right", "right", "down", "right"], "actionTimes": [44070, 44789, 45328, 45874, 46538], "queries": {"click": {"state": {"target": ["5", "17", "21", "32", "27", "33", "29", "11", "9", "6", "16", "20"], "time": [1696, 5851, 9093, 12566, 15794, 19672, 22886, 26501, 29762, 33222, 36771, 40208]}, "edge": {"target": [], "time": []}}, "mouseover": {"state": {"target": ["1", "5", "4", "1", "7", "17", "13", "12", "12", "13", "20", "21", "25", "0", "32", "32", "2", "10", "27", "27", "24", "30", "33", "33", "30", "32", "32", "29", "30", "32", "32", "30", "11", "27", "9", "8", "15", "4", "28", "26", "29", "26", "2", "6", "6", "7", "25", "29", "29", "28", "16", "16", "26", "28", "12", "13", "20", "0", "29", "29", "29", "26", "1", "13", "14"], "time": [1261, 1372, 1892, 2034, 5045, 5656, 6194, 6230, 6643, 6714, 8537, 8752, 9592, 11400, 12051, 12525, 14629, 14758, 14865, 14996, 16278, 18904, 19410, 19606, 19861, 20464, 20726, 22370, 23251, 23875, 24108, 26139, 26278, 26760, 29556, 30036, 30181, 30525, 30707, 30742, 31629, 32653, 32750, 32820, 33139, 33469, 33542, 33952, 34415, 36332, 36409, 36749, 39776, 39832, 39908, 39939, 40008, 40403, 40624, 41102, 41217, 43023, 43179, 43325, 43575]}, "edge": {"target": [], "time": []}}, "mouseout": {"state": {"target": ["0", "1", "5", "4", "1", "7", "17", "17", "13", "12", "12", "13", "20", "21", "25", "0", "32", "32", "2", "10", "27", "27", "24", "32", "30", "33", "33", "30", "32", "32", "33", "29", "29", "30", "32", "32", "30", "11", "27", "29", "29", "29", "29", "29", "11", "9", "8", "15", "4", "28", "26", "29", "26", "2", "6", "6", "6", "7", "25", "29", "29", "28", "16", "16", "26", "28", "12", "13", "20", "0", "29", "29", "29", "26", "1", "13", "14", "22"], "time": [176, 1282, 1854, 1928, 5017, 5072, 5857, 6122, 6229, 6302, 6677, 7784, 8572, 9349, 9627, 11498, 12238, 12777, 14664, 14829, 14901, 15889, 16313, 16909, 18923, 19481, 19828, 19897, 20496, 20754, 22230, 22984, 23215, 23286, 23992, 24222, 26168, 26724, 26796, 26982, 27226, 27686, 27892, 29025, 29299, 30001, 30074, 30215, 30564, 30741, 30775, 32591, 32680, 32770, 32854, 33320, 33435, 33505, 33583, 34328, 36305, 36359, 36431, 37079, 39804, 39867, 39937, 39972, 40369, 40439, 41040, 41134, 41359, 43061, 43207, 43408, 47282, 47331]}, "edge": {"target": [], "time": []}}}, "displayed_time": "47.05", "trialTime": 48183, "trial_type": "mouselab-mdp", "trial_index": 29, "time_elapsed": 786352, "internal_node_id": "0.0-6.0-1.0-20.0"}}, {"uniqueid": "w76774497:a80637348", "current_trial": 30, "dateTime": 1693396751606, "trialdata": {"revealed_states": [], "clicked_states": ["5"], "num_clicks_accrued": [0, 0, 0, 0, 0, 0, 0, 0, 0, 0, 0, 0, 0], "stateRewards": ["", 2, 3, -3, 4, 72, -28, 34, -12, 57, -64, -15, 2, 1, -4, -15, 2, 49, 31, -1, -42, -58, 31, -2, 1, -2, -13, -75, -19, -22, -6, 61, 10, -56], "withholdReward": false, "trial_id": "mdp_trial_22", "block": "test", "trialIndex": 23, "score": 75.85, "costs": -2.15, "simulationMode": [null, null, null, null, null], "rewards": [2, 3, -3, 4, 72], "path": ["0", "0", "1", "2", "3", "4", "5"], "rt": [4004, 54, 93, 132, 58], "actions": ["up", "up", "up", "right", "up"], "actionTimes": [4718, 5285, 5911, 6577, 7147], "queries": {"click": {"state": {"target": ["5"], "time": [1225]}, "edge": {"target": [], "time": []}}, "mouseover": {"state": {"target": ["3", "5", "3", "25", "24", "0", "18", "15"], "time": [975, 1134, 1428, 1498, 1958, 2030, 3539, 3608]}, "edge": {"target": [], "time": []}}, "mouseout": {"state": {"target": ["1", "1", "3", "5", "3", "25", "24", "0", "18", "15", "18", "13", "22"], "time": [251, 348, 1050, 1427, 1461, 1536, 1993, 2926, 3574, 4474, 7778, 12743, 14424]}, "edge": {"target": [], "time": []}}}, "displayed_time": "15.32", "trialTime": 15934, "trial_type": "mouselab-mdp", "trial_index": 30, "time_elapsed": 802585, "internal_node_id": "0.0-6.0-1.0-21.0"}}, {"uniqueid": "w76774497:a80637348", "current_trial": 31, "dateTime": 1693396777610, "trialdata": {"revealed_states": [], "clicked_states": ["5", "17", "21", "32", "9", "27"], "num_clicks_accrued": [0, 0, 0, 0, 0, 0, 0, 0, 0, 0, 0, 0, 0], "stateRewards": ["", -1, 2, -6, 6, 43, 78, 78, -2, 55, -29, -17, -2, -4, 1, -15, 13, 7, -79, 8, -28, -68, 36, -1, -3, 3, -16, 84, -18, 87, 10, 32, 13, -81], "withholdReward": false, "trial_id": "mdp_trial_23", "block": "test", "trialIndex": 24, "score": 54.1, "costs": -12.9, "simulationMode": [null, null, null, null, null], "rewards": [-1, -3, 3, -16, 84], "path": ["0", "0", "23", "24", "25", "26", "27"], "rt": [21077, 151, 147, 111, 25], "actions": ["left", "left", "left", "up", "up"], "actionTimes": [21895, 22565, 23246, 23892, 24425], "queries": {"click": {"state": {"target": ["5", "17", "21", "32", "9", "27"], "time": [1369, 4649, 7825, 11420, 14847, 18302]}, "edge": {"target": [], "time": []}}, "mouseover": {"state": {"target": ["7", "6", "5", "5", "6", "16", "17", "26", "21", "10", "7", "4", "5", "4", "23", "31", "32", "4", "5", "9", "11", "11", "27", "11", "29", "29"], "time": [916, 982, 1137, 1282, 2760, 2928, 3207, 4974, 6125, 8398, 8470, 8780, 8879, 10983, 11079, 11133, 11295, 11788, 11890, 14576, 15250, 16433, 17955, 21218, 21412, 21530]}, "edge": {"target": [], "time": []}}, "mouseout": {"state": {"target": ["0", "7", "7", "0", "7", "6", "5", "5", "5", "6", "16", "17", "17", "26", "5", "5", "5", "21", "10", "7", "4", "5", "4", "23", "31", "32", "4", "5", "9", "9", "11", "11", "27", "9", "9", "9", "9", "11", "27", "29", "29", "26", "28", "28"], "time": [359, 471, 553, 874, 945, 1016, 1179, 1466, 2402, 2858, 2962, 4747, 4864, 5008, 5497, 5737, 5863, 8041, 8433, 8536, 8812, 10955, 11009, 11098, 11184, 11516, 11855, 13691, 14945, 15215, 15285, 17836, 18509, 18649, 18884, 19070, 21156, 21260, 21308, 21429, 21773, 22461, 22907, 25578]}, "edge": {"target": [], "time": []}}}, "displayed_time": "24.94", "trialTime": 25734, "trial_type": "mouselab-mdp", "trial_index": 31, "time_elapsed": 828589, "internal_node_id": "0.0-6.0-1.0-22.0"}}, {"uniqueid": "w76774497:a80637348", "current_trial": 32, "dateTime": 1693396793514, "trialdata": {"revealed_states": [], "clicked_states": ["5", "9", "29"], "num_clicks_accrued": [0, 0, 0, 0, 0, 0, 0, 0, 0, 0, 0, 0, 0], "stateRewards": ["", -2, -1, -1, 5, -54, -87, 35, 2, -8, 20, -22, 1, 3, 6, 13, -75, -32, -55, -3, 56, 62, -22, -1, -4, -1, -7, -51, 84, 70, 7, -15, 5, 55], "withholdReward": false, "trial_id": "mdp_trial_24", "block": "test", "trialIndex": 25, "score": 50.55, "costs": -6.449999999999999, "simulationMode": [null, null, null, null, null], "rewards": [-1, -4, -1, -7, 70], "path": ["0", "0", "23", "24", "25", "26", "29"], "rt": [10487, 46, 75, 139, 174], "actions": ["left", "left", "left", "up", "left"], "actionTimes": [11121, 11696, 12292, 12962, 13648], "queries": {"click": {"state": {"target": ["5", "9", "29"], "time": [1473, 4710, 7787]}, "edge": {"target": [], "time": []}}, "mouseover": {"state": {"target": ["1", "3", "5", "10", "10", "9", "26", "29", "25", "26", "26", "33"], "time": [908, 1024, 1392, 1768, 3223, 3721, 5039, 5317, 8836, 9007, 9396, 9933]}, "edge": {"target": [], "time": []}}, "mouseout": {"state": {"target": ["0", "0", "0", "1", "3", "5", "10", "10", "9", "26", "29", "25", "29", "26", "29", "26"], "time": [3, 52, 851, 928, 1267, 1628, 1800, 3280, 4900, 5077, 8647, 8870, 9005, 9041, 9361, 9505]}, "edge": {"target": [], "time": []}}}, "displayed_time": "15.37", "trialTime": 15585, "trial_type": "mouselab-mdp", "trial_index": 32, "time_elapsed": 844493, "internal_node_id": "0.0-6.0-1.0-23.0"}}, {"uniqueid": "w76774497:a80637348", "current_trial": 33, "dateTime": 1693396809970, "trialdata": {"revealed_states": [], "clicked_states": ["5"], "num_clicks_accrued": [0, 0, 0, 0, 0, 0, 0, 0, 0, 0, 0, 0, 0], "stateRewards": ["", 1, 1, -3, 7, 49, 78, 26, -5, 26, 48, -43, -1, -3, 2, -5, 4, -1, -60, 10, -35, 51, 81, -2, 1, -7, -5, -39, -86, -54, 4, -3, 74, 77], "withholdReward": false, "trial_id": "mdp_trial_25", "block": "test", "trialIndex": 26, "score": 52.85, "costs": -2.15, "simulationMode": [null, null, null, null, null], "rewards": [1, 1, -3, 7, 49], "path": ["0", "0", "1", "2", "3", "4", "5"], "rt": [3893, 53, 84, 359, 50], "actions": ["up", "up", "up", "right", "up"], "actionTimes": [5194, 5758, 6356, 7246, 7829], "queries": {"click": {"state": {"target": ["5"], "time": [1887]}, "edge": {"target": [], "time": []}}, "mouseover": {"state": {"target": ["1", "4", "5", "4", "1", "16", "17"], "time": [1539, 1643, 1720, 2085, 2225, 3109, 3760]}, "edge": {"target": [], "time": []}}, "mouseout": {"state": {"target": ["33", "24", "1", "4", "5", "4", "1", "16", "17", "14", "22"], "time": [164, 297, 1561, 1671, 2084, 2120, 2516, 3177, 8407, 8463, 8538]}, "edge": {"target": [], "time": []}}}, "displayed_time": "15.85", "trialTime": 16190, "trial_type": "mouselab-mdp", "trial_index": 33, "time_elapsed": 860949, "internal_node_id": "0.0-6.0-1.0-24.0"}}, {"uniqueid": "w76774497:a80637348", "current_trial": 34, "dateTime": 1693396846189, "trialdata": {"revealed_states": [], "clicked_states": ["5", "17", "21", "32", "27", "29", "33", "11", "9"], "num_clicks_accrued": [0, 0, 0, 0, 0, 0, 0, 0, 0, 0, 0, 0, 0], "stateRewards": ["", -1, -2, -1, -10, -57, 73, -72, -16, 75, -14, -46, -2, -3, -7, -1, -61, -60, 76, -4, 50, 4, 14, 2, 2, -7, 12, -65, -32, 15, -8, -76, -25, -61], "withholdReward": false, "trial_id": "mdp_trial_26", "block": "test", "trialIndex": 27, "score": 35.650000000000006, "costs": -19.349999999999998, "simulationMode": [null, null, null, null, null], "rewards": [-1, -2, -1, -16, 75], "path": ["0", "0", "1", "2", "3", "8", "9"], "rt": [30263, 86, 406, 469, 169], "actions": ["up", "up", "up", "left", "up"], "actionTimes": [31383, 31984, 32920, 33922, 34599], "queries": {"click": {"state": {"target": ["5", "17", "21", "32", "27", "29", "33", "11", "9"], "time": [1699, 5593, 8841, 11968, 15118, 18292, 21501, 24709, 27830]}, "edge": {"target": [], "time": []}}, "mouseover": {"state": {"target": ["1", "2", "5", "5", "5", "17", "17", "20", "21", "32", "26", "27", "29", "33", "28", "11", "9", "3", "4", "6"], "time": [1251, 1306, 1383, 1509, 1635, 4939, 5185, 6391, 7567, 9631, 14109, 14322, 16628, 18932, 24146, 24346, 25187, 28174, 28211, 28347]}, "edge": {"target": [], "time": []}}, "mouseout": {"state": {"target": ["22", "12", "1", "1", "2", "5", "5", "5", "17", "17", "20", "21", "32", "26", "27", "27", "29", "33", "28", "11", "9", "9", "3", "4", "6", "7", "12"], "time": [474, 501, 530, 1279, 1346, 1416, 1525, 1798, 5085, 5834, 7243, 9171, 12065, 14144, 15242, 15390, 18677, 24042, 24182, 24715, 27955, 28139, 28210, 28245, 35310, 35443, 35518]}, "edge": {"target": [], "time": []}}}, "displayed_time": "35.13", "trialTime": 35950, "trial_type": "mouselab-mdp", "trial_index": 34, "time_elapsed": 897168, "internal_node_id": "0.0-6.0-1.0-25.0"}}, {"uniqueid": "w76774497:a80637348", "current_trial": 35, "dateTime": 1693396868563, "trialdata": {"revealed_states": [], "clicked_states": ["5", "9", "20", "16", "29"], "num_clicks_accrued": [0, 0, 0, 0, 0, 0, 0, 0, 0, 0, 0, 0, 0], "stateRewards": ["", -1, -1, 4, -16, -75, 81, -51, -7, -84, 73, -30, -2, 1, -3, -16, -77, 33, 14, 1, 45, 87, -66, 2, 2, -5, -7, -19, -17, 79, -3, 8, 49, 47], "withholdReward": false, "trial_id": "mdp_trial_27", "block": "test", "trialIndex": 28, "score": 60.25, "costs": -10.75, "simulationMode": [null, null, null, null, null], "rewards": [2, 2, -5, -7, 79], "path": ["0", "0", "23", "24", "25", "26", "29"], "rt": [17723, 193, 68, 50, 90], "actions": ["left", "left", "left", "up", "left"], "actionTimes": [18273, 18976, 19551, 20114, 20716], "queries": {"click": {"state": {"target": ["5", "9", "20", "16", "29"], "time": [1170, 4653, 7769, 11278, 14646]}, "edge": {"target": [], "time": []}}, "mouseover": {"state": {"target": ["7", "5", "4", "14", "14", "12", "13", "1", "2", "3", "4", "4", "9", "15", "14", "20", "21", "21", "19", "15", "16", "16", "19", "24", "25", "29", "20", "20", "20", "19", "31", "30", "33"], "time": [905, 982, 2075, 2250, 2656, 3095, 3245, 3714, 3750, 3787, 4127, 4252, 4593, 4952, 5314, 5853, 8934, 10414, 10689, 10793, 10844, 11146, 14053, 14327, 14410, 14507, 14980, 15137, 15486, 15582, 15688, 15914, 15989]}, "edge": {"target": [], "time": []}}, "mouseout": {"state": {"target": ["0", "7", "5", "4", "14", "14", "12", "13", "1", "2", "3", "4", "4", "9", "15", "14", "20", "20", "21", "21", "19", "15", "16", "16", "16", "20", "20", "19", "24", "25", "29", "20", "20", "20", "19", "31", "30", "33", "30"], "time": [225, 926, 1929, 2146, 2284, 2754, 3211, 3609, 3749, 3785, 3823, 4144, 4287, 4842, 4983, 5531, 7868, 8469, 8967, 10661, 10721, 10812, 10891, 11403, 11530, 11818, 14052, 14112, 14383, 14438, 14839, 15013, 15399, 15580, 15615, 15718, 15987, 21299, 21347]}, "edge": {"target": [], "time": []}}}, "displayed_time": "21.25", "trialTime": 22078, "trial_type": "mouselab-mdp", "trial_index": 35, "time_elapsed": 919542, "internal_node_id": "0.0-6.0-1.0-26.0"}}, {"uniqueid": "w76774497:a80637348", "current_trial": 36, "dateTime": 1693396890169, "trialdata": {"revealed_states": [], "clicked_states": ["5", "20", "9", "29", "33"], "num_clicks_accrued": [0, 0, 0, 0, 0, 0, 0, 0, 0, 0, 0, 0, 0], "stateRewards": ["", -2, 4, 3, 5, -61, 4, 30, 1, -47, 83, 10, 1, 4, 7, -14, 19, -74, -83, 6, -2, -2, -65, -1, -2, 4, -11, 12, -1, -68, 11, -38, -28, 66], "withholdReward": false, "trial_id": "mdp_trial_28", "block": "test", "trialIndex": 29, "score": 67.25, "costs": -10.75, "simulationMode": [null, null, null, null, null], "rewards": [-1, -2, 4, 11, 66], "path": ["0", "0", "23", "24", "25", "30", "33"], "rt": [16922, 132, 172, 49, 105], "actions": ["left", "left", "left", "down", "left"], "actionTimes": [17511, 18152, 18837, 19425, 20059], "queries": {"click": {"state": {"target": ["5", "20", "9", "29", "33"], "time": [1385, 4685, 7814, 10910, 14020]}, "edge": {"target": [], "time": []}}, "mouseover": {"state": {"target": ["1", "7", "3", "5", "4", "7", "13", "14", "20", "23", "27", "10", "11", "8", "9", "28", "29", "30", "33", "33", "31", "13", "18", "15", "16"], "time": [704, 809, 941, 1329, 1666, 1705, 2987, 4173, 4489, 5008, 5151, 5290, 5636, 5900, 6271, 8129, 8751, 12128, 12294, 12556, 14403, 14992, 15088, 15187, 15570]}, "edge": {"target": [], "time": []}}, "mouseout": {"state": {"target": ["31", "24", "1", "1", "1", "7", "3", "5", "4", "7", "13", "14", "20", "23", "27", "10", "11", "8", "9", "28", "29", "30", "33", "33", "31", "13", "18", "15", "16", "18", "12"], "time": [null, 24, 86, 315, 724, 850, 961, 1633, 1703, 1739, 4138, 4309, 4903, 5046, 5187, 5567, 5899, 5935, 8025, 8498, 11282, 12162, 12361, 14368, 14441, 15026, 15152, 15222, 20619, 20745, 20786]}, "edge": {"target": [], "time": []}}}, "displayed_time": "20.57", "trialTime": 21271, "trial_type": "mouselab-mdp", "trial_index": 36, "time_elapsed": 941148, "internal_node_id": "0.0-6.0-1.0-27.0"}}, {"uniqueid": "w76774497:a80637348", "current_trial": 37, "dateTime": 1693396906436, "trialdata": {"revealed_states": [], "clicked_states": ["5", "17", "21"], "num_clicks_accrued": [0, 0, 0, 0, 0, 0, 0, 0, 0, 0, 0, 0, 0], "stateRewards": ["", 2, -2, -3, 10, -4, -1, -11, -8, -9, -36, -78, 2, 1, 7, -7, 44, -1, -31, -1, 26, 47, 83, 2, -4, -4, -6, -52, -76, -81, -1, -59, 45, 67], "withholdReward": false, "trial_id": "mdp_trial_29", "block": "test", "trialIndex": 30, "score": 49.55, "costs": -6.449999999999999, "simulationMode": [null, null, null, null, null], "rewards": [2, 1, 7, -1, 47], "path": ["0", "0", "12", "13", "14", "19", "21"], "rt": [10600, 25, 458, 142, 103], "actions": ["right", "right", "right", "down", "down"], "actionTimes": [11150, 11687, 12666, 13316, 13949], "queries": {"click": {"state": {"target": ["5", "17", "21"], "time": [1203, 4440, 7562]}, "edge": {"target": [], "time": []}}, "mouseover": {"state": {"target": ["3", "5", "4", "7", "18", "15", "15", "17", "19", "21", "29", "8", "9"], "time": [851, 1073, 1368, 1403, 2855, 2927, 3404, 3503, 4993, 5289, 8011, 8225, 8517]}, "edge": {"target": [], "time": []}}, "mouseout": {"state": {"target": ["3", "5", "4", "7", "18", "15", "15", "17", "17", "19", "21", "29", "8", "9", "8"], "time": [873, 1366, 1401, 1439, 2890, 2962, 3437, 4570, 4740, 5028, 7832, 8046, 8420, 10093, 13111]}, "edge": {"target": [], "time": []}}}, "displayed_time": "15.60", "trialTime": 15944, "trial_type": "mouselab-mdp", "trial_index": 37, "time_elapsed": 957415, "internal_node_id": "0.0-6.0-1.0-28.0"}}, {"uniqueid": "w76774497:a80637348", "current_trial": 38, "dateTime": 1693396928431, "trialdata": {"revealed_states": [], "clicked_states": ["5", "27", "20", "33", "16"], "num_clicks_accrued": [0, 0, 0, 0, 0, 0, 0, 0, 0, 0, 0, 0, 0], "stateRewards": ["", 1, 1, 1, 15, -76, 52, -32, 14, -57, 37, 49, 1, -4, -3, 6, 83, -76, 25, 9, 36, -1, -17, -1, 4, 4, -2, -22, -21, 58, -15, -57, 49, -24], "withholdReward": false, "trial_id": "mdp_trial_30", "block": "test", "trialIndex": 31, "score": 72.25, "costs": -10.75, "simulationMode": [null, null, null, null, null], "rewards": [1, -4, -3, 6, 83], "path": ["0", "0", "12", "13", "14", "15", "16"], "rt": [17174, 195, 77, 135, 123], "actions": ["right", "right", "right", "up", "up"], "actionTimes": [17936, 18639, 19229, 19895, 20528], "queries": {"click": {"state": {"target": ["5", "27", "20", "33", "16"], "time": [1396, 4576, 7661, 10903, 14452]}, "edge": {"target": [], "time": []}}, "mouseover": {"state": {"target": ["1", "7", "5", "9", "11", "27", "17", "14", "14", "20", "21", "31", "30", "33", "13", "15", "17", "17", "16", "16", "15", "20", "22", "18", "15", "14", "19", "21"], "time": [887, 942, 1311, 3632, 3906, 4112, 4991, 5191, 5537, 5676, 7967, 8606, 8712, 8981, 11671, 11707, 11897, 12847, 13680, 14177, 14677, 14781, 15364, 15773, 15809, 16028, 16096, 16283]}, "edge": {"target": [], "time": []}}, "mouseout": {"state": {"target": ["3", "2", "1", "1", "7", "5", "9", "11", "27", "17", "14", "14", "20", "21", "31", "30", "33", "13", "15", "17", "20", "20", "17", "16", "16", "15", "20", "22", "18", "15", "14", "19"], "time": [336, 459, 533, 906, 979, 1543, 3777, 4043, 4673, 5122, 5258, 5572, 7932, 8003, 8678, 8746, 11166, 11705, 11742, 11968, 12037, 12189, 12887, 13868, 14641, 14714, 15119, 15398, 15808, 16026, 16058, 16127]}, "edge": {"target": [], "time": []}}}, "displayed_time": "21.03", "trialTime": 21715, "trial_type": "mouselab-mdp", "trial_index": 38, "time_elapsed": 979410, "internal_node_id": "0.0-6.0-1.0-29.0"}}, {"uniqueid": "w76774497:a80637348", "current_trial": 39, "dateTime": 1693396944817, "trialdata": {"revealed_states": [], "clicked_states": ["9", "17"], "num_clicks_accrued": [0, 0, 0, 0, 0, 0, 0, 0, 0, 0, 0, 0, 0], "stateRewards": ["", 1, 1, -3, 2, 22, -25, -11, -5, 50, 49, 3, 1, -1, 8, 14, -85, -30, 57, -6, -39, -16, 59, -2, -1, 5, 5, 59, -16, 8, 4, 67, 56, -9], "withholdReward": false, "trial_id": "mdp_trial_31", "block": "test", "trialIndex": 32, "score": 39.7, "costs": -4.3, "simulationMode": [null, null, null, null, null], "rewards": [1, 1, -3, -5, 50], "path": ["0", "0", "1", "2", "3", "8", "9"], "rt": [7152, 151, 196, 105, 154], "actions": ["up", "up", "up", "left", "up"], "actionTimes": [7776, 8437, 9147, 9762, 10428], "queries": {"click": {"state": {"target": ["9", "17"], "time": [1332, 4667]}, "edge": {"target": [], "time": []}}, "mouseover": {"state": {"target": ["10", "3", "9", "0", "12", "13", "12", "13", "14", "17", "14", "27", "8", "8", "10"], "time": [930, 987, 1194, 1577, 2620, 2725, 3439, 3673, 3710, 4002, 4894, 5181, 5352, 5418, 5858]}, "edge": {"target": [], "time": []}}, "mouseout": {"state": {"target": ["23", "1", "0", "10", "3", "9", "0", "12", "13", "12", "13", "14", "17", "14", "27", "8", "8", "9", "10", "1"], "time": [null, 319, 785, 954, 1055, 1471, 1610, 2690, 3371, 3637, 3709, 3839, 4855, 4931, 5216, 5384, 5596, 5785, 5892, 11728]}, "edge": {"target": [], "time": []}}}, "displayed_time": "15.80", "trialTime": 16013, "trial_type": "mouselab-mdp", "trial_index": 39, "time_elapsed": 995795, "internal_node_id": "0.0-6.0-1.0-30.0"}}, {"uniqueid": "w76774497:a80637348", "current_trial": 40, "dateTime": 1693396970746, "trialdata": {"revealed_states": [], "clicked_states": ["5", "20", "29", "11", "9", "33"], "num_clicks_accrued": [0, 0, 0, 0, 0, 0, 0, 0, 0, 0, 0, 0, 0], "stateRewards": ["", 2, 4, -6, -13, -75, -81, 30, 7, 5, 59, -65, -1, -1, 7, 14, -38, 36, -41, 1, -54, -5, 64, 2, -1, 5, 6, -19, 79, 11, 16, -33, -50, 58], "withholdReward": false, "trial_id": "mdp_trial_32", "block": "test", "trialIndex": 33, "score": 67.1, "costs": -12.9, "simulationMode": [null, null, null, null, null], "rewards": [2, -1, 5, 16, 58], "path": ["0", "0", "23", "24", "25", "30", "33"], "rt": [20727, 108, 211, 132, 383], "actions": ["left", "left", "left", "down", "left"], "actionTimes": [21382, 22000, 22745, 23412, 24317], "queries": {"click": {"state": {"target": ["5", "20", "29", "11", "9", "33"], "time": [1246, 4362, 7826, 11037, 14164, 17361]}, "edge": {"target": [], "time": []}}, "mouseover": {"state": {"target": ["1", "2", "4", "5", "4", "20", "23", "28", "26", "29", "7", "2", "10", "11", "8", "9", "9", "8", "25", "33", "23", "32"], "time": [949, 1000, 1037, 1072, 1530, 3470, 4911, 5470, 7489, 7752, 9469, 9505, 9540, 9736, 12476, 12946, 13927, 14361, 14468, 15133, 17759, 19304]}, "edge": {"target": [], "time": []}}, "mouseout": {"state": {"target": ["1", "1", "1", "2", "4", "5", "4", "20", "23", "28", "26", "29", "7", "2", "10", "11", "11", "8", "9", "9", "8", "25", "33", "23", "32", "12"], "time": [205, 294, 975, 1036, 1070, 1494, 1626, 4629, 4954, 5575, 7710, 8017, 9504, 9539, 9575, 11446, 12443, 12819, 13418, 14326, 14397, 14897, 17621, 17959, 24673, 25104]}, "edge": {"target": [], "time": []}}}, "displayed_time": "24.83", "trialTime": 25650, "trial_type": "mouselab-mdp", "trial_index": 40, "time_elapsed": 1021725, "internal_node_id": "0.0-6.0-1.0-31.0"}}, {"uniqueid": "w76774497:a80637348", "current_trial": 41, "dateTime": 1693396987748, "trialdata": {"revealed_states": [], "clicked_states": ["33", "27", "17"], "num_clicks_accrued": [0, 0, 0, 0, 0, 0, 0, 0, 0, 0, 0, 0, 0], "stateRewards": ["", -1, -3, -5, -14, -13, -47, 79, 8, -60, -64, 41, -1, 2, 3, 13, -46, 61, -79, -11, -64, -65, 23, 1, -2, 6, -14, 46, 32, 21, 7, 75, -66, 15], "withholdReward": false, "trial_id": "mdp_trial_33", "block": "test", "trialIndex": 34, "score": 71.55, "costs": -6.449999999999999, "simulationMode": [null, null, null, null, null], "rewards": [-1, 2, 3, 13, 61], "path": ["0", "0", "12", "13", "14", "15", "17"], "rt": [11264, 126, 92, 38, 148], "actions": ["right", "right", "right", "up", "right"], "actionTimes": [11892, 12529, 13137, 13685, 14367], "queries": {"click": {"state": {"target": ["33", "27", "17"], "time": [1343, 4800, 8383]}, "edge": {"target": [], "time": []}}, "mouseover": {"state": {"target": ["23", "31", "30", "33", "0", "23", "24", "25", "26", "27", "27", "24", "25", "1", "15", "17", "22", "31", "30", "26"], "time": [1014, 1069, 1109, 1195, 1615, 3310, 3383, 3752, 3821, 3925, 4134, 5124, 6494, 6604, 6782, 6977, 8573, 8680, 8717, 8862]}, "edge": {"target": [], "time": []}}, "mouseout": {"state": {"target": ["1", "0", "23", "31", "30", "33", "0", "23", "24", "25", "26", "27", "27", "27", "24", "33", "25", "1", "15", "17", "22", "31", "30", "26", "27", "27", "28", "23"], "time": [98, 697, 1033, 1108, 1142, 1507, 3276, 3346, 3719, 3787, 3892, 3957, 4923, 5053, 5327, 6392, 6531, 6639, 6884, 8539, 8610, 8715, 8753, 8898, 11608, 15305, 15340, 15394]}, "edge": {"target": [], "time": []}}}, "displayed_time": "16.06", "trialTime": 16673, "trial_type": "mouselab-mdp", "trial_index": 41, "time_elapsed": 1038727, "internal_node_id": "0.0-6.0-1.0-32.0"}}, {"uniqueid": "w76774497:a80637348", "current_trial": 42, "dateTime": 1693397003862, "trialdata": {"revealed_states": [], "clicked_states": ["5"], "num_clicks_accrued": [0, 0, 0, 0, 0, 0, 0, 0, 0, 0, 0, 0, 0], "stateRewards": ["", -2, 2, 3, -7, 76, 63, 21, 15, 35, -8, -44, 1, 1, -2, -12, 23, 24, 76, -9, 46, 66, -49, -2, -1, 7, 12, 40, -71, -45, -6, 38, -49, 46], "withholdReward": false, "trial_id": "mdp_trial_34", "block": "test", "trialIndex": 35, "score": 69.85, "costs": -2.15, "simulationMode": [null, null, null, null, null], "rewards": [-2, 2, 3, -7, 76], "path": ["0", "0", "1", "2", "3", "4", "5"], "rt": [4091, 78, 173, 86, 89], "actions": ["up", "up", "up", "right", "up"], "actionTimes": [4672, 5261, 5971, 6569, 7172], "queries": {"click": {"state": {"target": ["5"], "time": [1402]}, "edge": {"target": [], "time": []}}, "mouseover": {"state": {"target": ["10", "3", "5", "1", "12", "13", "17", "17", "17"], "time": [1034, 1089, 1270, 1669, 2020, 2057, 2869, 3055, 3698]}, "edge": {"target": [], "time": []}}, "mouseout": {"state": {"target": ["0", "0", "10", "3", "5", "1", "12", "13", "17", "17", "17", "13", "12"], "time": [41, 680, 1054, 1125, 1561, 1734, 2056, 2088, 2938, 3390, 7859, 7991, 13109]}, "edge": {"target": [], "time": []}}}, "displayed_time": "15.15", "trialTime": 15766, "trial_type": "mouselab-mdp", "trial_index": 42, "time_elapsed": 1054840, "internal_node_id": "0.0-6.0-1.0-33.0"}}, {"uniqueid": "w76774497:a80637348", "current_trial": 43, "dateTime": 1693397034909, "trialdata": {"revealed_states": [], "clicked_states": ["5", "21", "32", "29", "27", "16", "33", "31"], "num_clicks_accrued": [0, 0, 0, 0, 0, 0, 0, 0, 0, 0, 0, 0, 0], "stateRewards": ["", 1, -3, 4, 13, -72, 52, 5, 5, -58, 5, 14, 2, 1, 3, -14, -86, -4, 73, 6, -58, -50, 49, 2, -3, -4, 2, 33, -41, 42, -11, 81, 45, 53], "withholdReward": false, "trial_id": "mdp_trial_35", "block": "test", "trialIndex": 36, "score": 47.8, "costs": -17.2, "simulationMode": [null, null, null, null, null], "rewards": [2, -3, -4, -11, 81], "path": ["0", "0", "23", "24", "25", "30", "31"], "rt": [26354, 43, 205, 125, 26], "actions": ["left", "left", "left", "down", "right"], "actionTimes": [27070, 27624, 28339, 28972, 29509], "queries": {"click": {"state": {"target": ["5", "21", "32", "29", "27", "16", "33", "31"], "time": [1418, 4555, 7631, 11036, 14363, 17520, 20617, 23759]}, "edge": {"target": [], "time": []}}, "mouseover": {"state": {"target": ["1", "4", "5", "5", "15", "14", "19", "21", "32", "29", "27", "26", "25", "25", "15", "17", "16", "18", "12", "31", "30", "33", "33", "25", "31"], "time": [931, 1055, 1075, 1361, 2364, 2436, 2539, 3135, 5448, 10108, 12793, 14700, 14769, 15187, 15403, 15541, 15839, 17804, 17842, 17951, 18219, 19150, 19532, 21843, 22619]}, "edge": {"target": [], "time": []}}, "mouseout": {"state": {"target": ["23", "24", "1", "0", "1", "4", "5", "5", "5", "15", "14", "19", "21", "32", "29", "29", "29", "27", "27", "26", "25", "25", "15", "17", "16", "18", "12", "31", "30", "33", "33", "33", "25", "31", "33", "30", "31"], "time": [194, 276, 430, 849, 1000, 1074, 1110, 1528, 1717, 2398, 2471, 2637, 4830, 7878, 11161, 11315, 12678, 14457, 14664, 14733, 14833, 15224, 15471, 15770, 17767, 17840, 17877, 17985, 18255, 19187, 20711, 21266, 21905, 24123, 30365, 30433, 30491]}, "edge": {"target": [], "time": []}}}, "displayed_time": "30.02", "trialTime": 30761, "trial_type": "mouselab-mdp", "trial_index": 43, "time_elapsed": 1085888, "internal_node_id": "0.0-6.0-1.0-34.0"}}, {"uniqueid": "w76774497:a80637348", "current_trial": 44, "dateTime": 1693397079615, "trialdata": {"revealed_states": [], "clicked_states": ["5", "7", "6", "11", "9", "16", "21", "17", "18", "20", "32", "33"], "num_clicks_accrued": [0, 0, 0, 0, 0, 0, 0, 0, 0, 0, 0, 0, 0], "stateRewards": ["", -2, -3, 4, 1, 33, -53, 15, 9, -12, 61, -6, -2, 4, 6, -11, 47, -43, -7, -11, 46, 23, -28, -1, -1, 3, -10, 11, 76, -76, 10, 18, -38, 87], "withholdReward": false, "trial_id": "mdp_trial_36", "block": "test", "trialIndex": 37, "score": 72.2, "costs": -25.799999999999994, "simulationMode": [null, null, null, null, null], "rewards": [-1, -1, 3, 10, 87], "path": ["0", "0", "23", "24", "25", "30", "33"], "rt": [39682, 211, 209, 65, 182], "actions": ["left", "left", "left", "down", "left"], "actionTimes": [40650, 41368, 42085, 42679, 43373], "queries": {"click": {"state": {"target": ["5", "7", "6", "11", "9", "16", "21", "17", "18", "20", "32", "33"], "time": [1537, 4811, 7942, 11091, 14209, 17308, 20463, 23648, 26678, 29810, 33114, 36200]}, "edge": {"target": [], "time": []}}, "mouseover": {"state": {"target": ["1", "3", "5", "7", "7", "27", "10", "2", "6", "10", "11", "9", "8", "10", "16", "16", "18", "28", "28", "0", "22", "22", "19", "21", "19", "17", "12", "1", "13", "18", "18", "14", "20", "32", "30", "33", "1", "16", "26", "29"], "time": [1146, 1222, 1382, 2642, 3466, 5454, 5724, 6071, 6245, 8225, 8793, 11669, 14546, 14663, 16679, 16988, 17517, 17695, 17957, 18059, 18130, 18637, 18704, 18986, 21152, 22352, 23960, 24223, 24714, 24841, 25266, 27256, 28165, 30706, 35137, 35269, 36534, 36881, 37365, 37579]}, "edge": {"target": [], "time": []}}, "mouseout": {"state": {"target": ["23", "1", "3", "5", "7", "7", "27", "10", "2", "6", "10", "11", "9", "8", "10", "16", "16", "18", "28", "28", "0", "22", "22", "19", "21", "19", "17", "12", "1", "13", "18", "18", "14", "20", "32", "30", "33", "1", "16", "26", "29", "0"], "time": [41, 1167, 1241, 2356, 2676, 5096, 5488, 5759, 6106, 8190, 8260, 11445, 14452, 14584, 16540, 16746, 17515, 17552, 17760, 17987, 18094, 18164, 18669, 18739, 20925, 21384, 23887, 23994, 24259, 24744, 25102, 27224, 27326, 30003, 33831, 35235, 36497, 36568, 37117, 37435, 43861, 44259]}, "edge": {"target": [], "time": []}}}, "displayed_time": "43.90", "trialTime": 44395, "trial_type": "mouselab-mdp", "trial_index": 44, "time_elapsed": 1130594, "internal_node_id": "0.0-6.0-1.0-35.0"}}, {"uniqueid": "w76774497:a80637348", "current_trial": 45, "dateTime": 1693397095702, "trialdata": {"revealed_states": [], "clicked_states": ["5", "6", "11"], "num_clicks_accrued": [0, 0, 0, 0, 0, 0, 0, 0, 0, 0, 0, 0, 0], "stateRewards": ["", 1, -1, 1, 13, 31, -56, 72, 2, 41, 5, 63, -2, -3, -2, 3, -71, -26, 52, 13, -31, 24, -67, 2, -2, 5, 4, 66, 43, 72, 9, 86, -26, 44], "withholdReward": false, "trial_id": "mdp_trial_37", "block": "test", "trialIndex": 38, "score": 59.55, "costs": -6.449999999999999, "simulationMode": [null, null, null, null, null], "rewards": [1, -1, 1, 2, 63], "path": ["0", "0", "1", "2", "3", "8", "11"], "rt": [11263, 304, 87, 51, 109], "actions": ["up", "up", "up", "left", "left"], "actionTimes": [11816, 12632, 13235, 13792, 14434], "queries": {"click": {"state": {"target": ["5", "6", "11"], "time": [1294, 5210, 8322]}, "edge": {"target": [], "time": []}}, "mouseover": {"state": {"target": ["2", "4", "6", "5", "4", "19", "21", "19", "18", "6", "31", "3", "8", "11", "25", "33"], "time": [676, 729, 766, 1231, 1484, 2900, 3205, 4890, 4961, 5113, 5484, 6217, 6564, 6753, 9116, 9490]}, "edge": {"target": [], "time": []}}, "mouseout": {"state": {"target": ["1", "0", "2", "4", "6", "5", "4", "19", "21", "19", "18", "6", "31", "3", "8", "11", "25", "33", "25", "24"], "time": [155, 610, 696, 764, 940, 1482, 1518, 3057, 4871, 4925, 4994, 5376, 5519, 6496, 6717, 8565, 9184, 14848, 14963, 15015]}, "edge": {"target": [], "time": []}}}, "displayed_time": "15.57", "trialTime": 15761, "trial_type": "mouselab-mdp", "trial_index": 45, "time_elapsed": 1146681, "internal_node_id": "0.0-6.0-1.0-36.0"}}, {"uniqueid": "w76774497:a80637348", "current_trial": 46, "dateTime": 1693397117494, "trialdata": {"revealed_states": [], "clicked_states": ["17", "5", "16", "21", "32"], "num_clicks_accrued": [0, 0, 0, 0, 0, 0, 0, 0, 0, 0, 0, 0, 0], "stateRewards": ["", -2, 1, -8, 12, -65, -79, 16, 7, -80, -17, -45, -2, 2, -5, -2, -85, 23, -4, -7, 48, 27, -76, 2, 3, 5, 2, 43, 71, -13, 7, -49, 59, -31], "withholdReward": false, "trial_id": "mdp_trial_38", "block": "test", "trialIndex": 39, "score": 65.25, "costs": -10.75, "simulationMode": [null, null, null, null, null], "rewards": [2, 3, 5, 7, 59], "path": ["0", "0", "23", "24", "25", "30", "32"], "rt": [16860, 187, 215, 117, 57], "actions": ["left", "left", "left", "down", "down"], "actionTimes": [18079, 18771, 19502, 20127, 20702], "queries": {"click": {"state": {"target": ["17", "5", "16", "21", "32"], "time": [1622, 5014, 8090, 11200, 14414]}, "edge": {"target": [], "time": []}}, "mouseover": {"state": {"target": ["18", "17", "5", "4", "22", "19", "18", "16", "16", "1", "24", "21", "6", "17", "19", "32", "29"], "time": [1299, 1543, 4896, 5184, 5293, 5430, 5809, 5946, 6291, 8343, 8704, 9125, 11828, 12064, 12859, 13362, 17249]}, "edge": {"target": [], "time": []}}, "mouseout": {"state": {"target": ["23", "18", "17", "5", "4", "22", "19", "18", "16", "16", "1", "24", "21", "6", "17", "19", "32"], "time": [987, 1318, 1944, 5111, 5221, 5393, 5467, 5845, 6042, 8307, 8379, 8739, 11446, 11863, 12789, 12896, 14630]}, "edge": {"target": [], "time": []}}}, "displayed_time": "21.23", "trialTime": 21489, "trial_type": "mouselab-mdp", "trial_index": 46, "time_elapsed": 1168473, "internal_node_id": "0.0-6.0-1.0-37.0"}}, {"uniqueid": "w76774497:a80637348", "current_trial": 47, "dateTime": 1693397179521, "trialdata": {"revealed_states": [], "clicked_states": ["33", "16", "5", "6", "17", "21", "32", "27", "29", "28", "31", "9", "11", "10", "7", "18", "20", "22"], "num_clicks_accrued": [0, 0, 0, 0, 0, 0, 0, 0, 0, 0, 0, 0, 0], "stateRewards": ["", 1, 4, -8, -5, -15, -7, 21, 13, -30, 40, -65, 1, 1, 5, -14, 35, 27, -38, -11, 36, -58, -47, -2, 4, -3, 13, -16, -49, 22, 15, -56, -44, -10], "withholdReward": false, "trial_id": "mdp_trial_39", "block": "test", "trialIndex": 40, "score": -6.699999999999989, "costs": -38.69999999999999, "simulationMode": [null, null, null, null, null], "rewards": [1, 1, 5, -11, 36], "path": ["0", "0", "12", "13", "14", "19", "20"], "rt": [57053, 36, 74, 46, 23], "actions": ["right", "right", "right", "down", "right"], "actionTimes": [58399, 58940, 59522, 60104, 60640], "queries": {"click": {"state": {"target": ["33", "16", "5", "6", "17", "21", "32", "27", "29", "28", "31", "9", "11", "10", "7", "18", "20", "22"], "time": [1938, 5059, 8215, 11339, 14411, 17567, 20695, 23848, 26924, 30080, 33298, 36383, 39471, 42687, 45753, 48884, 52010, 55146]}, "edge": {"target": [], "time": []}}, "mouseover": {"state": {"target": ["23", "24", "25", "33", "14", "13", "12", "23", "16", "12", "31", "25", "3", "5", "6", "13", "17", "21", "21", "23", "31", "32", "27", "29", "29", "8", "8", "11", "28", "24", "31", "31", "11", "9", "11", "10", "7", "7", "18", "15", "18", "14", "20", "20", "22", "19"], "time": [1451, 1666, 1702, 1771, 2234, 2499, 2539, 2613, 3268, 5284, 5393, 5531, 5744, 6368, 8582, 11636, 12257, 15307, 15564, 18413, 19163, 19330, 22579, 24221, 24618, 27358, 27555, 27945, 28840, 30390, 30460, 30799, 33971, 34721, 37254, 39756, 42979, 43301, 46167, 47361, 48077, 49167, 49446, 50117, 52839, 57271]}, "edge": {"target": [], "time": []}}, "mouseout": {"state": {"target": ["29", "26", "28", "23", "23", "24", "25", "33", "14", "13", "12", "23", "16", "16", "12", "31", "25", "3", "5", "6", "13", "17", "17", "21", "21", "23", "31", "32", "27", "27", "29", "29", "8", "8", "11", "28", "24", "31", "31", "11", "9", "9", "11", "10", "10", "7", "7", "18", "15", "18", "14", "20", "20", "22"], "time": [193, 235, 401, 478, 1645, 1700, 1735, 2095, 2464, 2537, 2574, 2649, 5155, 5249, 5321, 5427, 5634, 5779, 8510, 11436, 11670, 14508, 14662, 15340, 17893, 18481, 19198, 20963, 23945, 24151, 24254, 27217, 27388, 27822, 28586, 30388, 30423, 30555, 33746, 34006, 36489, 36784, 39691, 42782, 42908, 43014, 46131, 46204, 47460, 49131, 49206, 49573, 52535, 57238]}, "edge": {"target": [], "time": []}}}, "displayed_time": "61.16", "trialTime": 61726, "trial_type": "mouselab-mdp", "trial_index": 47, "time_elapsed": 1230500, "internal_node_id": "0.0-6.0-1.0-38.0"}}, {"uniqueid": "w76774497:a80637348", "current_trial": 48, "dateTime": 1693397195758, "trialdata": {"revealed_states": [], "clicked_states": ["5", "17"], "num_clicks_accrued": [0, 0, 0, 0, 0, 0, 0, 0, 0, 0, 0, 0, 0], "stateRewards": ["", -1, 3, -5, -2, -13, -9, -34, -7, -81, 32, 35, -2, -2, 1, -14, -32, 81, 7, 4, 82, 56, -8, -1, 3, -8, 6, -24, -24, -53, 2, 38, 61, 54], "withholdReward": false, "trial_id": "mdp_trial_40", "block": "test", "trialIndex": 41, "score": 59.7, "costs": -4.3, "simulationMode": [null, null, null, null, null], "rewards": [-2, -2, 1, -14, 81], "path": ["0", "0", "12", "13", "14", "15", "17"], "rt": [7141, 57, 31, 97, 52], "actions": ["right", "right", "right", "up", "right"], "actionTimes": [7744, 8320, 8859, 9470, 10029], "queries": {"click": {"state": {"target": ["5", "17"], "time": [1283, 4407]}, "edge": {"target": [], "time": []}}, "mouseover": {"state": {"target": ["1", "7", "4", "5", "4", "7", "16", "17", "21", "21", "32"], "time": [741, 810, 929, 1123, 1448, 1520, 2142, 2723, 5340, 5819, 6547]}, "edge": {"target": [], "time": []}}, "mouseout": {"state": {"target": ["19", "22", "0", "1", "7", "4", "5", "4", "7", "16", "17", "21", "21", "32", "31"], "time": [115, 142, 413, 760, 838, 1047, 1413, 1483, 1553, 2211, 4673, 5437, 6337, 10604, 10669]}, "edge": {"target": [], "time": []}}}, "displayed_time": "15.51", "trialTime": 15934, "trial_type": "mouselab-mdp", "trial_index": 48, "time_elapsed": 1246737, "internal_node_id": "0.0-6.0-1.0-39.0"}}, {"uniqueid": "w76774497:a80637348", "current_trial": 49, "dateTime": 1693397233853, "trialdata": {"rt": 38093, "response": {"Q0": "$-2 to $2", "Q1": "$-16 to $16", "Q2": "$-88 to $88", "Q3": "The cost for clicking on nodes varied between nodes.", "Q4": "Very motivated"}, "question_order": [0, 1, 2, 3, 4], "trial_id": "final_quiz_control", "trial_type": "survey-multi-choice", "trial_index": 49, "time_elapsed": 1284832, "internal_node_id": "0.0-6.0-2.0"}}, {"uniqueid": "w76774497:a80637348", "current_trial": 50, "dateTime": 1693397274986, "trialdata": {"rt": 41121, "response": {"Q0": "tried to use the node insepctor as little as p[ossible to minimise cost till i found a decent result on the edge", "Q1": "not really", "Q2": "remembering the numbers"}, "trial_id": "self_report_control", "trial_type": "survey-text", "trial_index": 50, "time_elapsed": 1325965, "internal_node_id": "0.0-6.0-3.0"}}, {"uniqueid": "w76774497:a80637348", "current_trial": 51, "dateTime": 1693397302818, "trialdata": {"rt": 27828, "response": {"Q0": "Disagree", "Q1": "Neither disagree nor agree", "Q2": "Neither disagree nor agree", "Q3": "Neither disagree nor agree", "Q4": "Strongly disagree", "Q5": "Neither disagree nor agree", "Q6": "Agree"}, "question_order": [0, 1, 2, 3, 4, 5, 6], "trial_id": "self_report_2", "trial_type": "survey-multi-choice", "trial_index": 51, "time_elapsed": 1353796, "internal_node_id": "0.0-6.0-4.0"}}, {"uniqueid": "w76774497:a80637348", "current_trial": 52, "dateTime": 1693397321249, "trialdata": {"rt": 18427, "response": {"gender": "male", "age": "21", "colorblind": "0", "effort": "0"}, "trial_type": "survey-html-form", "trial_index": 52, "time_elapsed": 1372228, "internal_node_id": "0.0-6.0-5.0"}}, {"uniqueid": "w76774497:a80637348", "current_trial": 53, "dateTime": 1693397333644, "trialdata": {"rt": 12390, "response": {"Q0": "no", "Q1": "no", "Q2": "none"}, "trial_type": "survey-text", "trial_index": 53, "time_elapsed": 1384623, "internal_node_id": "0.0-6.0-6.0"}}, {"uniqueid": "w76774497:a80637348", "current_trial": 54, "dateTime": 1693397361450, "trialdata": {"rt": 27803, "stimulus": "<h1>Completion Code Instructions (1/2)</h1>\n<br><br><br><br>\nYou have reached the end of the experiment! The completion code consists of two parts: (1) a code with 2 characters (2) a code with 6 characters. On this page, you will receive the second part of the code. The first part of the completion code will be on the next page.\n<br><br>\nThe second part of your completion code is: <b>EWEK22</b>\n<br><br>\nPlease note this down. Then, press 'Finish HIT' in order to find the first part of your completion code. Once the data has been saved, you will receive this code either in this window or in the original browser window where you started the experiment.\n", "response": 0, "trial_type": "html-button-response", "trial_index": 54, "time_elapsed": 1412429, "internal_node_id": "0.0-6.0-7.0"}}, {"uniqueid": "w76774497:a80637348", "current_trial": 55, "dateTime": 1693397362465, "trialdata": {"success": true, "trial_type": "fullscreen", "trial_index": 55, "time_elapsed": 1413443, "internal_node_id": "0.0-7.0"}}], "questiondata": {"params": {"CODE": "C6DMOQA6", "MIN_TIME": 14, "inspectCost": 1, "startTime": "Wed Aug 30 2023 13:45:47 GMT+0200 (South Africa Standard Time)", "bonusRate": 0.002, "variance": "1_2_4_8_44", "branching": "31123"}}, "eventdata": [{"eventtype": "initialized", "value": null, "timestamp": 1693395946489, "interval": 0}, {"eventtype": "window_resize", "value": [1024, 768], "timestamp": 1693395946489, "interval": 0}, {"eventtype": "focus", "value": "on", "timestamp": 1693395946729, "interval": 240}, {"eventtype": "window_resize", "value": [1024, 768], "timestamp": 1693395946939, "interval": 210}, {"eventtype": "window_resize", "value": [1920, 1080], "timestamp": 1693395951403, "interval": 4464}, {"eventtype": "window_resize", "value": [1024, 768], "timestamp": 1693397361895, "interval": 1410492}], "useragent": "Mozilla/5.0 (Windows NT 10.0; Win64; x64; rv:109.0) Gecko/20100101 Firefox/116.0", "mode": "live", "id": "w76774497:a80637348", "status": "user data saved", "Beginhit": "2023-08-30 11:45:47.753031", "Beginexp": "2023-08-30 11:45:55.855097", "Endhit": "2023-08-30 12:09:27.846117", "psiturkStatus": 3, "browser": "<redacted>", "platform": "windows", "language": "en-US"}