{"condition": 1, "counterbalance": 0, "assignmentId": "a36105320", "workerId": "w93919182", "hitId": "h49068332", "currenttrial": 56, "bonus": 0, "data": [{"uniqueid": "w93919182:a36105320", "current_trial": 0, "dateTime": 1693388682606, "trialdata": {"success": true, "trial_type": "fullscreen", "trial_index": 0, "time_elapsed": 4728, "internal_node_id": "0.0-0.0"}}, {"uniqueid": "w93919182:a36105320", "current_trial": 1, "dateTime": 1693388701161, "trialdata": {"view_history": [{"page_index": 0, "viewing_time": 18531}], "rt": 18531, "trial_id": "exp_instructions_misaligned", "trial_type": "instructions", "trial_index": 1, "time_elapsed": 23284, "internal_node_id": "0.0-1.0"}}, {"uniqueid": "w93919182:a36105320", "current_trial": 2, "dateTime": 1693388951906, "trialdata": {"view_history": [{"page_index": 0, "viewing_time": 83397}, {"page_index": 1, "viewing_time": 94112}, {"page_index": 2, "viewing_time": 27968}, {"page_index": 3, "viewing_time": 45264}], "rt": 250741, "trial_id": "mouselab_instructions_1_misaligned", "trial_type": "instructions", "trial_index": 2, "time_elapsed": 274028, "internal_node_id": "0.0-2.0-1.0"}}, {"uniqueid": "w93919182:a36105320", "current_trial": 3, "dateTime": 1693389027583, "trialdata": {"revealed_states": [], "clicked_states": ["1", "7", "6", "8", "9", "25", "30", "32", "21", "14", "13", "12", "24", "23", "26", "28", "2", "3", "4", "27", "29", "33", "31", "22", "20"], "num_clicks_accrued": [0, 0, 0, 0, 0, 0, 0, 0, 0, 0, 0, 0, 0], "stateRewards": ["", 10, -10, 10, -10, 10, 10, 10, -10, 10, -10, 10, 10, -10, -10, -10, -10, 10, 10, 10, 10, -10, 10, -10, -10, -10, 10, 10, 10, 10, -10, -10, 10, -10], "withholdReward": false, "trial_id": "practice_1", "block": "test", "trialIndex": 0, "score": 1, "costs": -12.5, "simulationMode": [null, null, null, null, null], "rewards": [10, -10, 10, -10, 10], "path": ["0", "0", "1", "2", "3", "4", "6"], "rt": [64118, 29, 568, 1157, 770], "actions": ["up", "up", "up", "right", "right"], "actionTimes": [65264, 65802, 66890, 68546, 69825], "queries": {"click": {"state": {"target": ["1", "7", "6", "8", "9", "25", "30", "32", "21", "14", "13", "12", "24", "23", "26", "28", "2", "3", "4", "27", "29", "33", "31", "22", "20"], "time": [3137, 4459, 5606, 6926, 8205, 9949, 11099, 12268, 13322, 14740, 15819, 17316, 19596, 22051, 27104, 28373, 30482, 31583, 33120, 41542, 43385, 45789, 47294, 49772, 51323]}, "edge": {"target": [], "time": []}}, "mouseover": {"state": {"target": ["1", "7", "6", "4", "3", "8", "9", "10", "28", "24", "25", "30", "32", "21", "19", "14", "13", "12", "23", "24", "24", "23", "23", "25", "26", "28", "1", "2", "3", "4", "7", "7", "0", "26", "27", "29", "33", "30", "31", "30", "33", "30", "31", "31", "22", "22", "19", "20", "19"], "time": [2674, 3831, 5398, 5997, 6131, 6364, 7567, 8930, 9333, 9513, 9769, 10645, 11762, 12994, 13693, 14428, 15326, 16492, 17991, 18244, 19379, 20258, 21611, 23655, 26755, 27620, 29203, 30172, 31102, 32170, 33868, 35474, 39536, 40918, 41304, 42899, 44047, 44663, 44748, 45315, 45434, 46113, 46197, 46879, 48914, 49346, 50178, 50947, 52009]}, "edge": {"target": [], "time": []}}, "mouseout": {"state": {"target": ["0", "1", "7", "6", "6", "4", "3", "8", "9", "10", "28", "24", "25", "30", "32", "21", "19", "14", "13", "12", "23", "24", "24", "23", "24", "23", "24", "25", "26", "28", "1", "2", "3", "4", "7", "7", "0", "26", "27", "29", "29", "33", "30", "31", "30", "33", "30", "31", "31", "22", "22", "19", "20", "19"], "time": [522, 3699, 4931, 5675, 5948, 6098, 6264, 7263, 8530, 9147, 9468, 9632, 10396, 11545, 12460, 13595, 14293, 15260, 16225, 17725, 18141, 19191, 20174, 20912, 21374, 22823, 23345, 26361, 27470, 28737, 29872, 30953, 32036, 33684, 34919, 36789, 40618, 41054, 42298, 43468, 43767, 44633, 44714, 45281, 45382, 46079, 46129, 46347, 47829, 49050, 50111, 50810, 51859, 52142]}, "edge": {"target": [], "time": []}}}, "displayed_time": "70.34", "trialTime": 74339, "trial_type": "mouselab-mdp", "trial_index": 3, "time_elapsed": 349704, "internal_node_id": "0.0-2.0-2.0-0.0"}}, {"uniqueid": "w93919182:a36105320", "current_trial": 4, "dateTime": 1693389089212, "trialdata": {"revealed_states": [], "clicked_states": ["1", "12", "23", "3", "2", "14", "13", "21", "19", "20", "22"], "num_clicks_accrued": [0, 0, 0, 0, 0, 0, 0, 0, 0, 0, 0, 0, 0], "stateRewards": ["", -10, -10, -10, -10, 10, -10, 10, -10, 10, 10, 10, -10, 10, 10, 10, 10, -10, 10, -10, -10, 10, 10, -10, -10, 10, -10, 10, -10, 10, 10, -10, -10, 10], "withholdReward": false, "trial_id": "practice_2", "block": "test", "trialIndex": 1, "score": 8, "costs": -5.5, "simulationMode": [null, null, null, null, null], "rewards": [-10, 10, 10, -10, 10], "path": ["0", "0", "12", "13", "14", "19", "21"], "rt": [47330, 584, 332, 357, 1595], "actions": ["right", "right", "right", "down", "down"], "actionTimes": [51264, 52349, 53181, 54037, 56126], "queries": {"click": {"state": {"target": ["1", "12", "23", "3", "2", "14", "13", "21", "19", "20", "22"], "time": [9135, 15997, 18535, 22254, 23887, 27553, 28973, 32823, 34287, 37911, 39655]}, "edge": {"target": [], "time": []}}, "mouseover": {"state": {"target": ["1", "1", "2", "12", "13", "12", "2", "12", "0", "23", "0", "1", "2", "3", "2", "18", "14", "19", "19", "14", "13", "19", "21", "19", "20", "19", "22", "22", "13"], "time": [6236, 7188, 10701, 11899, 12833, 14380, 15096, 15748, 16612, 17815, 21014, 21194, 21462, 21927, 22625, 24525, 25314, 26695, 27006, 27210, 28239, 29373, 30876, 33204, 35604, 38351, 38452, 38951, 40251]}, "edge": {"target": [], "time": []}}, "mouseout": {"state": {"target": ["0", "1", "1", "2", "12", "13", "12", "2", "12", "12", "0", "23", "0", "1", "2", "3", "2", "18", "14", "19", "19", "14", "13", "19", "21", "19", "20", "19", "22", "22"], "time": [2871, 6669, 9264, 11534, 12666, 14333, 14983, 15515, 16085, 16578, 16628, 19345, 21078, 21278, 21829, 22526, 24308, 24593, 25677, 26962, 27078, 28123, 29272, 29573, 33137, 34359, 38302, 38401, 38518, 40051]}, "edge": {"target": [], "time": []}}}, "displayed_time": "56.63", "trialTime": 61389, "trial_type": "mouselab-mdp", "trial_index": 4, "time_elapsed": 411334, "internal_node_id": "0.0-2.0-2.0-1.0"}}, {"uniqueid": "w93919182:a36105320", "current_trial": 5, "dateTime": 1693389114770, "trialdata": {"view_history": [{"page_index": 0, "viewing_time": 15912}, {"page_index": 1, "viewing_time": 9640}], "rt": 25553, "trial_id": "mouselab_instructions_2_misaligned", "trial_type": "instructions", "trial_index": 5, "time_elapsed": 436893, "internal_node_id": "0.0-2.0-3.0"}}, {"uniqueid": "w93919182:a36105320", "current_trial": 6, "dateTime": 1693389175171, "trialdata": {"rt": 60395, "response": {"Q0": "The cost for clicking on nodes may vary between nodes.", "Q1": "The better I perform the higher my bonus will be.", "Q2": "No, the amount of cash at each node of the web may be different each time.", "Q3": "To get the highest total score.", "Q4": "Only before moving the spider.", "Q5": "3 seconds"}, "question_order": [0, 1, 2, 3, 4, 5], "correct": {"Q0": "The cost for clicking on nodes may vary between nodes.", "Q1": "The better I perform the higher my bonus will be.", "Q2": "No, the amount of cash at each node of the web may be different each time.", "Q3": "To get the highest total score.", "Q4": "Only before moving the spider.", "Q5": "3 seconds"}, "trial_id": "mouselab_quiz_misaligned", "trial_type": "survey-multi-choice", "trial_index": 6, "time_elapsed": 497294, "internal_node_id": "0.0-2.0-4.0"}}, {"uniqueid": "w93919182:a36105320", "current_trial": 7, "dateTime": 1693389182858, "trialdata": {"rt": 7677, "response": {"Q0": "No"}, "question_order": [0], "trial_id": "repeat_check", "trial_type": "survey-multi-choice", "trial_index": 7, "time_elapsed": 504980, "internal_node_id": "0.0-4.0-0.0"}}, {"uniqueid": "w93919182:a36105320", "current_trial": 8, "dateTime": 1693389204093, "trialdata": {"rt": 21227, "stimulus": "\n<h1> Get ready to start the game! </h1>\n\nThank you for reading the instructions. Get ready start with the 40 rounds of this game.\n<br><br>\nIf you need to take a break, feel free to take one after the end of a round, before continuing to the next one.\n<br><br>\nRemember, the more money the spider gets, the bigger your bonus will be!\n<br><br>\n<div style='text-align: center;'>Press <code>space</code> to begin.</div>\n\n<br><br>\n(If, at any point, the <code>space</code> key does not take you to the next page, click once on the text and try again.)", "response": " ", "trial_id": "mdp_ready", "trial_type": "html-keyboard-response", "trial_index": 8, "time_elapsed": 526216, "internal_node_id": "0.0-6.0-0.0"}}, {"uniqueid": "w93919182:a36105320", "current_trial": 9, "dateTime": 1693389232245, "trialdata": {"revealed_states": [], "clicked_states": ["2", "1"], "num_clicks_accrued": [0, 0, 0, 0, 0, 0, 0, 0, 0, 0, 0, 0, 0], "stateRewards": ["", 2, 3, -1, 6, 44, -4, -59, -14, -3, 64, 16, 1, -3, 3, 6, 3, 49, 19, 3, -49, -14, -86, 1, 2, -3, -8, -33, 14, 32, -13, -77, -47, -67], "withholdReward": false, "trial_id": "mdp_trial_1", "block": "test", "trialIndex": 2, "score": 53.9, "costs": -0.09999999999999998, "simulationMode": [null, null, null, null, null], "rewards": [2, 3, -1, 6, 44], "path": ["0", "0", "1", "2", "3", "4", "5"], "rt": [11606, 655, 944, 2648, 1035], "actions": ["up", "up", "up", "right", "up"], "actionTimes": [15230, 16403, 17857, 21011, 22547], "queries": {"click": {"state": {"target": ["2", "1"], "time": [5919, 8565]}, "edge": {"target": [], "time": []}}, "mouseover": {"state": {"target": ["1", "2", "1", "18", "7", "4", "3", "8", "3"], "time": [5024, 5637, 6733, 9952, 10221, 10571, 10702, 10869, 11750]}, "edge": {"target": [], "time": []}}, "mouseout": {"state": {"target": ["7", "0", "1", "2", "1", "1", "18", "7", "4", "3", "8"], "time": [2254, 4787, 5553, 6433, 8659, 8915, 10068, 10434, 10597, 10766, 11683]}, "edge": {"target": [], "time": []}}}, "displayed_time": "23.06", "trialTime": 27883, "trial_type": "mouselab-mdp", "trial_index": 9, "time_elapsed": 554367, "internal_node_id": "0.0-6.0-1.0-0.0"}}, {"uniqueid": "w93919182:a36105320", "current_trial": 10, "dateTime": 1693389255279, "trialdata": {"revealed_states": [], "clicked_states": [], "num_clicks_accrued": [0, 0, 0, 0, 0, 0, 0, 0, 0, 0, 0, 0, 0], "stateRewards": ["", 1, -3, -2, 14, 49, -40, -39, 2, 26, -61, 73, 1, -4, -8, 12, 79, 29, -65, -13, 55, -26, 27, -1, 3, 3, 9, -17, -60, -18, -8, 35, -88, 69], "withholdReward": false, "trial_id": "mdp_trial_2", "block": "test", "trialIndex": 3, "score": 31, "costs": 0, "simulationMode": [null, null, null, null, null], "rewards": [1, -4, -8, -13, 55], "path": ["0", "0", "12", "13", "14", "19", "20"], "rt": [10263, 655, 41, 1421, 143], "actions": ["right", "right", "right", "down", "right"], "actionTimes": [12738, 13910, 14462, 16407, 17047], "queries": {"click": {"state": {"target": [], "time": []}, "edge": {"target": [], "time": []}}, "mouseover": {"state": {"target": ["12", "13", "12", "13", "14", "19", "20", "19", "0"], "time": [3927, 4280, 4505, 5175, 5843, 6879, 7042, 9692, 10412]}, "edge": {"target": [], "time": []}}, "mouseout": {"state": {"target": ["3", "2", "1", "12", "13", "12", "13", "14", "19", "20", "19", "0"], "time": [1662, 1825, 1963, 4128, 4463, 5144, 5694, 6409, 6907, 9508, 9795, 10626]}, "edge": {"target": [], "time": []}}}, "displayed_time": "17.55", "trialTime": 22768, "trial_type": "mouselab-mdp", "trial_index": 10, "time_elapsed": 577400, "internal_node_id": "0.0-6.0-1.0-1.0"}}, {"uniqueid": "w93919182:a36105320", "current_trial": 11, "dateTime": 1693389283294, "trialdata": {"revealed_states": [], "clicked_states": ["2", "1", "8", "9", "4", "5"], "num_clicks_accrued": [0, 0, 0, 0, 0, 0, 0, 0, 0, 0, 0, 0, 0], "stateRewards": ["", -1, 4, -3, 3, 57, -61, 5, -11, 23, -1, 34, -2, -4, -1, -13, 27, 38, -36, 4, -45, 21, 88, 1, -2, -1, 1, -69, -5, -78, -12, -9, 38, -54], "withholdReward": false, "trial_id": "mdp_trial_3", "block": "test", "trialIndex": 4, "score": 52.5, "costs": -7.5, "simulationMode": [null, null, null, null, null], "rewards": [-1, 4, -3, 3, 57], "path": ["0", "0", "1", "2", "3", "4", "5"], "rt": [17435, 901, 96, 96, 152], "actions": ["up", "up", "up", "right", "up"], "actionTimes": [20062, 21467, 22060, 22661, 23316], "queries": {"click": {"state": {"target": ["2", "1", "8", "9", "4", "5"], "time": [4310, 5733, 7260, 8719, 12356, 14198]}, "edge": {"target": [], "time": []}}, "mouseover": {"state": {"target": ["1", "2", "1", "3", "8", "9", "3", "4", "3", "5", "6"], "time": [3192, 3578, 4886, 6120, 6637, 7603, 9319, 9735, 13367, 13808, 16981]}, "edge": {"target": [], "time": []}}, "mouseout": {"state": {"target": ["0", "1", "2", "1", "2", "3", "8", "9", "3", "4", "3", "5", "5"], "time": [2453, 3223, 4670, 5987, 6087, 6287, 7374, 8986, 9502, 13084, 13608, 15565, 16647]}, "edge": {"target": [], "time": []}}}, "displayed_time": "23.81", "trialTime": 27741, "trial_type": "mouselab-mdp", "trial_index": 11, "time_elapsed": 605416, "internal_node_id": "0.0-6.0-1.0-2.0"}}, {"uniqueid": "w93919182:a36105320", "current_trial": 12, "dateTime": 1693389305046, "trialdata": {"revealed_states": [], "clicked_states": ["32", "27"], "num_clicks_accrued": [0, 0, 0, 0, 0, 0, 0, 0, 0, 0, 0, 0, 0], "stateRewards": ["", -1, 3, -5, -2, -13, -9, -34, -7, -81, 32, 35, -2, -2, 1, -14, -32, 81, 7, 4, 82, 56, -8, -1, 3, -8, 6, -24, -24, -53, 2, 38, 61, 54], "withholdReward": false, "trial_id": "mdp_trial_4", "block": "test", "trialIndex": 5, "score": 52.7, "costs": -4.3, "simulationMode": [null, null, null, null, null], "rewards": [-1, 3, -8, 2, 61], "path": ["0", "0", "23", "24", "25", "30", "32"], "rt": [11502, 607, 213, 184, 44], "actions": ["left", "left", "left", "down", "down"], "actionTimes": [14432, 15557, 16277, 16966, 17524], "queries": {"click": {"state": {"target": ["32", "27"], "time": [4007, 7831]}, "edge": {"target": [], "time": []}}, "mouseover": {"state": {"target": ["0", "23", "30", "32", "28", "27", "10", "18", "15", "17"], "time": [3160, 3184, 3307, 3691, 5551, 7491, 8431, 8648, 8781, 8898]}, "edge": {"target": [], "time": []}}, "mouseout": {"state": {"target": ["6", "0", "23", "30", "32", "28", "27", "27", "10", "18", "15", "17"], "time": [1503, 3173, 3220, 3336, 4285, 5617, 7921, 8332, 8448, 8748, 8831, 8965]}, "edge": {"target": [], "time": []}}}, "displayed_time": "18.05", "trialTime": 21486, "trial_type": "mouselab-mdp", "trial_index": 12, "time_elapsed": 627168, "internal_node_id": "0.0-6.0-1.0-3.0"}}, {"uniqueid": "w93919182:a36105320", "current_trial": 13, "dateTime": 1693389326846, "trialdata": {"revealed_states": [], "clicked_states": ["21", "32"], "num_clicks_accrued": [0, 0, 0, 0, 0, 0, 0, 0, 0, 0, 0, 0, 0], "stateRewards": ["", 1, 1, -7, -9, -44, 24, -83, -15, 44, -24, 72, -2, -3, 4, -5, 57, 55, 29, -11, 22, 12, -25, -1, 2, 7, 12, 33, -8, 47, -4, 8, 50, -4], "withholdReward": false, "trial_id": "mdp_trial_5", "block": "test", "trialIndex": 6, "score": 49.7, "costs": -4.3, "simulationMode": [null, null, null, null, null], "rewards": [-1, 2, 7, -4, 50], "path": ["0", "0", "23", "24", "25", "30", "32"], "rt": [10855, 710, 191, 192, 593], "actions": ["left", "left", "left", "down", "down"], "actionTimes": [13578, 14791, 15471, 16174, 17271], "queries": {"click": {"state": {"target": ["21", "32"], "time": [4244, 7496]}, "edge": {"target": [], "time": []}}, "mouseover": {"state": {"target": ["21", "19", "22", "31", "30", "33", "33", "32", "30"], "time": [3541, 5133, 5732, 5850, 5868, 5916, 6249, 6549, 7865]}, "edge": {"target": [], "time": []}}, "mouseout": {"state": {"target": ["14", "13", "12", "0", "21", "19", "22", "31", "30", "33", "33", "32", "30", "24", "23", "0"], "time": [1953, 1967, 2003, 2875, 4900, 5716, 5766, 5866, 5899, 6085, 6265, 7587, 7982, 20145, 20180, 20312]}, "edge": {"target": [], "time": []}}}, "displayed_time": "17.78", "trialTime": 21527, "trial_type": "mouselab-mdp", "trial_index": 13, "time_elapsed": 648967, "internal_node_id": "0.0-6.0-1.0-4.0"}}, {"uniqueid": "w93919182:a36105320", "current_trial": 14, "dateTime": 1693389347839, "trialdata": {"revealed_states": [], "clicked_states": [], "num_clicks_accrued": [0, 0, 0, 0, 0, 0, 0, 0, 0, 0, 0, 0, 0], "stateRewards": ["", -2, 3, -1, -9, 44, 48, -37, -3, 71, -39, 87, -1, 3, -4, 4, -21, 59, -15, -8, -1, 28, -38, 2, 4, 4, 8, -85, -72, -63, 14, 58, 63, -46], "withholdReward": false, "trial_id": "mdp_trial_6", "block": "test", "trialIndex": 7, "score": -67, "costs": 0, "simulationMode": [null, null, null, null, null], "rewards": [2, 4, 4, 8, -85], "path": ["0", "0", "23", "24", "25", "26", "27"], "rt": [3327, 523, 275, 83, 624], "actions": ["left", "left", "left", "up", "up"], "actionTimes": [6385, 7408, 8191, 8783, 9923], "queries": {"click": {"state": {"target": [], "time": []}, "edge": {"target": [], "time": []}}, "mouseover": {"state": {"target": [], "time": []}, "edge": {"target": [], "time": []}}, "mouseout": {"state": {"target": [], "time": []}, "edge": {"target": [], "time": []}}}, "displayed_time": "17.07", "trialTime": 20712, "trial_type": "mouselab-mdp", "trial_index": 14, "time_elapsed": 669961, "internal_node_id": "0.0-6.0-1.0-5.0"}}, {"uniqueid": "w93919182:a36105320", "current_trial": 15, "dateTime": 1693389372215, "trialdata": {"revealed_states": [], "clicked_states": [], "num_clicks_accrued": [0, 0, 0, 0, 0, 0, 0, 0, 0, 0, 0, 0, 0], "stateRewards": ["", -1, 1, -6, -1, 80, 23, 2, -11, 73, -81, 59, 1, 3, 5, -1, -26, 28, -3, 16, -59, -13, -50, -2, -2, 2, 15, -50, 86, 17, -4, 37, 35, 44], "withholdReward": false, "trial_id": "mdp_trial_7", "block": "test", "trialIndex": 8, "score": 56, "costs": 0, "simulationMode": [null, null, null, null, null], "rewards": [-1, 1, -6, -11, 73], "path": ["0", "0", "1", "2", "3", "8", "9"], "rt": [11055, 632, 178, 1863, 890], "actions": ["up", "up", "up", "left", "up"], "actionTimes": [13556, 14705, 15385, 17753, 19145], "queries": {"click": {"state": {"target": [], "time": []}, "edge": {"target": [], "time": []}}, "mouseover": {"state": {"target": ["1", "2", "3", "5", "3", "2"], "time": [3578, 4081, 6896, 7048, 8062, 8194]}, "edge": {"target": [], "time": []}}, "mouseout": {"state": {"target": ["0", "1", "2", "3", "5", "3"], "time": [1932, 3830, 6814, 6926, 7977, 8092]}, "edge": {"target": [], "time": []}}}, "displayed_time": "19.66", "trialTime": 24090, "trial_type": "mouselab-mdp", "trial_index": 15, "time_elapsed": 694336, "internal_node_id": "0.0-6.0-1.0-6.0"}}, {"uniqueid": "w93919182:a36105320", "current_trial": 16, "dateTime": 1693389409398, "trialdata": {"revealed_states": [], "clicked_states": ["21", "5", "17", "20"], "num_clicks_accrued": [0, 0, 0, 0, 0, 0, 0, 0, 0, 0, 0, 0, 0], "stateRewards": ["", -2, 3, 3, -14, 62, 36, 49, 16, 11, 17, -84, 2, -1, 6, 2, -82, -73, 49, -6, -87, 48, 50, -1, -2, -1, -16, -11, 37, -44, 4, 55, 73, -10], "withholdReward": false, "trial_id": "mdp_trial_8", "block": "test", "trialIndex": 9, "score": 43.4, "costs": -8.6, "simulationMode": [null, null, null, null, null], "rewards": [-2, 3, 3, -14, 62], "path": ["0", "0", "1", "2", "3", "4", "5"], "rt": [21368, 738, 16, 605, 160], "actions": ["up", "up", "up", "right", "up"], "actionTimes": [28147, 29384, 29911, 31049, 31721], "queries": {"click": {"state": {"target": ["21", "5", "17", "20"], "time": [8820, 13304, 17148, 21059]}, "edge": {"target": [], "time": []}}, "mouseover": {"state": {"target": ["0", "12", "22", "21", "22", "7", "4", "5", "6", "16", "17", "17", "20"], "time": [7025, 7053, 7122, 7409, 10350, 12437, 12487, 12805, 13983, 14017, 14149, 14699, 18115]}, "edge": {"target": [], "time": []}}, "mouseout": {"state": {"target": ["2", "1", "0", "12", "22", "21", "22", "7", "4", "5", "6", "16", "17", "17", "20"], "time": [5459, 5693, 7036, 7068, 7137, 10201, 10367, 12451, 12592, 13950, 14000, 14033, 14233, 17848, 21549]}, "edge": {"target": [], "time": []}}}, "displayed_time": "32.21", "trialTime": 36897, "trial_type": "mouselab-mdp", "trial_index": 16, "time_elapsed": 731520, "internal_node_id": "0.0-6.0-1.0-7.0"}}, {"uniqueid": "w93919182:a36105320", "current_trial": 17, "dateTime": 1693389440774, "trialdata": {"revealed_states": [], "clicked_states": [], "num_clicks_accrued": [0, 0, 0, 0, 0, 0, 0, 0, 0, 0, 0, 0, 0], "stateRewards": ["", 1, -1, 1, 13, 31, -56, 72, 2, 41, 5, 63, -2, -3, -2, 3, -71, -26, 52, 13, -31, 24, -67, 2, -2, 5, 4, 66, 43, 72, 9, 86, -26, 44], "withholdReward": false, "trial_id": "mdp_trial_9", "block": "test", "trialIndex": 10, "score": 45, "costs": 0, "simulationMode": [null, null, null, null, null], "rewards": [1, -1, 1, 13, 31], "path": ["0", "0", "1", "2", "3", "4", "5"], "rt": [13770, 827, 45, 1856, 266], "actions": ["up", "up", "up", "right", "up"], "actionTimes": [23091, 24432, 24982, 27342, 28119], "queries": {"click": {"state": {"target": [], "time": []}, "edge": {"target": [], "time": []}}, "mouseover": {"state": {"target": ["23", "24", "25", "30", "32"], "time": [10057, 10143, 10310, 12663, 13294]}, "edge": {"target": [], "time": []}}, "mouseout": {"state": {"target": ["7", "0", "23", "24", "25", "30"], "time": [7963, 10044, 10094, 10279, 12580, 13163]}, "edge": {"target": [], "time": []}}}, "displayed_time": "28.62", "trialTime": 31096, "trial_type": "mouselab-mdp", "trial_index": 17, "time_elapsed": 762896, "internal_node_id": "0.0-6.0-1.0-8.0"}}, {"uniqueid": "w93919182:a36105320", "current_trial": 18, "dateTime": 1693389489215, "trialdata": {"revealed_states": [], "clicked_states": ["29", "9", "33", "32", "20", "21", "7", "16", "17", "11", "6"], "num_clicks_accrued": [0, 0, 0, 0, 0, 0, 0, 0, 0, 0, 0, 0, 0], "stateRewards": ["", -1, -3, -6, -2, -7, 80, -45, -3, -38, -72, 76, 2, 1, 7, 4, -62, 14, -74, 14, -87, -21, -88, -2, 1, -7, -10, 66, 56, -76, 10, -29, -72, -70], "withholdReward": false, "trial_id": "mdp_trial_10", "block": "test", "trialIndex": 11, "score": 44.35000000000001, "costs": -23.649999999999995, "simulationMode": [null, null, null, null, null], "rewards": [-1, -3, -6, -2, 80], "path": ["0", "0", "1", "2", "3", "4", "6"], "rt": [39361, 214, 8, 148, 745], "actions": ["up", "up", "up", "right", "right"], "actionTimes": [41750, 42483, 42994, 43667, 44915], "queries": {"click": {"state": {"target": ["29", "9", "33", "32", "20", "21", "7", "16", "17", "11", "6"], "time": [3678, 7255, 10480, 14030, 17532, 20870, 24020, 27839, 31330, 34766, 37970]}, "edge": {"target": [], "time": []}}, "mouseover": {"state": {"target": ["23", "24", "25", "29", "27", "8", "9", "8", "10", "28", "30", "33", "30", "32", "13", "14", "20", "21", "19", "14", "16", "7", "16", "17", "17", "3", "8", "11", "8", "3", "4", "6"], "time": [2755, 2821, 2888, 3161, 4618, 4934, 6597, 7933, 8250, 8516, 8766, 9316, 10965, 11397, 14613, 14652, 15062, 18395, 21243, 21293, 21726, 22444, 25292, 28540, 29006, 32129, 32255, 32355, 35125, 35204, 35453, 36210]}, "edge": {"target": [], "time": []}}, "mouseout": {"state": {"target": ["32", "0", "23", "24", "25", "29", "27", "8", "9", "8", "10", "28", "30", "33", "30", "32", "13", "14", "20", "21", "19", "14", "16", "7", "16", "17", "17", "16", "3", "8", "11", "11", "8", "3", "4"], "time": [1521, 2191, 2788, 2855, 2939, 4368, 4734, 5140, 7884, 8083, 8416, 8582, 8832, 10881, 10981, 14513, 14634, 14829, 18145, 21176, 21277, 21310, 22176, 24675, 28423, 28640, 31755, 31855, 32222, 32323, 34870, 35105, 35162, 35287, 35938]}, "edge": {"target": [], "time": []}}}, "displayed_time": "45.42", "trialTime": 48124, "trial_type": "mouselab-mdp", "trial_index": 18, "time_elapsed": 811336, "internal_node_id": "0.0-6.0-1.0-9.0"}}, {"uniqueid": "w93919182:a36105320", "current_trial": 19, "dateTime": 1693389526751, "trialdata": {"revealed_states": [], "clicked_states": ["11", "6", "5", "7", "10", "9"], "num_clicks_accrued": [0, 0, 0, 0, 0, 0, 0, 0, 0, 0, 0, 0, 0], "stateRewards": ["", 1, 4, 7, -16, -84, -6, -46, -12, -7, -49, -26, -1, 2, -4, 2, 22, 37, -64, 1, 88, -13, -10, 1, -4, -2, 5, 2, -10, -34, 9, 66, 55, 38], "withholdReward": false, "trial_id": "mdp_trial_11", "block": "test", "trialIndex": 12, "score": -10.899999999999999, "costs": -12.9, "simulationMode": [null, null, null, null, null], "rewards": [1, -4, -2, 5, 2], "path": ["0", "0", "23", "24", "25", "26", "27"], "rt": [25205, 1223, 324, 226, 3132], "actions": ["left", "left", "left", "up", "up"], "actionTimes": [27435, 29170, 30018, 30754, 34394], "queries": {"click": {"state": {"target": ["11", "6", "5", "7", "10", "9"], "time": [4769, 8020, 11220, 14419, 17686, 20844]}, "edge": {"target": [], "time": []}}, "mouseover": {"state": {"target": ["1", "2", "8", "11", "8", "3", "4", "6", "5", "4", "7", "7", "2", "10", "8", "9"], "time": [3377, 3489, 3658, 3808, 5353, 5436, 5557, 5953, 8701, 11616, 11717, 12000, 14850, 15069, 18064, 18197]}, "edge": {"target": [], "time": []}}, "mouseout": {"state": {"target": ["6", "1", "2", "8", "11", "8", "3", "4", "6", "5", "4", "7", "7", "2", "10", "8", "9"], "time": [1376, 3405, 3540, 3706, 5303, 5419, 5503, 5736, 8635, 11583, 11683, 11850, 14815, 14932, 17997, 18097, 24100]}, "edge": {"target": [], "time": []}}}, "displayed_time": "34.91", "trialTime": 37235, "trial_type": "mouselab-mdp", "trial_index": 19, "time_elapsed": 848873, "internal_node_id": "0.0-6.0-1.0-10.0"}}, {"uniqueid": "w93919182:a36105320", "current_trial": 20, "dateTime": 1693389549416, "trialdata": {"revealed_states": [], "clicked_states": [], "num_clicks_accrued": [0, 0, 0, 0, 0, 0, 0, 0, 0, 0, 0, 0, 0], "stateRewards": ["", 2, 3, 6, -12, -29, 12, 87, 4, 35, -30, 67, 2, 3, -5, -9, 44, 69, -8, 1, 45, -8, 28, -2, -1, -8, 11, -12, -5, 81, 9, 87, 82, 88], "withholdReward": false, "trial_id": "mdp_trial_12", "block": "test", "trialIndex": 13, "score": 86, "costs": 0, "simulationMode": [null, null, null, null, null], "rewards": [2, 3, 6, -12, 87], "path": ["0", "0", "1", "2", "3", "4", "7"], "rt": [6588, 120, 163, 740, 90], "actions": ["up", "up", "up", "right", "down"], "actionTimes": [9371, 9987, 10651, 11907, 12507], "queries": {"click": {"state": {"target": [], "time": []}, "edge": {"target": [], "time": []}}, "mouseover": {"state": {"target": ["1"], "time": [3706]}, "edge": {"target": [], "time": []}}, "mouseout": {"state": {"target": ["0", "1"], "time": [3377, 3790]}, "edge": {"target": [], "time": []}}}, "displayed_time": "16.79", "trialTime": 22396, "trial_type": "mouselab-mdp", "trial_index": 20, "time_elapsed": 871537, "internal_node_id": "0.0-6.0-1.0-11.0"}}, {"uniqueid": "w93919182:a36105320", "current_trial": 21, "dateTime": 1693389571019, "trialdata": {"revealed_states": [], "clicked_states": [], "num_clicks_accrued": [0, 0, 0, 0, 0, 0, 0, 0, 0, 0, 0, 0, 0], "stateRewards": ["", 2, -4, 1, -12, -59, -53, -74, 16, -88, -66, 66, 1, -2, 8, -9, -14, 22, 25, -1, -39, 47, -14, -1, -1, -2, 1, -4, 52, -26, 15, -7, 46, 43], "withholdReward": false, "trial_id": "mdp_trial_13", "block": "test", "trialIndex": 14, "score": 23, "costs": 0, "simulationMode": [null, null, null, null, null], "rewards": [1, -2, 8, -9, 25], "path": ["0", "0", "12", "13", "14", "15", "18"], "rt": [6332, 658, 52, 199, 298], "actions": ["right", "right", "right", "up", "left"], "actionTimes": [11016, 12183, 12742, 13471, 14271], "queries": {"click": {"state": {"target": [], "time": []}, "edge": {"target": [], "time": []}}, "mouseover": {"state": {"target": ["0"], "time": [5230]}, "edge": {"target": [], "time": []}}, "mouseout": {"state": {"target": ["0"], "time": [5707]}, "edge": {"target": [], "time": []}}}, "displayed_time": "18.69", "trialTime": 21286, "trial_type": "mouselab-mdp", "trial_index": 21, "time_elapsed": 893142, "internal_node_id": "0.0-6.0-1.0-12.0"}}, {"uniqueid": "w93919182:a36105320", "current_trial": 22, "dateTime": 1693389593702, "trialdata": {"revealed_states": [], "clicked_states": [], "num_clicks_accrued": [0, 0, 0, 0, 0, 0, 0, 0, 0, 0, 0, 0, 0], "stateRewards": ["", -1, 3, -4, -14, 78, 67, 2, 13, -32, 28, 39, -2, 1, -4, -4, -4, -42, -86, 11, 64, -29, -32, -1, -4, 2, -7, 5, 68, -61, 2, -21, 85, 50], "withholdReward": false, "trial_id": "mdp_trial_14", "block": "test", "trialIndex": 15, "score": 70, "costs": 0, "simulationMode": [null, null, null, null, null], "rewards": [-2, 1, -4, 11, 64], "path": ["0", "0", "12", "13", "14", "19", "20"], "rt": [4798, 650, 188, 240, 1027], "actions": ["right", "right", "right", "down", "right"], "actionTimes": [8675, 9835, 10523, 11275, 12827], "queries": {"click": {"state": {"target": [], "time": []}, "edge": {"target": [], "time": []}}, "mouseover": {"state": {"target": [], "time": []}, "edge": {"target": [], "time": []}}, "mouseout": {"state": {"target": ["0"], "time": [3245]}, "edge": {"target": [], "time": []}}}, "displayed_time": "17.88", "trialTime": 22388, "trial_type": "mouselab-mdp", "trial_index": 22, "time_elapsed": 915823, "internal_node_id": "0.0-6.0-1.0-13.0"}}, {"uniqueid": "w93919182:a36105320", "current_trial": 23, "dateTime": 1693389612014, "trialdata": {"revealed_states": [], "clicked_states": [], "num_clicks_accrued": [0, 0, 0, 0, 0, 0, 0, 0, 0, 0, 0, 0, 0], "stateRewards": ["", -1, -4, -3, 1, -45, -67, -24, 14, 32, 22, 22, -1, 1, -5, -7, 72, 84, -79, -5, 19, -40, -2, -1, -2, 8, -3, 84, -25, -28, 11, 64, -66, 77], "withholdReward": false, "trial_id": "mdp_trial_15", "block": "test", "trialIndex": 16, "score": -12, "costs": 0, "simulationMode": [null, null, null, null, null], "rewards": [-1, 1, -5, -5, -2], "path": ["0", "0", "12", "13", "14", "19", "22"], "rt": [6145, 177, 85, 159, 454], "actions": ["right", "right", "right", "down", "left"], "actionTimes": [8162, 8841, 9433, 10105, 11049], "queries": {"click": {"state": {"target": [], "time": []}, "edge": {"target": [], "time": []}}, "mouseover": {"state": {"target": [], "time": []}, "edge": {"target": [], "time": []}}, "mouseout": {"state": {"target": ["0"], "time": [1834]}, "edge": {"target": [], "time": []}}}, "displayed_time": "16.02", "trialTime": 17953, "trial_type": "mouselab-mdp", "trial_index": 23, "time_elapsed": 934135, "internal_node_id": "0.0-6.0-1.0-14.0"}}, {"uniqueid": "w93919182:a36105320", "current_trial": 24, "dateTime": 1693389634759, "trialdata": {"revealed_states": [], "clicked_states": ["32", "21"], "num_clicks_accrued": [0, 0, 0, 0, 0, 0, 0, 0, 0, 0, 0, 0, 0], "stateRewards": ["", 1, 1, 6, -14, -40, 37, 16, -13, 33, -68, 49, 2, 4, 3, 6, 55, 27, 32, 10, -65, 20, -87, 2, 1, -6, -5, -42, 12, 29, -8, 16, 76, -33], "withholdReward": false, "trial_id": "mdp_trial_16", "block": "test", "trialIndex": 17, "score": 60.7, "costs": -4.3, "simulationMode": [null, null, null, null, null], "rewards": [2, 1, -6, -8, 76], "path": ["0", "0", "23", "24", "25", "30", "32"], "rt": [13707, 487, 33, 141, 530], "actions": ["left", "left", "left", "down", "down"], "actionTimes": [15773, 16764, 17291, 17948, 18972], "queries": {"click": {"state": {"target": ["32", "21"], "time": [5078, 9032]}, "edge": {"target": [], "time": []}}, "mouseover": {"state": {"target": ["12", "13", "19", "21", "32", "21", "21", "20"], "time": [2985, 3047, 3267, 3532, 4765, 5944, 7160, 10326]}, "edge": {"target": [], "time": []}}, "mouseout": {"state": {"target": ["0", "12", "13", "19", "21", "32", "21", "21", "20"], "time": [1877, 3015, 3116, 3487, 4216, 5696, 5978, 10193, 10392]}, "edge": {"target": [], "time": []}}}, "displayed_time": "19.47", "trialTime": 22405, "trial_type": "mouselab-mdp", "trial_index": 24, "time_elapsed": 956880, "internal_node_id": "0.0-6.0-1.0-15.0"}}, {"uniqueid": "w93919182:a36105320", "current_trial": 25, "dateTime": 1693389655527, "trialdata": {"revealed_states": [], "clicked_states": [], "num_clicks_accrued": [0, 0, 0, 0, 0, 0, 0, 0, 0, 0, 0, 0, 0], "stateRewards": ["", 2, 4, 4, 9, -88, -10, 44, 16, -54, 64, 78, 1, 2, 5, 16, 80, 36, 7, -4, 9, -47, -70, -1, -3, 6, -16, 11, 80, 28, 8, -1, 34, -17], "withholdReward": false, "trial_id": "mdp_trial_17", "block": "test", "trialIndex": 18, "score": -3, "costs": 0, "simulationMode": [null, null, null, null, null], "rewards": [-1, -3, 6, -16, 11], "path": ["0", "0", "23", "24", "25", "26", "27"], "rt": [9588, 199, 11, 45, 665], "actions": ["left", "left", "left", "up", "up"], "actionTimes": [12887, 13598, 14108, 14676, 15846], "queries": {"click": {"state": {"target": [], "time": []}, "edge": {"target": [], "time": []}}, "mouseover": {"state": {"target": ["12", "13", "15"], "time": [4474, 4552, 4821]}, "edge": {"target": [], "time": []}}, "mouseout": {"state": {"target": ["18", "12", "0", "0", "12", "13"], "time": [2054, 2087, 2119, 3689, 4518, 4622]}, "edge": {"target": [], "time": []}}}, "displayed_time": "17.30", "trialTime": 20454, "trial_type": "mouselab-mdp", "trial_index": 25, "time_elapsed": 977648, "internal_node_id": "0.0-6.0-1.0-16.0"}}, {"uniqueid": "w93919182:a36105320", "current_trial": 26, "dateTime": 1693389680199, "trialdata": {"revealed_states": [], "clicked_states": ["16"], "num_clicks_accrued": [0, 0, 0, 0, 0, 0, 0, 0, 0, 0, 0, 0, 0], "stateRewards": ["", 2, -2, 7, -11, -76, -65, -23, 16, -58, 30, 81, 1, 2, 7, 14, 9, 55, -2, 6, 11, -15, 31, -1, -1, -3, 2, 15, 2, 46, 15, 18, 45, -34], "withholdReward": false, "trial_id": "mdp_trial_18", "block": "test", "trialIndex": 19, "score": 101.85, "costs": -2.15, "simulationMode": [null, null, null, null, null], "rewards": [2, -2, 7, 16, 81], "path": ["0", "0", "1", "2", "3", "8", "11"], "rt": [10982, 1111, 56, 129, 368], "actions": ["up", "up", "up", "left", "left"], "actionTimes": [13124, 14746, 15306, 15947, 16819], "queries": {"click": {"state": {"target": ["16"], "time": [3806]}, "edge": {"target": [], "time": []}}, "mouseover": {"state": {"target": ["12", "16", "15", "21", "21", "22", "22", "8", "9"], "time": [2924, 3357, 4555, 4973, 8141, 8390, 9142, 9491, 9671]}, "edge": {"target": [], "time": []}}, "mouseout": {"state": {"target": ["15", "19", "22", "0", "12", "16", "15", "21", "21", "22", "22", "8"], "time": [1212, 1491, 1504, 1794, 2956, 4504, 4571, 7725, 8308, 8584, 9154, 9537]}, "edge": {"target": [], "time": []}}}, "displayed_time": "17.32", "trialTime": 24340, "trial_type": "mouselab-mdp", "trial_index": 26, "time_elapsed": 1002321, "internal_node_id": "0.0-6.0-1.0-17.0"}}, {"uniqueid": "w93919182:a36105320", "current_trial": 27, "dateTime": 1693389700566, "trialdata": {"revealed_states": [], "clicked_states": [], "num_clicks_accrued": [0, 0, 0, 0, 0, 0, 0, 0, 0, 0, 0, 0, 0], "stateRewards": ["", -1, -3, 3, 5, 56, 39, 50, -1, -80, 33, -46, 1, -2, -6, -8, 87, 48, 54, -11, -20, -64, -54, -2, 3, -7, -3, 12, 88, 35, -16, -46, -70, -3], "withholdReward": false, "trial_id": "mdp_trial_19", "block": "test", "trialIndex": 20, "score": 43, "costs": 0, "simulationMode": [null, null, null, null, null], "rewards": [-1, -3, 3, 5, 39], "path": ["0", "0", "1", "2", "3", "4", "6"], "rt": [11052, 658, 118, 20, 218], "actions": ["up", "up", "up", "right", "right"], "actionTimes": [13639, 14804, 15429, 15948, 16693], "queries": {"click": {"state": {"target": [], "time": []}, "edge": {"target": [], "time": []}}, "mouseover": {"state": {"target": ["7", "18", "19", "21", "25", "25", "26", "26", "28"], "time": [3288, 4022, 4185, 4639, 5304, 5552, 5750, 6199, 6789]}, "edge": {"target": [], "time": []}}, "mouseout": {"state": {"target": ["9", "11", "10", "1", "0", "0", "7", "18", "19", "21", "25", "25", "26", "26", "28"], "time": [1637, 1718, 1768, 1803, 1886, 2336, 3334, 4050, 4433, 5153, 5451, 5582, 5834, 6249, 6955]}, "edge": {"target": [], "time": []}}}, "displayed_time": "17.19", "trialTime": 20061, "trial_type": "mouselab-mdp", "trial_index": 27, "time_elapsed": 1022687, "internal_node_id": "0.0-6.0-1.0-18.0"}}, {"uniqueid": "w93919182:a36105320", "current_trial": 28, "dateTime": 1693389722110, "trialdata": {"revealed_states": [], "clicked_states": [], "num_clicks_accrued": [0, 0, 0, 0, 0, 0, 0, 0, 0, 0, 0, 0, 0], "stateRewards": ["", 1, 1, -5, 8, -6, 45, 16, -6, -7, -22, -38, -1, -4, 8, -11, -16, 21, -45, -15, -59, -32, 42, -1, 3, 6, 11, -7, 34, -27, -8, 85, 43, -9], "withholdReward": false, "trial_id": "mdp_trial_20", "block": "test", "trialIndex": 21, "score": -1, "costs": 0, "simulationMode": [null, null, null, null, null], "rewards": [1, 1, -5, 8, -6], "path": ["0", "0", "1", "2", "3", "4", "5"], "rt": [13564, 73, 47, 656, 56], "actions": ["up", "up", "up", "right", "up"], "actionTimes": [15661, 16245, 16803, 17989, 18540], "queries": {"click": {"state": {"target": [], "time": []}, "edge": {"target": [], "time": []}}, "mouseover": {"state": {"target": ["12", "19", "19", "14", "15", "6", "5"], "time": [3025, 3379, 3676, 3826, 3908, 4058, 4509]}, "edge": {"target": [], "time": []}}, "mouseout": {"state": {"target": ["0", "0", "12", "19", "19", "14", "15", "6", "5"], "time": [1528, 2978, 3092, 3493, 3791, 3874, 3941, 4158, 5606]}, "edge": {"target": [], "time": []}}}, "displayed_time": "19.07", "trialTime": 21205, "trial_type": "mouselab-mdp", "trial_index": 28, "time_elapsed": 1044231, "internal_node_id": "0.0-6.0-1.0-19.0"}}, {"uniqueid": "w93919182:a36105320", "current_trial": 29, "dateTime": 1693389759419, "trialdata": {"revealed_states": [], "clicked_states": [], "num_clicks_accrued": [0, 0, 0, 0, 0, 0, 0, 0, 0, 0, 0, 0, 0], "stateRewards": ["", -1, 3, 1, -11, -22, -36, 19, -5, -70, -52, 50, -2, -4, 4, -2, -41, -83, 29, -2, 22, 10, -6, -2, 3, -2, 14, 54, 44, 77, -9, -65, -37, -40], "withholdReward": false, "trial_id": "mdp_trial_21", "block": "test", "trialIndex": 22, "score": -87, "costs": 0, "simulationMode": [null, null, null, null, null], "rewards": [-2, -4, 4, -2, -83], "path": ["0", "0", "12", "13", "14", "15", "17"], "rt": [3004, 632, 459, 37, 12], "actions": ["right", "right", "right", "up", "right"], "actionTimes": [23729, 24864, 25823, 26367, 26911], "queries": {"click": {"state": {"target": [], "time": []}, "edge": {"target": [], "time": []}}, "mouseover": {"state": {"target": ["12", "13", "12", "0"], "time": [21489, 21618, 21836, 21937]}, "edge": {"target": [], "time": []}}, "mouseout": {"state": {"target": ["0", "12", "13", "12"], "time": [21286, 21588, 21801, 21867]}, "edge": {"target": [], "time": []}}}, "displayed_time": "34.73", "trialTime": 36976, "trial_type": "mouselab-mdp", "trial_index": 29, "time_elapsed": 1081542, "internal_node_id": "0.0-6.0-1.0-20.0"}}, {"uniqueid": "w93919182:a36105320", "current_trial": 30, "dateTime": 1693389793374, "trialdata": {"revealed_states": [], "clicked_states": ["29", "17", "21", "32", "9", "5"], "num_clicks_accrued": [0, 0, 0, 0, 0, 0, 0, 0, 0, 0, 0, 0, 0], "stateRewards": ["", -2, 1, -8, 12, -65, -79, 16, 7, -80, -17, -45, -2, 2, -5, -2, -85, 23, -4, -7, 48, 27, -76, 2, 3, 5, 2, 43, 71, -13, 7, -49, 59, -31], "withholdReward": false, "trial_id": "mdp_trial_22", "block": "test", "trialIndex": 23, "score": 63.1, "costs": -12.9, "simulationMode": [null, null, null, null, null], "rewards": [2, 3, 5, 7, 59], "path": ["0", "0", "23", "24", "25", "30", "32"], "rt": [25743, 478, 353, 55, 243], "actions": ["left", "left", "left", "down", "down"], "actionTimes": [26832, 27824, 28679, 29230, 30000], "queries": {"click": {"state": {"target": ["29", "17", "21", "32", "9", "5"], "time": [2626, 6833, 10113, 13360, 17249, 20755]}, "edge": {"target": [], "time": []}}, "mouseover": {"state": {"target": ["0", "28", "26", "29", "26", "28", "15", "17", "20", "21", "32", "24", "28", "10", "8", "9", "5", "5", "4", "7"], "time": [1691, 2022, 2118, 2392, 2968, 3018, 3535, 4154, 7617, 8132, 11037, 14097, 14163, 14264, 14330, 14480, 17795, 18061, 22443, 22660]}, "edge": {"target": [], "time": []}}, "mouseout": {"state": {"target": ["0", "0", "28", "26", "29", "26", "28", "15", "17", "20", "21", "32", "24", "28", "10", "8", "9", "5", "5", "5", "4", "7"], "time": [1572, 1792, 2089, 2239, 2708, 2985, 3068, 3651, 7499, 7800, 10583, 13946, 14147, 14213, 14297, 14363, 17745, 17828, 20851, 22281, 22593, 22826]}, "edge": {"target": [], "time": []}}}, "displayed_time": "30.49", "trialTime": 33608, "trial_type": "mouselab-mdp", "trial_index": 30, "time_elapsed": 1115496, "internal_node_id": "0.0-6.0-1.0-21.0"}}, {"uniqueid": "w93919182:a36105320", "current_trial": 31, "dateTime": 1693389828007, "trialdata": {"revealed_states": [], "clicked_states": ["9", "29", "17", "6", "5", "12"], "num_clicks_accrued": [0, 0, 0, 0, 0, 0, 0, 0, 0, 0, 0, 0, 0], "stateRewards": ["", 1, 1, 4, 11, 83, -66, 18, -16, -23, 5, 25, 1, -3, 1, -12, 18, 24, -86, -11, -64, 36, 40, 2, 1, -6, 13, 55, 29, 72, -2, 81, -72, -41], "withholdReward": false, "trial_id": "mdp_trial_23", "block": "test", "trialIndex": 24, "score": 89.5, "costs": -10.5, "simulationMode": [null, null, null, null, null], "rewards": [1, 1, 4, 11, 83], "path": ["0", "0", "1", "2", "3", "4", "5"], "rt": [24108, 125, 590, 58, 68], "actions": ["up", "up", "up", "right", "up"], "actionTimes": [27077, 27709, 28805, 29356, 29948], "queries": {"click": {"state": {"target": ["9", "29", "17", "6", "5", "12"], "time": [4359, 7559, 11310, 14904, 18183, 22903]}, "edge": {"target": [], "time": []}}, "mouseover": {"state": {"target": ["1", "2", "3", "9", "5", "4", "10", "28", "29", "26", "2", "3", "5", "6", "16", "17", "5", "6", "6", "5", "5", "4", "7", "12", "7"], "time": [3449, 3490, 3679, 4081, 5074, 5657, 5757, 5807, 6141, 7889, 8039, 8123, 8422, 9738, 9789, 9989, 12736, 13503, 13953, 15487, 16125, 18685, 18934, 19967, 24003]}, "edge": {"target": [], "time": []}}, "mouseout": {"state": {"target": ["0", "1", "2", "3", "9", "5", "4", "10", "28", "29", "26", "2", "3", "5", "6", "16", "17", "5", "6", "6", "5", "5", "4", "7", "12", "7"], "time": [2345, 3477, 3507, 3810, 4941, 5607, 5673, 5774, 5864, 7873, 7923, 8072, 8157, 9688, 9755, 9805, 11854, 13453, 13520, 15336, 15670, 18618, 18801, 19384, 23681, 32432]}, "edge": {"target": [], "time": []}}}, "displayed_time": "30.46", "trialTime": 34245, "trial_type": "mouselab-mdp", "trial_index": 31, "time_elapsed": 1150129, "internal_node_id": "0.0-6.0-1.0-22.0"}}, {"uniqueid": "w93919182:a36105320", "current_trial": 32, "dateTime": 1693389872295, "trialdata": {"revealed_states": [], "clicked_states": ["33", "9", "29", "17", "6", "11", "21", "32"], "num_clicks_accrued": [0, 0, 0, 0, 0, 0, 0, 0, 0, 0, 0, 0, 0], "stateRewards": ["", 1, 4, -8, -5, -15, -7, 21, 13, -30, 40, -65, 1, 1, 5, -14, 35, 27, -38, -11, 36, -58, -47, -2, 4, -3, 13, -16, -49, 22, 15, -56, -44, -10], "withholdReward": false, "trial_id": "mdp_trial_24", "block": "test", "trialIndex": 25, "score": -54.2, "costs": -17.2, "simulationMode": [null, null, null, null, null], "rewards": [-2, 4, -3, 13, -49], "path": ["0", "0", "23", "24", "25", "26", "28"], "rt": [35493, 107, 908, 580, 56], "actions": ["left", "left", "left", "up", "right"], "actionTimes": [37421, 38037, 39453, 40525, 41083], "queries": {"click": {"state": {"target": ["33", "9", "29", "17", "6", "11", "21", "32"], "time": [4048, 7972, 11199, 14589, 19094, 22457, 26247, 30182]}, "edge": {"target": [], "time": []}}, "mouseover": {"state": {"target": ["23", "24", "25", "33", "29", "8", "9", "11", "27", "29", "26", "28", "1", "18", "15", "17", "6", "4", "3", "8", "11", "10", "1", "13", "19", "21", "32"], "time": [3008, 3110, 3194, 3745, 4909, 7476, 7764, 8540, 8689, 9039, 11572, 11622, 11677, 11854, 12038, 12272, 18508, 20201, 20685, 20784, 21028, 22934, 23433, 25700, 25731, 26023, 29551]}, "edge": {"target": [], "time": []}}, "mouseout": {"state": {"target": ["0", "23", "24", "25", "33", "29", "8", "9", "11", "27", "29", "26", "28", "1", "18", "15", "17", "6", "4", "3", "8", "11", "10", "1", "13", "19", "21", "21"], "time": [2983, 3061, 3161, 3279, 4525, 7409, 7612, 8473, 8573, 8706, 11555, 11605, 11638, 11700, 11938, 12188, 17723, 20157, 20318, 20701, 20951, 22817, 23083, 25674, 25715, 25817, 26325, 28215]}, "edge": {"target": [], "time": []}}}, "displayed_time": "41.61", "trialTime": 43949, "trial_type": "mouselab-mdp", "trial_index": 32, "time_elapsed": 1194417, "internal_node_id": "0.0-6.0-1.0-23.0"}}, {"uniqueid": "w93919182:a36105320", "current_trial": 33, "dateTime": 1693389906814, "trialdata": {"revealed_states": [], "clicked_states": ["18", "28", "17", "29", "10", "9", "7"], "num_clicks_accrued": [0, 0, 0, 0, 0, 0, 0, 0, 0, 0, 0, 0, 0], "stateRewards": ["", 1, 1, -2, 7, -31, -6, 76, 1, -36, -16, -53, 2, 1, 7, 13, -47, -10, 47, -7, 72, 46, -56, -2, -2, -2, 11, -80, 44, 38, 16, 67, 85, -78], "withholdReward": false, "trial_id": "mdp_trial_25", "block": "test", "trialIndex": 26, "score": 67.95, "costs": -15.05, "simulationMode": [null, null, null, null, null], "rewards": [1, 1, -2, 7, 76], "path": ["0", "0", "1", "2", "3", "4", "7"], "rt": [26560, 152, 487, 55, 122], "actions": ["up", "up", "up", "right", "down"], "actionTimes": [28621, 29270, 30254, 30805, 31454], "queries": {"click": {"state": {"target": ["18", "28", "17", "29", "10", "9", "7"], "time": [4200, 7310, 10640, 13768, 17218, 21056, 25062]}, "edge": {"target": [], "time": []}}, "mouseover": {"state": {"target": ["12", "13", "12", "13", "18", "1", "28", "1", "15", "17", "17", "15", "18", "1", "26", "29", "26", "27", "10", "8", "9", "3", "7"], "time": [2832, 3086, 3196, 3578, 3980, 5143, 5359, 7841, 8474, 8493, 9324, 11207, 11240, 11289, 11440, 11657, 14988, 15238, 16558, 20621, 20739, 24359, 24688]}, "edge": {"target": [], "time": []}}, "mouseout": {"state": {"target": ["32", "0", "12", "13", "12", "13", "18", "1", "28", "28", "1", "15", "17", "17", "15", "18", "1", "28", "26", "29", "26", "27", "10", "8", "9", "3"], "time": [935, 1512, 2879, 3111, 3486, 3897, 4993, 5209, 7399, 7791, 7891, 8491, 8591, 11174, 11223, 11256, 11323, 11406, 11590, 14472, 15154, 16138, 20576, 20691, 24241, 24473]}, "edge": {"target": [], "time": []}}}, "displayed_time": "31.95", "trialTime": 34190, "trial_type": "mouselab-mdp", "trial_index": 33, "time_elapsed": 1228936, "internal_node_id": "0.0-6.0-1.0-24.0"}}, {"uniqueid": "w93919182:a36105320", "current_trial": 34, "dateTime": 1693389940454, "trialdata": {"revealed_states": [], "clicked_states": ["20", "32", "6", "21", "16", "11"], "num_clicks_accrued": [0, 0, 0, 0, 0, 0, 0, 0, 0, 0, 0, 0, 0], "stateRewards": ["", 1, 1, -6, -2, 7, 77, 3, 16, -16, 66, 31, -1, 3, -8, -6, 33, -50, -48, 7, -60, -66, 36, 2, -3, 3, -7, -12, -61, -79, -4, 8, 74, -70], "withholdReward": false, "trial_id": "mdp_trial_26", "block": "test", "trialIndex": 27, "score": 58.1, "costs": -12.9, "simulationMode": [null, null, null, null, null], "rewards": [1, 1, -6, -2, 77], "path": ["0", "0", "1", "2", "3", "4", "6"], "rt": [24911, 690, 364, 97, 354], "actions": ["up", "up", "up", "right", "right"], "actionTimes": [27399, 28582, 29454, 30053, 30910], "queries": {"click": {"state": {"target": ["20", "32", "6", "21", "16", "11"], "time": [4399, 9056, 12436, 16879, 20128, 24168]}, "edge": {"target": [], "time": []}}, "mouseover": {"state": {"target": ["1", "2", "7", "15", "17", "20", "21", "32", "18", "16", "6", "15", "14", "19", "21", "19", "14", "15", "16", "7", "8", "11"], "time": [2742, 2803, 3110, 3269, 3315, 4284, 7819, 8800, 9929, 9949, 10338, 16297, 16332, 16376, 16663, 18293, 18442, 18543, 18876, 21041, 21725, 23945]}, "edge": {"target": [], "time": []}}, "mouseout": {"state": {"target": ["7", "1", "2", "7", "15", "17", "20", "20", "21", "32", "18", "16", "6", "6", "15", "14", "19", "21", "19", "14", "15", "16", "7", "8"], "time": [1708, 2758, 2835, 3203, 3302, 3332, 4472, 7114, 8334, 9325, 9946, 9963, 14577, 16200, 16329, 16362, 16463, 16982, 18393, 18493, 18693, 20975, 21058, 23592]}, "edge": {"target": [], "time": []}}}, "displayed_time": "31.41", "trialTime": 33318, "trial_type": "mouselab-mdp", "trial_index": 34, "time_elapsed": 1262576, "internal_node_id": "0.0-6.0-1.0-25.0"}}, {"uniqueid": "w93919182:a36105320", "current_trial": 35, "dateTime": 1693389962331, "trialdata": {"revealed_states": [], "clicked_states": [], "num_clicks_accrued": [0, 0, 0, 0, 0, 0, 0, 0, 0, 0, 0, 0, 0], "stateRewards": ["", 1, 4, 5, 8, -55, -11, 8, 16, -37, 77, -22, -2, 3, -8, -10, 45, 87, -67, 4, 17, -33, -22, -1, -3, 7, 6, -39, -85, 75, -1, 7, -48, 45], "withholdReward": false, "trial_id": "mdp_trial_27", "block": "test", "trialIndex": 28, "score": 70, "costs": 0, "simulationMode": [null, null, null, null, null], "rewards": [-2, 3, -8, -10, 87], "path": ["0", "0", "12", "13", "14", "15", "17"], "rt": [13324, 487, 173, 94, 398], "actions": ["right", "right", "right", "up", "right"], "actionTimes": [15675, 16658, 17331, 17930, 18835], "queries": {"click": {"state": {"target": [], "time": []}, "edge": {"target": [], "time": []}}, "mouseover": {"state": {"target": ["7", "15", "20", "21"], "time": [3496, 3860, 3907, 11158]}, "edge": {"target": [], "time": []}}, "mouseout": {"state": {"target": ["11", "10", "0", "7", "15", "20", "21"], "time": [1562, 1712, 3179, 3780, 3893, 3923, 11190]}, "edge": {"target": [], "time": []}}}, "displayed_time": "19.35", "trialTime": 21554, "trial_type": "mouselab-mdp", "trial_index": 35, "time_elapsed": 1284454, "internal_node_id": "0.0-6.0-1.0-26.0"}}, {"uniqueid": "w93919182:a36105320", "current_trial": 36, "dateTime": 1693389984870, "trialdata": {"revealed_states": [], "clicked_states": ["25", "27", "7"], "num_clicks_accrued": [0, 0, 0, 0, 0, 0, 0, 0, 0, 0, 0, 0, 0], "stateRewards": ["", -2, 1, -7, 9, 8, 25, 61, -7, -17, 69, -81, 1, 4, -4, -11, 16, 67, 44, 3, 6, -45, -54, -2, 3, 6, -11, -15, 32, -47, 3, -39, -6, -88], "withholdReward": false, "trial_id": "mdp_trial_28", "block": "test", "trialIndex": 29, "score": 56.75, "costs": -5.25, "simulationMode": [null, null, null, null, null], "rewards": [-2, 1, -7, 9, 61], "path": ["0", "0", "1", "2", "3", "4", "7"], "rt": [12564, 446, 627, 103, 110], "actions": ["up", "up", "up", "right", "down"], "actionTimes": [16140, 17107, 18234, 18842, 19467], "queries": {"click": {"state": {"target": ["25", "27", "7"], "time": [5768, 7098, 10895]}, "edge": {"target": [], "time": []}}, "mouseover": {"state": {"target": ["0", "23", "24", "25", "26", "27", "10", "2", "7", "18"], "time": [3951, 4816, 4946, 5462, 6593, 6742, 8012, 8476, 10595, 14392]}, "edge": {"target": [], "time": []}}, "mouseout": {"state": {"target": ["0", "0", "23", "24", "25", "26", "27", "27", "10", "2", "7"], "time": [3008, 4541, 4913, 5211, 6509, 6676, 7171, 7725, 8276, 10085, 14341]}, "edge": {"target": [], "time": []}}}, "displayed_time": "19.98", "trialTime": 22187, "trial_type": "mouselab-mdp", "trial_index": 36, "time_elapsed": 1306992, "internal_node_id": "0.0-6.0-1.0-27.0"}}, {"uniqueid": "w93919182:a36105320", "current_trial": 37, "dateTime": 1693390011343, "trialdata": {"revealed_states": [], "clicked_states": ["32", "21", "9", "5", "29"], "num_clicks_accrued": [0, 0, 0, 0, 0, 0, 0, 0, 0, 0, 0, 0, 0], "stateRewards": ["", 1, 1, -5, 10, -31, 73, 14, -8, -23, 63, -70, -1, 2, 8, 7, 25, -59, 27, -10, -40, -71, -15, -2, 3, -8, -5, -19, 77, -34, 7, 67, 63, 19], "withholdReward": false, "trial_id": "mdp_trial_29", "block": "test", "trialIndex": 30, "score": 52.25, "costs": -10.75, "simulationMode": [null, null, null, null, null], "rewards": [-2, 3, -8, 7, 63], "path": ["0", "0", "23", "24", "25", "30", "32"], "rt": [18364, 374, 536, 74, 276], "actions": ["left", "left", "left", "down", "down"], "actionTimes": [20778, 21666, 22699, 23282, 24082], "queries": {"click": {"state": {"target": ["32", "21", "9", "5", "29"], "time": [3927, 7330, 11287, 14366, 17613]}, "edge": {"target": [], "time": []}}, "mouseover": {"state": {"target": ["23", "24", "30", "32", "21", "13", "7", "4", "9", "5", "4", "10", "29", "26"], "time": [3283, 3350, 3432, 3753, 5314, 10579, 10647, 10680, 11029, 12326, 15792, 15875, 16210, 18140]}, "edge": {"target": [], "time": []}}, "mouseout": {"state": {"target": ["18", "23", "23", "0", "0", "23", "24", "30", "32", "21", "13", "7", "4", "9", "5", "5", "4", "10", "29", "26"], "time": [1089, 1318, 1501, 1853, 3219, 3318, 3383, 3500, 4364, 10516, 10613, 10679, 10692, 11994, 14483, 15476, 15825, 15892, 17748, 18157]}, "edge": {"target": [], "time": []}}}, "displayed_time": "24.59", "trialTime": 26139, "trial_type": "mouselab-mdp", "trial_index": 37, "time_elapsed": 1333464, "internal_node_id": "0.0-6.0-1.0-28.0"}}, {"uniqueid": "w93919182:a36105320", "current_trial": 38, "dateTime": 1693390051974, "trialdata": {"revealed_states": [], "clicked_states": ["17", "29", "32", "7", "10", "21", "9", "5"], "num_clicks_accrued": [0, 0, 0, 0, 0, 0, 0, 0, 0, 0, 0, 0, 0], "stateRewards": ["", 2, -1, 5, 6, 10, 86, 55, 10, -45, 63, -71, 1, -2, 5, -8, -50, -72, 36, 15, 61, 12, 33, -1, -4, 6, 5, 79, -56, -21, -16, -87, 60, -81], "withholdReward": false, "trial_id": "mdp_trial_30", "block": "test", "trialIndex": 31, "score": 61.8, "costs": -17.2, "simulationMode": [null, null, null, null, null], "rewards": [2, -1, 5, 10, 63], "path": ["0", "0", "1", "2", "3", "8", "10"], "rt": [29298, 32, 12, 71, 31], "actions": ["up", "up", "up", "left", "down"], "actionTimes": [33854, 34388, 34916, 35508, 36052], "queries": {"click": {"state": {"target": ["17", "29", "32", "7", "10", "21", "9", "5"], "time": [5942, 9180, 13385, 16602, 19664, 23014, 26511, 29700]}, "edge": {"target": [], "time": []}}, "mouseover": {"state": {"target": ["1", "15", "17", "15", "18", "26", "29", "24", "31", "32", "23", "1", "7", "2", "10", "18", "14", "19", "21", "22", "7", "9", "5", "4", "18", "13", "19", "20"], "time": [5172, 5253, 5686, 6999, 7082, 7482, 7583, 9831, 9981, 13223, 13996, 14145, 14345, 16944, 17211, 20193, 20301, 20493, 20676, 23458, 23658, 24375, 27140, 30322, 30524, 30805, 31188, 31271]}, "edge": {"target": [], "time": []}}, "mouseout": {"state": {"target": ["1", "1", "15", "17", "15", "18", "26", "29", "24", "31", "32", "23", "1", "7", "2", "10", "18", "14", "19", "21", "22", "7", "9", "5", "4", "18", "13", "19", "20"], "time": [4086, 5184, 5265, 6950, 7066, 7116, 7554, 9664, 9864, 10098, 13796, 14046, 14196, 16930, 17045, 20077, 20226, 20444, 20593, 23391, 23475, 23674, 26940, 30272, 30339, 30539, 31022, 31238, 31338]}, "edge": {"target": [], "time": []}}}, "displayed_time": "36.57", "trialTime": 40286, "trial_type": "mouselab-mdp", "trial_index": 38, "time_elapsed": 1374096, "internal_node_id": "0.0-6.0-1.0-29.0"}}, {"uniqueid": "w93919182:a36105320", "current_trial": 39, "dateTime": 1693390084846, "trialdata": {"revealed_states": [], "clicked_states": ["29", "28", "17", "18", "16", "5"], "num_clicks_accrued": [0, 0, 0, 0, 0, 0, 0, 0, 0, 0, 0, 0, 0], "stateRewards": ["", -1, 3, 8, 9, -53, 20, -84, 2, -28, -62, -31, -1, -2, -7, 2, 51, 58, 45, -4, -17, -41, 36, 2, -2, -7, -15, 29, -54, -37, -16, -43, 65, -17], "withholdReward": false, "trial_id": "mdp_trial_31", "block": "test", "trialIndex": 32, "score": 37.1, "costs": -12.9, "simulationMode": [null, null, null, null, null], "rewards": [-1, -2, -7, 2, 58], "path": ["0", "0", "12", "13", "14", "15", "17"], "rt": [24679, 125, 133, 107, 36], "actions": ["right", "right", "right", "up", "right"], "actionTimes": [27469, 28099, 28747, 29348, 29891], "queries": {"click": {"state": {"target": ["29", "28", "17", "18", "16", "5"], "time": [4390, 7926, 11116, 14175, 18215, 22405]}, "edge": {"target": [], "time": []}}, "mouseover": {"state": {"target": ["12", "26", "29", "26", "28", "1", "18", "15", "17", "15", "18", "28", "1", "18", "15", "17", "15", "18", "16", "7", "4", "5", "4", "18"], "time": [3439, 3784, 3851, 5214, 5249, 5315, 5382, 5414, 5465, 7348, 7366, 7589, 8214, 8280, 8352, 8502, 11479, 11662, 17847, 19659, 21979, 22194, 23023, 24240]}, "edge": {"target": [], "time": []}}, "mouseout": {"state": {"target": ["17", "14", "13", "12", "0", "23", "0", "12", "26", "29", "26", "28", "1", "18", "15", "17", "15", "18", "28", "1", "18", "15", "17", "15", "18", "16", "7", "4", "5", "4", "18"], "time": [1821, 2003, 2015, 2031, 2068, 2336, 3035, 3568, 3815, 5182, 5231, 5281, 5332, 5398, 5431, 7335, 7364, 7380, 8148, 8247, 8313, 8407, 11446, 11562, 17445, 18975, 21828, 22110, 22974, 23090, 24323]}, "edge": {"target": [], "time": []}}}, "displayed_time": "30.41", "trialTime": 32541, "trial_type": "mouselab-mdp", "trial_index": 39, "time_elapsed": 1406968, "internal_node_id": "0.0-6.0-1.0-30.0"}}, {"uniqueid": "w93919182:a36105320", "current_trial": 40, "dateTime": 1693390115671, "trialdata": {"revealed_states": [], "clicked_states": ["29", "32", "21", "10", "6", "18"], "num_clicks_accrued": [0, 0, 0, 0, 0, 0, 0, 0, 0, 0, 0, 0, 0], "stateRewards": ["", 1, -4, 6, -3, 40, 76, -51, 5, -24, -63, 44, -2, -2, 8, 1, 76, -85, -58, 10, 59, 20, 11, -2, 3, -3, 3, -82, -10, 54, -7, -57, -6, -32], "withholdReward": false, "trial_id": "mdp_trial_32", "block": "test", "trialIndex": 33, "score": 63.1, "costs": -12.9, "simulationMode": [null, null, null, null, null], "rewards": [1, -4, 6, -3, 76], "path": ["0", "0", "1", "2", "3", "4", "6"], "rt": [21368, 122, 497, 105, 48], "actions": ["up", "up", "up", "right", "right"], "actionTimes": [23208, 23840, 24848, 25471, 26030], "queries": {"click": {"state": {"target": ["29", "32", "21", "10", "6", "18"], "time": [3330, 6539, 9849, 12990, 16418, 20053]}, "edge": {"target": [], "time": []}}, "mouseover": {"state": {"target": ["25", "29", "30", "32", "21", "19", "13", "12", "1", "10", "2", "7", "6", "18", "15"], "time": [2631, 3064, 3757, 3824, 7473, 10620, 10840, 10954, 11321, 11554, 13370, 13486, 15589, 18234, 21033]}, "edge": {"target": [], "time": []}}, "mouseout": {"state": {"target": ["18", "0", "25", "29", "30", "32", "21", "19", "13", "12", "1", "10", "2", "7", "6", "18", "15", "15", "13"], "time": [977, 1544, 2728, 3574, 3774, 6877, 10505, 10737, 10904, 11004, 11387, 13353, 13419, 13537, 16935, 20566, 21266, 28449, 28483]}, "edge": {"target": [], "time": []}}}, "displayed_time": "26.57", "trialTime": 30488, "trial_type": "mouselab-mdp", "trial_index": 40, "time_elapsed": 1437792, "internal_node_id": "0.0-6.0-1.0-31.0"}}, {"uniqueid": "w93919182:a36105320", "current_trial": 41, "dateTime": 1693390167070, "trialdata": {"revealed_states": [], "clicked_states": ["5", "21", "11", "6", "27", "32", "28", "18", "17", "16"], "num_clicks_accrued": [0, 0, 0, 0, 0, 0, 0, 0, 0, 0, 0, 0, 0], "stateRewards": ["", -1, -4, -1, -5, -28, -23, -15, -15, -38, 59, -87, 2, 2, -5, 9, -55, -39, -71, -6, 85, -85, -11, -1, -2, 5, -10, 1, 25, 41, -4, 69, -35, 86], "withholdReward": false, "trial_id": "mdp_trial_33", "block": "test", "trialIndex": 34, "score": -4.4999999999999964, "costs": -21.499999999999996, "simulationMode": [null, null, null, null, null], "rewards": [-1, -2, 5, -10, 25], "path": ["0", "0", "23", "24", "25", "26", "28"], "rt": [39941, 192, 536, 67, 36], "actions": ["left", "left", "left", "up", "right"], "actionTimes": [45576, 46279, 47327, 47902, 48470], "queries": {"click": {"state": {"target": ["5", "21", "11", "6", "27", "32", "28", "18", "17", "16"], "time": [7155, 10378, 13576, 16829, 20493, 24764, 29688, 32993, 36131, 40402]}, "edge": {"target": [], "time": []}}, "mouseover": {"state": {"target": ["1", "3", "5", "4", "18", "13", "19", "21", "22", "0", "10", "9", "11", "8", "3", "4", "6", "6", "1", "23", "31", "25", "26", "27", "26", "25", "30", "33", "32", "33", "26", "28", "28", "26", "29", "15", "18", "15", "17", "15", "16", "15", "23", "24"], "time": [6289, 6508, 6922, 8185, 8325, 8401, 8524, 8839, 10801, 10950, 11050, 11417, 12483, 13949, 13999, 14049, 14116, 14582, 17386, 17715, 17812, 17987, 18074, 18514, 23231, 23514, 23914, 24164, 24230, 28230, 28944, 28980, 29515, 31054, 31258, 31907, 32108, 33476, 33628, 36841, 40191, 41120, 42120, 42362]}, "edge": {"target": [], "time": []}}, "mouseout": {"state": {"target": ["0", "1", "3", "5", "4", "18", "13", "19", "21", "22", "0", "10", "9", "11", "8", "3", "4", "6", "6", "1", "23", "31", "25", "26", "27", "26", "25", "30", "33", "32", "33", "26", "28", "28", "26", "29", "15", "18", "15", "17", "15", "18", "16", "15", "23"], "time": [6205, 6339, 6669, 8136, 8237, 8373, 8424, 8702, 10415, 10833, 10967, 11084, 12350, 13689, 13983, 14033, 14082, 14200, 17211, 17494, 17798, 17850, 18040, 18507, 22913, 23420, 23911, 24074, 24198, 27193, 28664, 28978, 29202, 30992, 31142, 31592, 32074, 33423, 33563, 36807, 36922, 36989, 41003, 41204, 42236]}, "edge": {"target": [], "time": []}}}, "displayed_time": "49.00", "trialTime": 51048, "trial_type": "mouselab-mdp", "trial_index": 41, "time_elapsed": 1489191, "internal_node_id": "0.0-6.0-1.0-32.0"}}, {"uniqueid": "w93919182:a36105320", "current_trial": 42, "dateTime": 1693390195464, "trialdata": {"revealed_states": [], "clicked_states": ["5", "21", "29", "11", "31", "6"], "num_clicks_accrued": [0, 0, 0, 0, 0, 0, 0, 0, 0, 0, 0, 0, 0], "stateRewards": ["", 2, -1, -3, 16, -3, -16, -62, -1, 13, -26, 43, -1, 4, 3, -9, -54, -37, -3, -12, -71, -68, -57, 1, -3, 2, -9, 2, -2, -9, -11, 84, -52, 55], "withholdReward": false, "trial_id": "mdp_trial_34", "block": "test", "trialIndex": 35, "score": 60.1, "costs": -12.9, "simulationMode": [null, null, null, null, null], "rewards": [1, -3, 2, -11, 84], "path": ["0", "0", "23", "24", "25", "30", "31"], "rt": [21211, 68, 53, 167, 140], "actions": ["left", "left", "left", "down", "right"], "actionTimes": [23166, 23726, 24294, 24990, 25647], "queries": {"click": {"state": {"target": ["5", "21", "29", "11", "31", "6"], "time": [3625, 6952, 10029, 13339, 16705, 20048]}, "edge": {"target": [], "time": []}}, "mouseover": {"state": {"target": ["7", "4", "5", "5", "4", "18", "13", "22", "21", "32", "30", "29", "28", "7", "3", "9", "11", "26", "25", "30", "31", "23", "6"], "time": [2738, 2834, 2981, 3431, 4302, 4465, 4564, 4648, 5314, 7779, 8446, 8696, 11577, 11794, 12261, 12426, 12627, 13877, 13933, 14096, 14560, 17125, 17542]}, "edge": {"target": [], "time": []}}, "mouseout": {"state": {"target": ["24", "23", "0", "7", "4", "5", "5", "5", "4", "18", "13", "22", "21", "32", "30", "29", "29", "28", "7", "3", "9", "11", "26", "25", "30", "31", "23"], "time": [1151, 1305, 2422, 2802, 2917, 3118, 3688, 4232, 4347, 4514, 4615, 4798, 7330, 8113, 8562, 10136, 10695, 11611, 11978, 12294, 12544, 13694, 13898, 13995, 14276, 16801, 17142]}, "edge": {"target": [], "time": []}}}, "displayed_time": "26.14", "trialTime": 28029, "trial_type": "mouselab-mdp", "trial_index": 42, "time_elapsed": 1517587, "internal_node_id": "0.0-6.0-1.0-33.0"}}, {"uniqueid": "w93919182:a36105320", "current_trial": 43, "dateTime": 1693390221885, "trialdata": {"revealed_states": [], "clicked_states": ["6", "21", "9", "32", "28"], "num_clicks_accrued": [0, 0, 0, 0, 0, 0, 0, 0, 0, 0, 0, 0, 0], "stateRewards": ["", -1, 3, 2, 9, 41, 4, -46, -12, -54, -87, -25, 2, 3, -1, 11, -77, 12, -33, -9, -32, 35, 72, 1, 3, -7, 4, 37, 65, -73, 6, 77, -43, 8], "withholdReward": false, "trial_id": "mdp_trial_35", "block": "test", "trialIndex": 36, "score": 55.25, "costs": -10.75, "simulationMode": [null, null, null, null, null], "rewards": [1, 3, -7, 4, 65], "path": ["0", "0", "23", "24", "25", "26", "28"], "rt": [18385, 69, 14, 26, 565], "actions": ["left", "left", "left", "up", "right"], "actionTimes": [21051, 21625, 22153, 22713, 23787], "queries": {"click": {"state": {"target": ["6", "21", "9", "32", "28"], "time": [3700, 6843, 10175, 13315, 16510]}, "edge": {"target": [], "time": []}}, "mouseover": {"state": {"target": ["6", "6", "16", "17", "19", "21", "22", "12", "2", "3", "9", "8", "33", "32", "30", "24", "28"], "time": [3080, 3380, 4643, 5127, 5710, 5828, 7560, 7676, 7843, 7943, 8292, 11075, 11409, 11774, 14986, 15373, 15823]}, "edge": {"target": [], "time": []}}, "mouseout": {"state": {"target": ["6", "18", "12", "0", "0", "6", "6", "16", "17", "19", "21", "22", "12", "2", "3", "9", "8", "33", "32", "30", "24"], "time": [914, 1297, 1347, 1531, 1814, 3095, 4543, 4661, 5387, 5767, 7377, 7610, 7709, 7893, 8043, 10508, 11092, 11492, 14341, 15057, 15740]}, "edge": {"target": [], "time": []}}}, "displayed_time": "24.29", "trialTime": 25890, "trial_type": "mouselab-mdp", "trial_index": 43, "time_elapsed": 1544007, "internal_node_id": "0.0-6.0-1.0-34.0"}}, {"uniqueid": "w93919182:a36105320", "current_trial": 44, "dateTime": 1693390241366, "trialdata": {"revealed_states": [], "clicked_states": ["17", "29", "7"], "num_clicks_accrued": [0, 0, 0, 0, 0, 0, 0, 0, 0, 0, 0, 0, 0], "stateRewards": ["", 2, -3, -4, -1, 25, -16, 16, 10, -71, -20, -55, 1, 3, -4, -9, 1, 32, 11, -6, 32, -50, -41, -1, 4, 4, -8, 7, -81, 70, 2, -52, 45, -10], "withholdReward": false, "trial_id": "mdp_trial_36", "block": "test", "trialIndex": 37, "score": 62.55, "costs": -6.449999999999999, "simulationMode": [null, null, null, null, null], "rewards": [-1, 4, 4, -8, 70], "path": ["0", "0", "23", "24", "25", "26", "29"], "rt": [11168, 683, 44, 87, 543], "actions": ["left", "left", "left", "up", "left"], "actionTimes": [13427, 14628, 15170, 15763, 16820], "queries": {"click": {"state": {"target": ["17", "29", "7"], "time": [3202, 6435, 9821]}, "edge": {"target": [], "time": []}}, "mouseover": {"state": {"target": ["12", "13", "17", "15", "1", "29", "26", "28", "7"], "time": [2564, 2648, 3032, 4295, 4379, 5228, 6761, 6845, 8526]}, "edge": {"target": [], "time": []}}, "mouseout": {"state": {"target": ["28", "0", "0", "12", "13", "17", "15", "1", "29", "26", "28"], "time": [1155, 1700, 2517, 2616, 2682, 4278, 4328, 4395, 6727, 6811, 6877]}, "edge": {"target": [], "time": []}}}, "displayed_time": "17.33", "trialTime": 19100, "trial_type": "mouselab-mdp", "trial_index": 44, "time_elapsed": 1563488, "internal_node_id": "0.0-6.0-1.0-35.0"}}, {"uniqueid": "w93919182:a36105320", "current_trial": 45, "dateTime": 1693390261563, "trialdata": {"revealed_states": [], "clicked_states": ["20", "6", "29"], "num_clicks_accrued": [0, 0, 0, 0, 0, 0, 0, 0, 0, 0, 0, 0, 0], "stateRewards": ["", -2, 2, -4, -4, -59, 88, 62, -3, 69, -15, -34, 1, -2, -5, 7, -54, -20, 78, -16, -74, -53, -21, 2, -4, 2, 13, -8, -44, 26, 9, 72, 4, 17], "withholdReward": false, "trial_id": "mdp_trial_37", "block": "test", "trialIndex": 38, "score": 73.55, "costs": -6.449999999999999, "simulationMode": [null, null, null, null, null], "rewards": [-2, 2, -4, -4, 88], "path": ["0", "0", "1", "2", "3", "4", "6"], "rt": [11957, 158, 532, 19, 544], "actions": ["up", "up", "up", "right", "right"], "actionTimes": [14085, 14764, 15787, 16306, 17380], "queries": {"click": {"state": {"target": ["20", "6", "29"], "time": [3895, 7487, 10918]}, "edge": {"target": [], "time": []}}, "mouseover": {"state": {"target": ["13", "19", "20", "20", "15", "16", "6", "7", "1", "28", "26", "29"], "time": [2927, 3077, 3294, 3643, 4957, 5107, 6090, 8540, 8989, 9372, 9471, 9772]}, "edge": {"target": [], "time": []}}, "mouseout": {"state": {"target": ["7", "13", "19", "20", "20", "15", "16", "6", "6", "7", "1", "28", "26"], "time": [1061, 2976, 3261, 3344, 4691, 5023, 5940, 7562, 8339, 8739, 9039, 9438, 9662]}, "edge": {"target": [], "time": []}}}, "displayed_time": "17.89", "trialTime": 19819, "trial_type": "mouselab-mdp", "trial_index": 45, "time_elapsed": 1583685, "internal_node_id": "0.0-6.0-1.0-36.0"}}, {"uniqueid": "w93919182:a36105320", "current_trial": 46, "dateTime": 1693390283446, "trialdata": {"revealed_states": [], "clicked_states": ["32", "9", "29"], "num_clicks_accrued": [0, 0, 0, 0, 0, 0, 0, 0, 0, 0, 0, 0, 0], "stateRewards": ["", 1, 1, 1, 15, -76, 52, -32, 14, -57, 37, 49, 1, -4, -3, 6, 83, -76, 25, 9, 36, -1, -17, -1, 4, 4, -2, -22, -21, 58, -15, -57, 49, -24], "withholdReward": false, "trial_id": "mdp_trial_38", "block": "test", "trialIndex": 39, "score": 56.55, "costs": -6.449999999999999, "simulationMode": [null, null, null, null, null], "rewards": [-1, 4, 4, -2, 58], "path": ["0", "0", "23", "24", "25", "26", "29"], "rt": [13539, 139, 203, 4, 88], "actions": ["left", "left", "left", "up", "left"], "actionTimes": [15618, 16266, 16962, 17480, 18097], "queries": {"click": {"state": {"target": ["32", "9", "29"], "time": [2880, 7068, 10970]}, "edge": {"target": [], "time": []}}, "mouseover": {"state": {"target": ["0", "31", "32", "31", "23", "10", "8", "11", "9", "8", "29", "26", "28", "1"], "time": [2382, 2515, 2633, 3313, 3397, 3529, 4245, 6197, 6832, 10196, 10663, 14278, 14378, 14561]}, "edge": {"target": [], "time": []}}, "mouseout": {"state": {"target": ["29", "26", "12", "12", "0", "0", "31", "32", "31", "23", "10", "8", "11", "9", "8", "29", "26", "28", "1", "0"], "time": [1016, 1049, 1131, 1369, 1475, 2415, 2548, 3246, 3346, 3420, 3582, 4880, 6265, 8244, 10262, 14110, 14344, 14443, 19874, 19887]}, "edge": {"target": [], "time": []}}}, "displayed_time": "18.61", "trialTime": 21514, "trial_type": "mouselab-mdp", "trial_index": 46, "time_elapsed": 1605568, "internal_node_id": "0.0-6.0-1.0-37.0"}}, {"uniqueid": "w93919182:a36105320", "current_trial": 47, "dateTime": 1693390308238, "trialdata": {"revealed_states": [], "clicked_states": ["17", "29", "32", "33", "21"], "num_clicks_accrued": [0, 0, 0, 0, 0, 0, 0, 0, 0, 0, 0, 0, 0], "stateRewards": ["", -1, -4, -1, -11, 43, 69, 39, 4, 17, -20, -82, -2, -1, 4, 8, -79, 24, -79, 11, 36, 64, 41, 2, 4, -1, 11, -79, -47, 75, -3, 63, -36, -19], "withholdReward": false, "trial_id": "mdp_trial_39", "block": "test", "trialIndex": 40, "score": 80.25, "costs": -10.75, "simulationMode": [null, null, null, null, null], "rewards": [2, 4, -1, 11, 75], "path": ["0", "0", "23", "24", "25", "26", "29"], "rt": [17887, 75, 321, 68, 5], "actions": ["left", "left", "left", "up", "left"], "actionTimes": [19594, 20177, 21009, 21586, 22120], "queries": {"click": {"state": {"target": ["17", "29", "32", "33", "21"], "time": [2635, 6827, 10171, 13411, 16497]}, "edge": {"target": [], "time": []}}, "mouseover": {"state": {"target": ["12", "13", "17", "15", "1", "28", "26", "29", "29", "30", "32", "21", "21", "31", "30", "33", "30", "31", "22", "21"], "time": [1976, 2022, 2360, 5927, 6007, 6242, 6287, 6373, 6627, 8470, 8887, 10603, 11153, 12646, 12685, 13056, 13635, 13685, 13851, 14101]}, "edge": {"target": [], "time": []}}, "mouseout": {"state": {"target": ["0", "12", "13", "17", "15", "1", "28", "26", "29", "29", "30", "32", "21", "21", "31", "30", "33", "30", "31", "22", "21"], "time": [1929, 2009, 2125, 4073, 5941, 6041, 6274, 6340, 6387, 8188, 8538, 10453, 10869, 12502, 12669, 12852, 13476, 13668, 13701, 13969, 16900]}, "edge": {"target": [], "time": []}}}, "displayed_time": "22.65", "trialTime": 24426, "trial_type": "mouselab-mdp", "trial_index": 47, "time_elapsed": 1630360, "internal_node_id": "0.0-6.0-1.0-38.0"}}, {"uniqueid": "w93919182:a36105320", "current_trial": 48, "dateTime": 1693390335150, "trialdata": {"revealed_states": [], "clicked_states": ["9", "32", "21", "5", "6"], "num_clicks_accrued": [0, 0, 0, 0, 0, 0, 0, 0, 0, 0, 0, 0, 0], "stateRewards": ["", -1, -3, 4, -10, -5, 79, -87, -2, 53, 29, -20, -2, -1, -5, 10, 27, 86, 46, -16, -29, 40, 3, 2, 4, -1, -6, 37, 79, -29, 7, 86, -62, 29], "withholdReward": false, "trial_id": "mdp_trial_40", "block": "test", "trialIndex": 41, "score": 58.25, "costs": -10.75, "simulationMode": [null, null, null, null, null], "rewards": [-1, -3, 4, -10, 79], "path": ["0", "0", "1", "2", "3", "4", "6"], "rt": [19970, 131, 251, 44, 504], "actions": ["up", "up", "up", "right", "right"], "actionTimes": [21671, 22317, 23070, 23621, 24654], "queries": {"click": {"state": {"target": ["9", "32", "21", "5", "6"], "time": [3466, 8168, 11271, 14633, 18266]}, "edge": {"target": [], "time": []}}, "mouseover": {"state": {"target": ["1", "2", "9", "9", "3", "15", "17", "21", "32", "21", "21", "19", "14", "16", "5", "6"], "time": [2360, 2407, 3044, 3213, 3874, 4007, 4041, 5324, 7980, 8539, 9023, 11812, 11850, 11939, 12354, 16619]}, "edge": {"target": [], "time": []}}, "mouseout": {"state": {"target": ["0", "1", "2", "9", "9", "3", "15", "17", "21", "32", "21", "21", "19", "14", "16", "5"], "time": [2312, 2393, 2445, 3078, 3841, 3891, 4024, 4074, 7359, 8406, 8556, 11737, 11832, 11896, 11993, 16519]}, "edge": {"target": [], "time": []}}}, "displayed_time": "25.17", "trialTime": 26534, "trial_type": "mouselab-mdp", "trial_index": 48, "time_elapsed": 1657271, "internal_node_id": "0.0-6.0-1.0-39.0"}}, {"uniqueid": "w93919182:a36105320", "current_trial": 49, "dateTime": 1693390421746, "trialdata": {"rt": 86584, "response": {"Q0": "$-2 to $2", "Q1": "$-16 to $16", "Q2": "$-32 to $32", "Q3": "The cost for clicking on nodes varied between nodes.", "Q4": "Slightly motivated"}, "question_order": [0, 1, 2, 3, 4], "trial_id": "final_quiz_control", "trial_type": "survey-multi-choice", "trial_index": 49, "time_elapsed": 1743869, "internal_node_id": "0.0-6.0-2.0"}}, {"uniqueid": "w93919182:a36105320", "current_trial": 50, "dateTime": 1693390496466, "trialdata": {"rt": 74697, "response": {"Q0": "Guess work", "Q1": "Not really just relied on guess work", "Q2": "It was difficult due to the cost of node inspector "}, "trial_id": "self_report_control", "trial_type": "survey-text", "trial_index": 50, "time_elapsed": 1818589, "internal_node_id": "0.0-6.0-3.0"}}, {"uniqueid": "w93919182:a36105320", "current_trial": 51, "dateTime": 1693390543666, "trialdata": {"rt": 47195, "response": {"Q0": "Strongly disagree", "Q1": "Strongly disagree", "Q2": "Strongly disagree", "Q3": "Strongly disagree", "Q4": "Strongly disagree", "Q5": "Strongly disagree", "Q6": "Strongly agree"}, "question_order": [0, 1, 2, 3, 4, 5, 6], "trial_id": "self_report_2", "trial_type": "survey-multi-choice", "trial_index": 51, "time_elapsed": 1865789, "internal_node_id": "0.0-6.0-4.0"}}, {"uniqueid": "w93919182:a36105320", "current_trial": 52, "dateTime": 1693390568477, "trialdata": {"rt": 24793, "response": {"gender": "female", "age": "30", "colorblind": "0", "effort": "0"}, "trial_type": "survey-html-form", "trial_index": 52, "time_elapsed": 1890600, "internal_node_id": "0.0-6.0-5.0"}}, {"uniqueid": "w93919182:a36105320", "current_trial": 53, "dateTime": 1693390595297, "trialdata": {"rt": 26811, "response": {"Q0": "No", "Q1": "No", "Q2": "None"}, "trial_type": "survey-text", "trial_index": 53, "time_elapsed": 1917420, "internal_node_id": "0.0-6.0-6.0"}}, {"uniqueid": "w93919182:a36105320", "current_trial": 54, "dateTime": 1693390637179, "trialdata": {"rt": 41867, "stimulus": "<h1>Completion Code Instructions (1/2)</h1>\n<br><br><br><br>\nYou have reached the end of the experiment! The completion code consists of two parts: (1) a code with 2 characters (2) a code with 6 characters. On this page, you will receive the second part of the code. The first part of the completion code will be on the next page.\n<br><br>\nThe second part of your completion code is: <b>EWEK22</b>\n<br><br>\nPlease note this down. Then, press 'Finish HIT' in order to find the first part of your completion code. Once the data has been saved, you will receive this code either in this window or in the original browser window where you started the experiment.\n", "response": 0, "trial_type": "html-button-response", "trial_index": 54, "time_elapsed": 1959302, "internal_node_id": "0.0-6.0-7.0"}}, {"uniqueid": "w93919182:a36105320", "current_trial": 55, "dateTime": 1693390638190, "trialdata": {"success": true, "trial_type": "fullscreen", "trial_index": 55, "time_elapsed": 1960313, "internal_node_id": "0.0-7.0"}}], "questiondata": {"params": {"CODE": "C6DMOQA6", "MIN_TIME": 14, "inspectCost": 1, "startTime": "Wed Aug 30 2023 11:44:36 GMT+0200 (South Africa Standard Time)", "bonusRate": 0.002, "variance": "1_2_4_8_44", "branching": "31123"}, "final_score": 1639.65}, "eventdata": [{"eventtype": "initialized", "value": null, "timestamp": 1693388675538, "interval": 0}, {"eventtype": "window_resize", "value": [1028, 778], "timestamp": 1693388675539, "interval": 1}, {"eventtype": "window_resize", "value": [1028, 778], "timestamp": 1693388676026, "interval": 487}, {"eventtype": "window_resize", "value": [1536, 864], "timestamp": 1693388681827, "interval": 5801}, {"eventtype": "window_resize", "value": [1028, 778], "timestamp": 1693390637472, "interval": 1955645}], "useragent": "Mozilla/5.0 (Windows NT 10.0; Win64; x64) AppleWebKit/537.36 (KHTML, like Gecko) Chrome/116.0.0.0 Safari/537.36", "mode": "live", "id": "w93919182:a36105320", "status": "user data saved", "Beginhit": "2023-08-30 09:44:33.229564", "Beginexp": "2023-08-30 09:44:43.422921", "Endhit": "2023-08-30 10:17:20.640664", "psiturkStatus": 3, "browser": "<redacted>", "platform": "windows", "language": "en-US"}