{"condition": 0, "counterbalance": 0, "assignmentId": "a62405296", "workerId": "w94417301", "hitId": "h27039662", "currenttrial": 55, "bonus": 0, "data": [{"uniqueid": "w94417301:a62405296", "current_trial": 0, "dateTime": 1691485132216, "trialdata": {"success": true, "trial_type": "fullscreen", "trial_index": 0, "time_elapsed": 3910, "internal_node_id": "0.0-0.0"}}, {"uniqueid": "w94417301:a62405296", "current_trial": 1, "dateTime": 1691485143558, "trialdata": {"view_history": [{"page_index": 0, "viewing_time": 11326}], "rt": 11327, "trial_id": "exp_instructions_misaligned", "trial_type": "instructions", "trial_index": 1, "time_elapsed": 15253, "internal_node_id": "0.0-1.0"}}, {"uniqueid": "w94417301:a62405296", "current_trial": 2, "dateTime": 1691485148225, "trialdata": {"success": true, "trial_type": "fullscreen", "trial_index": 2, "time_elapsed": 19919, "internal_node_id": "0.0-2.0-0.0"}}, {"uniqueid": "w94417301:a62405296", "current_trial": 3, "dateTime": 1691485261171, "trialdata": {"view_history": [{"page_index": 0, "viewing_time": 53290}, {"page_index": 1, "viewing_time": 21518}, {"page_index": 2, "viewing_time": 15931}, {"page_index": 3, "viewing_time": 22203}], "rt": 112943, "trial_id": "mouselab_instructions_1_misaligned", "trial_type": "instructions", "trial_index": 3, "time_elapsed": 132866, "internal_node_id": "0.0-2.0-1.0"}}, {"uniqueid": "w94417301:a62405296", "current_trial": 4, "dateTime": 1691485284719, "trialdata": {"revealed_states": [], "clicked_states": ["24", "26", "27", "23"], "num_clicks_accrued": [0, 0, 0, 0, 0, 0, 0, 0, 0, 0, 0, 0, 0], "stateRewards": ["", -10, 10, 10, -10, 10, 10, 10, -10, 10, -10, -10, -10, 10, 10, 10, -10, -10, -10, 10, 10, -10, -10, 10, 10, -10, 10, -10, -10, 10, 10, 10, -10, 10], "withholdReward": false, "trial_id": "practice_1", "block": "test", "trialIndex": 0, "score": 11.5, "costs": -2, "simulationMode": [null, null, null, null, null], "rewards": [10, 10, -10, 10, -10], "path": ["0", "0", "23", "24", "25", "26", "27"], "rt": [11584, 1578, 441, 484, 390], "actions": ["left", "left", "left", "up", "up"], "actionTimes": [14994, 17085, 18043, 19038, 19944], "queries": {"click": {"state": {"target": ["24", "26", "27", "23"], "time": [5664, 6891, 8403, 11054]}, "edge": {"target": [], "time": []}}, "mouseover": {"state": {"target": ["23", "24", "26", "26", "27", "23", "23", "24"], "time": [5038, 5170, 6140, 6623, 8004, 10106, 10494, 13258]}, "edge": {"target": [], "time": []}}, "mouseout": {"state": {"target": ["0", "23", "24", "26", "26", "27", "26", "24", "23", "23"], "time": [1856, 5087, 6123, 6173, 7099, 9423, 9536, 10088, 10242, 12486]}, "edge": {"target": [], "time": []}}}, "displayed_time": "20.45", "trialTime": 22448, "trial_type": "mouselab-mdp", "trial_index": 4, "time_elapsed": 156413, "internal_node_id": "0.0-2.0-2.0-0.0"}}, {"uniqueid": "w94417301:a62405296", "current_trial": 5, "dateTime": 1691485304368, "trialdata": {"revealed_states": [], "clicked_states": ["1", "3", "10", "9"], "num_clicks_accrued": [0, 0, 0, 0, 0, 0, 0, 0, 0, 0, 0, 0, 0], "stateRewards": ["", 10, 10, -10, 10, 10, -10, -10, 10, 10, 10, -10, 10, 10, 10, 10, -10, 10, 10, 10, -10, 10, -10, 10, 10, -10, -10, 10, -10, -10, -10, -10, -10, 10], "withholdReward": false, "trial_id": "practice_2", "block": "test", "trialIndex": 1, "score": 31.5, "costs": -2, "simulationMode": [null, null, null, null, null], "rewards": [10, 10, -10, 10, 10], "path": ["0", "0", "1", "2", "3", "8", "9"], "rt": [10466, 335, 1842, 321, 306], "actions": ["up", "up", "up", "left", "up"], "actionTimes": [12225, 13072, 15429, 16271, 17092], "queries": {"click": {"state": {"target": ["1", "3", "10", "9"], "time": [4385, 7226, 9594, 10789]}, "edge": {"target": [], "time": []}}, "mouseover": {"state": {"target": ["1", "2", "3", "2", "7", "7", "2", "10", "8", "9", "8", "2"], "time": [4083, 4935, 5988, 7818, 8684, 9003, 9049, 9283, 10187, 10468, 11405, 11451]}, "edge": {"target": [], "time": []}}, "mouseout": {"state": {"target": ["24", "23", "0", "1", "2", "3", "2", "7", "7", "2", "10", "8", "9", "8", "2"], "time": [1153, 1217, 3761, 4853, 5873, 7619, 8671, 8767, 9033, 9116, 9822, 10284, 11401, 11417, 11468]}, "edge": {"target": [], "time": []}}}, "displayed_time": "17.60", "trialTime": 19267, "trial_type": "mouselab-mdp", "trial_index": 5, "time_elapsed": 176062, "internal_node_id": "0.0-2.0-2.0-1.0"}}, {"uniqueid": "w94417301:a62405296", "current_trial": 6, "dateTime": 1691485333392, "trialdata": {"view_history": [{"page_index": 0, "viewing_time": 23127}, {"page_index": 1, "viewing_time": 5892}], "rt": 29020, "trial_id": "mouselab_instructions_2_misaligned", "trial_type": "instructions", "trial_index": 6, "time_elapsed": 205087, "internal_node_id": "0.0-2.0-3.0"}}, {"uniqueid": "w94417301:a62405296", "current_trial": 7, "dateTime": 1691485363608, "trialdata": {"rt": 30190, "response": {"Q0": "The cost for clicking on nodes may vary between nodes.", "Q1": "The better I perform the higher my bonus will be.", "Q2": "No, the amount of cash at each node of the web may be different each time.", "Q3": "To get the highest total score.", "Q4": "Only before moving the spider.", "Q5": "3 seconds"}, "question_order": [0, 1, 2, 3, 4, 5], "correct": {"Q0": "The cost for clicking on nodes may vary between nodes.", "Q1": "The better I perform the higher my bonus will be.", "Q2": "No, the amount of cash at each node of the web may be different each time.", "Q3": "To get the highest total score.", "Q4": "Only before moving the spider.", "Q5": "3 seconds"}, "trial_id": "mouselab_quiz_misaligned", "trial_type": "survey-multi-choice", "trial_index": 7, "time_elapsed": 235303, "internal_node_id": "0.0-2.0-4.0"}}, {"uniqueid": "w94417301:a62405296", "current_trial": 8, "dateTime": 1691485370200, "trialdata": {"rt": 6580, "stimulus": "\n<h1> Get ready to start the game! </h1>\n\nThank you for reading the instructions. Get ready start with the 40 rounds of this game.\n<br><br>\nIf you need to take a break, feel free to take one after the end of a round, before continuing to the next one.\n<br><br>\nRemember, the more money the spider gets, the bigger your bonus will be!\n<br><br>\n<div style='text-align: center;'>Press <code>space</code> to begin.</div>\n\n<br><br>\n(If, at any point, the <code>space</code> key does not take you to the next page, click once on the text and try again.)", "response": " ", "trial_id": "mdp_ready", "trial_type": "html-keyboard-response", "trial_index": 8, "time_elapsed": 241895, "internal_node_id": "0.0-4.0-0.0"}}, {"uniqueid": "w94417301:a62405296", "current_trial": 9, "dateTime": 1691485389896, "trialdata": {"revealed_states": [], "clicked_states": [], "num_clicks_accrued": [0, 0, 0, 0, 0, 0, 0, 0, 0, 0, 0, 0, 0], "stateRewards": ["", -1, -2, 4, 9, 10, -75, 39, 16, -43, 88, -19, -1, 1, 2, 4, -31, 10, 73, 12, 41, -64, -81, -2, 2, -6, 1, -81, -1, -26, 3, -59, -3, -20], "withholdReward": false, "trial_id": "mdp_trial_1", "block": "test", "trialIndex": 2, "score": -86, "costs": 0, "simulationMode": [null, null, null, null, null], "rewards": [-2, 2, -6, 1, -81], "path": ["0", "0", "23", "24", "25", "26", "27"], "rt": [5029, 385, 318, 338, 232], "actions": ["left", "left", "left", "up", "up"], "actionTimes": [8663, 9568, 10403, 11257, 12000], "queries": {"click": {"state": {"target": [], "time": []}, "edge": {"target": [], "time": []}}, "mouseover": {"state": {"target": ["23", "28", "23", "24", "24"], "time": [5168, 5433, 6150, 6198, 7699]}, "edge": {"target": [], "time": []}}, "mouseout": {"state": {"target": ["9", "10", "23", "28", "23", "24", "24"], "time": [2564, 2782, 5181, 5935, 6182, 6601, 7725]}, "edge": {"target": [], "time": []}}}, "displayed_time": "17.64", "trialTime": 19311, "trial_type": "mouselab-mdp", "trial_index": 9, "time_elapsed": 261590, "internal_node_id": "0.0-4.0-1.0-0.0"}}, {"uniqueid": "w94417301:a62405296", "current_trial": 10, "dateTime": 1691485412058, "trialdata": {"revealed_states": [], "clicked_states": ["12", "13", "18", "16"], "num_clicks_accrued": [0, 0, 0, 0, 0, 0, 0, 0, 0, 0, 0, 0, 0], "stateRewards": ["", -2, 1, -5, 2, -68, 80, 33, 10, 67, -59, 20, -1, -3, 3, 14, 74, -2, 24, -16, 63, 80, 46, -1, 4, 6, 12, 83, -38, -43, -4, 43, 14, -79], "withholdReward": false, "trial_id": "mdp_trial_2", "block": "test", "trialIndex": 3, "score": 82.6, "costs": -4.4, "simulationMode": [null, null, null, null, null], "rewards": [-1, -3, 3, 14, 74], "path": ["0", "0", "12", "13", "14", "15", "16"], "rt": [12278, 425, 993, 422, 421], "actions": ["right", "right", "right", "up", "up"], "actionTimes": [14658, 15598, 17130, 18075, 19008], "queries": {"click": {"state": {"target": ["12", "13", "18", "16"], "time": [3375, 4086, 4772, 9807]}, "edge": {"target": [], "time": []}}, "mouseover": {"state": {"target": ["12", "13", "18", "16", "16", "15", "12", "0", "0", "12", "13", "15", "16", "15", "15"], "time": [3054, 3856, 4439, 5056, 6106, 6506, 7246, 7490, 8210, 8387, 8437, 9289, 9625, 10255, 10455]}, "edge": {"target": [], "time": []}}, "mouseout": {"state": {"target": ["23", "0", "12", "13", "18", "16", "16", "15", "12", "0", "0", "12", "13", "15", "16", "15"], "time": [1458, 3023, 3690, 4406, 5039, 5939, 6439, 7122, 7406, 7792, 8371, 8405, 9275, 9388, 10105, 10388]}, "edge": {"target": [], "time": []}}}, "displayed_time": "19.52", "trialTime": 21767, "trial_type": "mouselab-mdp", "trial_index": 10, "time_elapsed": 283751, "internal_node_id": "0.0-4.0-1.0-1.0"}}, {"uniqueid": "w94417301:a62405296", "current_trial": 11, "dateTime": 1691485437823, "trialdata": {"revealed_states": [], "clicked_states": ["1", "2", "3", "4", "5", "24", "25", "26", "27"], "num_clicks_accrued": [0, 0, 0, 0, 0, 0, 0, 0, 0, 0, 0, 0, 0], "stateRewards": ["", -1, 2, 5, -6, 13, -64, -47, 8, -79, -80, -33, 1, 2, -2, -16, 56, -71, -10, 3, 29, 44, 85, -1, 4, 5, 4, -36, -56, 19, 8, 52, -13, -2], "withholdReward": false, "trial_id": "mdp_trial_3", "block": "test", "trialIndex": 4, "score": -6.75, "costs": -9.75, "simulationMode": [null, null, null, null, null], "rewards": [-1, 4, 5, 8, -13], "path": ["0", "0", "23", "24", "25", "30", "32"], "rt": [16793, 284, 139, 365, 236], "actions": ["left", "left", "left", "down", "down"], "actionTimes": [19746, 20544, 21198, 22075, 22829], "queries": {"click": {"state": {"target": ["1", "2", "3", "4", "5", "24", "25", "26", "27"], "time": [3975, 4723, 5465, 6254, 7094, 10186, 10976, 11769, 12268]}, "edge": {"target": [], "time": []}}, "mouseover": {"state": {"target": ["1", "2", "3", "4", "5", "2", "1", "1", "23", "24", "25", "26", "27", "30", "31", "23", "23", "23", "24", "23"], "time": [3744, 4495, 5196, 6011, 6816, 8343, 8445, 8614, 9327, 9909, 10777, 11493, 12080, 14409, 17208, 17257, 17491, 17860, 18441, 19140]}, "edge": {"target": [], "time": []}}, "mouseout": {"state": {"target": ["15", "12", "0", "0", "1", "2", "3", "4", "5", "2", "1", "1", "23", "24", "25", "26", "27", "30", "31", "23", "23", "23", "24"], "time": [994, 1026, 1077, 3596, 4246, 5180, 5916, 6594, 8228, 8394, 8561, 9265, 9877, 10644, 11160, 12045, 12646, 14493, 17223, 17410, 17541, 18324, 19110]}, "edge": {"target": [], "time": []}}}, "displayed_time": "23.34", "trialTime": 25394, "trial_type": "mouselab-mdp", "trial_index": 11, "time_elapsed": 309517, "internal_node_id": "0.0-4.0-1.0-2.0"}}, {"uniqueid": "w94417301:a62405296", "current_trial": 12, "dateTime": 1691485469017, "trialdata": {"revealed_states": [], "clicked_states": ["21", "16", "9", "5", "32"], "num_clicks_accrued": [0, 0, 0, 0, 0, 0, 0, 0, 0, 0, 0, 0, 0], "stateRewards": ["", -2, 4, -5, -12, 85, -24, -18, -15, -78, -22, 26, -1, -1, 2, 14, -45, 52, -23, 7, -33, 24, -6, -2, -4, 5, -7, -16, 36, -39, 5, 71, -87, -23], "withholdReward": false, "trial_id": "mdp_trial_4", "block": "test", "trialIndex": 5, "score": -29.75, "costs": -10.75, "simulationMode": [null, null, null, null, null], "rewards": [-2, -4, 5, 5, -23], "path": ["0", "0", "23", "24", "25", "30", "33"], "rt": [19638, 2062, 1912, 520, 466], "actions": ["left", "left", "left", "down", "left"], "actionTimes": [21618, 24189, 26620, 27662, 28625], "queries": {"click": {"state": {"target": ["21", "16", "9", "5", "32"], "time": [2928, 6324, 10533, 13390, 16166]}, "edge": {"target": [], "time": []}}, "mouseover": {"state": {"target": ["12", "22", "21", "15", "16", "16", "4", "9", "5", "5", "10", "28", "25", "30", "32", "29", "30"], "time": [2534, 2561, 2594, 4130, 4148, 4445, 8061, 8244, 11261, 11677, 14436, 14493, 14543, 14829, 15026, 18180, 19144]}, "edge": {"target": [], "time": []}}, "mouseout": {"state": {"target": ["23", "12", "22", "21", "15", "16", "16", "4", "9", "5", "5", "10", "28", "25", "30", "32", "29", "30"], "time": [1280, 2545, 2578, 3025, 4145, 4196, 8010, 8095, 11244, 11327, 14432, 14457, 14529, 14660, 14963, 17659, 18943, 19173]}, "edge": {"target": [], "time": []}}}, "displayed_time": "29.13", "trialTime": 30827, "trial_type": "mouselab-mdp", "trial_index": 12, "time_elapsed": 340710, "internal_node_id": "0.0-4.0-1.0-3.0"}}, {"uniqueid": "w94417301:a62405296", "current_trial": 13, "dateTime": 1691485492251, "trialdata": {"revealed_states": [], "clicked_states": ["1", "2", "3", "8", "10"], "num_clicks_accrued": [0, 0, 0, 0, 0, 0, 0, 0, 0, 0, 0, 0, 0], "stateRewards": ["", -2, -4, 4, -11, -63, -60, -7, 2, -14, 81, -43, -1, -1, -5, 7, 10, 69, 40, 8, -83, 52, 60, 1, 2, 5, -5, 16, 64, 14, -3, 29, 7, -51], "withholdReward": false, "trial_id": "mdp_trial_5", "block": "test", "trialIndex": 6, "score": 76.25, "costs": -4.75, "simulationMode": [null, null, null, null, null], "rewards": [-2, -4, 4, 2, 81], "path": ["0", "0", "1", "2", "3", "8", "10"], "rt": [12991, 268, 285, 391, 228], "actions": ["up", "up", "up", "left", "down"], "actionTimes": [16197, 16984, 17780, 18686, 19437], "queries": {"click": {"state": {"target": ["1", "2", "3", "8", "10"], "time": [4345, 5567, 6736, 7559, 8256]}, "edge": {"target": [], "time": []}}, "mouseover": {"state": {"target": ["1", "2", "3", "8", "10", "2", "1", "2", "2", "1"], "time": [3913, 5211, 6494, 7293, 8050, 8877, 9211, 11913, 13708, 14610]}, "edge": {"target": [], "time": []}}, "mouseout": {"state": {"target": ["1", "2", "3", "8", "10", "2", "1", "2", "2"], "time": [4927, 6194, 7244, 7927, 8860, 8960, 11575, 12694, 14374]}, "edge": {"target": [], "time": []}}}, "displayed_time": "19.94", "trialTime": 22868, "trial_type": "mouselab-mdp", "trial_index": 13, "time_elapsed": 363944, "internal_node_id": "0.0-4.0-1.0-4.0"}}, {"uniqueid": "w94417301:a62405296", "current_trial": 14, "dateTime": 1691485513507, "trialdata": {"revealed_states": [], "clicked_states": ["1", "2", "3", "4", "7"], "num_clicks_accrued": [0, 0, 0, 0, 0, 0, 0, 0, 0, 0, 0, 0, 0], "stateRewards": ["", -2, -4, 6, 14, -34, 49, 36, -8, -3, 32, -4, 1, -2, 1, -8, -20, -71, -57, -7, -86, -62, -16, -2, -3, -5, 11, 23, -21, 53, 5, -5, 85, 73], "withholdReward": false, "trial_id": "mdp_trial_6", "block": "test", "trialIndex": 7, "score": 45.25, "costs": -4.75, "simulationMode": [null, null, null, null, null], "rewards": [-2, -4, 6, 14, 36], "path": ["0", "0", "1", "2", "3", "4", "7"], "rt": [11956, 806, 1115, 499, 662], "actions": ["up", "up", "up", "right", "down"], "actionTimes": [13726, 15035, 16660, 17677, 18856], "queries": {"click": {"state": {"target": ["1", "2", "3", "4", "7"], "time": [3065, 4772, 5967, 6721, 7749]}, "edge": {"target": [], "time": []}}, "mouseover": {"state": {"target": ["1", "2", "2", "3", "3", "4", "7"], "time": [2814, 3412, 4045, 5277, 5693, 6398, 7528]}, "edge": {"target": [], "time": []}}, "mouseout": {"state": {"target": ["1", "0", "1", "2", "2", "3", "3", "4", "7"], "time": [995, 2544, 3379, 3529, 5227, 5377, 6142, 7477, 12113]}, "edge": {"target": [], "time": []}}}, "displayed_time": "19.38", "trialTime": 20881, "trial_type": "mouselab-mdp", "trial_index": 14, "time_elapsed": 385201, "internal_node_id": "0.0-4.0-1.0-5.0"}}, {"uniqueid": "w94417301:a62405296", "current_trial": 15, "dateTime": 1691485532332, "trialdata": {"revealed_states": [], "clicked_states": [], "num_clicks_accrued": [0, 0, 0, 0, 0, 0, 0, 0, 0, 0, 0, 0, 0], "stateRewards": ["", 1, 2, -3, -5, 66, -50, -47, -5, 1, 28, -27, 1, 1, -1, -6, 37, -25, 56, 1, -82, -66, -40, -1, -4, -7, 15, -61, -23, 26, 10, 14, -56, 29], "withholdReward": false, "trial_id": "mdp_trial_7", "block": "test", "trialIndex": 8, "score": -80, "costs": 0, "simulationMode": [null, null, null, null, null], "rewards": [1, 1, -1, 1, -82], "path": ["0", "0", "12", "13", "14", "19", "20"], "rt": [5293, 671, 508, 386, 602], "actions": ["right", "right", "right", "down", "right"], "actionTimes": [8247, 9441, 10463, 11372, 12473], "queries": {"click": {"state": {"target": [], "time": []}, "edge": {"target": [], "time": []}}, "mouseover": {"state": {"target": ["12", "13", "12", "12", "12", "0", "0"], "time": [4384, 5151, 5508, 5753, 6835, 7036, 7650]}, "edge": {"target": [], "time": []}}, "mouseout": {"state": {"target": ["12", "0", "12", "13", "12", "12", "12", "0"], "time": [2418, 4303, 5121, 5504, 5534, 6471, 6916, 7587]}, "edge": {"target": [], "time": []}}}, "displayed_time": "16.95", "trialTime": 18385, "trial_type": "mouselab-mdp", "trial_index": 15, "time_elapsed": 404026, "internal_node_id": "0.0-4.0-1.0-6.0"}}, {"uniqueid": "w94417301:a62405296", "current_trial": 16, "dateTime": 1691485550527, "trialdata": {"revealed_states": [], "clicked_states": [], "num_clicks_accrued": [0, 0, 0, 0, 0, 0, 0, 0, 0, 0, 0, 0, 0], "stateRewards": ["", -1, -3, -6, 14, 41, 18, 63, -14, 80, 21, 17, -2, -4, -2, -5, 13, 70, 8, -4, -64, -10, -20, 2, -1, 4, -1, -17, -55, 42, -7, 47, 54, 15], "withholdReward": false, "trial_id": "mdp_trial_8", "block": "test", "trialIndex": 9, "score": -51, "costs": 0, "simulationMode": [null, null, null, null, null], "rewards": [2, -1, 4, -1, -55], "path": ["0", "0", "23", "24", "25", "26", "28"], "rt": [4959, 595, 405, 438, 302], "actions": ["left", "left", "left", "up", "right"], "actionTimes": [7116, 8207, 9134, 10083, 10880], "queries": {"click": {"state": {"target": [], "time": []}, "edge": {"target": [], "time": []}}, "mouseover": {"state": {"target": [], "time": []}, "edge": {"target": [], "time": []}}, "mouseout": {"state": {"target": ["0", "0"], "time": [1293, 5643]}, "edge": {"target": [], "time": []}}}, "displayed_time": "16.16", "trialTime": 17773, "trial_type": "mouselab-mdp", "trial_index": 16, "time_elapsed": 422221, "internal_node_id": "0.0-4.0-1.0-7.0"}}, {"uniqueid": "w94417301:a62405296", "current_trial": 17, "dateTime": 1691485591123, "trialdata": {"revealed_states": [], "clicked_states": ["32", "21", "27", "9", "5", "6"], "num_clicks_accrued": [0, 0, 0, 0, 0, 0, 0, 0, 0, 0, 0, 0, 0], "stateRewards": ["", 2, 1, -3, 7, 46, 11, -36, 16, 71, 5, 1, 2, -2, -8, -3, -4, 6, 55, 7, 68, -54, 2, 1, 1, 6, -6, 42, -4, -84, -11, -65, 63, 25], "withholdReward": false, "trial_id": "mdp_trial_9", "block": "test", "trialIndex": 10, "score": 47.1, "costs": -12.9, "simulationMode": [null, null, null, null, null], "rewards": [1, 1, 6, -11, 63], "path": ["0", "0", "23", "24", "25", "30", "32"], "rt": [26016, 275, 231, 262, 228], "actions": ["left", "left", "left", "down", "down"], "actionTimes": [34816, 35614, 36360, 37136, 37892], "queries": {"click": {"state": {"target": ["32", "21", "27", "9", "5", "6"], "time": [10041, 13335, 17128, 20440, 23706, 27109]}, "edge": {"target": [], "time": []}}, "mouseover": {"state": {"target": ["31", "32", "22", "19", "20", "21", "31", "27", "27", "11", "9", "5", "5", "6", "4", "10", "28", "25", "30", "32"], "time": [9442, 9880, 10894, 10915, 10933, 11211, 15743, 16077, 16295, 19441, 19608, 21942, 22042, 26291, 27857, 27941, 28040, 28128, 28357, 28657]}, "edge": {"target": [], "time": []}}, "mouseout": {"state": {"target": ["0", "31", "32", "22", "19", "20", "21", "31", "27", "27", "11", "9", "5", "5", "6", "4", "10", "28", "25", "30"], "time": [9378, 9459, 10844, 10911, 10930, 10945, 14544, 15760, 16109, 19392, 19525, 21625, 21991, 25875, 27840, 27878, 27974, 28078, 28291, 28378]}, "edge": {"target": [], "time": []}}}, "displayed_time": "38.41", "trialTime": 40161, "trial_type": "mouselab-mdp", "trial_index": 17, "time_elapsed": 462817, "internal_node_id": "0.0-4.0-1.0-8.0"}}, {"uniqueid": "w94417301:a62405296", "current_trial": 18, "dateTime": 1691485615906, "trialdata": {"revealed_states": [], "clicked_states": ["9", "5", "33"], "num_clicks_accrued": [0, 0, 0, 0, 0, 0, 0, 0, 0, 0, 0, 0, 0], "stateRewards": ["", 2, 4, 4, -8, -36, -33, 38, 16, -51, 57, 57, 1, 3, 4, -6, 45, 68, 87, 1, 63, 24, -55, -2, 2, -6, -13, -63, -50, 8, 2, 80, 6, 60], "withholdReward": false, "trial_id": "mdp_trial_10", "block": "test", "trialIndex": 11, "score": 49.55, "costs": -6.449999999999999, "simulationMode": [null, null, null, null, null], "rewards": [-2, 2, -6, 2, 60], "path": ["0", "0", "23", "24", "25", "30", "33"], "rt": [16170, 343, 345, 334, 308], "actions": ["left", "left", "left", "down", "left"], "actionTimes": [18097, 18942, 19810, 20665, 21491], "queries": {"click": {"state": {"target": ["9", "5", "33"], "time": [3246, 6452, 10684]}, "edge": {"target": [], "time": []}}, "mouseover": {"state": {"target": ["1", "8", "9", "5", "3", "10", "30", "32", "33", "30", "31", "0"], "time": [2732, 2783, 3085, 4617, 7433, 7483, 9780, 10098, 10518, 11782, 12016, 15729]}, "edge": {"target": [], "time": []}}, "mouseout": {"state": {"target": ["32", "0", "1", "8", "9", "5", "3", "10", "30", "32", "33", "33", "30", "31", "0"], "time": [965, 2720, 2750, 2816, 3701, 7417, 7450, 9632, 9982, 10216, 11016, 11349, 11816, 15681, 16098]}, "edge": {"target": [], "time": []}}}, "displayed_time": "22.01", "trialTime": 24309, "trial_type": "mouselab-mdp", "trial_index": 18, "time_elapsed": 487600, "internal_node_id": "0.0-4.0-1.0-9.0"}}, {"uniqueid": "w94417301:a62405296", "current_trial": 19, "dateTime": 1691485633696, "trialdata": {"revealed_states": [], "clicked_states": ["6", "16"], "num_clicks_accrued": [0, 0, 0, 0, 0, 0, 0, 0, 0, 0, 0, 0, 0], "stateRewards": ["", -1, 3, 8, 10, -86, 61, -36, 10, 17, -60, 24, -1, -3, 3, 11, 50, 60, 33, -3, -20, 58, -6, 1, -4, -4, 13, -70, -71, 43, 14, 52, 82, -11], "withholdReward": false, "trial_id": "mdp_trial_11", "block": "test", "trialIndex": 12, "score": 76.7, "costs": -4.3, "simulationMode": [null, null, null, null, null, null], "rewards": [-1, 3, 8, 10, 61], "path": ["0", "0", "1", "2", "3", "4", "6"], "rt": [7162, 2755, 378, 270, 281, 226], "actions": ["up", "up", "up", "up", "right", "right"], "actionTimes": [9164, 11924, 12799, 13588, 14388, 15113], "queries": {"click": {"state": {"target": ["6", "16"], "time": [3248, 6432]}, "edge": {"target": [], "time": []}}, "mouseover": {"state": {"target": ["18", "6", "16", "1"], "time": [2688, 3061, 3824, 10584]}, "edge": {"target": [], "time": []}}, "mouseout": {"state": {"target": ["12", "0", "18", "6", "16"], "time": [1303, 2647, 2721, 3636, 10173]}, "edge": {"target": [], "time": []}}}, "displayed_time": "16.00", "trialTime": 17372, "trial_type": "mouselab-mdp", "trial_index": 19, "time_elapsed": 505390, "internal_node_id": "0.0-4.0-1.0-10.0"}}, {"uniqueid": "w94417301:a62405296", "current_trial": 20, "dateTime": 1691485659237, "trialdata": {"revealed_states": [], "clicked_states": ["17", "16", "6", "5"], "num_clicks_accrued": [0, 0, 0, 0, 0, 0, 0, 0, 0, 0, 0, 0, 0], "stateRewards": ["", -2, -3, 1, -7, 39, -67, 16, 5, -20, 73, 66, -1, 4, 5, -3, 23, -68, -87, -8, 3, -3, 17, 1, -4, -2, -13, -32, 34, 61, -5, -11, -18, 12], "withholdReward": false, "trial_id": "mdp_trial_12", "block": "test", "trialIndex": 13, "score": 19.4, "costs": -8.6, "simulationMode": [null, null, null, null, null], "rewards": [-2, -3, 1, -7, 39], "path": ["0", "0", "1", "2", "3", "4", "5"], "rt": [18246, 466, 344, 256, 330], "actions": ["up", "up", "up", "right", "up"], "actionTimes": [19572, 20561, 21423, 22203, 23046], "queries": {"click": {"state": {"target": ["17", "16", "6", "5"], "time": [2594, 6127, 10118, 13599]}, "edge": {"target": [], "time": []}}, "mouseover": {"state": {"target": ["18", "15", "17", "16", "6", "5"], "time": [2051, 2083, 2350, 3613, 9827, 13310]}, "edge": {"target": [], "time": []}}, "mouseout": {"state": {"target": ["1", "18", "15", "17", "16", "6"], "time": [778, 2067, 2097, 3330, 9779, 13283]}, "edge": {"target": [], "time": []}}}, "displayed_time": "23.55", "trialTime": 25146, "trial_type": "mouselab-mdp", "trial_index": 20, "time_elapsed": 530932, "internal_node_id": "0.0-4.0-1.0-11.0"}}, {"uniqueid": "w94417301:a62405296", "current_trial": 21, "dateTime": 1691485693671, "trialdata": {"revealed_states": [], "clicked_states": ["29", "27", "33"], "num_clicks_accrued": [0, 0, 0, 0, 0, 0, 0, 0, 0, 0, 0, 0, 0], "stateRewards": ["", 1, 1, -5, 10, -31, 73, 14, -8, -23, 63, -70, -1, 2, 8, 7, 25, -59, 27, -10, -40, -71, -15, -2, 3, -8, -5, -19, 77, -34, 7, 67, 63, 19], "withholdReward": false, "trial_id": "mdp_trial_13", "block": "test", "trialIndex": 14, "score": 12.55, "costs": -6.449999999999999, "simulationMode": [null, null, null, null, null], "rewards": [-2, 3, -8, 7, 19], "path": ["0", "0", "23", "24", "25", "30", "33"], "rt": [18857, 339, 254, 144, 169], "actions": ["left", "left", "left", "down", "left"], "actionTimes": [28851, 29703, 30479, 31137, 31829], "queries": {"click": {"state": {"target": ["29", "27", "33"], "time": [12926, 16276, 20389]}, "edge": {"target": [], "time": []}}, "mouseover": {"state": {"target": ["24", "25", "29", "27", "26", "33", "32", "30", "32"], "time": [11610, 11812, 12572, 13445, 19709, 19891, 24640, 25909, 26163]}, "edge": {"target": [], "time": []}}, "mouseout": {"state": {"target": ["5", "7", "0", "0", "24", "25", "29", "27", "26", "33", "32", "30"], "time": [6110, 6210, 9134, 11581, 11643, 12398, 13361, 19676, 19759, 24341, 25206, 26123]}, "edge": {"target": [], "time": []}}}, "displayed_time": "32.33", "trialTime": 34019, "trial_type": "mouselab-mdp", "trial_index": 21, "time_elapsed": 565365, "internal_node_id": "0.0-4.0-1.0-12.0"}}, {"uniqueid": "w94417301:a62405296", "current_trial": 22, "dateTime": 1691485712421, "trialdata": {"revealed_states": [], "clicked_states": ["21"], "num_clicks_accrued": [0, 0, 0, 0, 0, 0, 0, 0, 0, 0, 0, 0, 0], "stateRewards": ["", 1, 2, 8, -2, 23, -69, -18, -16, 54, -21, 71, -1, -4, 7, 11, 43, -6, 88, 6, -55, 72, 43, 1, -3, -2, -1, 68, -31, -54, 4, -8, 25, -2], "withholdReward": false, "trial_id": "mdp_trial_14", "block": "test", "trialIndex": 15, "score": -28.15, "costs": -2.15, "simulationMode": [null, null, null, null, null], "rewards": [1, 2, 8, -16, -21], "path": ["0", "0", "1", "2", "3", "8", "10"], "rt": [6242, 2981, 408, 365, 163], "actions": ["up", "up", "up", "left", "down"], "actionTimes": [8711, 12212, 13123, 14010, 14691], "queries": {"click": {"state": {"target": ["21"], "time": [3796]}, "edge": {"target": [], "time": []}}, "mouseover": {"state": {"target": ["22", "19", "21", "22"], "time": [3246, 3280, 3579, 4639]}, "edge": {"target": [], "time": []}}, "mouseout": {"state": {"target": ["32", "0", "22", "19", "21", "22"], "time": [1494, 3212, 3262, 3312, 4388, 7194]}, "edge": {"target": [], "time": []}}}, "displayed_time": "16.47", "trialTime": 18144, "trial_type": "mouselab-mdp", "trial_index": 22, "time_elapsed": 584115, "internal_node_id": "0.0-4.0-1.0-13.0"}}, {"uniqueid": "w94417301:a62405296", "current_trial": 23, "dateTime": 1691485734068, "trialdata": {"revealed_states": [], "clicked_states": ["21"], "num_clicks_accrued": [0, 0, 0, 0, 0, 0, 0, 0, 0, 0, 0, 0, 0], "stateRewards": ["", 1, -2, 7, -14, 88, -56, -44, -14, 64, -51, -57, -2, 3, -4, -9, -11, 19, -77, -1, 68, 75, -67, -1, 1, -2, 5, -37, 70, -34, -10, -72, 63, -41], "withholdReward": false, "trial_id": "mdp_trial_15", "block": "test", "trialIndex": 16, "score": 68.85, "costs": -2.15, "simulationMode": [null, null, null, null, null], "rewards": [-2, 3, -4, -1, 75], "path": ["0", "0", "12", "13", "14", "19", "21"], "rt": [8272, 1691, 285, 217, 201], "actions": ["right", "right", "right", "down", "down"], "actionTimes": [14023, 16233, 17042, 17776, 18489], "queries": {"click": {"state": {"target": ["21"], "time": [8606]}, "edge": {"target": [], "time": []}}, "mouseover": {"state": {"target": ["12", "19", "21", "22"], "time": [8058, 8087, 8388, 9402]}, "edge": {"target": [], "time": []}}, "mouseout": {"state": {"target": ["21", "0", "12", "19", "21", "22"], "time": [4389, 8055, 8070, 8120, 9138, 12135]}, "edge": {"target": [], "time": []}}}, "displayed_time": "19.75", "trialTime": 21222, "trial_type": "mouselab-mdp", "trial_index": 23, "time_elapsed": 605761, "internal_node_id": "0.0-4.0-1.0-14.0"}}, {"uniqueid": "w94417301:a62405296", "current_trial": 24, "dateTime": 1691485791508, "trialdata": {"revealed_states": [], "clicked_states": ["17", "16", "29", "27", "33", "6", "9", "21", "32", "18"], "num_clicks_accrued": [0, 0, 0, 0, 0, 0, 0, 0, 0, 0, 0, 0, 0], "stateRewards": ["", -1, -3, -3, 1, -38, 2, -53, -2, -1, -81, 70, -1, 1, -5, -9, 46, 15, 35, -1, -22, 38, 59, -2, 4, -8, 13, 1, -83, -43, 4, 76, 13, 48], "withholdReward": false, "trial_id": "mdp_trial_16", "block": "test", "trialIndex": 17, "score": 10.5, "costs": -21.499999999999996, "simulationMode": [null, null, null, null, null], "rewards": [-1, 1, -5, -9, 46], "path": ["0", "0", "12", "13", "14", "15", "16"], "rt": [49922, 222, 616, 242, 134], "actions": ["right", "right", "right", "up", "up"], "actionTimes": [51848, 52584, 53712, 54453, 55110], "queries": {"click": {"state": {"target": ["17", "16", "29", "27", "33", "6", "9", "21", "32", "18"], "time": [3552, 7553, 11307, 14748, 18107, 23665, 29207, 34201, 38766, 44017]}, "edge": {"target": [], "time": []}}, "mouseover": {"state": {"target": ["12", "17", "16", "28", "26", "29", "27", "10", "2", "25", "33", "25", "1", "16", "6", "16", "4", "9", "4", "16", "15", "21", "19", "14", "15", "16", "16", "32", "12", "18", "16", "18", "16", "16"], "time": [2586, 2818, 4477, 8886, 8936, 9086, 12651, 15300, 15368, 16101, 16317, 18508, 18550, 18883, 23447, 24381, 28646, 28980, 29413, 30018, 33612, 33933, 34584, 34601, 34647, 34829, 35050, 38515, 39179, 39394, 39629, 43794, 44328, 44717]}, "edge": {"target": [], "time": []}}, "mouseout": {"state": {"target": ["21", "0", "12", "17", "16", "28", "26", "29", "27", "10", "2", "25", "33", "25", "1", "16", "6", "16", "6", "4", "9", "4", "16", "15", "21", "19", "14", "15", "16", "16", "32", "12", "18", "16", "18", "16"], "time": [954, 2578, 2603, 4120, 8802, 8903, 9069, 12303, 15235, 15334, 15518, 16117, 18504, 18520, 18566, 23316, 23998, 28504, 28613, 28680, 29396, 29433, 33603, 33629, 34580, 34597, 34630, 34697, 34989, 38147, 39062, 39246, 39460, 43295, 44087, 44494]}, "edge": {"target": [], "time": []}}}, "displayed_time": "55.63", "trialTime": 56981, "trial_type": "mouselab-mdp", "trial_index": 24, "time_elapsed": 663202, "internal_node_id": "0.0-4.0-1.0-15.0"}}, {"uniqueid": "w94417301:a62405296", "current_trial": 25, "dateTime": 1691485809699, "trialdata": {"revealed_states": [], "clicked_states": ["9", "5"], "num_clicks_accrued": [0, 0, 0, 0, 0, 0, 0, 0, 0, 0, 0, 0, 0], "stateRewards": ["", -2, -3, 7, -13, 60, 9, 37, -6, 37, 20, 1, 2, -2, -8, 6, -80, -31, -10, -7, 70, -65, -44, -1, 1, 7, 6, -11, 73, -85, 16, -21, 47, 34], "withholdReward": false, "trial_id": "mdp_trial_17", "block": "test", "trialIndex": 18, "score": 44.7, "costs": -4.3, "simulationMode": [null, null, null, null, null], "rewards": [-2, -3, 7, -13, 60], "path": ["0", "0", "1", "2", "3", "4", "5"], "rt": [9646, 361, 282, 275, 279], "actions": ["up", "up", "up", "right", "up"], "actionTimes": [11845, 12725, 13546, 14338, 15128], "queries": {"click": {"state": {"target": ["9", "5"], "time": [3660, 6937]}, "edge": {"target": [], "time": []}}, "mouseover": {"state": {"target": ["1", "2", "3", "8", "9", "5"], "time": [3051, 3101, 3147, 3297, 3448, 4180]}, "edge": {"target": [], "time": []}}, "mouseout": {"state": {"target": ["16", "18", "1", "2", "3", "8", "9"], "time": [1381, 1429, 3084, 3130, 3230, 3314, 4064]}, "edge": {"target": [], "time": []}}}, "displayed_time": "16.20", "trialTime": 17730, "trial_type": "mouselab-mdp", "trial_index": 25, "time_elapsed": 681393, "internal_node_id": "0.0-4.0-1.0-16.0"}}, {"uniqueid": "w94417301:a62405296", "current_trial": 26, "dateTime": 1691485858009, "trialdata": {"revealed_states": [], "clicked_states": ["33", "29", "31", "28", "27", "32", "21", "22", "20", "17"], "num_clicks_accrued": [0, 0, 0, 0, 0, 0, 0, 0, 0, 0, 0, 0, 0], "stateRewards": ["", -2, -4, -8, 8, 63, -50, -19, -7, -17, -31, 31, 1, 3, -5, 12, -35, -63, -29, -4, -17, -75, -79, -2, -3, -2, 8, -3, -85, 10, -2, -82, -82, 56], "withholdReward": false, "trial_id": "mdp_trial_18", "block": "test", "trialIndex": 19, "score": 25.500000000000004, "costs": -21.499999999999996, "simulationMode": [null, null, null, null, null], "rewards": [-2, -3, -2, -2, 56], "path": ["0", "0", "23", "24", "25", "30", "33"], "rt": [41170, 208, 158, 180, 262], "actions": ["left", "left", "left", "down", "left"], "actionTimes": [42746, 43473, 44153, 44827, 45591], "queries": {"click": {"state": {"target": ["33", "29", "31", "28", "27", "32", "21", "22", "20", "17"], "time": [4393, 7544, 13001, 16235, 20008, 23374, 27980, 31445, 34604, 38035]}, "edge": {"target": [], "time": []}}, "mouseover": {"state": {"target": ["32", "32", "33", "29", "33", "30", "31", "28", "28", "28", "26", "27", "32", "33", "33", "30", "31", "21", "22", "19", "20", "14", "15", "17", "16", "18", "12"], "time": [3005, 3522, 4169, 4941, 11467, 12503, 12567, 13585, 13901, 14102, 19453, 19588, 21265, 24565, 24898, 26955, 26969, 27462, 30753, 32379, 32597, 35468, 36862, 37279, 39079, 41793, 41927]}, "edge": {"target": [], "time": []}}, "mouseout": {"state": {"target": ["5", "4", "7", "0", "32", "32", "33", "29", "33", "30", "31", "28", "28", "28", "26", "27", "32", "33", "33", "30", "31", "21", "22", "19", "20", "14", "15", "17", "16", "18"], "time": [687, 720, 787, 2352, 3204, 3955, 4822, 11329, 12485, 12517, 13502, 13618, 14001, 19436, 19467, 20799, 23981, 24664, 26950, 26964, 26982, 30530, 32363, 32430, 35380, 36780, 37079, 38729, 41726, 41810]}, "edge": {"target": [], "time": []}}}, "displayed_time": "46.11", "trialTime": 47850, "trial_type": "mouselab-mdp", "trial_index": 26, "time_elapsed": 729703, "internal_node_id": "0.0-4.0-1.0-17.0"}}, {"uniqueid": "w94417301:a62405296", "current_trial": 27, "dateTime": 1691485880506, "trialdata": {"revealed_states": [], "clicked_states": ["9", "5", "10"], "num_clicks_accrued": [0, 0, 0, 0, 0, 0, 0, 0, 0, 0, 0, 0, 0], "stateRewards": ["", -1, -3, 1, 13, -64, -29, 12, -4, -33, 50, 56, 2, -3, 4, 11, -64, -58, -55, 12, 47, 38, -25, -2, 2, 5, -15, 85, 7, 84, 10, 8, 57, 26], "withholdReward": false, "trial_id": "mdp_trial_19", "block": "test", "trialIndex": 20, "score": 36.55, "costs": -6.449999999999999, "simulationMode": [null, null, null, null, null], "rewards": [-1, -3, 1, -4, 50], "path": ["0", "0", "1", "2", "3", "8", "10"], "rt": [14105, 308, 230, 181, 262], "actions": ["up", "up", "up", "left", "down"], "actionTimes": [16688, 17512, 18264, 18965, 19748], "queries": {"click": {"state": {"target": ["9", "5", "10"], "time": [4713, 8382, 12041]}, "edge": {"target": [], "time": []}}, "mouseover": {"state": {"target": ["1", "2", "3", "9", "5", "2", "10", "2", "7", "7"], "time": [3587, 3669, 3719, 4406, 5271, 10319, 11833, 12335, 12368, 12868]}, "edge": {"target": [], "time": []}}, "mouseout": {"state": {"target": ["12", "0", "1", "2", "3", "9", "5", "2", "10", "2", "7"], "time": [1901, 3454, 3651, 3686, 4253, 5070, 10152, 11700, 12318, 12352, 12402]}, "edge": {"target": [], "time": []}}}, "displayed_time": "20.27", "trialTime": 22025, "trial_type": "mouselab-mdp", "trial_index": 27, "time_elapsed": 752200, "internal_node_id": "0.0-4.0-1.0-18.0"}}, {"uniqueid": "w94417301:a62405296", "current_trial": 28, "dateTime": 1691485898433, "trialdata": {"revealed_states": [], "clicked_states": [], "num_clicks_accrued": [0, 0, 0, 0, 0, 0, 0, 0, 0, 0, 0, 0, 0], "stateRewards": ["", -1, 1, 8, -8, -49, 62, -78, 16, 28, -81, 78, -2, -3, -1, -4, 67, 49, -2, -13, -16, -39, 83, 1, -4, 4, -5, -20, 7, 84, 7, -32, -59, 19], "withholdReward": false, "trial_id": "mdp_trial_20", "block": "test", "trialIndex": 21, "score": -58, "costs": 0, "simulationMode": [null, null, null, null, null], "rewards": [-2, -3, -1, -13, -39], "path": ["0", "0", "12", "13", "14", "19", "21"], "rt": [5798, 354, 512, 1033, 267], "actions": ["right", "right", "right", "down", "down"], "actionTimes": [8041, 8898, 9925, 11476, 12261], "queries": {"click": {"state": {"target": [], "time": []}, "edge": {"target": [], "time": []}}, "mouseover": {"state": {"target": ["12", "22", "22", "13", "18", "13", "22"], "time": [4141, 4492, 4709, 4932, 5075, 5442, 5508]}, "edge": {"target": [], "time": []}}, "mouseout": {"state": {"target": ["7", "12", "22", "22", "13", "18", "13"], "time": [1526, 4158, 4541, 4927, 4942, 5411, 5475]}, "edge": {"target": [], "time": []}}}, "displayed_time": "16.24", "trialTime": 17480, "trial_type": "mouselab-mdp", "trial_index": 28, "time_elapsed": 770127, "internal_node_id": "0.0-4.0-1.0-19.0"}}, {"uniqueid": "w94417301:a62405296", "current_trial": 29, "dateTime": 1691485916458, "trialdata": {"revealed_states": [], "clicked_states": ["29"], "num_clicks_accrued": [0, 0, 0, 0, 0, 0, 0, 0, 0, 0, 0, 0, 0], "stateRewards": ["", 1, -1, -7, -7, -22, 15, -13, 13, 26, -32, 38, -1, 1, -7, -4, 16, -62, 86, 12, -54, 56, 64, -2, -1, 6, 14, -57, 37, 62, -6, -25, 50, -70], "withholdReward": false, "trial_id": "mdp_trial_21", "block": "test", "trialIndex": 22, "score": 76.85, "costs": -2.15, "simulationMode": [null, null, null, null, null], "rewards": [-2, -1, 6, 14, 62], "path": ["0", "0", "23", "24", "25", "26", "29"], "rt": [6906, 227, 193, 68, 108], "actions": ["left", "left", "left", "up", "left"], "actionTimes": [9205, 9944, 10661, 11249, 11874], "queries": {"click": {"state": {"target": ["29"], "time": [4744]}, "edge": {"target": [], "time": []}}, "mouseover": {"state": {"target": ["23", "24", "25", "25", "29", "27", "26"], "time": [3632, 3651, 3714, 3998, 4584, 5381, 8513]}, "edge": {"target": [], "time": []}}, "mouseout": {"state": {"target": ["22", "13", "12", "0", "23", "24", "25", "25", "29", "27", "26"], "time": [1314, 1447, 1567, 3282, 3647, 3680, 3747, 4131, 5182, 8496, 8529]}, "edge": {"target": [], "time": []}}}, "displayed_time": "16.30", "trialTime": 17581, "trial_type": "mouselab-mdp", "trial_index": 29, "time_elapsed": 788152, "internal_node_id": "0.0-4.0-1.0-20.0"}}, {"uniqueid": "w94417301:a62405296", "current_trial": 30, "dateTime": 1691485935404, "trialdata": {"revealed_states": [], "clicked_states": ["17", "29"], "num_clicks_accrued": [0, 0, 0, 0, 0, 0, 0, 0, 0, 0, 0, 0, 0], "stateRewards": ["", -1, 4, 3, 12, -27, 34, -33, 3, -63, 1, 6, 2, 2, -6, -11, -77, -85, 68, -6, 51, 81, -60, -2, -2, 1, 15, 20, 15, 68, -10, -14, 6, -4], "withholdReward": false, "trial_id": "mdp_trial_22", "block": "test", "trialIndex": 23, "score": 75.7, "costs": -4.3, "simulationMode": [null, null, null, null, null], "rewards": [-2, -2, 1, 15, 68], "path": ["0", "0", "23", "24", "25", "26", "29"], "rt": [10620, 202, 301, 216, 64], "actions": ["left", "left", "left", "up", "left"], "actionTimes": [13458, 14201, 15018, 15733, 16314], "queries": {"click": {"state": {"target": ["17", "29"], "time": [4623, 9265]}, "edge": {"target": [], "time": []}}, "mouseover": {"state": {"target": ["18", "15", "17", "16", "15", "18", "26", "29", "25", "30"], "time": [3865, 3981, 4114, 5283, 8350, 8369, 8700, 8780, 11931, 12079]}, "edge": {"target": [], "time": []}}, "mouseout": {"state": {"target": ["0", "0", "18", "15", "17", "16", "15", "18", "26", "29", "25"], "time": [1915, 3762, 3914, 4047, 5233, 8198, 8365, 8382, 8718, 11881, 11981]}, "edge": {"target": [], "time": []}}}, "displayed_time": "16.84", "trialTime": 18465, "trial_type": "mouselab-mdp", "trial_index": 30, "time_elapsed": 807098, "internal_node_id": "0.0-4.0-1.0-21.0"}}, {"uniqueid": "w94417301:a62405296", "current_trial": 31, "dateTime": 1691485960280, "trialdata": {"revealed_states": [], "clicked_states": ["9", "5", "10", "7"], "num_clicks_accrued": [0, 0, 0, 0, 0, 0, 0, 0, 0, 0, 0, 0, 0], "stateRewards": ["", 2, -1, 8, -2, -16, 69, -39, -7, -13, -27, -86, 2, -2, 2, 13, -34, -16, -20, -5, 19, 81, 32, -2, -1, 2, -14, 20, 80, 58, 4, 70, 12, 73], "withholdReward": false, "trial_id": "mdp_trial_23", "block": "test", "trialIndex": 24, "score": 6.4, "costs": -8.6, "simulationMode": [null, null, null, null, null], "rewards": [-2, -1, 2, 4, 12], "path": ["0", "0", "23", "24", "25", "30", "32"], "rt": [16648, 122, 430, 158, 225], "actions": ["left", "left", "left", "down", "down"], "actionTimes": [18743, 19384, 20324, 20985, 21719], "queries": {"click": {"state": {"target": ["9", "5", "10", "7"], "time": [3801, 7194, 10635, 13850]}, "edge": {"target": [], "time": []}}, "mouseover": {"state": {"target": ["1", "8", "9", "8", "10", "3", "5", "3", "10", "3", "4", "7", "23", "31", "32"], "time": [2894, 3296, 3550, 4562, 4632, 6609, 6843, 7810, 8110, 11044, 11127, 11378, 17656, 17740, 18092]}, "edge": {"target": [], "time": []}}, "mouseout": {"state": {"target": ["30", "0", "1", "8", "9", "8", "10", "3", "5", "3", "10", "3", "4", "7", "23", "31", "32"], "time": [910, 2860, 2927, 3311, 4512, 4610, 6528, 6743, 7794, 7877, 11027, 11061, 11310, 15493, 17674, 17757, 22711]}, "edge": {"target": [], "time": []}}}, "displayed_time": "22.24", "trialTime": 24392, "trial_type": "mouselab-mdp", "trial_index": 31, "time_elapsed": 831974, "internal_node_id": "0.0-4.0-1.0-22.0"}}, {"uniqueid": "w94417301:a62405296", "current_trial": 32, "dateTime": 1691485980016, "trialdata": {"revealed_states": [], "clicked_states": [], "num_clicks_accrued": [0, 0, 0, 0, 0, 0, 0, 0, 0, 0, 0, 0, 0], "stateRewards": ["", -1, 1, -1, 2, 19, 85, -18, 2, -3, -26, 36, 2, 4, 7, -9, -18, 70, 72, -5, 35, -20, -28, 1, -2, -4, -3, -59, -11, -63, -2, -72, 59, -69], "withholdReward": false, "trial_id": "mdp_trial_24", "block": "test", "trialIndex": 25, "score": 76, "costs": 0, "simulationMode": [null, null, null, null, null], "rewards": [2, 4, 7, -9, 72], "path": ["0", "0", "12", "13", "14", "15", "18"], "rt": [4974, 174, 196, 246, 133], "actions": ["right", "right", "right", "up", "left"], "actionTimes": [7188, 7871, 8585, 9326, 9980], "queries": {"click": {"state": {"target": [], "time": []}, "edge": {"target": [], "time": []}}, "mouseover": {"state": {"target": ["13", "13", "15", "18", "18"], "time": [3496, 3814, 3927, 4662, 5323]}, "edge": {"target": [], "time": []}}, "mouseout": {"state": {"target": ["12", "0", "13", "13", "15", "18", "18", "13"], "time": [1545, 3231, 3561, 3877, 3961, 4845, 18176, 18241]}, "edge": {"target": [], "time": []}}}, "displayed_time": "16.22", "trialTime": 19249, "trial_type": "mouselab-mdp", "trial_index": 32, "time_elapsed": 851709, "internal_node_id": "0.0-4.0-1.0-23.0"}}, {"uniqueid": "w94417301:a62405296", "current_trial": 33, "dateTime": 1691486013887, "trialdata": {"revealed_states": [], "clicked_states": [], "num_clicks_accrued": [0, 0, 0, 0, 0, 0, 0, 0, 0, 0, 0, 0, 0], "stateRewards": ["", -1, 1, -5, -6, -78, 47, -13, 12, 48, -88, 20, 2, -3, -2, 13, -20, 37, -57, 14, -38, 30, 31, -2, -2, 8, 2, -23, 78, 28, 12, -74, -88, 8], "withholdReward": false, "trial_id": "mdp_trial_25", "block": "test", "trialIndex": 26, "score": 27, "costs": 0, "simulationMode": [null, null, null, null, null], "rewards": [-1, 1, -5, 12, 20], "path": ["0", "0", "1", "2", "3", "8", "11"], "rt": [6187, 290, 226, 341, 1007], "actions": ["up", "up", "up", "left", "left"], "actionTimes": [20568, 21370, 22108, 22970, 24758], "queries": {"click": {"state": {"target": [], "time": []}, "edge": {"target": [], "time": []}}, "mouseover": {"state": {"target": ["1", "2", "9", "5", "8"], "time": [18125, 18147, 18643, 19177, 19828]}, "edge": {"target": [], "time": []}}, "mouseout": {"state": {"target": ["0", "0", "1", "2", "9", "5", "8"], "time": [13841, 18116, 18143, 18159, 19060, 19580, 19858]}, "edge": {"target": [], "time": []}}}, "displayed_time": "28.38", "trialTime": 33378, "trial_type": "mouselab-mdp", "trial_index": 33, "time_elapsed": 885581, "internal_node_id": "0.0-4.0-1.0-24.0"}}, {"uniqueid": "w94417301:a62405296", "current_trial": 34, "dateTime": 1691486036073, "trialdata": {"revealed_states": [], "clicked_states": ["6", "29"], "num_clicks_accrued": [0, 0, 0, 0, 0, 0, 0, 0, 0, 0, 0, 0, 0], "stateRewards": ["", 1, 2, -5, 14, 54, -14, -25, 16, -5, -87, 78, -1, 1, 3, -3, 52, 53, 53, -10, 73, -69, -48, 2, 3, 1, 8, -62, -7, 85, 7, 82, 52, -28], "withholdReward": false, "trial_id": "mdp_trial_26", "block": "test", "trialIndex": 27, "score": 94.7, "costs": -4.3, "simulationMode": [null, null, null, null, null], "rewards": [2, 3, 1, 8, 85], "path": ["0", "0", "23", "24", "25", "26", "29"], "rt": [9405, 158, 336, 226, 274], "actions": ["left", "left", "left", "up", "left"], "actionTimes": [11999, 12675, 13550, 14293, 15089], "queries": {"click": {"state": {"target": ["6", "29"], "time": [3765, 7806]}, "edge": {"target": [], "time": []}}, "mouseover": {"state": {"target": ["7", "6", "12", "12", "0", "23", "24", "29", "25", "13", "14", "26"], "time": [3347, 3381, 4816, 7229, 7297, 7316, 7347, 7547, 7968, 10650, 10718, 11082]}, "edge": {"target": [], "time": []}}, "mouseout": {"state": {"target": ["2", "7", "12", "0", "7", "6", "12", "12", "0", "23", "24", "29", "25", "13", "14", "26"], "time": [1815, 1848, 1913, 3332, 3365, 4785, 4869, 7263, 7313, 7330, 7364, 7965, 8698, 10668, 10782, 11180]}, "edge": {"target": [], "time": []}}}, "displayed_time": "16.60", "trialTime": 21674, "trial_type": "mouselab-mdp", "trial_index": 34, "time_elapsed": 907768, "internal_node_id": "0.0-4.0-1.0-25.0"}}, {"uniqueid": "w94417301:a62405296", "current_trial": 35, "dateTime": 1691486053894, "trialdata": {"revealed_states": [], "clicked_states": ["32", "5"], "num_clicks_accrued": [0, 0, 0, 0, 0, 0, 0, 0, 0, 0, 0, 0, 0], "stateRewards": ["", -2, -3, -3, 9, 79, 67, 22, -15, -56, 27, -85, -2, 4, -4, -15, -20, -32, 60, 15, 71, 57, 17, 1, 2, -8, 15, -37, -81, 82, 15, 21, -3, 2], "withholdReward": false, "trial_id": "mdp_trial_27", "block": "test", "trialIndex": 28, "score": 75.7, "costs": -4.3, "simulationMode": [null, null, null, null, null], "rewards": [-2, -3, -3, 9, 79], "path": ["0", "0", "1", "2", "3", "4", "5"], "rt": [8655, 226, 202, 286, 196], "actions": ["up", "up", "up", "right", "up"], "actionTimes": [10218, 10953, 11678, 12480, 13172], "queries": {"click": {"state": {"target": ["32", "5"], "time": [2639, 5817]}, "edge": {"target": [], "time": []}}, "mouseover": {"state": {"target": ["31", "32", "23", "2", "5", "5"], "time": [2224, 2292, 3826, 3876, 4075, 4460]}, "edge": {"target": [], "time": []}}, "mouseout": {"state": {"target": ["0", "31", "32", "23", "2", "5", "5"], "time": [2185, 2258, 3793, 3843, 3909, 4093, 9040]}, "edge": {"target": [], "time": []}}}, "displayed_time": "15.56", "trialTime": 17244, "trial_type": "mouselab-mdp", "trial_index": 35, "time_elapsed": 925588, "internal_node_id": "0.0-4.0-1.0-26.0"}}, {"uniqueid": "w94417301:a62405296", "current_trial": 36, "dateTime": 1691486079704, "trialdata": {"revealed_states": [], "clicked_states": [], "num_clicks_accrued": [0, 0, 0, 0, 0, 0, 0, 0, 0, 0, 0, 0, 0], "stateRewards": ["", 2, -1, -4, -13, 74, 77, 3, 2, -43, -2, -11, 2, 3, 7, 11, -26, -29, -33, -3, -3, -13, -3, 1, 3, -7, 14, -59, 33, 9, -5, 34, 79, 68], "withholdReward": false, "trial_id": "mdp_trial_28", "block": "test", "trialIndex": 29, "score": 44, "costs": 0, "simulationMode": [null, null, null, null, null], "rewards": [1, 3, -7, 14, 33], "path": ["0", "0", "23", "24", "25", "26", "28"], "rt": [4796, 332, 157, 23, 362], "actions": ["left", "left", "left", "up", "right"], "actionTimes": [13780, 14635, 15289, 15821, 16836], "queries": {"click": {"state": {"target": [], "time": []}, "edge": {"target": [], "time": []}}, "mouseover": {"state": {"target": ["1", "2", "3", "2", "1"], "time": [11546, 11847, 12178, 12695, 12777]}, "edge": {"target": [], "time": []}}, "mouseout": {"state": {"target": ["2", "1", "0", "1", "2", "3", "2", "1"], "time": [8062, 8345, 8630, 11562, 12011, 12664, 12727, 12827]}, "edge": {"target": [], "time": []}}}, "displayed_time": "22.99", "trialTime": 25297, "trial_type": "mouselab-mdp", "trial_index": 36, "time_elapsed": 951398, "internal_node_id": "0.0-4.0-1.0-27.0"}}, {"uniqueid": "w94417301:a62405296", "current_trial": 37, "dateTime": 1691486105109, "trialdata": {"revealed_states": [], "clicked_states": ["9", "5", "20", "33"], "num_clicks_accrued": [0, 0, 0, 0, 0, 0, 0, 0, 0, 0, 0, 0, 0], "stateRewards": ["", -1, 2, 6, 11, 21, -21, -21, -6, 48, -71, 88, -1, -3, 3, 7, 64, 2, 9, -4, 37, -67, 72, 2, 2, -8, -8, -10, 71, -40, -3, 73, 80, 47], "withholdReward": false, "trial_id": "mdp_trial_29", "block": "test", "trialIndex": 30, "score": 40.4, "costs": -8.6, "simulationMode": [null, null, null, null, null], "rewards": [-1, 2, 6, -6, 48], "path": ["0", "0", "1", "2", "3", "8", "9"], "rt": [17373, 205, 120, 63, 82], "actions": ["up", "up", "up", "left", "up"], "actionTimes": [19000, 19703, 20335, 20911, 21528], "queries": {"click": {"state": {"target": ["9", "5", "20", "33"], "time": [2971, 6271, 10198, 14347]}, "edge": {"target": [], "time": []}}, "mouseover": {"state": {"target": ["2", "3", "9", "5", "20", "19", "31", "33", "33", "9"], "time": [2399, 2420, 2800, 3784, 10030, 11047, 13581, 13911, 14214, 15764]}, "edge": {"target": [], "time": []}}, "mouseout": {"state": {"target": ["0", "2", "3", "9", "5", "20", "19", "31", "33", "33", "9"], "time": [964, 2417, 2437, 3081, 9429, 10329, 11065, 13895, 13945, 15381, 15830]}, "edge": {"target": [], "time": []}}}, "displayed_time": "22.05", "trialTime": 24758, "trial_type": "mouselab-mdp", "trial_index": 37, "time_elapsed": 976803, "internal_node_id": "0.0-4.0-1.0-28.0"}}, {"uniqueid": "w94417301:a62405296", "current_trial": 38, "dateTime": 1691486129316, "trialdata": {"revealed_states": [], "clicked_states": ["17"], "num_clicks_accrued": [0, 0, 0, 0, 0, 0, 0, 0, 0, 0, 0, 0, 0], "stateRewards": ["", -1, -4, -3, 1, -45, -67, -24, 14, 32, 22, 22, -1, 1, -5, -7, 72, 84, -79, -5, 19, -40, -2, -1, -2, 8, -3, 84, -25, -28, 11, 64, -66, 77], "withholdReward": false, "trial_id": "mdp_trial_30", "block": "test", "trialIndex": 31, "score": 69.85, "costs": -2.15, "simulationMode": [null, null, null, null, null], "rewards": [-1, 1, -5, -7, 84], "path": ["0", "0", "12", "13", "14", "15", "17"], "rt": [8125, 169, 197, 271, 168], "actions": ["right", "right", "right", "up", "right"], "actionTimes": [11589, 12279, 12993, 13783, 14463], "queries": {"click": {"state": {"target": ["17"], "time": [6419]}, "edge": {"target": [], "time": []}}, "mouseover": {"state": {"target": ["15", "17", "17", "15", "1", "28", "26", "29"], "time": [5359, 5379, 5695, 7380, 7794, 8078, 8147, 8348]}, "edge": {"target": [], "time": []}}, "mouseout": {"state": {"target": ["9", "2", "1", "0", "0", "15", "17", "17", "15", "1", "28", "26"], "time": [1149, 1368, 1386, 1943, 5310, 5376, 5396, 6439, 7460, 7827, 8129, 8277]}, "edge": {"target": [], "time": []}}}, "displayed_time": "17.47", "trialTime": 23665, "trial_type": "mouselab-mdp", "trial_index": 38, "time_elapsed": 1001009, "internal_node_id": "0.0-4.0-1.0-29.0"}}, {"uniqueid": "w94417301:a62405296", "current_trial": 39, "dateTime": 1691486149039, "trialdata": {"revealed_states": [], "clicked_states": ["3", "9"], "num_clicks_accrued": [0, 0, 0, 0, 0, 0, 0, 0, 0, 0, 0, 0, 0], "stateRewards": ["", -1, -2, -1, -10, -57, 73, -72, -16, 75, -14, -46, -2, -3, -7, -1, -61, -60, 76, -4, 50, 4, 14, 2, 2, -7, 12, -65, -32, 15, -8, -76, -25, -61], "withholdReward": false, "trial_id": "mdp_trial_31", "block": "test", "trialIndex": 32, "score": 51.9, "costs": -3.0999999999999996, "simulationMode": [null, null, null, null, null], "rewards": [-1, -2, -1, -16, 75], "path": ["0", "0", "1", "2", "3", "8", "9"], "rt": [7866, 301, 277, 160, 248], "actions": ["up", "up", "up", "left", "up"], "actionTimes": [10248, 11090, 11884, 12567, 13338], "queries": {"click": {"state": {"target": ["3", "9"], "time": [5315, 6008]}, "edge": {"target": [], "time": []}}, "mouseover": {"state": {"target": ["1", "2", "3", "9", "2", "23", "24", "25", "29"], "time": [4742, 4760, 5121, 5805, 6607, 6738, 7242, 7338, 7621]}, "edge": {"target": [], "time": []}}, "mouseout": {"state": {"target": ["29", "0", "1", "2", "3", "9", "3", "2", "23", "24", "25"], "time": [1273, 4723, 4757, 4772, 5446, 6256, 6344, 6655, 6789, 7272, 7489]}, "edge": {"target": [], "time": []}}}, "displayed_time": "16.38", "trialTime": 18291, "trial_type": "mouselab-mdp", "trial_index": 39, "time_elapsed": 1020733, "internal_node_id": "0.0-4.0-1.0-30.0"}}, {"uniqueid": "w94417301:a62405296", "current_trial": 40, "dateTime": 1691486172370, "trialdata": {"revealed_states": [], "clicked_states": ["17", "29"], "num_clicks_accrued": [0, 0, 0, 0, 0, 0, 0, 0, 0, 0, 0, 0, 0], "stateRewards": ["", 2, -1, -1, 7, 11, -40, -22, -2, 69, 37, 8, -2, 4, -8, -12, -2, -72, -3, -12, 17, 63, 12, 1, 3, -7, 6, 25, 61, 61, -9, 28, -17, 27], "withholdReward": false, "trial_id": "mdp_trial_32", "block": "test", "trialIndex": 33, "score": 59.7, "costs": -4.3, "simulationMode": [null, null, null, null, null], "rewards": [1, 3, -7, 6, 61], "path": ["0", "0", "23", "24", "25", "26", "29"], "rt": [10304, 351, 205, 250, 127], "actions": ["left", "left", "left", "up", "left"], "actionTimes": [17609, 18472, 19207, 19971, 20613], "queries": {"click": {"state": {"target": ["17", "29"], "time": [9333, 12651]}, "edge": {"target": [], "time": []}}, "mouseover": {"state": {"target": ["18", "15", "17", "17", "18", "28", "26", "29", "1", "14"], "time": [8505, 8802, 8835, 9154, 9737, 9886, 9936, 10253, 13753, 13819]}, "edge": {"target": [], "time": []}}, "mouseout": {"state": {"target": ["29", "26", "25", "30", "31", "0", "18", "15", "17", "17", "18", "28", "26", "29", "1"], "time": [5986, 6101, 6168, 6302, 6335, 8303, 8570, 8819, 8934, 9720, 9754, 9903, 10136, 13669, 13770]}, "edge": {"target": [], "time": []}}}, "displayed_time": "21.31", "trialTime": 22776, "trial_type": "mouselab-mdp", "trial_index": 40, "time_elapsed": 1044064, "internal_node_id": "0.0-4.0-1.0-31.0"}}, {"uniqueid": "w94417301:a62405296", "current_trial": 41, "dateTime": 1691486198895, "trialdata": {"revealed_states": [], "clicked_states": ["9", "5", "32", "21"], "num_clicks_accrued": [0, 0, 0, 0, 0, 0, 0, 0, 0, 0, 0, 0, 0], "stateRewards": ["", -2, -3, -5, 8, 27, 11, 43, -6, -24, -87, 69, -2, 1, 1, 9, 19, 48, -37, 9, -14, 45, 62, 1, 2, 1, 16, -81, -41, 22, 4, -6, -63, 47], "withholdReward": false, "trial_id": "mdp_trial_33", "block": "test", "trialIndex": 34, "score": 45.4, "costs": -8.6, "simulationMode": [null, null, null, null, null], "rewards": [-2, 1, 1, 9, 45], "path": ["0", "0", "12", "13", "14", "19", "21"], "rt": [16891, 553, 236, 166, 164], "actions": ["right", "right", "right", "down", "down"], "actionTimes": [18931, 20129, 20882, 21563, 22244], "queries": {"click": {"state": {"target": ["9", "5", "32", "21"], "time": [3500, 6748, 10368, 13682]}, "edge": {"target": [], "time": []}}, "mouseover": {"state": {"target": ["10", "8", "9", "5", "5", "23", "31", "32", "21"], "time": [2930, 3047, 3313, 4016, 4266, 7398, 7465, 7631, 11547]}, "edge": {"target": [], "time": []}}, "mouseout": {"state": {"target": ["14", "13", "12", "0", "10", "8", "9", "5", "5", "23", "31", "32", "21"], "time": [564, 580, 965, 2881, 2947, 3248, 3615, 4081, 7281, 7416, 7548, 10831, 14580]}, "edge": {"target": [], "time": []}}}, "displayed_time": "22.77", "trialTime": 25700, "trial_type": "mouselab-mdp", "trial_index": 41, "time_elapsed": 1070589, "internal_node_id": "0.0-4.0-1.0-32.0"}}, {"uniqueid": "w94417301:a62405296", "current_trial": 42, "dateTime": 1691486217022, "trialdata": {"revealed_states": [], "clicked_states": [], "num_clicks_accrued": [0, 0, 0, 0, 0, 0, 0, 0, 0, 0, 0, 0, 0], "stateRewards": ["", 2, 3, 3, 10, 19, -21, 6, 9, 54, 68, 16, 2, 2, -6, -8, 40, -2, -75, -2, -42, 55, 59, -1, 2, 4, -14, 11, -34, -30, -6, 61, -53, 13], "withholdReward": false, "trial_id": "mdp_trial_34", "block": "test", "trialIndex": 35, "score": -39, "costs": 0, "simulationMode": [null, null, null, null, null], "rewards": [-1, 2, 4, -14, -30], "path": ["0", "0", "23", "24", "25", "26", "29"], "rt": [7539, 298, 315, 173, 13], "actions": ["left", "left", "left", "up", "left"], "actionTimes": [9517, 10317, 11134, 11809, 12331], "queries": {"click": {"state": {"target": [], "time": []}, "edge": {"target": [], "time": []}}, "mouseover": {"state": {"target": ["23", "28", "26", "29"], "time": [4516, 4632, 4715, 4898]}, "edge": {"target": [], "time": []}}, "mouseout": {"state": {"target": ["12", "0", "23", "28", "26", "29", "26", "25"], "time": [984, 4499, 4533, 4681, 4816, 17055, 17179, 17245]}, "edge": {"target": [], "time": []}}}, "displayed_time": "15.98", "trialTime": 17569, "trial_type": "mouselab-mdp", "trial_index": 42, "time_elapsed": 1088717, "internal_node_id": "0.0-4.0-1.0-33.0"}}, {"uniqueid": "w94417301:a62405296", "current_trial": 43, "dateTime": 1691486235096, "trialdata": {"revealed_states": [], "clicked_states": [], "num_clicks_accrued": [0, 0, 0, 0, 0, 0, 0, 0, 0, 0, 0, 0, 0], "stateRewards": ["", 2, -1, 5, 6, 10, 86, 55, 10, -45, 63, -71, 1, -2, 5, -8, -50, -72, 36, 15, 61, 12, 33, -1, -4, 6, 5, 79, -56, -21, -16, -87, 60, -81], "withholdReward": false, "trial_id": "mdp_trial_35", "block": "test", "trialIndex": 36, "score": 45, "costs": 0, "simulationMode": [null, null, null, null, null], "rewards": [-1, -4, 6, -16, 60], "path": ["0", "0", "23", "24", "25", "30", "32"], "rt": [7395, 243, 289, 173, 343], "actions": ["left", "left", "left", "down", "down"], "actionTimes": [9373, 10136, 10934, 11638, 12487], "queries": {"click": {"state": {"target": [], "time": []}, "edge": {"target": [], "time": []}}, "mouseover": {"state": {"target": ["4", "3", "10", "28", "24", "30", "32", "24", "24"], "time": [2974, 4511, 4541, 4775, 4859, 5427, 5727, 8441, 8592]}, "edge": {"target": [], "time": []}}, "mouseout": {"state": {"target": ["25", "23", "0", "4", "3", "10", "28", "24", "30", "32", "24", "24"], "time": [245, 659, 2937, 4508, 4525, 4642, 4841, 4875, 5443, 8423, 8474, 8625]}, "edge": {"target": [], "time": []}}}, "displayed_time": "15.98", "trialTime": 17440, "trial_type": "mouselab-mdp", "trial_index": 43, "time_elapsed": 1106791, "internal_node_id": "0.0-4.0-1.0-34.0"}}, {"uniqueid": "w94417301:a62405296", "current_trial": 44, "dateTime": 1691486256867, "trialdata": {"revealed_states": [], "clicked_states": ["17", "29", "27"], "num_clicks_accrued": [0, 0, 0, 0, 0, 0, 0, 0, 0, 0, 0, 0, 0], "stateRewards": ["", 1, 1, -3, 2, 22, -25, -11, -5, 50, 49, 3, 1, -1, 8, 14, -85, -30, 57, -6, -39, -16, 59, -2, -1, 5, 5, 59, -16, 8, 4, 67, 56, -9], "withholdReward": false, "trial_id": "mdp_trial_36", "block": "test", "trialIndex": 37, "score": 59.55, "costs": -6.449999999999999, "simulationMode": [null, null, null, null, null], "rewards": [-2, -1, 5, 5, 59], "path": ["0", "0", "23", "24", "25", "26", "27"], "rt": [13897, 257, 367, 387, 281], "actions": ["left", "left", "left", "up", "up"], "actionTimes": [15564, 16334, 17194, 18098, 18910], "queries": {"click": {"state": {"target": ["17", "29", "27"], "time": [3152, 6349, 11441]}, "edge": {"target": [], "time": []}}, "mouseover": {"state": {"target": ["18", "15", "17", "1", "28", "26", "29", "33", "32", "30", "25", "26", "27", "26", "25", "30", "32"], "time": [2496, 2563, 2878, 3717, 3828, 4050, 4145, 9875, 10574, 10915, 10930, 10945, 11041, 12577, 12627, 12743, 13077]}, "edge": {"target": [], "time": []}}, "mouseout": {"state": {"target": ["31", "0", "18", "15", "17", "1", "28", "26", "29", "33", "32", "30", "25", "26", "27", "26", "25", "30"], "time": [561, 2361, 2544, 2645, 3672, 3732, 3862, 4066, 8344, 10508, 10911, 10926, 10942, 10975, 12560, 12610, 12660, 12943]}, "edge": {"target": [], "time": []}}}, "displayed_time": "19.41", "trialTime": 21150, "trial_type": "mouselab-mdp", "trial_index": 44, "time_elapsed": 1128561, "internal_node_id": "0.0-4.0-1.0-35.0"}}, {"uniqueid": "w94417301:a62405296", "current_trial": 45, "dateTime": 1691486284291, "trialdata": {"revealed_states": [], "clicked_states": ["9", "5", "17"], "num_clicks_accrued": [0, 0, 0, 0, 0, 0, 0, 0, 0, 0, 0, 0, 0], "stateRewards": ["", -1, -3, -5, -14, -13, -47, 79, 8, -60, -64, 41, -1, 2, 3, 13, -46, 61, -79, -11, -64, -65, 23, 1, -2, 6, -14, 46, 32, 21, 7, 75, -66, 15], "withholdReward": false, "trial_id": "mdp_trial_37", "block": "test", "trialIndex": 38, "score": 71.55, "costs": -6.449999999999999, "simulationMode": [null, null, null, null, null], "rewards": [-1, 2, 3, 13, 61], "path": ["0", "0", "12", "13", "14", "15", "17"], "rt": [12347, 380, 325, 180, 114], "actions": ["right", "right", "right", "up", "right"], "actionTimes": [17310, 18215, 19063, 19753, 20370], "queries": {"click": {"state": {"target": ["9", "5", "17"], "time": [6071, 9352, 12886]}, "edge": {"target": [], "time": []}}, "mouseover": {"state": {"target": ["9", "9", "5", "17", "20"], "time": [5756, 5888, 6857, 12340, 14273]}, "edge": {"target": [], "time": []}}, "mouseout": {"state": {"target": ["32", "23", "9", "9", "5", "17", "20", "20"], "time": [3539, 3789, 5773, 6596, 10915, 13807, 16371, 26135]}, "edge": {"target": [], "time": []}}}, "displayed_time": "20.87", "trialTime": 26892, "trial_type": "mouselab-mdp", "trial_index": 45, "time_elapsed": 1155985, "internal_node_id": "0.0-4.0-1.0-36.0"}}, {"uniqueid": "w94417301:a62405296", "current_trial": 46, "dateTime": 1691486302869, "trialdata": {"revealed_states": [], "clicked_states": ["32"], "num_clicks_accrued": [0, 0, 0, 0, 0, 0, 0, 0, 0, 0, 0, 0, 0], "stateRewards": ["", 2, 3, -2, -8, -8, -41, 74, 15, -23, -80, 1, 1, 3, 3, -15, -63, -78, 67, 13, 75, -41, 86, 2, -2, 6, -3, -8, -49, 50, -6, 83, 74, 80], "withholdReward": false, "trial_id": "mdp_trial_38", "block": "test", "trialIndex": 39, "score": 71.85, "costs": -2.15, "simulationMode": [null, null, null, null, null], "rewards": [2, -2, 6, -6, 74], "path": ["0", "0", "23", "24", "25", "30", "32"], "rt": [5745, 346, 242, 23, 187], "actions": ["left", "left", "left", "down", "down"], "actionTimes": [7477, 8322, 9067, 9616, 10330], "queries": {"click": {"state": {"target": ["32"], "time": [3272]}, "edge": {"target": [], "time": []}}, "mouseover": {"state": {"target": ["31", "32", "31"], "time": [2639, 2958, 3908]}, "edge": {"target": [], "time": []}}, "mouseout": {"state": {"target": ["0", "0", "31", "32", "31"], "time": [775, 2589, 2657, 3575, 17554]}, "edge": {"target": [], "time": []}}}, "displayed_time": "15.74", "trialTime": 18044, "trial_type": "mouselab-mdp", "trial_index": 46, "time_elapsed": 1174563, "internal_node_id": "0.0-4.0-1.0-37.0"}}, {"uniqueid": "w94417301:a62405296", "current_trial": 47, "dateTime": 1691486324421, "trialdata": {"revealed_states": [], "clicked_states": ["9", "5"], "num_clicks_accrued": [0, 0, 0, 0, 0, 0, 0, 0, 0, 0, 0, 0, 0], "stateRewards": ["", -1, 2, -2, 5, 80, -61, -27, 12, 44, -26, -75, -2, -4, 1, -16, 42, -49, -50, 4, -44, 2, 80, -2, -2, 5, -2, 59, 10, 24, 7, -48, -86, -44], "withholdReward": false, "trial_id": "mdp_trial_39", "block": "test", "trialIndex": 40, "score": 79.7, "costs": -4.3, "simulationMode": [null, null, null, null, null], "rewards": [-1, 2, -2, 5, 80], "path": ["0", "0", "1", "2", "3", "4", "5"], "rt": [9419, 369, 382, 237, 303], "actions": ["up", "up", "up", "right", "up"], "actionTimes": [14253, 15149, 16030, 16784, 17583], "queries": {"click": {"state": {"target": ["9", "5"], "time": [6186, 9719]}, "edge": {"target": [], "time": []}}, "mouseover": {"state": {"target": ["8", "9", "5"], "time": [5831, 5961, 7499]}, "edge": {"target": [], "time": []}}, "mouseout": {"state": {"target": ["0", "8", "9", "5", "3"], "time": [5619, 5845, 7383, 11239, 20628]}, "edge": {"target": [], "time": []}}}, "displayed_time": "18.80", "trialTime": 20927, "trial_type": "mouselab-mdp", "trial_index": 47, "time_elapsed": 1196114, "internal_node_id": "0.0-4.0-1.0-38.0"}}, {"uniqueid": "w94417301:a62405296", "current_trial": 48, "dateTime": 1691486357136, "trialdata": {"revealed_states": [], "clicked_states": ["32", "21", "16", "5"], "num_clicks_accrued": [0, 0, 0, 0, 0, 0, 0, 0, 0, 0, 0, 0, 0], "stateRewards": ["", 1, 4, 5, -5, 58, -80, 75, 6, 25, -39, 46, 2, -2, 4, 2, 59, 31, -22, -12, -61, 15, 72, 1, -2, -7, 8, 77, 76, -23, -7, 71, -15, -3], "withholdReward": false, "trial_id": "mdp_trial_40", "block": "test", "trialIndex": 41, "score": 56.4, "costs": -8.6, "simulationMode": [null, null, null, null, null], "rewards": [2, -2, 4, 2, 59], "path": ["0", "0", "12", "13", "14", "15", "16"], "rt": [15781, 166, 233, 227, 214], "actions": ["right", "right", "right", "up", "up"], "actionTimes": [25646, 26463, 27209, 27958, 28674], "queries": {"click": {"state": {"target": ["32", "21", "16", "5"], "time": [11045, 14195, 17897, 21061]}, "edge": {"target": [], "time": []}}, "mouseover": {"state": {"target": ["31", "32", "21", "13", "15", "16", "6", "4", "5", "6"], "time": [10543, 10810, 11928, 16893, 16928, 17474, 18576, 18608, 18809, 23275]}, "edge": {"target": [], "time": []}}, "mouseout": {"state": {"target": ["2", "1", "0", "0", "31", "32", "21", "13", "15", "16", "6", "4", "5", "6", "16"], "time": [8358, 8625, 8791, 10494, 10563, 11361, 15481, 16911, 17340, 18559, 18592, 18660, 22242, 23358, 24657]}, "edge": {"target": [], "time": []}}}, "displayed_time": "29.19", "trialTime": 31590, "trial_type": "mouselab-mdp", "trial_index": 48, "time_elapsed": 1228830, "internal_node_id": "0.0-4.0-1.0-39.0"}}, {"uniqueid": "w94417301:a62405296", "current_trial": 49, "dateTime": 1691486397676, "trialdata": {"rt": 39155, "response": {"Q0": "$-2 to $2", "Q1": "$-4 to $4", "Q2": "$-16 to $16", "Q3": "The cost for clicking on nodes varied between nodes.", "Q4": "Slightly motivated"}, "question_order": [0, 1, 2, 3, 4], "trial_id": "final_quiz_control", "trial_type": "survey-multi-choice", "trial_index": 49, "time_elapsed": 1269370, "internal_node_id": "0.0-4.0-2.0"}}, {"uniqueid": "w94417301:a62405296", "current_trial": 50, "dateTime": 1691486486267, "trialdata": {"rt": 87392, "response": {"Q0": "as few guesses as possible, targeting clusters at a time", "Q1": "I tried to lessen the amount of guesses to as little as possible", "Q2": "The uncertainty made it difficult, but I managed to improve by lessening the amount of guesses I made"}, "trial_id": "self_report_control", "trial_type": "survey-text", "trial_index": 50, "time_elapsed": 1357962, "internal_node_id": "0.0-4.0-3.0"}}, {"uniqueid": "w94417301:a62405296", "current_trial": 51, "dateTime": 1691486522107, "trialdata": {"rt": 35816, "response": {"Q0": "Disagree", "Q1": "Strongly disagree", "Q2": "Strongly agree", "Q3": "Agree", "Q4": "Disagree", "Q5": "Agree", "Q6": "Disagree"}, "question_order": [0, 1, 2, 3, 4, 5, 6], "trial_id": "self_report_2", "trial_type": "survey-multi-choice", "trial_index": 51, "time_elapsed": 1393802, "internal_node_id": "0.0-4.0-4.0"}}, {"uniqueid": "w94417301:a62405296", "current_trial": 52, "dateTime": 1691486546922, "trialdata": {"rt": 24686, "response": {"gender": "female", "age": "35", "colorblind": "0", "effort": "0"}, "trial_type": "survey-html-form", "trial_index": 52, "time_elapsed": 1418617, "internal_node_id": "0.0-4.0-5.0"}}, {"uniqueid": "w94417301:a62405296", "current_trial": 53, "dateTime": 1691486588902, "trialdata": {"rt": 41920, "response": {"Q0": "No, the instructions were direct and clear", "Q1": "No", "Q2": "Wishing you the best of luck with your study, I hope you find my contribution useful."}, "trial_type": "survey-text", "trial_index": 53, "time_elapsed": 1460597, "internal_node_id": "0.0-4.0-6.0"}}, {"uniqueid": "w94417301:a62405296", "current_trial": 54, "dateTime": 1691486592316, "trialdata": {"rt": 3317, "stimulus": "Press 'Finish HIT' in order to reach the completion code. Once the data has been saved, you will receive the code either in this window or in the original browser window where you started the experiment.\n", "response": 0, "trial_type": "html-button-response", "trial_index": 54, "time_elapsed": 1464011, "internal_node_id": "0.0-5.0"}}], "questiondata": {"params": {"CODE": "C6DMOQA6", "MIN_TIME": 14, "inspectCost": 1, "startTime": "Tue Aug 08 2023 10:58:42 GMT+0200 (South Africa Standard Time)", "bonusRate": 0.002, "variance": "1_2_4_8_44", "branching": "31123"}}, "eventdata": [{"eventtype": "initialized", "value": null, "timestamp": 1691485121370, "interval": 0}, {"eventtype": "window_resize", "value": [1536, 806], "timestamp": 1691485121370, "interval": 0}, {"eventtype": "window_resize", "value": [1536, 806], "timestamp": 1691485121902, "interval": 532}, {"eventtype": "window_resize", "value": [1536, 864], "timestamp": 1691485131428, "interval": 9526}], "useragent": "Mozilla/5.0 (Windows NT 10.0; Win64; x64) AppleWebKit/537.36 (KHTML, like Gecko) Chrome/115.0.0.0 Safari/537.36", "mode": "live", "id": "w94417301:a62405296", "status": "user data saved", "Beginhit": "2023-08-08 08:58:34.127508", "Beginexp": "2023-08-08 08:58:52.50125", "Endhit": "2023-08-08 09:23:16.978916", "psiturkStatus": 3, "browser": "<redacted>", "platform": "windows", "language": "en-US"}