{"condition": 1, "counterbalance": 0, "assignmentId": "a73073324", "workerId": "w45350335", "hitId": "h40201061", "currenttrial": 56, "bonus": 0, "data": [{"uniqueid": "w45350335:a73073324", "current_trial": 0, "dateTime": 1693660307072, "trialdata": {"success": true, "trial_type": "fullscreen", "trial_index": 0, "time_elapsed": 3360, "internal_node_id": "0.0-0.0"}}, {"uniqueid": "w45350335:a73073324", "current_trial": 1, "dateTime": 1693660354275, "trialdata": {"view_history": [{"page_index": 0, "viewing_time": 47201}], "rt": 47201, "trial_id": "exp_instructions_misaligned", "trial_type": "instructions", "trial_index": 1, "time_elapsed": 50564, "internal_node_id": "0.0-1.0"}}, {"uniqueid": "w45350335:a73073324", "current_trial": 2, "dateTime": 1693660535487, "trialdata": {"view_history": [{"page_index": 0, "viewing_time": 50097}, {"page_index": 1, "viewing_time": 66510}, {"page_index": 2, "viewing_time": 24264}, {"page_index": 3, "viewing_time": 40340}], "rt": 181211, "trial_id": "mouselab_instructions_1_misaligned", "trial_type": "instructions", "trial_index": 2, "time_elapsed": 231776, "internal_node_id": "0.0-2.0-1.0"}}, {"uniqueid": "w45350335:a73073324", "current_trial": 3, "dateTime": 1693660552898, "trialdata": {"revealed_states": [], "clicked_states": ["24", "2", "15", "19", "32"], "num_clicks_accrued": [0, 0, 0, 0, 0, 0, 0, 0, 0, 0, 0, 0, 0], "stateRewards": ["", 10, -10, 10, 10, 10, 10, -10, -10, 10, 10, 10, -10, -10, -10, -10, 10, 10, -10, -10, -10, -10, 10, 10, -10, -10, -10, -10, -10, 10, -10, 10, 10, -10], "withholdReward": false, "trial_id": "practice_1", "block": "test", "trialIndex": 0, "score": 11, "costs": -2.5, "simulationMode": [null, null, null, null, null], "rewards": [10, -10, 10, -10, 10], "path": ["0", "0", "1", "2", "3", "8", "11"], "rt": [9709, 114, 97, 74, 306], "actions": ["up", "up", "up", "left", "left"], "actionTimes": [10597, 11221, 11821, 12381, 13196], "queries": {"click": {"state": {"target": ["24", "2", "15", "19", "32"], "time": [2656, 4655, 6023, 7041, 8765]}, "edge": {"target": [], "time": []}}, "mouseover": {"state": {"target": ["23", "24", "23", "1", "2", "4", "6", "18", "15", "14", "19", "22", "32"], "time": [1856, 2389, 3857, 4156, 4373, 5356, 5506, 5724, 5823, 6390, 6590, 7790, 8624]}, "edge": {"target": [], "time": []}}, "mouseout": {"state": {"target": ["0", "23", "24", "23", "1", "2", "4", "6", "18", "15", "14", "19", "22", "32"], "time": [1673, 2256, 3690, 4056, 4323, 5223, 5390, 5656, 5739, 6356, 6506, 7639, 7873, 9456]}, "edge": {"target": [], "time": []}}}, "displayed_time": "13.71", "trialTime": 16996, "trial_type": "mouselab-mdp", "trial_index": 3, "time_elapsed": 249187, "internal_node_id": "0.0-2.0-2.0-0.0"}}, {"uniqueid": "w45350335:a73073324", "current_trial": 4, "dateTime": 1693660575267, "trialdata": {"revealed_states": [], "clicked_states": ["8", "5", "22", "20"], "num_clicks_accrued": [0, 0, 0, 0, 0, 0, 0, 0, 0, 0, 0, 0, 0], "stateRewards": ["", 10, 10, 10, 10, -10, 10, -10, 10, 10, -10, 10, -10, 10, 10, 10, -10, -10, -10, -10, -10, -10, 10, 10, 10, 10, 10, 10, -10, -10, -10, 10, -10, 10], "withholdReward": false, "trial_id": "practice_2", "block": "test", "trialIndex": 1, "score": -8.5, "costs": -2, "simulationMode": [null, null, null, null, null], "rewards": [-10, 10, 10, -10, -10], "path": ["0", "0", "12", "13", "14", "19", "21"], "rt": [11058, 433, 2947, 41, 1219], "actions": ["right", "right", "right", "down", "down"], "actionTimes": [12550, 13479, 16943, 17487, 19199], "queries": {"click": {"state": {"target": ["8", "5", "22", "20"], "time": [5162, 6741, 8623, 10503]}, "edge": {"target": [], "time": []}}, "mouseover": {"state": {"target": ["10", "8", "3", "4", "5", "5", "4", "4", "5", "4", "7", "18", "13", "22", "19", "20"], "time": [4878, 5012, 5445, 5495, 5628, 5795, 6078, 6412, 6528, 6945, 6978, 7045, 7996, 8478, 9595, 10428]}, "edge": {"target": [], "time": []}}, "mouseout": {"state": {"target": ["0", "10", "8", "3", "4", "5", "5", "4", "4", "5", "5", "4", "7", "18", "13", "22", "19", "20"], "time": [1645, 4962, 5412, 5462, 5512, 5662, 6062, 6112, 6462, 6816, 6912, 6962, 6995, 7095, 8262, 9345, 10328, 10812]}, "edge": {"target": [], "time": []}}}, "displayed_time": "19.71", "trialTime": 22287, "trial_type": "mouselab-mdp", "trial_index": 4, "time_elapsed": 271556, "internal_node_id": "0.0-2.0-2.0-1.0"}}, {"uniqueid": "w45350335:a73073324", "current_trial": 5, "dateTime": 1693660611503, "trialdata": {"view_history": [{"page_index": 0, "viewing_time": 28870}, {"page_index": 1, "viewing_time": 7364}], "rt": 36235, "trial_id": "mouselab_instructions_2_misaligned", "trial_type": "instructions", "trial_index": 5, "time_elapsed": 307792, "internal_node_id": "0.0-2.0-3.0"}}, {"uniqueid": "w45350335:a73073324", "current_trial": 6, "dateTime": 1693660634394, "trialdata": {"rt": 22890, "response": {"Q0": "The cost for clicking on nodes may vary between nodes.", "Q1": "The better I perform the higher my bonus will be.", "Q2": "No, the amount of cash at each node of the web may be different each time.", "Q3": "To get the highest total score.", "Q4": "Only before moving the spider.", "Q5": "3 seconds"}, "question_order": [0, 1, 2, 3, 4, 5], "correct": {"Q0": "The cost for clicking on nodes may vary between nodes.", "Q1": "The better I perform the higher my bonus will be.", "Q2": "No, the amount of cash at each node of the web may be different each time.", "Q3": "To get the highest total score.", "Q4": "Only before moving the spider.", "Q5": "3 seconds"}, "trial_id": "mouselab_quiz_misaligned", "trial_type": "survey-multi-choice", "trial_index": 6, "time_elapsed": 330683, "internal_node_id": "0.0-2.0-4.0"}}, {"uniqueid": "w45350335:a73073324", "current_trial": 7, "dateTime": 1693660639082, "trialdata": {"rt": 4685, "response": {"Q0": "No"}, "question_order": [0], "trial_id": "repeat_check", "trial_type": "survey-multi-choice", "trial_index": 7, "time_elapsed": 335371, "internal_node_id": "0.0-4.0-0.0"}}, {"uniqueid": "w45350335:a73073324", "current_trial": 8, "dateTime": 1693660648290, "trialdata": {"rt": 9205, "stimulus": "\n<h1> Get ready to start the game! </h1>\n\nThank you for reading the instructions. Get ready start with the 40 rounds of this game.\n<br><br>\nIf you need to take a break, feel free to take one after the end of a round, before continuing to the next one.\n<br><br>\nRemember, the more money the spider gets, the bigger your bonus will be!\n<br><br>\n<div style='text-align: center;'>Press <code>space</code> to begin.</div>\n\n<br><br>\n(If, at any point, the <code>space</code> key does not take you to the next page, click once on the text and try again.)", "response": " ", "trial_id": "mdp_ready", "trial_type": "html-keyboard-response", "trial_index": 8, "time_elapsed": 344579, "internal_node_id": "0.0-6.0-0.0"}}, {"uniqueid": "w45350335:a73073324", "current_trial": 9, "dateTime": 1693660669267, "trialdata": {"revealed_states": [], "clicked_states": ["24", "27", "21"], "num_clicks_accrued": [0, 0, 0, 0, 0, 0, 0, 0, 0, 0, 0, 0, 0], "stateRewards": ["", 2, 4, -3, 16, -58, 30, -35, 11, -60, 47, 27, -2, -1, -7, -16, 23, -70, 68, -10, -65, -43, -34, -2, 1, 7, 9, -63, 34, -31, -8, -12, -86, 59], "withholdReward": false, "trial_id": "mdp_trial_1", "block": "test", "trialIndex": 2, "score": -7.649999999999999, "costs": -4.65, "simulationMode": [null, null, null, null, null], "rewards": [-2, -1, -7, -16, 23], "path": ["0", "0", "12", "13", "14", "15", "16"], "rt": [14775, 54, 95, 96, 176], "actions": ["right", "right", "right", "up", "up"], "actionTimes": [16191, 16752, 17343, 17944, 18624], "queries": {"click": {"state": {"target": ["24", "27", "21"], "time": [3322, 5821, 11435]}, "edge": {"target": [], "time": []}}, "mouseover": {"state": {"target": ["24", "26", "27", "26", "24", "21"], "time": [3165, 5430, 5697, 7814, 8130, 11347]}, "edge": {"target": [], "time": []}}, "mouseout": {"state": {"target": ["0", "24", "26", "27", "26", "24", "21"], "time": [2214, 5247, 5597, 6097, 7897, 8147, 12797]}, "edge": {"target": [], "time": []}}}, "displayed_time": "19.13", "trialTime": 20888, "trial_type": "mouselab-mdp", "trial_index": 9, "time_elapsed": 365556, "internal_node_id": "0.0-6.0-1.0-0.0"}}, {"uniqueid": "w45350335:a73073324", "current_trial": 10, "dateTime": 1693660687834, "trialdata": {"revealed_states": [], "clicked_states": [], "num_clicks_accrued": [0, 0, 0, 0, 0, 0, 0, 0, 0, 0, 0, 0, 0], "stateRewards": ["", 1, -1, 1, -14, -10, 67, -28, -11, 72, 40, -65, -1, 1, 1, -2, 8, -55, 34, -10, 61, 33, -15, 2, -4, 7, 4, -75, 63, -21, -16, 61, 19, 21], "withholdReward": false, "trial_id": "mdp_trial_2", "block": "test", "trialIndex": 3, "score": -23, "costs": 0, "simulationMode": [null, null, null, null, null], "rewards": [1, -1, 1, -14, -10], "path": ["0", "0", "1", "2", "3", "4", "5"], "rt": [1063, 32, 26, 54, 8], "actions": ["up", "up", "up", "right", "up"], "actionTimes": [3150, 3694, 4238, 4783, 5287], "queries": {"click": {"state": {"target": [], "time": []}, "edge": {"target": [], "time": []}}, "mouseover": {"state": {"target": [], "time": []}, "edge": {"target": [], "time": []}}, "mouseout": {"state": {"target": [], "time": []}, "edge": {"target": [], "time": []}}}, "displayed_time": "16.09", "trialTime": 18486, "trial_type": "mouselab-mdp", "trial_index": 10, "time_elapsed": 384123, "internal_node_id": "0.0-6.0-1.0-1.0"}}, {"uniqueid": "w45350335:a73073324", "current_trial": 11, "dateTime": 1693660707147, "trialdata": {"revealed_states": [], "clicked_states": ["8", "9"], "num_clicks_accrued": [0, 0, 0, 0, 0, 0, 0, 0, 0, 0, 0, 0, 0], "stateRewards": ["", 1, 1, 5, 6, -29, -7, 3, -16, 9, -46, 65, -1, 4, -1, -16, -63, -77, -87, 8, 80, -50, 43, -1, -1, -5, 5, -38, -71, -62, 9, 81, -50, -52], "withholdReward": false, "trial_id": "mdp_trial_3", "block": "test", "trialIndex": 4, "score": -76.7, "costs": -3.7, "simulationMode": [null, null, null, null, null], "rewards": [-1, -1, -5, 5, -71], "path": ["0", "0", "23", "24", "25", "26", "28"], "rt": [9286, 80, 73, 419, 61], "actions": ["left", "left", "left", "up", "right"], "actionTimes": [10340, 10931, 11507, 12436, 13011], "queries": {"click": {"state": {"target": ["8", "9"], "time": [2408, 3858]}, "edge": {"target": [], "time": []}}, "mouseover": {"state": {"target": ["10", "8", "9", "10"], "time": [1533, 1899, 3666, 6816]}, "edge": {"target": [], "time": []}}, "mouseout": {"state": {"target": ["0", "10", "8", "9", "8", "10"], "time": [1349, 1666, 3484, 4449, 6783, 7466]}, "edge": {"target": [], "time": []}}}, "displayed_time": "15.05", "trialTime": 19220, "trial_type": "mouselab-mdp", "trial_index": 11, "time_elapsed": 403435, "internal_node_id": "0.0-6.0-1.0-2.0"}}, {"uniqueid": "w45350335:a73073324", "current_trial": 12, "dateTime": 1693660725930, "trialdata": {"revealed_states": [], "clicked_states": [], "num_clicks_accrued": [0, 0, 0, 0, 0, 0, 0, 0, 0, 0, 0, 0, 0], "stateRewards": ["", 2, 3, -1, 6, 44, -4, -59, -14, -3, 64, 16, 1, -3, 3, 6, 3, 49, 19, 3, -49, -14, -86, 1, 2, -3, -8, -33, 14, 32, -13, -77, -47, -67], "withholdReward": false, "trial_id": "mdp_trial_4", "block": "test", "trialIndex": 5, "score": 54, "costs": 0, "simulationMode": [null, null, null, null, null], "rewards": [2, 3, -1, 6, 44], "path": ["0", "0", "1", "2", "3", "4", "5"], "rt": [745, 28, 63, 34, 19], "actions": ["up", "up", "up", "right", "up"], "actionTimes": [2746, 3289, 3841, 4378, 4897], "queries": {"click": {"state": {"target": [], "time": []}, "edge": {"target": [], "time": []}}, "mouseover": {"state": {"target": [], "time": []}, "edge": {"target": [], "time": []}}, "mouseout": {"state": {"target": ["23", "0"], "time": [1593, 2094]}, "edge": {"target": [], "time": []}}}, "displayed_time": "16.00", "trialTime": 18697, "trial_type": "mouselab-mdp", "trial_index": 12, "time_elapsed": 422219, "internal_node_id": "0.0-6.0-1.0-3.0"}}, {"uniqueid": "w45350335:a73073324", "current_trial": 13, "dateTime": 1693660744850, "trialdata": {"revealed_states": [], "clicked_states": [], "num_clicks_accrued": [0, 0, 0, 0, 0, 0, 0, 0, 0, 0, 0, 0, 0], "stateRewards": ["", -2, -2, -7, -13, -10, 49, -68, -1, 84, 70, 88, 1, 4, 4, 12, -57, 25, 30, 8, -1, -77, 57, 2, 3, 2, 3, -18, -80, 23, -15, -41, 70, 11], "withholdReward": false, "trial_id": "mdp_trial_5", "block": "test", "trialIndex": 6, "score": -34, "costs": 0, "simulationMode": [null, null, null, null, null], "rewards": [-2, -2, -7, -13, -10], "path": ["0", "0", "1", "2", "3", "4", "5"], "rt": [962, 81, 123, 65, 34], "actions": ["up", "up", "up", "right", "up"], "actionTimes": [2846, 3430, 4039, 4614, 5150], "queries": {"click": {"state": {"target": [], "time": []}, "edge": {"target": [], "time": []}}, "mouseover": {"state": {"target": [], "time": []}, "edge": {"target": [], "time": []}}, "mouseout": {"state": {"target": ["0"], "time": [2015]}, "edge": {"target": [], "time": []}}}, "displayed_time": "15.89", "trialTime": 18822, "trial_type": "mouselab-mdp", "trial_index": 13, "time_elapsed": 441138, "internal_node_id": "0.0-6.0-1.0-4.0"}}, {"uniqueid": "w45350335:a73073324", "current_trial": 14, "dateTime": 1693660763066, "trialdata": {"revealed_states": [], "clicked_states": [], "num_clicks_accrued": [0, 0, 0, 0, 0, 0, 0, 0, 0, 0, 0, 0, 0], "stateRewards": ["", 2, -1, 4, -9, -43, 7, 54, -13, 38, -40, -83, -1, 2, -8, -10, 34, -33, 11, -14, -79, 65, 26, 1, 2, 4, 10, 21, 1, 86, 4, -53, 28, -29], "withholdReward": false, "trial_id": "mdp_trial_6", "block": "test", "trialIndex": 7, "score": -50, "costs": 0, "simulationMode": [null, null, null, null, null], "rewards": [-1, 2, -8, -10, -33], "path": ["0", "0", "12", "13", "14", "15", "17"], "rt": [1685, 50, 18, 485, 69], "actions": ["right", "right", "right", "up", "right"], "actionTimes": [3310, 3871, 4405, 5406, 5990], "queries": {"click": {"state": {"target": [], "time": []}, "edge": {"target": [], "time": []}}, "mouseover": {"state": {"target": [], "time": []}, "edge": {"target": [], "time": []}}, "mouseout": {"state": {"target": ["0"], "time": [1737]}, "edge": {"target": [], "time": []}}}, "displayed_time": "15.63", "trialTime": 18126, "trial_type": "mouselab-mdp", "trial_index": 14, "time_elapsed": 459355, "internal_node_id": "0.0-6.0-1.0-5.0"}}, {"uniqueid": "w45350335:a73073324", "current_trial": 15, "dateTime": 1693660784642, "trialdata": {"revealed_states": [], "clicked_states": ["5", "9", "29", "33"], "num_clicks_accrued": [0, 0, 0, 0, 0, 0, 0, 0, 0, 0, 0, 0, 0], "stateRewards": ["", -2, 4, 3, 5, -61, 4, 30, 1, -47, 83, 10, 1, 4, 7, -14, 19, -74, -83, 6, -2, -2, -65, -1, -2, 4, -11, 12, -1, -68, 11, -38, -28, 66], "withholdReward": false, "trial_id": "mdp_trial_7", "block": "test", "trialIndex": 8, "score": 69.4, "costs": -8.6, "simulationMode": [null, null, null, null, null], "rewards": [-1, -2, 4, 11, 66], "path": ["0", "0", "23", "24", "25", "30", "33"], "rt": [15392, 49, 452, 117, 75], "actions": ["left", "left", "left", "down", "left"], "actionTimes": [16270, 16830, 17799, 18414, 19006], "queries": {"click": {"state": {"target": ["5", "9", "29", "33"], "time": [1708, 5155, 8323, 11530]}, "edge": {"target": [], "time": []}}, "mouseover": {"state": {"target": ["1", "4", "5", "9", "27", "29", "33", "32", "32"], "time": [1279, 1463, 1613, 2380, 5946, 6763, 8646, 11980, 14163]}, "edge": {"target": [], "time": []}}, "mouseout": {"state": {"target": ["0", "1", "4", "5", "9", "27", "29", "33", "32", "32"], "time": [1263, 1296, 1480, 2046, 5396, 6180, 8513, 11930, 11996, 15280]}, "edge": {"target": [], "time": []}}}, "displayed_time": "19.50", "trialTime": 21479, "trial_type": "mouselab-mdp", "trial_index": 15, "time_elapsed": 480931, "internal_node_id": "0.0-6.0-1.0-6.0"}}, {"uniqueid": "w45350335:a73073324", "current_trial": 16, "dateTime": 1693660802082, "trialdata": {"revealed_states": [], "clicked_states": ["9"], "num_clicks_accrued": [0, 0, 0, 0, 0, 0, 0, 0, 0, 0, 0, 0, 0], "stateRewards": ["", -1, 1, -6, -1, 80, 23, 2, -11, 73, -81, 59, 1, 3, 5, -1, -26, 28, -3, 16, -59, -13, -50, -2, -2, 2, 15, -50, 86, 17, -4, 37, 35, 44], "withholdReward": false, "trial_id": "mdp_trial_8", "block": "test", "trialIndex": 9, "score": 53.85, "costs": -2.15, "simulationMode": [null, null, null, null, null], "rewards": [-1, 1, -6, -11, 73], "path": ["0", "0", "1", "2", "3", "8", "9"], "rt": [4984, 15, 242, 12, 23], "actions": ["up", "up", "up", "left", "up"], "actionTimes": [6556, 7076, 7837, 8357, 8884], "queries": {"click": {"state": {"target": ["9"], "time": [2512]}, "edge": {"target": [], "time": []}}, "mouseover": {"state": {"target": ["28", "9", "5"], "time": [2060, 2393, 3060]}, "edge": {"target": [], "time": []}}, "mouseout": {"state": {"target": ["0", "28", "9"], "time": [1977, 2110, 2943]}, "edge": {"target": [], "time": []}}}, "displayed_time": "15.57", "trialTime": 17349, "trial_type": "mouselab-mdp", "trial_index": 16, "time_elapsed": 498371, "internal_node_id": "0.0-6.0-1.0-7.0"}}, {"uniqueid": "w45350335:a73073324", "current_trial": 17, "dateTime": 1693660819107, "trialdata": {"revealed_states": [], "clicked_states": ["9"], "num_clicks_accrued": [0, 0, 0, 0, 0, 0, 0, 0, 0, 0, 0, 0, 0], "stateRewards": ["", -1, -2, -1, -10, -57, 73, -72, -16, 75, -14, -46, -2, -3, -7, -1, -61, -60, 76, -4, 50, 4, 14, 2, 2, -7, 12, -65, -32, 15, -8, -76, -25, -61], "withholdReward": false, "trial_id": "mdp_trial_9", "block": "test", "trialIndex": 10, "score": 52.85, "costs": -2.15, "simulationMode": [null, null, null, null, null], "rewards": [-1, -2, -1, -16, 75], "path": ["0", "0", "1", "2", "3", "8", "9"], "rt": [4592, 58, 2, 14, 338], "actions": ["up", "up", "up", "left", "up"], "actionTimes": [5850, 6411, 6938, 7466, 8307], "queries": {"click": {"state": {"target": ["9"], "time": [1884]}, "edge": {"target": [], "time": []}}, "mouseover": {"state": {"target": ["1", "8", "9", "5"], "time": [1452, 1553, 1768, 2485]}, "edge": {"target": [], "time": []}}, "mouseout": {"state": {"target": ["5", "3", "2", "1", "1", "8", "9", "5"], "time": [286, 568, 618, 718, 1468, 1702, 2218, 5218]}, "edge": {"target": [], "time": []}}}, "displayed_time": "15.26", "trialTime": 16931, "trial_type": "mouselab-mdp", "trial_index": 17, "time_elapsed": 515395, "internal_node_id": "0.0-6.0-1.0-8.0"}}, {"uniqueid": "w45350335:a73073324", "current_trial": 18, "dateTime": 1693660835770, "trialdata": {"revealed_states": [], "clicked_states": ["9"], "num_clicks_accrued": [0, 0, 0, 0, 0, 0, 0, 0, 0, 0, 0, 0, 0], "stateRewards": ["", -1, 2, -6, 6, 43, 78, 78, -2, 55, -29, -17, -2, -4, 1, -15, 13, 7, -79, 8, -28, -68, 36, -1, -3, 3, -16, 84, -18, 87, 10, 32, 13, -81], "withholdReward": false, "trial_id": "mdp_trial_10", "block": "test", "trialIndex": 11, "score": 45.85, "costs": -2.15, "simulationMode": [null, null, null, null, null], "rewards": [-1, 2, -6, -2, 55], "path": ["0", "0", "1", "2", "3", "8", "9"], "rt": [4587, 49, 35, 76, 30], "actions": ["up", "up", "up", "left", "up"], "actionTimes": [5436, 5972, 6541, 7132, 7652], "queries": {"click": {"state": {"target": ["9"], "time": [1457]}, "edge": {"target": [], "time": []}}, "mouseover": {"state": {"target": ["10", "8", "9", "5"], "time": [1088, 1106, 1305, 2172]}, "edge": {"target": [], "time": []}}, "mouseout": {"state": {"target": ["0", "10", "8", "9"], "time": [1022, 1105, 1122, 1972]}, "edge": {"target": [], "time": []}}}, "displayed_time": "14.85", "trialTime": 16565, "trial_type": "mouselab-mdp", "trial_index": 18, "time_elapsed": 532059, "internal_node_id": "0.0-6.0-1.0-9.0"}}, {"uniqueid": "w45350335:a73073324", "current_trial": 19, "dateTime": 1693660852386, "trialdata": {"revealed_states": [], "clicked_states": ["9"], "num_clicks_accrued": [0, 0, 0, 0, 0, 0, 0, 0, 0, 0, 0, 0, 0], "stateRewards": ["", 2, -2, -8, 9, -20, 55, -58, 14, 42, 2, 36, 1, -3, -5, 5, -58, 57, 60, 16, 57, 30, -70, -2, 1, 3, 10, 59, 23, 77, -13, -26, 88, -72], "withholdReward": false, "trial_id": "mdp_trial_11", "block": "test", "trialIndex": 12, "score": 45.85, "costs": -2.15, "simulationMode": [null, null, null, null, null], "rewards": [2, -2, -8, 14, 42], "path": ["0", "0", "1", "2", "3", "8", "9"], "rt": [4586, 74, 59, 44, 21], "actions": ["up", "up", "up", "left", "up"], "actionTimes": [5950, 6518, 7085, 7637, 8181], "queries": {"click": {"state": {"target": ["9"], "time": [1895]}, "edge": {"target": [], "time": []}}, "mouseover": {"state": {"target": ["8", "9", "5"], "time": [1492, 1759, 2826]}, "edge": {"target": [], "time": []}}, "mouseout": {"state": {"target": ["5", "0", "8", "9", "5", "4", "7", "0"], "time": [709, 1442, 1509, 2642, 13693, 13726, 15142, 15676]}, "edge": {"target": [], "time": []}}}, "displayed_time": "15.37", "trialTime": 16517, "trial_type": "mouselab-mdp", "trial_index": 19, "time_elapsed": 548675, "internal_node_id": "0.0-6.0-1.0-10.0"}}, {"uniqueid": "w45350335:a73073324", "current_trial": 20, "dateTime": 1693660869034, "trialdata": {"revealed_states": [], "clicked_states": ["9", "5"], "num_clicks_accrued": [0, 0, 0, 0, 0, 0, 0, 0, 0, 0, 0, 0, 0], "stateRewards": ["", -2, -3, 1, -14, 48, -49, 67, -1, -35, -48, 3, -2, 1, -4, -5, 86, -84, 39, 1, 48, 41, -42, -1, -4, 2, -7, 18, -86, 17, 7, -9, 57, -69], "withholdReward": false, "trial_id": "mdp_trial_12", "block": "test", "trialIndex": 13, "score": 25.7, "costs": -4.3, "simulationMode": [null, null, null, null, null], "rewards": [-2, -3, 1, -14, 48], "path": ["0", "0", "1", "2", "3", "4", "5"], "rt": [7777, 31, 25, 36, 14], "actions": ["up", "up", "up", "right", "up"], "actionTimes": [8778, 9306, 9866, 10394, 10938], "queries": {"click": {"state": {"target": ["9", "5"], "time": [1594, 4850]}, "edge": {"target": [], "time": []}}, "mouseover": {"state": {"target": ["10", "8", "9", "8", "3", "5", "6"], "time": [1190, 1240, 1407, 1940, 2157, 2440, 5224]}, "edge": {"target": [], "time": []}}, "mouseout": {"state": {"target": ["0", "10", "8", "9", "9", "8", "3", "5"], "time": [1124, 1207, 1257, 1662, 1907, 2090, 2207, 5090]}, "edge": {"target": [], "time": []}}}, "displayed_time": "15.00", "trialTime": 16546, "trial_type": "mouselab-mdp", "trial_index": 20, "time_elapsed": 565323, "internal_node_id": "0.0-6.0-1.0-11.0"}}, {"uniqueid": "w45350335:a73073324", "current_trial": 21, "dateTime": 1693660885114, "trialdata": {"revealed_states": [], "clicked_states": ["9", "5"], "num_clicks_accrued": [0, 0, 0, 0, 0, 0, 0, 0, 0, 0, 0, 0, 0], "stateRewards": ["", 1, 2, -8, 9, 18, -83, -11, 6, -64, -48, 17, -2, -2, -5, -3, -24, -3, -86, -2, 48, -41, -22, -2, 4, 7, 8, 81, 13, -48, 10, 61, 19, 57], "withholdReward": false, "trial_id": "mdp_trial_13", "block": "test", "trialIndex": 14, "score": 17.7, "costs": -4.3, "simulationMode": [null, null, null, null, null], "rewards": [1, 2, -8, 9, 18], "path": ["0", "0", "1", "2", "3", "4", "5"], "rt": [7767, 33, 43, 19, 15], "actions": ["up", "up", "up", "right", "up"], "actionTimes": [8706, 9242, 9801, 10345, 10857], "queries": {"click": {"state": {"target": ["9", "5"], "time": [1403, 4545]}, "edge": {"target": [], "time": []}}, "mouseover": {"state": {"target": ["1", "8", "9", "5", "6"], "time": [1058, 1141, 1274, 2025, 4875]}, "edge": {"target": [], "time": []}}, "mouseout": {"state": {"target": ["6", "7", "0", "1", "8", "9", "5"], "time": [441, 525, 1024, 1074, 1174, 1924, 4758]}, "edge": {"target": [], "time": []}}}, "displayed_time": "14.94", "trialTime": 15977, "trial_type": "mouselab-mdp", "trial_index": 21, "time_elapsed": 581403, "internal_node_id": "0.0-6.0-1.0-12.0"}}, {"uniqueid": "w45350335:a73073324", "current_trial": 22, "dateTime": 1693660902162, "trialdata": {"revealed_states": [], "clicked_states": ["9", "5"], "num_clicks_accrued": [0, 0, 0, 0, 0, 0, 0, 0, 0, 0, 0, 0, 0], "stateRewards": ["", -2, -1, 3, -3, 71, -58, -21, 7, -10, -75, -37, 2, 4, -1, -12, -79, -29, -48, 3, -41, -10, -30, -1, -2, 1, -15, 13, 66, 22, -1, -42, -86, -55], "withholdReward": false, "trial_id": "mdp_trial_14", "block": "test", "trialIndex": 15, "score": 63.7, "costs": -4.3, "simulationMode": [null, null, null, null, null], "rewards": [-2, -1, 3, -3, 71], "path": ["0", "0", "1", "2", "3", "4", "5"], "rt": [7621, 532, 114, 81, 74], "actions": ["up", "up", "up", "right", "up"], "actionTimes": [9136, 10168, 10800, 11384, 11960], "queries": {"click": {"state": {"target": ["9", "5"], "time": [2076, 5309]}, "edge": {"target": [], "time": []}}, "mouseover": {"state": {"target": ["10", "8", "9", "5", "6"], "time": [1652, 1669, 1919, 2402, 5518]}, "edge": {"target": [], "time": []}}, "mouseout": {"state": {"target": ["6", "7", "0", "10", "8", "9", "9", "5"], "time": [702, 718, 1618, 1668, 1685, 2112, 2285, 5468]}, "edge": {"target": [], "time": []}}}, "displayed_time": "15.52", "trialTime": 16952, "trial_type": "mouselab-mdp", "trial_index": 22, "time_elapsed": 598451, "internal_node_id": "0.0-6.0-1.0-13.0"}}, {"uniqueid": "w45350335:a73073324", "current_trial": 23, "dateTime": 1693660919050, "trialdata": {"revealed_states": [], "clicked_states": ["9"], "num_clicks_accrued": [0, 0, 0, 0, 0, 0, 0, 0, 0, 0, 0, 0, 0], "stateRewards": ["", -2, 3, -1, 2, -72, 63, 20, -1, 62, -66, 39, -2, 3, -6, 14, 22, 47, 1, 8, -49, -1, -41, 2, 2, -6, -16, -64, -60, -34, 16, 54, 22, -7], "withholdReward": false, "trial_id": "mdp_trial_15", "block": "test", "trialIndex": 16, "score": 58.85, "costs": -2.15, "simulationMode": [null, null, null, null, null], "rewards": [-2, 3, -1, -1, 62], "path": ["0", "0", "1", "2", "3", "8", "9"], "rt": [4512, 47, 98, 82, 34], "actions": ["up", "up", "up", "left", "up"], "actionTimes": [5397, 5948, 6533, 7101, 7653], "queries": {"click": {"state": {"target": ["9"], "time": [1593]}, "edge": {"target": [], "time": []}}, "mouseover": {"state": {"target": ["1", "9", "5"], "time": [1117, 1484, 2551]}, "edge": {"target": [], "time": []}}, "mouseout": {"state": {"target": ["6", "4", "2", "1", "0", "1", "9"], "time": [317, 350, 450, 534, 1101, 1134, 2217]}, "edge": {"target": [], "time": []}}}, "displayed_time": "14.89", "trialTime": 16789, "trial_type": "mouselab-mdp", "trial_index": 23, "time_elapsed": 615338, "internal_node_id": "0.0-6.0-1.0-14.0"}}, {"uniqueid": "w45350335:a73073324", "current_trial": 24, "dateTime": 1693660936153, "trialdata": {"revealed_states": [], "clicked_states": ["9", "5", "6"], "num_clicks_accrued": [0, 0, 0, 0, 0, 0, 0, 0, 0, 0, 0, 0, 0], "stateRewards": ["", -1, -1, 4, -16, -75, 81, -51, -7, -84, 73, -30, -2, 1, -3, -16, -77, 33, 14, 1, 45, 87, -66, 2, 2, -5, -7, -19, -17, 79, -3, 8, 49, 47], "withholdReward": false, "trial_id": "mdp_trial_16", "block": "test", "trialIndex": 17, "score": 60.55, "costs": -6.449999999999999, "simulationMode": [null, null, null, null, null], "rewards": [-1, -1, 4, -16, 81], "path": ["0", "0", "1", "2", "3", "4", "6"], "rt": [10905, 46, 80, 64, 26], "actions": ["up", "up", "up", "right", "right"], "actionTimes": [11758, 12294, 12878, 13446, 13974], "queries": {"click": {"state": {"target": ["9", "5", "6"], "time": [1339, 4604, 7816]}, "edge": {"target": [], "time": []}}, "mouseover": {"state": {"target": ["1", "10", "8", "9", "5", "6", "2", "11"], "time": [947, 980, 1014, 1231, 3664, 4897, 9131, 9214]}, "edge": {"target": [], "time": []}}, "mouseout": {"state": {"target": ["5", "3", "2", "0", "1", "10", "8", "9", "5", "6", "2"], "time": [280, 447, 480, 914, 964, 997, 1197, 3447, 4781, 8064, 9147]}, "edge": {"target": [], "time": []}}}, "displayed_time": "14.85", "trialTime": 17006, "trial_type": "mouselab-mdp", "trial_index": 24, "time_elapsed": 632442, "internal_node_id": "0.0-6.0-1.0-15.0"}}, {"uniqueid": "w45350335:a73073324", "current_trial": 25, "dateTime": 1693660952617, "trialdata": {"revealed_states": [], "clicked_states": ["9", "5"], "num_clicks_accrued": [0, 0, 0, 0, 0, 0, 0, 0, 0, 0, 0, 0, 0], "stateRewards": ["", 1, 1, -3, 7, 49, 78, 26, -5, 26, 48, -43, -1, -3, 2, -5, 4, -1, -60, 10, -35, 51, 81, -2, 1, -7, -5, -39, -86, -54, 4, -3, 74, 77], "withholdReward": false, "trial_id": "mdp_trial_17", "block": "test", "trialIndex": 18, "score": 50.7, "costs": -4.3, "simulationMode": [null, null, null, null, null], "rewards": [1, 1, -3, 7, 49], "path": ["0", "0", "1", "2", "3", "4", "5"], "rt": [7857, 5, 25, 36, 6], "actions": ["up", "up", "up", "right", "up"], "actionTimes": [9215, 9734, 10286, 10815, 11351], "queries": {"click": {"state": {"target": ["9", "5"], "time": [2071, 5494]}, "edge": {"target": [], "time": []}}, "mouseover": {"state": {"target": ["10", "8", "9", "5", "6"], "time": [1611, 1661, 1945, 2944, 5844]}, "edge": {"target": [], "time": []}}, "mouseout": {"state": {"target": ["11", "23", "0", "10", "8", "9", "5"], "time": [644, 827, 1528, 1628, 1844, 2661, 5745]}, "edge": {"target": [], "time": []}}}, "displayed_time": "15.36", "trialTime": 16367, "trial_type": "mouselab-mdp", "trial_index": 25, "time_elapsed": 648906, "internal_node_id": "0.0-6.0-1.0-16.0"}}, {"uniqueid": "w45350335:a73073324", "current_trial": 26, "dateTime": 1693660973914, "trialdata": {"revealed_states": [], "clicked_states": ["9", "5", "6", "11"], "num_clicks_accrued": [0, 0, 0, 0, 0, 0, 0, 0, 0, 0, 0, 0, 0], "stateRewards": ["", 1, -2, 4, 7, -43, -83, -60, -5, -86, -80, 83, -1, -2, 6, 11, -15, 21, 13, 9, 29, -49, 11, -1, 4, -6, -11, 87, 40, 63, -8, -39, -11, 62], "withholdReward": false, "trial_id": "mdp_trial_18", "block": "test", "trialIndex": 19, "score": 72.4, "costs": -8.6, "simulationMode": [null, null, null, null, null], "rewards": [1, -2, 4, -5, 83], "path": ["0", "0", "1", "2", "3", "8", "11"], "rt": [13914, 40, 18, 6, 440], "actions": ["up", "up", "up", "left", "left"], "actionTimes": [15087, 15638, 16167, 16671, 17638], "queries": {"click": {"state": {"target": ["9", "5", "6", "11"], "time": [1797, 4923, 8057, 11215]}, "edge": {"target": [], "time": []}}, "mouseover": {"state": {"target": ["10", "9", "5", "6", "4", "3", "8", "11", "11", "28", "27"], "time": [1414, 1664, 3581, 5414, 9397, 9415, 9431, 9464, 9747, 11914, 12365]}, "edge": {"target": [], "time": []}}, "mouseout": {"state": {"target": ["6", "7", "10", "9", "5", "6", "4", "3", "8", "11", "11", "28"], "time": [747, 813, 1431, 3231, 5281, 9381, 9414, 9431, 9447, 9481, 11631, 12015]}, "edge": {"target": [], "time": []}}}, "displayed_time": "18.15", "trialTime": 21199, "trial_type": "mouselab-mdp", "trial_index": 26, "time_elapsed": 670203, "internal_node_id": "0.0-6.0-1.0-17.0"}}, {"uniqueid": "w45350335:a73073324", "current_trial": 27, "dateTime": 1693660990114, "trialdata": {"revealed_states": [], "clicked_states": ["9", "5"], "num_clicks_accrued": [0, 0, 0, 0, 0, 0, 0, 0, 0, 0, 0, 0, 0], "stateRewards": ["", -1, 4, -5, 9, 29, -75, -42, -16, 24, -28, -41, 2, -3, 1, 10, 60, 47, 55, -1, -53, 22, -40, 2, -3, -6, 4, -26, 44, 54, 15, -76, 42, 14], "withholdReward": false, "trial_id": "mdp_trial_19", "block": "test", "trialIndex": 20, "score": 31.7, "costs": -4.3, "simulationMode": [null, null, null, null, null], "rewards": [-1, 4, -5, 9, 29], "path": ["0", "0", "1", "2", "3", "4", "5"], "rt": [8660, 54, 7, 60, 469], "actions": ["up", "up", "up", "right", "up"], "actionTimes": [9641, 10209, 10729, 11297, 12257], "queries": {"click": {"state": {"target": ["9", "5"], "time": [1518, 6224]}, "edge": {"target": [], "time": []}}, "mouseover": {"state": {"target": ["10", "8", "9", "5"], "time": [1121, 1237, 1404, 2604]}, "edge": {"target": [], "time": []}}, "mouseout": {"state": {"target": ["27", "23", "0", "10", "8", "9"], "time": [53, 537, 1071, 1170, 1354, 2204]}, "edge": {"target": [], "time": []}}}, "displayed_time": "14.98", "trialTime": 16105, "trial_type": "mouselab-mdp", "trial_index": 27, "time_elapsed": 686402, "internal_node_id": "0.0-6.0-1.0-18.0"}}, {"uniqueid": "w45350335:a73073324", "current_trial": 28, "dateTime": 1693661006402, "trialdata": {"revealed_states": [], "clicked_states": ["9", "5"], "num_clicks_accrued": [0, 0, 0, 0, 0, 0, 0, 0, 0, 0, 0, 0, 0], "stateRewards": ["", -2, -4, -8, 8, 63, -50, -19, -7, -17, -31, 31, 1, 3, -5, 12, -35, -63, -29, -4, -17, -75, -79, -2, -3, -2, 8, -3, -85, 10, -2, -82, -82, 56], "withholdReward": false, "trial_id": "mdp_trial_20", "block": "test", "trialIndex": 21, "score": 52.7, "costs": -4.3, "simulationMode": [null, null, null, null, null], "rewards": [-2, -4, -8, 8, 63], "path": ["0", "0", "1", "2", "3", "4", "5"], "rt": [7804, 426, 108, 68, 38], "actions": ["up", "up", "up", "right", "up"], "actionTimes": [9136, 10080, 10696, 11272, 11808], "queries": {"click": {"state": {"target": ["9", "5"], "time": [1938, 5287]}, "edge": {"target": [], "time": []}}, "mouseover": {"state": {"target": ["10", "9", "5", "6"], "time": [1470, 1836, 5236, 6553]}, "edge": {"target": [], "time": []}}, "mouseout": {"state": {"target": ["5", "1", "0", "10", "9", "5"], "time": [769, 1069, 1419, 1503, 3219, 5936]}, "edge": {"target": [], "time": []}}}, "displayed_time": "15.33", "trialTime": 16192, "trial_type": "mouselab-mdp", "trial_index": 28, "time_elapsed": 702691, "internal_node_id": "0.0-6.0-1.0-19.0"}}, {"uniqueid": "w45350335:a73073324", "current_trial": 29, "dateTime": 1693661023457, "trialdata": {"revealed_states": [], "clicked_states": ["9", "5"], "num_clicks_accrued": [0, 0, 0, 0, 0, 0, 0, 0, 0, 0, 0, 0, 0], "stateRewards": ["", -1, 3, 1, -7, 56, 76, 57, 3, 11, -9, 14, 1, -2, 2, 8, -77, -3, 79, -5, 88, 24, -66, -2, -1, 7, -7, -30, 14, -76, 11, -36, 28, -6], "withholdReward": false, "trial_id": "mdp_trial_21", "block": "test", "trialIndex": 22, "score": 47.7, "costs": -4.3, "simulationMode": [null, null, null, null, null], "rewards": [-1, 3, 1, -7, 56], "path": ["0", "0", "1", "2", "3", "4", "5"], "rt": [7721, 423, 130, 89, 89], "actions": ["up", "up", "up", "right", "up"], "actionTimes": [8737, 9657, 10297, 10889, 11473], "queries": {"click": {"state": {"target": ["9", "5"], "time": [1600, 4926]}, "edge": {"target": [], "time": []}}, "mouseover": {"state": {"target": ["1", "8", "9", "5", "5"], "time": [1100, 1183, 1399, 2249, 2566]}, "edge": {"target": [], "time": []}}, "mouseout": {"state": {"target": ["6", "0", "1", "8", "9", "5", "5", "4", "7", "1"], "time": [532, 1066, 1116, 1199, 2216, 2283, 16199, 16249, 16282, 16350]}, "edge": {"target": [], "time": []}}}, "displayed_time": "15.02", "trialTime": 16960, "trial_type": "mouselab-mdp", "trial_index": 29, "time_elapsed": 719746, "internal_node_id": "0.0-6.0-1.0-20.0"}}, {"uniqueid": "w45350335:a73073324", "current_trial": 30, "dateTime": 1693661042961, "trialdata": {"revealed_states": [], "clicked_states": ["9", "5", "6", "11"], "num_clicks_accrued": [0, 0, 0, 0, 0, 0, 0, 0, 0, 0, 0, 0, 0], "stateRewards": ["", 2, -3, 5, -14, -63, -9, -24, -11, -54, -43, 68, 2, -2, -4, 7, -64, 30, 47, 12, -74, 11, 86, 1, -3, 3, 10, -71, -42, -52, -1, -29, -16, 69], "withholdReward": false, "trial_id": "mdp_trial_22", "block": "test", "trialIndex": 23, "score": 52.4, "costs": -8.6, "simulationMode": [null, null, null, null, null], "rewards": [2, -3, 5, -11, 68], "path": ["0", "0", "1", "2", "3", "8", "11"], "rt": [13909, 27, 39, 48, 17], "actions": ["up", "up", "up", "left", "left"], "actionTimes": [14959, 15503, 16031, 16590, 17126], "queries": {"click": {"state": {"target": ["9", "5", "6", "11"], "time": [1513, 4630, 7961, 11078]}, "edge": {"target": [], "time": []}}, "mouseover": {"state": {"target": ["10", "8", "9", "5", "6", "4", "3", "8", "11", "2", "16"], "time": [1141, 1174, 1424, 2508, 7858, 8574, 8624, 8708, 8841, 11441, 11908]}, "edge": {"target": [], "time": []}}, "mouseout": {"state": {"target": ["1", "1", "10", "8", "9", "5", "6", "4", "3", "8", "11", "2", "16"], "time": [391, 691, 1158, 1191, 2108, 7691, 8541, 8608, 8674, 8774, 11391, 11458, 14341]}, "edge": {"target": [], "time": []}}}, "displayed_time": "17.63", "trialTime": 19406, "trial_type": "mouselab-mdp", "trial_index": 30, "time_elapsed": 739250, "internal_node_id": "0.0-6.0-1.0-21.0"}}, {"uniqueid": "w45350335:a73073324", "current_trial": 31, "dateTime": 1693661070185, "trialdata": {"revealed_states": [], "clicked_states": ["9", "5", "6", "11", "16", "17"], "num_clicks_accrued": [0, 0, 0, 0, 0, 0, 0, 0, 0, 0, 0, 0, 0], "stateRewards": ["", 2, 4, -6, -13, -75, -81, 30, 7, 5, 59, -65, -1, -1, 7, 14, -38, 36, -41, 1, -54, -5, 64, 2, -1, 5, 6, -19, 79, 11, 16, -33, -50, 58], "withholdReward": false, "trial_id": "mdp_trial_23", "block": "test", "trialIndex": 24, "score": 42.1, "costs": -12.9, "simulationMode": [null, null, null, null, null], "rewards": [-1, -1, 7, 14, 36], "path": ["0", "0", "12", "13", "14", "15", "17"], "rt": [20241, 322, 81, 58, 51], "actions": ["right", "right", "right", "up", "right"], "actionTimes": [21453, 22293, 22885, 23462, 24005], "queries": {"click": {"state": {"target": ["9", "5", "6", "11", "16", "17"], "time": [1778, 4953, 8080, 11207, 14380, 17525]}, "edge": {"target": [], "time": []}}, "mouseover": {"state": {"target": ["1", "9", "5", "6", "4", "3", "11", "2", "7", "16", "17", "20"], "time": [1336, 1703, 3403, 5303, 8353, 8386, 8586, 11620, 11653, 12153, 14870, 17870]}, "edge": {"target": [], "time": []}}, "mouseout": {"state": {"target": ["18", "0", "1", "9", "5", "6", "4", "3", "11", "2", "7", "16", "17"], "time": [719, 1303, 1353, 3020, 5203, 8336, 8370, 8403, 11553, 11636, 11686, 14786, 17753]}, "edge": {"target": [], "time": []}}}, "displayed_time": "24.52", "trialTime": 27125, "trial_type": "mouselab-mdp", "trial_index": 31, "time_elapsed": 766474, "internal_node_id": "0.0-6.0-1.0-22.0"}}, {"uniqueid": "w45350335:a73073324", "current_trial": 32, "dateTime": 1693661089641, "trialdata": {"revealed_states": [], "clicked_states": ["9", "5", "6", "11"], "num_clicks_accrued": [0, 0, 0, 0, 0, 0, 0, 0, 0, 0, 0, 0, 0], "stateRewards": ["", -1, -3, -7, -7, -76, 30, -49, 11, -70, 56, 2, 1, 4, -3, -14, -59, -83, -25, -9, -21, -67, -73, -2, 4, 4, -9, -11, -32, 60, 9, -87, 22, -64], "withholdReward": false, "trial_id": "mdp_trial_24", "block": "test", "trialIndex": 25, "score": 3.3999999999999986, "costs": -8.6, "simulationMode": [null, null, null, null, null], "rewards": [-1, -3, -7, -7, 30], "path": ["0", "0", "1", "2", "3", "4", "6"], "rt": [13387, 1, 30, 25, 35], "actions": ["up", "up", "up", "right", "right"], "actionTimes": [14450, 14970, 15515, 16026, 16570], "queries": {"click": {"state": {"target": ["9", "5", "6", "11"], "time": [1688, 4821, 7952, 11200]}, "edge": {"target": [], "time": []}}, "mouseover": {"state": {"target": ["0", "1", "2", "3", "9", "5", "6", "6", "4", "3", "8", "11", "10"], "time": [1102, 1283, 1301, 1317, 1600, 3583, 5166, 5666, 8184, 8216, 8250, 8633, 11600]}, "edge": {"target": [], "time": []}}, "mouseout": {"state": {"target": ["20", "19", "22", "0", "0", "1", "2", "3", "9", "9", "5", "6", "6", "4", "3", "8", "11", "10"], "time": [533, 600, 683, 966, 1266, 1300, 1317, 1333, 1757, 3067, 5117, 5350, 8166, 8200, 8233, 8266, 11567, 11633]}, "edge": {"target": [], "time": []}}}, "displayed_time": "17.09", "trialTime": 19361, "trial_type": "mouselab-mdp", "trial_index": 32, "time_elapsed": 785930, "internal_node_id": "0.0-6.0-1.0-23.0"}}, {"uniqueid": "w45350335:a73073324", "current_trial": 33, "dateTime": 1693661118834, "trialdata": {"revealed_states": [], "clicked_states": ["9", "5", "6", "11", "16", "17", "20"], "num_clicks_accrued": [0, 0, 0, 0, 0, 0, 0, 0, 0, 0, 0, 0, 0], "stateRewards": ["", -2, 1, -8, 12, -65, -79, 16, 7, -80, -17, -45, -2, 2, -5, -2, -85, 23, -4, -7, 48, 27, -76, 2, 3, 5, 2, 43, 71, -13, 7, -49, 59, -31], "withholdReward": false, "trial_id": "mdp_trial_25", "block": "test", "trialIndex": 26, "score": 20.95, "costs": -15.05, "simulationMode": [null, null, null, null, null], "rewards": [-2, 2, -5, -7, 48], "path": ["0", "0", "12", "13", "14", "19", "20"], "rt": [23465, 13, 33, 74, 59], "actions": ["right", "right", "right", "down", "right"], "actionTimes": [24532, 25036, 25572, 26164, 26732], "queries": {"click": {"state": {"target": ["9", "5", "6", "11", "16", "17", "20"], "time": [1543, 4631, 7795, 10914, 14026, 17143, 20584]}, "edge": {"target": [], "time": []}}, "mouseover": {"state": {"target": ["1", "8", "9", "5", "6", "4", "3", "11", "2", "7", "16", "17", "20"], "time": [1155, 1206, 1406, 2039, 4922, 8089, 8106, 8155, 11289, 11323, 11506, 14339, 18105]}, "edge": {"target": [], "time": []}}, "mouseout": {"state": {"target": ["0", "1", "8", "9", "5", "6", "4", "3", "11", "2", "7", "16", "17", "20"], "time": [1122, 1172, 1288, 1955, 4872, 8072, 8105, 8122, 11256, 11306, 11339, 14272, 17572, 20856]}, "edge": {"target": [], "time": []}}}, "displayed_time": "27.24", "trialTime": 29093, "trial_type": "mouselab-mdp", "trial_index": 33, "time_elapsed": 815123, "internal_node_id": "0.0-6.0-1.0-24.0"}}, {"uniqueid": "w45350335:a73073324", "current_trial": 34, "dateTime": 1693661142753, "trialdata": {"revealed_states": [], "clicked_states": ["9", "5", "6", "11", "16"], "num_clicks_accrued": [0, 0, 0, 0, 0, 0, 0, 0, 0, 0, 0, 0, 0], "stateRewards": ["", 2, 4, 7, 7, -79, -2, -21, -5, -53, 47, -21, 1, -3, -1, 7, 83, 7, 84, -7, 80, -37, 69, 2, -4, 5, 2, 4, -20, -30, 7, 71, 44, -81], "withholdReward": false, "trial_id": "mdp_trial_26", "block": "test", "trialIndex": 27, "score": 76.25, "costs": -10.75, "simulationMode": [null, null, null, null, null], "rewards": [1, -3, -1, 7, 83], "path": ["0", "0", "12", "13", "14", "15", "16"], "rt": [17375, 385, 78, 143, 118], "actions": ["right", "right", "right", "up", "up"], "actionTimes": [18987, 19883, 20475, 21108, 21732], "queries": {"click": {"state": {"target": ["9", "5", "6", "11", "16"], "time": [2479, 5608, 8700, 11836, 14919]}, "edge": {"target": [], "time": []}}, "mouseover": {"state": {"target": ["1", "9", "5", "6", "4", "11", "16", "16", "17"], "time": [1930, 2397, 3814, 6380, 9097, 9814, 12264, 12580, 15197]}, "edge": {"target": [], "time": []}}, "mouseout": {"state": {"target": ["21", "22", "0", "1", "9", "5", "6", "4", "11", "16", "16"], "time": [780, 980, 1913, 1947, 3380, 6114, 9064, 9114, 12147, 12330, 15131]}, "edge": {"target": [], "time": []}}}, "displayed_time": "22.25", "trialTime": 23819, "trial_type": "mouselab-mdp", "trial_index": 34, "time_elapsed": 839042, "internal_node_id": "0.0-6.0-1.0-25.0"}}, {"uniqueid": "w45350335:a73073324", "current_trial": 35, "dateTime": 1693661162393, "trialdata": {"revealed_states": [], "clicked_states": ["9", "5", "6", "11"], "num_clicks_accrued": [0, 0, 0, 0, 0, 0, 0, 0, 0, 0, 0, 0, 0], "stateRewards": ["", 1, -1, 4, -2, -75, -75, 84, -9, -60, -79, 59, 2, -4, 8, 9, -17, -82, 80, 14, -4, 49, 49, -1, 3, 6, -11, -33, 34, 55, 9, -57, 5, 59], "withholdReward": false, "trial_id": "mdp_trial_27", "block": "test", "trialIndex": 28, "score": 45.4, "costs": -8.6, "simulationMode": [null, null, null, null, null], "rewards": [1, -1, 4, -9, 59], "path": ["0", "0", "1", "2", "3", "8", "11"], "rt": [14082, 47, 73, 450, 100], "actions": ["up", "up", "up", "left", "left"], "actionTimes": [15138, 15690, 16249, 17209, 17826], "queries": {"click": {"state": {"target": ["9", "5", "6", "11"], "time": [1687, 4787, 7890, 10929]}, "edge": {"target": [], "time": []}}, "mouseover": {"state": {"target": ["10", "8", "9", "5", "6", "4", "3", "8", "11", "2", "7", "16"], "time": [1326, 1458, 1575, 2192, 5025, 8275, 8325, 8375, 8492, 11275, 11309, 11825]}, "edge": {"target": [], "time": []}}, "mouseout": {"state": {"target": ["17", "18", "10", "8", "9", "5", "6", "4", "3", "8", "11", "11", "2", "7"], "time": [626, 675, 1392, 1542, 1958, 4992, 8258, 8309, 8358, 8425, 11015, 11209, 11292, 11342]}, "edge": {"target": [], "time": []}}}, "displayed_time": "18.33", "trialTime": 19537, "trial_type": "mouselab-mdp", "trial_index": 35, "time_elapsed": 858682, "internal_node_id": "0.0-6.0-1.0-26.0"}}, {"uniqueid": "w45350335:a73073324", "current_trial": 36, "dateTime": 1693661191241, "trialdata": {"revealed_states": [], "clicked_states": ["9", "5", "6", "11", "16", "17", "20"], "num_clicks_accrued": [0, 0, 0, 0, 0, 0, 0, 0, 0, 0, 0, 0, 0], "stateRewards": ["", -1, -4, -1, -5, -28, -23, -15, -15, -38, 59, -87, 2, 2, -5, 9, -55, -39, -71, -6, 85, -85, -11, -1, -2, 5, -10, 1, 25, 41, -4, 69, -35, 86], "withholdReward": false, "trial_id": "mdp_trial_28", "block": "test", "trialIndex": 29, "score": 62.95, "costs": -15.05, "simulationMode": [null, null, null, null, null], "rewards": [2, 2, -5, -6, 85], "path": ["0", "0", "12", "13", "14", "19", "20"], "rt": [23328, 405, 112, 112, 79], "actions": ["right", "right", "right", "down", "right"], "actionTimes": [24333, 25245, 25868, 26484, 27069], "queries": {"click": {"state": {"target": ["9", "5", "6", "11", "16", "17", "20"], "time": [1444, 4506, 7617, 10708, 13852, 16947, 20076]}, "edge": {"target": [], "time": []}}, "mouseover": {"state": {"target": ["1", "10", "8", "9", "5", "4", "6", "4", "10", "11", "2", "7", "16", "17", "20", "21"], "time": [1122, 1155, 1238, 1321, 1755, 5488, 5655, 7988, 8972, 9238, 11088, 11122, 11388, 14839, 19122, 21688]}, "edge": {"target": [], "time": []}}, "mouseout": {"state": {"target": ["16", "18", "12", "0", "1", "10", "8", "9", "5", "4", "6", "4", "10", "11", "2", "7", "16", "17", "20"], "time": [639, 688, 771, 1106, 1138, 1189, 1289, 1655, 5205, 5555, 7972, 8005, 9005, 11038, 11105, 11172, 14355, 17355, 20389]}, "edge": {"target": [], "time": []}}}, "displayed_time": "27.56", "trialTime": 28748, "trial_type": "mouselab-mdp", "trial_index": 36, "time_elapsed": 887530, "internal_node_id": "0.0-6.0-1.0-27.0"}}, {"uniqueid": "w45350335:a73073324", "current_trial": 37, "dateTime": 1693661209913, "trialdata": {"revealed_states": [], "clicked_states": ["16", "17", "20", "21"], "num_clicks_accrued": [0, 0, 0, 0, 0, 0, 0, 0, 0, 0, 0, 0, 0], "stateRewards": ["", 2, -1, -1, 7, 11, -40, -22, -2, 69, 37, 8, -2, 4, -8, -12, -2, -72, -3, -12, 17, 63, 12, 1, 3, -7, 6, 25, 61, 61, -9, 28, -17, 27], "withholdReward": false, "trial_id": "mdp_trial_29", "block": "test", "trialIndex": 30, "score": 36.4, "costs": -8.6, "simulationMode": [null, null, null, null, null], "rewards": [-2, 4, -8, -12, 63], "path": ["0", "0", "12", "13", "14", "19", "21"], "rt": [13631, 4, 55, 42, 75], "actions": ["right", "right", "right", "down", "down"], "actionTimes": [14899, 15411, 15979, 16515, 17099], "queries": {"click": {"state": {"target": ["16", "17", "20", "21"], "time": [1839, 4881, 7973, 10974]}, "edge": {"target": [], "time": []}}, "mouseover": {"state": {"target": ["16", "17", "17", "20", "21", "13", "2", "8", "11", "11"], "time": [1606, 2206, 2790, 6923, 8690, 11789, 11973, 12123, 12173, 12439]}, "edge": {"target": [], "time": []}}, "mouseout": {"state": {"target": ["21", "0", "16", "17", "17", "20", "21", "13", "2", "8", "11"], "time": [572, 1424, 2056, 2273, 5106, 8223, 11723, 11806, 12006, 12139, 12256]}, "edge": {"target": [], "time": []}}}, "displayed_time": "17.59", "trialTime": 18572, "trial_type": "mouselab-mdp", "trial_index": 37, "time_elapsed": 906202, "internal_node_id": "0.0-6.0-1.0-28.0"}}, {"uniqueid": "w45350335:a73073324", "current_trial": 38, "dateTime": 1693661226441, "trialdata": {"revealed_states": [], "clicked_states": ["11", "9"], "num_clicks_accrued": [0, 0, 0, 0, 0, 0, 0, 0, 0, 0, 0, 0, 0], "stateRewards": ["", -1, 2, 7, 8, 75, 67, -11, 6, 52, -17, 38, -1, 4, -8, 14, 74, -37, -17, -12, 52, 55, 71, -2, -1, -5, 2, 21, 6, -88, -14, 64, -61, -47], "withholdReward": false, "trial_id": "mdp_trial_30", "block": "test", "trialIndex": 31, "score": 61.7, "costs": -4.3, "simulationMode": [null, null, null, null, null], "rewards": [-1, 2, 7, 6, 52], "path": ["0", "0", "1", "2", "3", "8", "9"], "rt": [8304, 21, 40, 34, 35], "actions": ["up", "up", "up", "left", "up"], "actionTimes": [9427, 9940, 10475, 11019, 11587], "queries": {"click": {"state": {"target": ["11", "9"], "time": [2028, 5440]}, "edge": {"target": [], "time": []}}, "mouseover": {"state": {"target": ["8", "11", "9", "5", "5"], "time": [1618, 1867, 2484, 5834, 6484]}, "edge": {"target": [], "time": []}}, "mouseout": {"state": {"target": ["11", "23", "0", "8", "11", "9", "5", "5", "4"], "time": [467, 817, 1351, 1667, 2434, 5667, 6034, 13573, 14384]}, "edge": {"target": [], "time": []}}}, "displayed_time": "15.12", "trialTime": 16427, "trial_type": "mouselab-mdp", "trial_index": 38, "time_elapsed": 922730, "internal_node_id": "0.0-6.0-1.0-29.0"}}, {"uniqueid": "w45350335:a73073324", "current_trial": 39, "dateTime": 1693661256809, "trialdata": {"revealed_states": [], "clicked_states": ["11", "9", "5", "6", "16", "17", "20"], "num_clicks_accrued": [0, 0, 0, 0, 0, 0, 0, 0, 0, 0, 0, 0, 0], "stateRewards": ["", -2, -1, -1, 5, -54, -87, 35, 2, -8, 20, -22, 1, 3, 6, 13, -75, -32, -55, -3, 56, 62, -22, -1, -4, -1, -7, -51, 84, 70, 7, -15, 5, 55], "withholdReward": false, "trial_id": "mdp_trial_31", "block": "test", "trialIndex": 32, "score": 47.95, "costs": -15.05, "simulationMode": [null, null, null, null, null], "rewards": [1, 3, 6, -3, 56], "path": ["0", "0", "12", "13", "14", "19", "20"], "rt": [24263, 24, 99, 44, 29], "actions": ["right", "right", "right", "down", "right"], "actionTimes": [25775, 26311, 26903, 27448, 27999], "queries": {"click": {"state": {"target": ["11", "9", "5", "6", "16", "17", "20"], "time": [2580, 5639, 8766, 11848, 14966, 18071, 21158]}, "edge": {"target": [], "time": []}}, "mouseover": {"state": {"target": ["23", "24", "28", "11", "11", "28", "9", "5", "6", "16", "16", "17", "20", "21"], "time": [1752, 1770, 1885, 2120, 2470, 2885, 3552, 5952, 9119, 12169, 12619, 15219, 18569, 21869]}, "edge": {"target": [], "time": []}}, "mouseout": {"state": {"target": ["1", "0", "0", "23", "24", "28", "11", "11", "28", "9", "5", "6", "16", "16", "17", "20", "21"], "time": [869, 985, 1569, 1769, 1802, 1952, 2135, 2786, 2919, 5836, 9002, 12069, 12352, 15152, 18319, 21486, 29470]}, "edge": {"target": [], "time": []}}}, "displayed_time": "28.49", "trialTime": 30264, "trial_type": "mouselab-mdp", "trial_index": 39, "time_elapsed": 953098, "internal_node_id": "0.0-6.0-1.0-30.0"}}, {"uniqueid": "w45350335:a73073324", "current_trial": 40, "dateTime": 1693661276241, "trialdata": {"revealed_states": [], "clicked_states": ["11", "9", "5", "6"], "num_clicks_accrued": [0, 0, 0, 0, 0, 0, 0, 0, 0, 0, 0, 0, 0], "stateRewards": ["", 2, -1, 8, -2, -16, 69, -39, -7, -13, -27, -86, 2, -2, 2, 13, -34, -16, -20, -5, 19, 81, 32, -2, -1, 2, -14, 20, 80, 58, 4, 70, 12, 73], "withholdReward": false, "trial_id": "mdp_trial_32", "block": "test", "trialIndex": 33, "score": 67.4, "costs": -8.6, "simulationMode": [null, null, null, null, null], "rewards": [2, -1, 8, -2, 69], "path": ["0", "0", "1", "2", "3", "4", "6"], "rt": [14089, 440, 122, 57, 114], "actions": ["up", "up", "up", "right", "right"], "actionTimes": [15004, 15956, 16588, 17156, 17780], "queries": {"click": {"state": {"target": ["11", "9", "5", "6"], "time": [1648, 4793, 7887, 11013]}, "edge": {"target": [], "time": []}}, "mouseover": {"state": {"target": ["10", "8", "11", "9", "5", "6", "16"], "time": [1098, 1165, 1548, 3632, 5298, 8115, 11365]}, "edge": {"target": [], "time": []}}, "mouseout": {"state": {"target": ["12", "23", "10", "8", "11", "9", "5", "6"], "time": [115, 631, 1132, 1315, 3398, 4982, 8048, 11248]}, "edge": {"target": [], "time": []}}}, "displayed_time": "18.28", "trialTime": 19325, "trial_type": "mouselab-mdp", "trial_index": 40, "time_elapsed": 972530, "internal_node_id": "0.0-6.0-1.0-31.0"}}, {"uniqueid": "w45350335:a73073324", "current_trial": 41, "dateTime": 1693661292665, "trialdata": {"revealed_states": [], "clicked_states": ["11"], "num_clicks_accrued": [0, 0, 0, 0, 0, 0, 0, 0, 0, 0, 0, 0, 0], "stateRewards": ["", -1, -3, 1, -4, -48, -63, -49, -2, -84, -19, 65, 2, -2, -2, -12, -4, 59, 9, 6, 75, 69, -13, -1, -3, -3, -2, -37, -68, -36, 13, 32, 18, -14], "withholdReward": false, "trial_id": "mdp_trial_33", "block": "test", "trialIndex": 34, "score": 57.85, "costs": -2.15, "simulationMode": [null, null, null, null, null], "rewards": [-1, -3, 1, -2, 65], "path": ["0", "0", "1", "2", "3", "8", "11"], "rt": [4825, 25, 27, 7, 2], "actions": ["up", "up", "up", "left", "left"], "actionTimes": [5950, 6478, 7014, 7510, 8038], "queries": {"click": {"state": {"target": ["11"], "time": [1650]}, "edge": {"target": [], "time": []}}, "mouseover": {"state": {"target": ["10", "8", "11", "8", "9"], "time": [1252, 1285, 1502, 3618, 3852]}, "edge": {"target": [], "time": []}}, "mouseout": {"state": {"target": ["16", "0", "0", "10", "8", "11", "8", "9"], "time": [518, 718, 1202, 1268, 1318, 2518, 3702, 16035]}, "edge": {"target": [], "time": []}}}, "displayed_time": "15.13", "trialTime": 16318, "trial_type": "mouselab-mdp", "trial_index": 41, "time_elapsed": 988954, "internal_node_id": "0.0-6.0-1.0-32.0"}}, {"uniqueid": "w45350335:a73073324", "current_trial": 42, "dateTime": 1693661308408, "trialdata": {"revealed_states": [], "clicked_states": ["11", "9"], "num_clicks_accrued": [0, 0, 0, 0, 0, 0, 0, 0, 0, 0, 0, 0, 0], "stateRewards": ["", -2, -1, -3, -1, -78, -6, 2, -1, 22, -88, 32, 2, 2, -7, -8, -51, -17, 54, 2, -44, 54, 75, 2, -2, -8, -15, -29, 12, -67, 15, -1, -47, -47], "withholdReward": false, "trial_id": "mdp_trial_34", "block": "test", "trialIndex": 35, "score": 20.7, "costs": -4.3, "simulationMode": [null, null, null, null, null], "rewards": [-2, -1, -3, -1, 32], "path": ["0", "0", "1", "2", "3", "8", "11"], "rt": [8947, 2, 35, 413, 41], "actions": ["up", "up", "up", "left", "left"], "actionTimes": [9931, 10436, 11003, 11931, 12459], "queries": {"click": {"state": {"target": ["11", "9"], "time": [1828, 5247]}, "edge": {"target": [], "time": []}}, "mouseover": {"state": {"target": ["0", "11", "8", "9"], "time": [1100, 1684, 2167, 3634]}, "edge": {"target": [], "time": []}}, "mouseout": {"state": {"target": ["3", "2", "1", "0", "11", "8", "9"], "time": [484, 533, 583, 1134, 2134, 2200, 8867]}, "edge": {"target": [], "time": []}}}, "displayed_time": "14.98", "trialTime": 15627, "trial_type": "mouselab-mdp", "trial_index": 42, "time_elapsed": 1004697, "internal_node_id": "0.0-6.0-1.0-33.0"}}, {"uniqueid": "w45350335:a73073324", "current_trial": 43, "dateTime": 1693661325376, "trialdata": {"revealed_states": [], "clicked_states": ["11", "9"], "num_clicks_accrued": [0, 0, 0, 0, 0, 0, 0, 0, 0, 0, 0, 0, 0], "stateRewards": ["", 2, 1, -3, 7, 46, 11, -36, 16, 71, 5, 1, 2, -2, -8, -3, -4, 6, 55, 7, 68, -54, 2, 1, 1, 6, -6, 42, -4, -84, -11, -65, 63, 25], "withholdReward": false, "trial_id": "mdp_trial_35", "block": "test", "trialIndex": 36, "score": 82.7, "costs": -4.3, "simulationMode": [null, null, null, null, null], "rewards": [2, 1, -3, 16, 71], "path": ["0", "0", "1", "2", "3", "8", "9"], "rt": [7907, 58, 100, 77, 61], "actions": ["up", "up", "up", "left", "up"], "actionTimes": [10086, 10662, 11254, 11830, 12398], "queries": {"click": {"state": {"target": ["11", "9"], "time": [2730, 6009]}, "edge": {"target": [], "time": []}}, "mouseover": {"state": {"target": ["11", "9", "5"], "time": [2669, 3253, 6519]}, "edge": {"target": [], "time": []}}, "mouseout": {"state": {"target": ["2", "1", "0", "0", "0", "11", "9", "9"], "time": [920, 953, 1486, 1702, 2303, 3153, 6091, 6254]}, "edge": {"target": [], "time": []}}}, "displayed_time": "16.18", "trialTime": 16814, "trial_type": "mouselab-mdp", "trial_index": 43, "time_elapsed": 1021665, "internal_node_id": "0.0-6.0-1.0-34.0"}}, {"uniqueid": "w45350335:a73073324", "current_trial": 44, "dateTime": 1693661342281, "trialdata": {"revealed_states": [], "clicked_states": ["11", "9"], "num_clicks_accrued": [0, 0, 0, 0, 0, 0, 0, 0, 0, 0, 0, 0, 0], "stateRewards": ["", 1, -4, -6, 11, -20, 8, -30, 1, -38, 88, 42, 2, 3, 5, -12, -8, -74, 30, -8, 67, -19, 42, 2, -1, 4, 13, 50, -68, 2, -8, -15, 87, -46], "withholdReward": false, "trial_id": "mdp_trial_36", "block": "test", "trialIndex": 37, "score": 29.7, "costs": -4.3, "simulationMode": [null, null, null, null, null], "rewards": [1, -4, -6, 1, 42], "path": ["0", "0", "1", "2", "3", "8", "11"], "rt": [7219, 422, 73, 82, 34], "actions": ["up", "up", "up", "left", "left"], "actionTimes": [8882, 9810, 10394, 10971, 11522], "queries": {"click": {"state": {"target": ["11", "9"], "time": [2341, 5733]}, "edge": {"target": [], "time": []}}, "mouseover": {"state": {"target": ["10", "8", "9", "11", "8", "9", "8"], "time": [1871, 1938, 2054, 2204, 3021, 3354, 6238]}, "edge": {"target": [], "time": []}}, "mouseout": {"state": {"target": ["5", "1", "10", "8", "9", "11", "8", "9"], "time": [1054, 1354, 1904, 1988, 2155, 2854, 3287, 6171]}, "edge": {"target": [], "time": []}}}, "displayed_time": "15.66", "trialTime": 16786, "trial_type": "mouselab-mdp", "trial_index": 44, "time_elapsed": 1038570, "internal_node_id": "0.0-6.0-1.0-35.0"}}, {"uniqueid": "w45350335:a73073324", "current_trial": 45, "dateTime": 1693661359121, "trialdata": {"revealed_states": [], "clicked_states": ["11", "9"], "num_clicks_accrued": [0, 0, 0, 0, 0, 0, 0, 0, 0, 0, 0, 0, 0], "stateRewards": ["", -2, 2, -2, -7, -50, -62, -45, 7, 36, -24, -72, -1, -1, 8, -1, -67, 20, -52, 2, 35, -50, 80, -1, 1, 6, -6, -70, 6, 88, 8, -47, 74, -19], "withholdReward": false, "trial_id": "mdp_trial_37", "block": "test", "trialIndex": 38, "score": 36.7, "costs": -4.3, "simulationMode": [null, null, null, null, null], "rewards": [-2, 2, -2, 7, 36], "path": ["0", "0", "1", "2", "3", "8", "9"], "rt": [8154, 9, 20, 55, 25], "actions": ["up", "up", "up", "left", "up"], "actionTimes": [9305, 9801, 10329, 10897, 11417], "queries": {"click": {"state": {"target": ["11", "9"], "time": [1724, 5320]}, "edge": {"target": [], "time": []}}, "mouseover": {"state": {"target": ["11", "8", "9", "5"], "time": [1624, 2374, 2707, 5874]}, "edge": {"target": [], "time": []}}, "mouseout": {"state": {"target": ["8", "10", "0", "11", "11", "8", "9"], "time": [590, 624, 1308, 1798, 1991, 2391, 5474]}, "edge": {"target": [], "time": []}}}, "displayed_time": "15.15", "trialTime": 16729, "trial_type": "mouselab-mdp", "trial_index": 45, "time_elapsed": 1055409, "internal_node_id": "0.0-6.0-1.0-36.0"}}, {"uniqueid": "w45350335:a73073324", "current_trial": 46, "dateTime": 1693661378600, "trialdata": {"revealed_states": [], "clicked_states": ["11", "9", "5", "6"], "num_clicks_accrued": [0, 0, 0, 0, 0, 0, 0, 0, 0, 0, 0, 0, 0], "stateRewards": ["", -2, -4, 6, 14, -34, 49, 36, -8, -3, 32, -4, 1, -2, 1, -8, -20, -71, -57, -7, -86, -62, -16, -2, -3, -5, 11, 23, -21, 53, 5, -5, 85, 73], "withholdReward": false, "trial_id": "mdp_trial_38", "block": "test", "trialIndex": 39, "score": 54.4, "costs": -8.6, "simulationMode": [null, null, null, null, null], "rewards": [-2, -4, 6, 14, 49], "path": ["0", "0", "1", "2", "3", "4", "6"], "rt": [13978, 79, 57, 9, 4], "actions": ["up", "up", "up", "right", "right"], "actionTimes": [15499, 16083, 16627, 17147, 17675], "queries": {"click": {"state": {"target": ["11", "9", "5", "6"], "time": [2051, 5332, 8457, 11620]}, "edge": {"target": [], "time": []}}, "mouseover": {"state": {"target": ["11", "10", "8", "9", "5", "6", "16"], "time": [1953, 2686, 3086, 3153, 5653, 8720, 11920]}, "edge": {"target": [], "time": []}}, "mouseout": {"state": {"target": ["5", "3", "23", "11", "10", "8", "9", "5", "6"], "time": [969, 1036, 1236, 2303, 2719, 3119, 5520, 8636, 11836]}, "edge": {"target": [], "time": []}}}, "displayed_time": "18.20", "trialTime": 19371, "trial_type": "mouselab-mdp", "trial_index": 46, "time_elapsed": 1074889, "internal_node_id": "0.0-6.0-1.0-37.0"}}, {"uniqueid": "w45350335:a73073324", "current_trial": 47, "dateTime": 1693661398017, "trialdata": {"revealed_states": [], "clicked_states": ["11"], "num_clicks_accrued": [0, 0, 0, 0, 0, 0, 0, 0, 0, 0, 0, 0, 0], "stateRewards": ["", 1, -4, 6, -3, 40, 76, -51, 5, -24, -63, 44, -2, -2, 8, 1, 76, -85, -58, 10, 59, 20, 11, -2, 3, -3, 3, -82, -10, 54, -7, -57, -6, -32], "withholdReward": false, "trial_id": "mdp_trial_39", "block": "test", "trialIndex": 40, "score": 49.85, "costs": -2.15, "simulationMode": [null, null, null, null, null], "rewards": [1, -4, 6, 5, 44], "path": ["0", "0", "1", "2", "3", "8", "11"], "rt": [4633, 469, 86, 5, 8], "actions": ["up", "up", "up", "left", "left"], "actionTimes": [6265, 7240, 7841, 8360, 8896], "queries": {"click": {"state": {"target": ["11"], "time": [2217]}, "edge": {"target": [], "time": []}}, "mouseover": {"state": {"target": ["10", "11", "9"], "time": [1820, 2070, 3537]}, "edge": {"target": [], "time": []}}, "mouseout": {"state": {"target": ["16", "0", "0", "10", "11", "11", "9", "8"], "time": [886, 1221, 1753, 1853, 2254, 3420, 10254, 10454]}, "edge": {"target": [], "time": []}}}, "displayed_time": "15.63", "trialTime": 19304, "trial_type": "mouselab-mdp", "trial_index": 47, "time_elapsed": 1094306, "internal_node_id": "0.0-6.0-1.0-38.0"}}, {"uniqueid": "w45350335:a73073324", "current_trial": 48, "dateTime": 1693661415418, "trialdata": {"revealed_states": [], "clicked_states": ["11", "9", "5"], "num_clicks_accrued": [0, 0, 0, 0, 0, 0, 0, 0, 0, 0, 0, 0, 0], "stateRewards": ["", 1, 3, 1, -13, 52, -28, 67, -14, 3, 63, -70, -1, -4, 7, -11, -10, 47, -18, 6, 69, -9, -61, 2, 3, -6, 10, 63, -34, 40, -6, -79, -35, -32], "withholdReward": false, "trial_id": "mdp_trial_40", "block": "test", "trialIndex": 41, "score": 37.55, "costs": -6.449999999999999, "simulationMode": [null, null, null, null, null], "rewards": [1, 3, 1, -13, 52], "path": ["0", "0", "1", "2", "3", "4", "5"], "rt": [10823, 421, 56, 105, 33], "actions": ["up", "up", "up", "right", "up"], "actionTimes": [12019, 12947, 13515, 14131, 14676], "queries": {"click": {"state": {"target": ["11", "9", "5"], "time": [1685, 4803, 8081]}, "edge": {"target": [], "time": []}}, "mouseover": {"state": {"target": ["10", "8", "11", "9", "5", "6"], "time": [1358, 1392, 1575, 2708, 5292, 8325]}, "edge": {"target": [], "time": []}}, "mouseout": {"state": {"target": ["10", "10", "8", "11", "9", "9", "5", "6", "7", "0"], "time": [808, 1375, 1425, 2092, 4881, 5008, 8258, 16442, 16475, 16525]}, "edge": {"target": [], "time": []}}}, "displayed_time": "15.21", "trialTime": 17277, "trial_type": "mouselab-mdp", "trial_index": 48, "time_elapsed": 1111707, "internal_node_id": "0.0-6.0-1.0-39.0"}}, {"uniqueid": "w45350335:a73073324", "current_trial": 49, "dateTime": 1693661463114, "trialdata": {"rt": 47694, "response": {"Q0": "$-2 to $2", "Q1": "$-16 to $16", "Q2": "$-88 to $88", "Q3": "The cost for clicking on nodes varied between nodes.", "Q4": "Very motivated"}, "question_order": [0, 1, 2, 3, 4], "trial_id": "final_quiz_control", "trial_type": "survey-multi-choice", "trial_index": 49, "time_elapsed": 1159403, "internal_node_id": "0.0-6.0-2.0"}}, {"uniqueid": "w45350335:a73073324", "current_trial": 50, "dateTime": 1693661558088, "trialdata": {"rt": 94970, "response": {"Q0": "I just checked the end nodes and went for the best positive node that I could see. Sometimes I checked for a better positive node, sometimes I was satisfied with the first one I found.", "Q1": "I think at the beginning I might have checked inner nodes, but realised it was best to just check the end nodes.", "Q2": "Nothing I can think of."}, "trial_id": "self_report_control", "trial_type": "survey-text", "trial_index": 50, "time_elapsed": 1254377, "internal_node_id": "0.0-6.0-3.0"}}, {"uniqueid": "w45350335:a73073324", "current_trial": 51, "dateTime": 1693661607132, "trialdata": {"rt": 49042, "response": {"Q0": "Strongly disagree", "Q1": "Strongly disagree", "Q2": "Neither disagree nor agree", "Q3": "Neither disagree nor agree", "Q4": "Strongly disagree", "Q5": "Agree", "Q6": "Disagree"}, "question_order": [0, 1, 2, 3, 4, 5, 6], "trial_id": "self_report_2", "trial_type": "survey-multi-choice", "trial_index": 51, "time_elapsed": 1303421, "internal_node_id": "0.0-6.0-4.0"}}, {"uniqueid": "w45350335:a73073324", "current_trial": 52, "dateTime": 1693661630557, "trialdata": {"rt": 23422, "response": {"gender": "male", "age": "47", "colorblind": "0", "effort": "0"}, "trial_type": "survey-html-form", "trial_index": 52, "time_elapsed": 1326846, "internal_node_id": "0.0-6.0-5.0"}}, {"uniqueid": "w45350335:a73073324", "current_trial": 53, "dateTime": 1693661659583, "trialdata": {"rt": 29023, "response": {"Q0": "No, all seemed straightforward", "Q1": "No, I haven't.", "Q2": "Was fun, thanks :)"}, "trial_type": "survey-text", "trial_index": 53, "time_elapsed": 1355872, "internal_node_id": "0.0-6.0-6.0"}}, {"uniqueid": "w45350335:a73073324", "current_trial": 54, "dateTime": 1693661691797, "trialdata": {"rt": 32212, "stimulus": "<h1>Completion Code Instructions (1/2)</h1>\n<br><br><br><br>\nYou have reached the end of the experiment! The completion code consists of two parts: (1) a code with 2 characters (2) a code with 6 characters. On this page, you will receive the second part of the code. The first part of the completion code will be on the next page.\n<br><br>\nThe second part of your completion code is: <b>EWEK22</b>\n<br><br>\nPlease note this down. Then, press 'Next' in order to find the first part of your completion code. Once the data has been saved, you will receive this code either in this window or in the original browser window where you started the experiment.\n <br><br>\n<h2 style='color: red;'>Note: this is <strong>NOT</strong> the full completion code. Copy this down and click 'Next' to get the full completion code on the next page.</h2>", "response": 0, "trial_type": "html-button-response", "trial_index": 54, "time_elapsed": 1388086, "internal_node_id": "0.0-6.0-7.0"}}, {"uniqueid": "w45350335:a73073324", "current_trial": 55, "dateTime": 1693661692799, "trialdata": {"success": true, "trial_type": "fullscreen", "trial_index": 55, "time_elapsed": 1389088, "internal_node_id": "0.0-7.0"}}], "questiondata": {"params": {"CODE": "C6DMOQA6", "MIN_TIME": 14, "inspectCost": 1, "startTime": "Sat Sep 02 2023 14:11:43 GMT+0100 (British Summer Time)", "bonusRate": 0.002, "variance": "1_2_4_8_44", "branching": "31123"}, "final_score": 1498.5}, "eventdata": [{"eventtype": "initialized", "value": null, "timestamp": 1693660302728, "interval": 0}, {"eventtype": "window_resize", "value": [1024, 767], "timestamp": 1693660302728, "interval": 0}, {"eventtype": "window_resize", "value": [1024, 767], "timestamp": 1693660303047, "interval": 319}, {"eventtype": "window_resize", "value": [1920, 1080], "timestamp": 1693660306271, "interval": 3224}, {"eventtype": "window_resize", "value": [1024, 767], "timestamp": 1693661692022, "interval": 1385751}], "useragent": "Mozilla/5.0 (Windows NT 10.0; Win64; x64) AppleWebKit/537.36 (KHTML, like Gecko) Chrome/116.0.0.0 Safari/537.36", "mode": "live", "id": "w45350335:a73073324", "status": "user data saved", "Beginhit": "2023-09-02 13:11:42.111633", "Beginexp": "2023-09-02 13:11:47.47043", "Endhit": "2023-09-02 13:34:53.571068", "psiturkStatus": 3, "browser": "<redacted>", "platform": "windows", "language": "en-GB"}