{"condition": 1, "counterbalance": 0, "assignmentId": "a61328299", "workerId": "w81274284", "hitId": "h45927749", "currenttrial": 56, "bonus": 0, "data": [{"uniqueid": "w81274284:a61328299", "current_trial": 0, "dateTime": 1691159433410, "trialdata": {"success": true, "trial_type": "fullscreen", "trial_index": 0, "time_elapsed": 32865, "internal_node_id": "0.0-0.0"}}, {"uniqueid": "w81274284:a61328299", "current_trial": 1, "dateTime": 1691159502579, "trialdata": {"view_history": [{"page_index": 0, "viewing_time": 69161}], "rt": 69163, "trial_id": "exp_instructions_misaligned", "trial_type": "instructions", "trial_index": 1, "time_elapsed": 102035, "internal_node_id": "0.0-1.0"}}, {"uniqueid": "w81274284:a61328299", "current_trial": 2, "dateTime": 1691159507775, "trialdata": {"success": true, "trial_type": "fullscreen", "trial_index": 2, "time_elapsed": 107231, "internal_node_id": "0.0-2.0-0.0"}}, {"uniqueid": "w81274284:a61328299", "current_trial": 3, "dateTime": 1691160161227, "trialdata": {"view_history": [{"page_index": 0, "viewing_time": 295304}, {"page_index": 1, "viewing_time": 174402}, {"page_index": 2, "viewing_time": 84459}, {"page_index": 3, "viewing_time": 99283}], "rt": 653448, "trial_id": "mouselab_instructions_1_misaligned", "trial_type": "instructions", "trial_index": 3, "time_elapsed": 760683, "internal_node_id": "0.0-2.0-1.0"}}, {"uniqueid": "w81274284:a61328299", "current_trial": 4, "dateTime": 1691160193766, "trialdata": {"revealed_states": [], "clicked_states": ["17", "29", "21"], "num_clicks_accrued": [0, 0, 0, 0, 0, 0, 0, 0, 0, 0, 0, 0, 0], "stateRewards": ["", 10, -10, -10, 10, 10, -10, -10, -10, 10, 10, 10, 10, 10, -10, 10, 10, 10, -10, 10, 10, 10, 10, -10, -10, -10, -10, 10, 10, 10, 10, -10, 10, 10], "withholdReward": false, "trial_id": "practice_1", "block": "test", "trialIndex": 0, "score": 32, "costs": -1.5, "simulationMode": [null, null, null, null, null, null], "rewards": [10, 10, -10, 10, 10], "path": ["0", "0", "12", "13", "14", "19", "21"], "rt": [6727, 5869, 616, 427, 432, 348], "actions": ["right", "right", "right", "right", "down", "down"], "actionTimes": [17062, 22935, 24071, 25007, 25943, 26791], "queries": {"click": {"state": {"target": ["17", "29", "21"], "time": [12724, 14559, 16172]}, "edge": {"target": [], "time": []}}, "mouseover": {"state": {"target": ["22", "14", "17", "17", "15", "18", "1", "28", "26", "29", "27", "21", "21"], "time": [12046, 12224, 12413, 12509, 13581, 13750, 13901, 13955, 14101, 14298, 15097, 15707, 16040]}, "edge": {"target": [], "time": []}}, "mouseout": {"state": {"target": ["22", "13", "14", "13", "12", "0", "0", "12", "14", "13", "14", "17", "17", "17", "18", "0", "22", "14", "17", "17", "15", "18", "1", "28", "26", "29", "27", "21", "21", "21"], "time": [null, 54, 360, 494, 572, 4657, 5776, 5854, 6963, 7097, 7142, 7176, 8201, 9536, 9599, 10524, 12174, 12243, 12442, 13073, 13674, 13779, 13937, 14018, 14235, 14755, 15389, 15739, 16399, 17997]}, "edge": {"target": [], "time": []}}}, "displayed_time": "27.29", "trialTime": 31391, "trial_type": "mouselab-mdp", "trial_index": 4, "time_elapsed": 793220, "internal_node_id": "0.0-2.0-2.0-0.0"}}, {"uniqueid": "w81274284:a61328299", "current_trial": 5, "dateTime": 1691160213989, "trialdata": {"revealed_states": [], "clicked_states": ["29", "28", "5"], "num_clicks_accrued": [0, 0, 0, 0, 0, 0, 0, 0, 0, 0, 0, 0, 0], "stateRewards": ["", -10, 10, -10, -10, -10, 10, -10, 10, 10, 10, -10, -10, 10, 10, 10, 10, 10, -10, -10, -10, 10, 10, -10, 10, 10, -10, -10, -10, -10, -10, -10, -10, 10], "withholdReward": false, "trial_id": "practice_2", "block": "test", "trialIndex": 1, "score": -28, "costs": -1.5, "simulationMode": [null, null, null, null, null], "rewards": [-10, 10, -10, -10, -10], "path": ["0", "0", "1", "2", "3", "4", "5"], "rt": [7402, 383, 1083, 249, 328], "actions": ["up", "up", "up", "right", "up"], "actionTimes": [12096, 12982, 14580, 15310, 16142], "queries": {"click": {"state": {"target": ["29", "28", "5"], "time": [7814, 8846, 10534]}, "edge": {"target": [], "time": []}}, "mouseover": {"state": {"target": ["23", "24", "29", "27", "26", "29", "26", "28", "10", "5", "5"], "time": [6107, 6144, 6210, 6604, 7060, 7596, 8336, 8417, 9578, 9825, 10007]}, "edge": {"target": [], "time": []}}, "mouseout": {"state": {"target": ["0", "23", "24", "29", "27", "26", "29", "26", "28", "10", "5", "5", "13"], "time": [6062, 6125, 6162, 6242, 7015, 7533, 8311, 8395, 9221, 9604, 9885, 10881, 18383]}, "edge": {"target": [], "time": []}}}, "displayed_time": "16.64", "trialTime": 19886, "trial_type": "mouselab-mdp", "trial_index": 5, "time_elapsed": 813444, "internal_node_id": "0.0-2.0-2.0-1.0"}}, {"uniqueid": "w81274284:a61328299", "current_trial": 6, "dateTime": 1691160295308, "trialdata": {"view_history": [{"page_index": 0, "viewing_time": 69930}, {"page_index": 1, "viewing_time": 11380}], "rt": 81311, "trial_id": "mouselab_instructions_2_misaligned", "trial_type": "instructions", "trial_index": 6, "time_elapsed": 894764, "internal_node_id": "0.0-2.0-3.0"}}, {"uniqueid": "w81274284:a61328299", "current_trial": 7, "dateTime": 1691160326396, "trialdata": {"rt": 31082, "response": {"Q0": "The cost for clicking on nodes may vary between nodes.", "Q1": "The better I perform the higher my bonus will be.", "Q2": "No, the amount of cash at each node of the web may be different each time.", "Q3": "To get the highest total score.", "Q4": "Only before moving the spider.", "Q5": "3 seconds"}, "question_order": [0, 1, 2, 3, 4, 5], "correct": {"Q0": "The cost for clicking on nodes may vary between nodes.", "Q1": "The better I perform the higher my bonus will be.", "Q2": "No, the amount of cash at each node of the web may be different each time.", "Q3": "To get the highest total score.", "Q4": "Only before moving the spider.", "Q5": "3 seconds"}, "trial_id": "mouselab_quiz_misaligned", "trial_type": "survey-multi-choice", "trial_index": 7, "time_elapsed": 925852, "internal_node_id": "0.0-2.0-4.0"}}, {"uniqueid": "w81274284:a61328299", "current_trial": 8, "dateTime": 1691160440617, "trialdata": {"rt": 114211, "stimulus": "\n<h1> Get ready to start the game! </h1>\n\nThank you for reading the instructions. Get ready start with the 40 rounds of this game.\n<br><br>\nIf you need to take a break, feel free to take one after the end of a round, before continuing to the next one.\n<br><br>\nRemember, the more money the spider gets, the bigger your bonus will be!\n<br><br>\n<div style='text-align: center;'>Press <code>space</code> to begin.</div>\n\n<br><br>\n(If, at any point, the <code>space</code> key does not take you to the next page, click once on the text and try again.)", "response": " ", "trial_id": "mdp_ready", "trial_type": "html-keyboard-response", "trial_index": 8, "time_elapsed": 1040073, "internal_node_id": "0.0-4.0-0.0"}}, {"uniqueid": "w81274284:a61328299", "current_trial": 9, "dateTime": 1691160462794, "trialdata": {"revealed_states": [], "clicked_states": [], "num_clicks_accrued": [0, 0, 0, 0, 0, 0, 0, 0, 0, 0, 0, 0, 0], "stateRewards": ["", 2, -3, -2, 14, -4, 85, 46, 15, -28, 41, 31, -1, -1, -1, 5, 62, 79, 57, 12, -73, -64, 86, -1, 1, -3, -5, 68, 11, -32, 8, -80, -21, -56], "withholdReward": false, "trial_id": "mdp_trial_1", "block": "test", "trialIndex": 2, "score": 60, "costs": 0, "simulationMode": [null, null, null, null, null], "rewards": [-1, 1, -3, -5, 68], "path": ["0", "0", "23", "24", "25", "26", "27"], "rt": [7241, 905, 1258, 2276, 1292], "actions": ["left", "left", "left", "up", "up"], "actionTimes": [10296, 11702, 13462, 16262, 18070], "queries": {"click": {"state": {"target": [], "time": []}, "edge": {"target": [], "time": []}}, "mouseover": {"state": {"target": [], "time": []}, "edge": {"target": [], "time": []}}, "mouseout": {"state": {"target": ["16", "0"], "time": [1695, 3080]}, "edge": {"target": [], "time": []}}}, "displayed_time": "18.58", "trialTime": 21823, "trial_type": "mouselab-mdp", "trial_index": 9, "time_elapsed": 1062249, "internal_node_id": "0.0-4.0-1.0-0.0"}}, {"uniqueid": "w81274284:a61328299", "current_trial": 10, "dateTime": 1691160491730, "trialdata": {"revealed_states": [], "clicked_states": [], "num_clicks_accrued": [0, 0, 0, 0, 0, 0, 0, 0, 0, 0, 0, 0, 0], "stateRewards": ["", -2, 2, 3, -7, 76, 63, 21, 15, 35, -8, -44, 1, 1, -2, -12, 23, 24, 76, -9, 46, 66, -49, -2, -1, 7, 12, 40, -71, -45, -6, 38, -49, 46], "withholdReward": false, "trial_id": "mdp_trial_2", "block": "test", "trialIndex": 3, "score": 64, "costs": 0, "simulationMode": [null, null, null, null, null], "rewards": [1, 1, -2, -12, 76], "path": ["0", "0", "12", "13", "14", "15", "18"], "rt": [9144, 1226, 599, 3491, 2572], "actions": ["right", "right", "right", "up", "left"], "actionTimes": [15579, 17314, 18426, 22442, 25530], "queries": {"click": {"state": {"target": [], "time": []}, "edge": {"target": [], "time": []}}, "mouseover": {"state": {"target": [], "time": []}, "edge": {"target": [], "time": []}}, "mouseout": {"state": {"target": ["17", "15", "0"], "time": [2412, 2462, 5321]}, "edge": {"target": [], "time": []}}}, "displayed_time": "26.05", "trialTime": 28586, "trial_type": "mouselab-mdp", "trial_index": 10, "time_elapsed": 1091185, "internal_node_id": "0.0-4.0-1.0-1.0"}}, {"uniqueid": "w81274284:a61328299", "current_trial": 11, "dateTime": 1691160511090, "trialdata": {"revealed_states": [], "clicked_states": [], "num_clicks_accrued": [0, 0, 0, 0, 0, 0, 0, 0, 0, 0, 0, 0, 0], "stateRewards": ["", 2, 4, 7, -6, -76, -81, 2, 5, -66, -3, 36, -2, -4, 6, -2, -69, 4, -49, -6, 67, 38, -67, 2, 1, 1, 6, -68, -21, 52, -16, -16, 6, -70], "withholdReward": false, "trial_id": "mdp_trial_3", "block": "test", "trialIndex": 4, "score": -48, "costs": 0, "simulationMode": [null, null, null, null, null], "rewards": [2, 4, 7, 5, -66], "path": ["0", "0", "1", "2", "3", "8", "9"], "rt": [2796, 784, 1079, 513, 4732], "actions": ["up", "up", "up", "left", "up"], "actionTimes": [5342, 6638, 8222, 9238, 14478], "queries": {"click": {"state": {"target": [], "time": []}, "edge": {"target": [], "time": []}}, "mouseover": {"state": {"target": ["12", "7"], "time": [4278, 4526]}, "edge": {"target": [], "time": []}}, "mouseout": {"state": {"target": ["0", "12", "7"], "time": [4244, 4411, 4549]}, "edge": {"target": [], "time": []}}}, "displayed_time": "16.55", "trialTime": 19014, "trial_type": "mouselab-mdp", "trial_index": 11, "time_elapsed": 1110545, "internal_node_id": "0.0-4.0-1.0-2.0"}}, {"uniqueid": "w81274284:a61328299", "current_trial": 12, "dateTime": 1691160529578, "trialdata": {"revealed_states": [], "clicked_states": [], "num_clicks_accrued": [0, 0, 0, 0, 0, 0, 0, 0, 0, 0, 0, 0, 0], "stateRewards": ["", -1, -4, -6, -15, 21, -67, -63, 9, 51, 69, -14, -1, 3, 8, -8, 39, 72, 63, 15, 19, 47, 15, 1, 4, 5, 16, -18, 34, 35, -14, -80, 40, 1], "withholdReward": false, "trial_id": "mdp_trial_4", "block": "test", "trialIndex": 5, "score": -84, "costs": 0, "simulationMode": [null, null, null, null, null], "rewards": [1, 4, 5, -14, -80], "path": ["0", "0", "23", "24", "25", "30", "31"], "rt": [912, 1020, 1644, 338, 1500], "actions": ["left", "left", "left", "down", "right"], "actionTimes": [3587, 5115, 7259, 8107, 10123], "queries": {"click": {"state": {"target": [], "time": []}, "edge": {"target": [], "time": []}}, "mouseover": {"state": {"target": [], "time": []}, "edge": {"target": [], "time": []}}, "mouseout": {"state": {"target": ["14", "13", "12"], "time": [1998, 2027, 2082]}, "edge": {"target": [], "time": []}}}, "displayed_time": "16.68", "trialTime": 18123, "trial_type": "mouselab-mdp", "trial_index": 12, "time_elapsed": 1129033, "internal_node_id": "0.0-4.0-1.0-3.0"}}, {"uniqueid": "w81274284:a61328299", "current_trial": 13, "dateTime": 1691160547857, "trialdata": {"revealed_states": [], "clicked_states": [], "num_clicks_accrued": [0, 0, 0, 0, 0, 0, 0, 0, 0, 0, 0, 0, 0], "stateRewards": ["", -1, 3, -7, 16, -32, -74, -48, 2, 10, 15, -30, 1, 1, -2, 10, 12, -83, 67, 13, -66, 47, 65, -2, 4, 2, -14, -8, -57, 24, 9, 65, 12, 46], "withholdReward": false, "trial_id": "mdp_trial_5", "block": "test", "trialIndex": 6, "score": 78, "costs": 0, "simulationMode": [null, null, null, null, null], "rewards": [1, 1, -2, 13, 65], "path": ["0", "0", "12", "13", "14", "19", "22"], "rt": [2392, 786, 472, 411, 451], "actions": ["right", "right", "right", "down", "left"], "actionTimes": [3998, 5294, 6286, 7206, 8158], "queries": {"click": {"state": {"target": [], "time": []}, "edge": {"target": [], "time": []}}, "mouseover": {"state": {"target": ["12", "13", "21"], "time": [2230, 2267, 2641]}, "edge": {"target": [], "time": []}}, "mouseout": {"state": {"target": ["0", "12", "13", "21", "20"], "time": [2222, 2264, 2286, 9127, 16851]}, "edge": {"target": [], "time": []}}}, "displayed_time": "15.61", "trialTime": 17918, "trial_type": "mouselab-mdp", "trial_index": 13, "time_elapsed": 1147312, "internal_node_id": "0.0-4.0-1.0-4.0"}}, {"uniqueid": "w81274284:a61328299", "current_trial": 14, "dateTime": 1691160566577, "trialdata": {"revealed_states": [], "clicked_states": [], "num_clicks_accrued": [0, 0, 0, 0, 0, 0, 0, 0, 0, 0, 0, 0, 0], "stateRewards": ["", -1, 2, -6, 6, -82, -19, -39, -16, -83, 11, -33, -2, -2, 4, -6, -82, -1, -19, -6, -10, -67, -41, -2, 1, -7, 16, -23, -78, -52, 14, 31, -71, 74], "withholdReward": false, "trial_id": "mdp_trial_6", "block": "test", "trialIndex": 7, "score": -38, "costs": 0, "simulationMode": [null, null, null, null, null], "rewards": [-1, 2, -6, 6, -39], "path": ["0", "0", "1", "2", "3", "4", "7"], "rt": [2715, 193, 183, 36, 924], "actions": ["up", "up", "up", "right", "down"], "actionTimes": [5736, 6440, 7128, 7672, 9136], "queries": {"click": {"state": {"target": [], "time": []}, "edge": {"target": [], "time": []}}, "mouseover": {"state": {"target": ["0"], "time": [3043]}, "edge": {"target": [], "time": []}}, "mouseout": {"state": {"target": ["0", "0"], "time": [1387, 11119]}, "edge": {"target": [], "time": []}}}, "displayed_time": "17.03", "trialTime": 18369, "trial_type": "mouselab-mdp", "trial_index": 14, "time_elapsed": 1166032, "internal_node_id": "0.0-4.0-1.0-5.0"}}, {"uniqueid": "w81274284:a61328299", "current_trial": 15, "dateTime": 1691160584545, "trialdata": {"revealed_states": [], "clicked_states": [], "num_clicks_accrued": [0, 0, 0, 0, 0, 0, 0, 0, 0, 0, 0, 0, 0], "stateRewards": ["", -1, -3, 1, -4, -48, -63, -49, -2, -84, -19, 65, 2, -2, -2, -12, -4, 59, 9, 6, 75, 69, -13, -1, -3, -3, -2, -37, -68, -36, 13, 32, 18, -14], "withholdReward": false, "trial_id": "mdp_trial_7", "block": "test", "trialIndex": 8, "score": 73, "costs": 0, "simulationMode": [null, null, null, null, null], "rewards": [2, -2, -2, 6, 69], "path": ["0", "0", "12", "13", "14", "19", "21"], "rt": [977, 51, 136, 4053, 290], "actions": ["right", "right", "right", "down", "down"], "actionTimes": [3056, 3616, 4272, 8832, 9649], "queries": {"click": {"state": {"target": [], "time": []}, "edge": {"target": [], "time": []}}, "mouseover": {"state": {"target": [], "time": []}, "edge": {"target": [], "time": []}}, "mouseout": {"state": {"target": ["28", "0"], "time": [1017, 1317]}, "edge": {"target": [], "time": []}}}, "displayed_time": "16.08", "trialTime": 17608, "trial_type": "mouselab-mdp", "trial_index": 15, "time_elapsed": 1184000, "internal_node_id": "0.0-4.0-1.0-6.0"}}, {"uniqueid": "w81274284:a61328299", "current_trial": 16, "dateTime": 1691160602985, "trialdata": {"revealed_states": [], "clicked_states": [], "num_clicks_accrued": [0, 0, 0, 0, 0, 0, 0, 0, 0, 0, 0, 0, 0], "stateRewards": ["", 2, 4, -3, 16, -58, 30, -35, 11, -60, 47, 27, -2, -1, -7, -16, 23, -70, 68, -10, -65, -43, -34, -2, 1, 7, 9, -63, 34, -31, -8, -12, -86, 59], "withholdReward": false, "trial_id": "mdp_trial_8", "block": "test", "trialIndex": 9, "score": -85, "costs": 0, "simulationMode": [null, null, null, null, null], "rewards": [-2, -1, -7, -10, -65], "path": ["0", "0", "12", "13", "14", "19", "20"], "rt": [861, 2075, 195, 51, 88], "actions": ["right", "right", "right", "down", "right"], "actionTimes": [2802, 5394, 6114, 6700, 7314], "queries": {"click": {"state": {"target": [], "time": []}, "edge": {"target": [], "time": []}}, "mouseover": {"state": {"target": [], "time": []}, "edge": {"target": [], "time": []}}, "mouseout": {"state": {"target": ["0", "14"], "time": [2346, 3765]}, "edge": {"target": [], "time": []}}}, "displayed_time": "15.95", "trialTime": 18082, "trial_type": "mouselab-mdp", "trial_index": 16, "time_elapsed": 1202440, "internal_node_id": "0.0-4.0-1.0-7.0"}}, {"uniqueid": "w81274284:a61328299", "current_trial": 17, "dateTime": 1691160621161, "trialdata": {"revealed_states": [], "clicked_states": [], "num_clicks_accrued": [0, 0, 0, 0, 0, 0, 0, 0, 0, 0, 0, 0, 0], "stateRewards": ["", 2, 3, 6, -12, -29, 12, 87, 4, 35, -30, 67, 2, 3, -5, -9, 44, 69, -8, 1, 45, -8, 28, -2, -1, -8, 11, -12, -5, 81, 9, 87, 82, 88], "withholdReward": false, "trial_id": "mdp_trial_9", "block": "test", "trialIndex": 10, "score": 85, "costs": 0, "simulationMode": [null, null, null, null, null], "rewards": [-2, -1, -8, 9, 87], "path": ["0", "0", "23", "24", "25", "30", "31"], "rt": [869, 147, 275, 32, 967], "actions": ["left", "left", "left", "down", "right"], "actionTimes": [2263, 2919, 3695, 4238, 5711], "queries": {"click": {"state": {"target": [], "time": []}, "edge": {"target": [], "time": []}}, "mouseover": {"state": {"target": [], "time": []}, "edge": {"target": [], "time": []}}, "mouseout": {"state": {"target": ["14", "12", "0"], "time": [694, 960, 8922]}, "edge": {"target": [], "time": []}}}, "displayed_time": "15.40", "trialTime": 17807, "trial_type": "mouselab-mdp", "trial_index": 17, "time_elapsed": 1220616, "internal_node_id": "0.0-4.0-1.0-8.0"}}, {"uniqueid": "w81274284:a61328299", "current_trial": 18, "dateTime": 1691160638152, "trialdata": {"revealed_states": [], "clicked_states": [], "num_clicks_accrued": [0, 0, 0, 0, 0, 0, 0, 0, 0, 0, 0, 0, 0], "stateRewards": ["", -1, -3, 1, 13, -64, -29, 12, -4, -33, 50, 56, 2, -3, 4, 11, -64, -58, -55, 12, 47, 38, -25, -2, 2, 5, -15, 85, 7, 84, 10, 8, 57, 26], "withholdReward": false, "trial_id": "mdp_trial_10", "block": "test", "trialIndex": 11, "score": 75, "costs": 0, "simulationMode": [null, null, null, null, null], "rewards": [-2, 2, 5, -15, 85], "path": ["0", "0", "23", "24", "25", "26", "27"], "rt": [1505, 90, 161, 13, 172], "actions": ["left", "left", "left", "up", "up"], "actionTimes": [2456, 3064, 3728, 4251, 4928], "queries": {"click": {"state": {"target": [], "time": []}, "edge": {"target": [], "time": []}}, "mouseover": {"state": {"target": ["0"], "time": [1295]}, "edge": {"target": [], "time": []}}, "mouseout": {"state": {"target": ["0", "0"], "time": [657, 9069]}, "edge": {"target": [], "time": []}}}, "displayed_time": "14.96", "trialTime": 16624, "trial_type": "mouselab-mdp", "trial_index": 18, "time_elapsed": 1237607, "internal_node_id": "0.0-4.0-1.0-9.0"}}, {"uniqueid": "w81274284:a61328299", "current_trial": 19, "dateTime": 1691160655232, "trialdata": {"revealed_states": [], "clicked_states": [], "num_clicks_accrued": [0, 0, 0, 0, 0, 0, 0, 0, 0, 0, 0, 0, 0], "stateRewards": ["", 2, 3, -1, 6, 44, -4, -59, -14, -3, 64, 16, 1, -3, 3, 6, 3, 49, 19, 3, -49, -14, -86, 1, 2, -3, -8, -33, 14, 32, -13, -77, -47, -67], "withholdReward": false, "trial_id": "mdp_trial_11", "block": "test", "trialIndex": 12, "score": -90, "costs": 0, "simulationMode": [null, null, null, null, null], "rewards": [1, 2, -3, -13, -77], "path": ["0", "0", "23", "24", "25", "30", "31"], "rt": [968, 861, 85, 354, 1203], "actions": ["left", "left", "left", "down", "right"], "actionTimes": [2326, 3686, 4293, 5149, 6862], "queries": {"click": {"state": {"target": [], "time": []}, "edge": {"target": [], "time": []}}, "mouseover": {"state": {"target": [], "time": []}, "edge": {"target": [], "time": []}}, "mouseout": {"state": {"target": ["0"], "time": [9794]}, "edge": {"target": [], "time": []}}}, "displayed_time": "15.36", "trialTime": 16710, "trial_type": "mouselab-mdp", "trial_index": 19, "time_elapsed": 1254687, "internal_node_id": "0.0-4.0-1.0-10.0"}}, {"uniqueid": "w81274284:a61328299", "current_trial": 20, "dateTime": 1691160672352, "trialdata": {"revealed_states": [], "clicked_states": [], "num_clicks_accrued": [0, 0, 0, 0, 0, 0, 0, 0, 0, 0, 0, 0, 0], "stateRewards": ["", 2, -4, 7, 3, 23, -42, 4, 7, -81, -33, 7, -2, -4, 5, -1, 50, -57, -14, -13, -14, 44, 55, -2, -2, 5, -2, 33, 1, 57, -13, -7, 58, 87], "withholdReward": false, "trial_id": "mdp_trial_12", "block": "test", "trialIndex": 13, "score": -69, "costs": 0, "simulationMode": [null, null, null, null, null], "rewards": [2, -4, 7, 7, -81], "path": ["0", "0", "1", "2", "3", "8", "9"], "rt": [916, 14, 108, 378, 947], "actions": ["up", "up", "up", "left", "up"], "actionTimes": [2938, 3479, 4104, 4985, 6449], "queries": {"click": {"state": {"target": [], "time": []}, "edge": {"target": [], "time": []}}, "mouseover": {"state": {"target": [], "time": []}, "edge": {"target": [], "time": []}}, "mouseout": {"state": {"target": ["0"], "time": [13750]}, "edge": {"target": [], "time": []}}}, "displayed_time": "16.03", "trialTime": 16753, "trial_type": "mouselab-mdp", "trial_index": 20, "time_elapsed": 1271807, "internal_node_id": "0.0-4.0-1.0-11.0"}}, {"uniqueid": "w81274284:a61328299", "current_trial": 21, "dateTime": 1691160689152, "trialdata": {"revealed_states": [], "clicked_states": [], "num_clicks_accrued": [0, 0, 0, 0, 0, 0, 0, 0, 0, 0, 0, 0, 0], "stateRewards": ["", 1, -3, -4, -11, -56, 61, -47, -16, -28, -9, 69, -2, -3, -4, -8, 40, -86, 59, -4, 80, 27, 54, -1, 3, -1, 8, 67, 23, 50, 6, 83, -43, -29], "withholdReward": false, "trial_id": "mdp_trial_13", "block": "test", "trialIndex": 14, "score": -31, "costs": 0, "simulationMode": [null, null, null, null, null], "rewards": [1, -3, -4, -16, -9], "path": ["0", "0", "1", "2", "3", "8", "10"], "rt": [698, 225, 132, 2558, 1328], "actions": ["up", "up", "up", "left", "down"], "actionTimes": [2072, 2808, 3448, 6528, 8400], "queries": {"click": {"state": {"target": [], "time": []}, "edge": {"target": [], "time": []}}, "mouseover": {"state": {"target": [], "time": []}, "edge": {"target": [], "time": []}}, "mouseout": {"state": {"target": ["0"], "time": [11314]}, "edge": {"target": [], "time": []}}}, "displayed_time": "15.38", "trialTime": 16440, "trial_type": "mouselab-mdp", "trial_index": 21, "time_elapsed": 1288607, "internal_node_id": "0.0-4.0-1.0-12.0"}}, {"uniqueid": "w81274284:a61328299", "current_trial": 22, "dateTime": 1691160708248, "trialdata": {"revealed_states": [], "clicked_states": [], "num_clicks_accrued": [0, 0, 0, 0, 0, 0, 0, 0, 0, 0, 0, 0, 0], "stateRewards": ["", 1, -1, 8, 4, 76, -33, -17, -3, -1, -54, -74, -2, 2, -5, 13, -51, 63, 83, 1, 84, 29, -36, 2, -1, 7, -12, -10, -44, -43, -14, 8, -69, 19], "withholdReward": false, "trial_id": "mdp_trial_14", "block": "test", "trialIndex": 15, "score": 71, "costs": 0, "simulationMode": [null, null, null, null, null], "rewards": [-2, 2, -5, 13, 63], "path": ["0", "0", "12", "13", "14", "15", "17"], "rt": [1304, 29, 717, 645, 630], "actions": ["right", "right", "right", "up", "right"], "actionTimes": [2261, 2805, 4037, 5189, 6341], "queries": {"click": {"state": {"target": [], "time": []}, "edge": {"target": [], "time": []}}, "mouseover": {"state": {"target": [], "time": []}, "edge": {"target": [], "time": []}}, "mouseout": {"state": {"target": [], "time": []}, "edge": {"target": [], "time": []}}}, "displayed_time": "14.96", "trialTime": 18734, "trial_type": "mouselab-mdp", "trial_index": 22, "time_elapsed": 1307703, "internal_node_id": "0.0-4.0-1.0-13.0"}}, {"uniqueid": "w81274284:a61328299", "current_trial": 23, "dateTime": 1691160741028, "trialdata": {"revealed_states": [], "clicked_states": [], "num_clicks_accrued": [0, 0, 0, 0, 0, 0, 0, 0, 0, 0, 0, 0, 0], "stateRewards": ["", 1, -3, -2, 14, 49, -40, -39, 2, 26, -61, 73, 1, -4, -8, 12, 79, 29, -65, -13, 55, -26, 27, -1, 3, 3, 9, -17, -60, -18, -8, 35, -88, 69], "withholdReward": false, "trial_id": "mdp_trial_15", "block": "test", "trialIndex": 16, "score": 3, "costs": 0, "simulationMode": [null, null, null, null, null], "rewards": [1, -4, -8, -13, 27], "path": ["0", "0", "12", "13", "14", "19", "22"], "rt": [951, 87, 54, 100, 1263], "actions": ["right", "right", "right", "down", "left"], "actionTimes": [3723, 4331, 4899, 5515, 7283], "queries": {"click": {"state": {"target": [], "time": []}, "edge": {"target": [], "time": []}}, "mouseover": {"state": {"target": [], "time": []}, "edge": {"target": [], "time": []}}, "mouseout": {"state": {"target": ["0", "0", "0"], "time": [7903, 31980, 32330]}, "edge": {"target": [], "time": []}}}, "displayed_time": "16.77", "trialTime": 32410, "trial_type": "mouselab-mdp", "trial_index": 23, "time_elapsed": 1340484, "internal_node_id": "0.0-4.0-1.0-14.0"}}, {"uniqueid": "w81274284:a61328299", "current_trial": 24, "dateTime": 1691160757583, "trialdata": {"revealed_states": [], "clicked_states": [], "num_clicks_accrued": [0, 0, 0, 0, 0, 0, 0, 0, 0, 0, 0, 0, 0], "stateRewards": ["", 1, 2, 8, -2, 23, -69, -18, -16, 54, -21, 71, -1, -4, 7, 11, 43, -6, 88, 6, -55, 72, 43, 1, -3, -2, -1, 68, -31, -54, 4, -8, 25, -2], "withholdReward": false, "trial_id": "mdp_trial_16", "block": "test", "trialIndex": 17, "score": 56, "costs": 0, "simulationMode": [null, null, null, null, null], "rewards": [-1, -4, 7, 11, 43], "path": ["0", "0", "12", "13", "14", "15", "16"], "rt": [1314, 285, 72, 511, 441], "actions": ["right", "right", "right", "up", "up"], "actionTimes": [2630, 3414, 3990, 5022, 5974], "queries": {"click": {"state": {"target": [], "time": []}, "edge": {"target": [], "time": []}}, "mouseover": {"state": {"target": [], "time": []}, "edge": {"target": [], "time": []}}, "mouseout": {"state": {"target": [], "time": []}, "edge": {"target": [], "time": []}}}, "displayed_time": "15.32", "trialTime": 16182, "trial_type": "mouselab-mdp", "trial_index": 24, "time_elapsed": 1357038, "internal_node_id": "0.0-4.0-1.0-15.0"}}, {"uniqueid": "w81274284:a61328299", "current_trial": 25, "dateTime": 1691160774975, "trialdata": {"revealed_states": [], "clicked_states": [], "num_clicks_accrued": [0, 0, 0, 0, 0, 0, 0, 0, 0, 0, 0, 0, 0], "stateRewards": ["", 1, 4, 5, 8, -55, -11, 8, 16, -37, 77, -22, -2, 3, -8, -10, 45, 87, -67, 4, 17, -33, -22, -1, -3, 7, 6, -39, -85, 75, -1, 7, -48, 45], "withholdReward": false, "trial_id": "mdp_trial_17", "block": "test", "trialIndex": 18, "score": -46, "costs": 0, "simulationMode": [null, null, null, null, null], "rewards": [-1, -3, 7, -1, -48], "path": ["0", "0", "23", "24", "25", "30", "32"], "rt": [404, 557, 287, 203, 101], "actions": ["left", "left", "left", "down", "down"], "actionTimes": [2099, 3171, 3971, 4683, 5291], "queries": {"click": {"state": {"target": [], "time": []}, "edge": {"target": [], "time": []}}, "mouseover": {"state": {"target": [], "time": []}, "edge": {"target": [], "time": []}}, "mouseout": {"state": {"target": ["0"], "time": [963]}, "edge": {"target": [], "time": []}}}, "displayed_time": "15.71", "trialTime": 17019, "trial_type": "mouselab-mdp", "trial_index": 25, "time_elapsed": 1374430, "internal_node_id": "0.0-4.0-1.0-16.0"}}, {"uniqueid": "w81274284:a61328299", "current_trial": 26, "dateTime": 1691160792358, "trialdata": {"revealed_states": [], "clicked_states": [], "num_clicks_accrued": [0, 0, 0, 0, 0, 0, 0, 0, 0, 0, 0, 0, 0], "stateRewards": ["", -1, -3, -5, -14, -13, -47, 79, 8, -60, -64, 41, -1, 2, 3, 13, -46, 61, -79, -11, -64, -65, 23, 1, -2, 6, -14, 46, 32, 21, 7, 75, -66, 15], "withholdReward": false, "trial_id": "mdp_trial_18", "block": "test", "trialIndex": 19, "score": 87, "costs": 0, "simulationMode": [null, null, null, null, null], "rewards": [1, -2, 6, 7, 75], "path": ["0", "0", "23", "24", "25", "30", "31"], "rt": [5995, 67, 13, 99, 1040], "actions": ["left", "left", "left", "down", "right"], "actionTimes": [7293, 7878, 8400, 9013, 10565], "queries": {"click": {"state": {"target": [], "time": []}, "edge": {"target": [], "time": []}}, "mouseover": {"state": {"target": [], "time": []}, "edge": {"target": [], "time": []}}, "mouseout": {"state": {"target": ["0"], "time": [3521]}, "edge": {"target": [], "time": []}}}, "displayed_time": "15.31", "trialTime": 16997, "trial_type": "mouselab-mdp", "trial_index": 26, "time_elapsed": 1391813, "internal_node_id": "0.0-4.0-1.0-17.0"}}, {"uniqueid": "w81274284:a61328299", "current_trial": 27, "dateTime": 1691160810511, "trialdata": {"revealed_states": [], "clicked_states": [], "num_clicks_accrued": [0, 0, 0, 0, 0, 0, 0, 0, 0, 0, 0, 0, 0], "stateRewards": ["", -2, 2, 3, -7, -31, -33, 29, -8, -57, 50, -83, -1, -1, 5, 13, -23, -62, 25, 5, -66, -85, 14, 1, -2, -1, 16, 71, 33, -19, -14, 5, -43, 79], "withholdReward": false, "trial_id": "mdp_trial_19", "block": "test", "trialIndex": 20, "score": -58, "costs": 0, "simulationMode": [null, null, null, null, null], "rewards": [-1, -1, 5, 5, -66], "path": ["0", "0", "12", "13", "14", "19", "20"], "rt": [688, 14, 85, 585, 86], "actions": ["right", "right", "right", "down", "right"], "actionTimes": [2498, 3028, 3626, 4714, 5314], "queries": {"click": {"state": {"target": [], "time": []}, "edge": {"target": [], "time": []}}, "mouseover": {"state": {"target": [], "time": []}, "edge": {"target": [], "time": []}}, "mouseout": {"state": {"target": [], "time": []}, "edge": {"target": [], "time": []}}}, "displayed_time": "15.81", "trialTime": 17770, "trial_type": "mouselab-mdp", "trial_index": 27, "time_elapsed": 1409966, "internal_node_id": "0.0-4.0-1.0-18.0"}}, {"uniqueid": "w81274284:a61328299", "current_trial": 28, "dateTime": 1691160826462, "trialdata": {"revealed_states": [], "clicked_states": [], "num_clicks_accrued": [0, 0, 0, 0, 0, 0, 0, 0, 0, 0, 0, 0, 0], "stateRewards": ["", 2, -1, 8, -2, -16, 69, -39, -7, -13, -27, -86, 2, -2, 2, 13, -34, -16, -20, -5, 19, 81, 32, -2, -1, 2, -14, 20, 80, 58, 4, 70, 12, 73], "withholdReward": false, "trial_id": "mdp_trial_20", "block": "test", "trialIndex": 21, "score": -19, "costs": 0, "simulationMode": [null, null, null, null, null], "rewards": [2, -2, 2, 13, -34], "path": ["0", "0", "12", "13", "14", "15", "16"], "rt": [1132, 301, 49, 404, 535], "actions": ["right", "right", "right", "up", "up"], "actionTimes": [2064, 2865, 3424, 4368, 5409], "queries": {"click": {"state": {"target": [], "time": []}, "edge": {"target": [], "time": []}}, "mouseover": {"state": {"target": [], "time": []}, "edge": {"target": [], "time": []}}, "mouseout": {"state": {"target": ["0"], "time": [15166]}, "edge": {"target": [], "time": []}}}, "displayed_time": "14.94", "trialTime": 15568, "trial_type": "mouselab-mdp", "trial_index": 28, "time_elapsed": 1425917, "internal_node_id": "0.0-4.0-1.0-19.0"}}, {"uniqueid": "w81274284:a61328299", "current_trial": 29, "dateTime": 1691160845614, "trialdata": {"revealed_states": [], "clicked_states": [], "num_clicks_accrued": [0, 0, 0, 0, 0, 0, 0, 0, 0, 0, 0, 0, 0], "stateRewards": ["", -1, 1, 8, -8, -49, 62, -78, 16, 28, -81, 78, -2, -3, -1, -4, 67, 49, -2, -13, -16, -39, 83, 1, -4, 4, -5, -20, 7, 84, 7, -32, -59, 19], "withholdReward": false, "trial_id": "mdp_trial_21", "block": "test", "trialIndex": 22, "score": 80, "costs": 0, "simulationMode": [null, null, null, null, null], "rewards": [1, -4, 4, -5, 84], "path": ["0", "0", "23", "24", "25", "26", "29"], "rt": [458, 595, 763, 86, 511], "actions": ["left", "left", "left", "up", "left"], "actionTimes": [3824, 4928, 6200, 6800, 7824], "queries": {"click": {"state": {"target": [], "time": []}, "edge": {"target": [], "time": []}}, "mouseover": {"state": {"target": [], "time": []}, "edge": {"target": [], "time": []}}, "mouseout": {"state": {"target": ["16", "15", "14", "13", "12", "0", "0", "10", "8", "15", "12", "22", "19", "20"], "time": [83, 129, 1556, 1632, 1668, 3392, 8878, 14665, 15549, 15677, 15761, 15827, 15879, 18658]}, "edge": {"target": [], "time": []}}}, "displayed_time": "17.37", "trialTime": 18753, "trial_type": "mouselab-mdp", "trial_index": 29, "time_elapsed": 1445069, "internal_node_id": "0.0-4.0-1.0-20.0"}}, {"uniqueid": "w81274284:a61328299", "current_trial": 30, "dateTime": 1691160862398, "trialdata": {"revealed_states": [], "clicked_states": [], "num_clicks_accrued": [0, 0, 0, 0, 0, 0, 0, 0, 0, 0, 0, 0, 0], "stateRewards": ["", 1, 2, -3, -5, 66, -50, -47, -5, 1, 28, -27, 1, 1, -1, -6, 37, -25, 56, 1, -82, -66, -40, -1, -4, -7, 15, -61, -23, 26, 10, 14, -56, 29], "withholdReward": false, "trial_id": "mdp_trial_22", "block": "test", "trialIndex": 23, "score": -52, "costs": 0, "simulationMode": [null, null, null, null, null], "rewards": [1, 2, -3, -5, -47], "path": ["0", "0", "1", "2", "3", "4", "7"], "rt": [1089, 92, 61, 176, 1239], "actions": ["up", "up", "up", "right", "down"], "actionTimes": [2526, 3134, 3702, 4382, 6126], "queries": {"click": {"state": {"target": [], "time": []}, "edge": {"target": [], "time": []}}, "mouseover": {"state": {"target": [], "time": []}, "edge": {"target": [], "time": []}}, "mouseout": {"state": {"target": ["14", "13", "12"], "time": [671, 717, 751]}, "edge": {"target": [], "time": []}}}, "displayed_time": "15.44", "trialTime": 16398, "trial_type": "mouselab-mdp", "trial_index": 30, "time_elapsed": 1461853, "internal_node_id": "0.0-4.0-1.0-21.0"}}, {"uniqueid": "w81274284:a61328299", "current_trial": 31, "dateTime": 1691160879534, "trialdata": {"revealed_states": [], "clicked_states": [], "num_clicks_accrued": [0, 0, 0, 0, 0, 0, 0, 0, 0, 0, 0, 0, 0], "stateRewards": ["", -1, -1, 4, -16, -75, 81, -51, -7, -84, 73, -30, -2, 1, -3, -16, -77, 33, 14, 1, 45, 87, -66, 2, 2, -5, -7, -19, -17, 79, -3, 8, 49, 47], "withholdReward": false, "trial_id": "mdp_trial_23", "block": "test", "trialIndex": 24, "score": 45, "costs": 0, "simulationMode": [null, null, null, null, null], "rewards": [2, 2, -5, -3, 49], "path": ["0", "0", "23", "24", "25", "30", "32"], "rt": [1969, 372, 107, 47, 1342], "actions": ["left", "left", "left", "down", "down"], "actionTimes": [3708, 4596, 5220, 5787, 7660], "queries": {"click": {"state": {"target": [], "time": []}, "edge": {"target": [], "time": []}}, "mouseover": {"state": {"target": [], "time": []}, "edge": {"target": [], "time": []}}, "mouseout": {"state": {"target": ["0"], "time": [1942]}, "edge": {"target": [], "time": []}}}, "displayed_time": "15.75", "trialTime": 16764, "trial_type": "mouselab-mdp", "trial_index": 31, "time_elapsed": 1478989, "internal_node_id": "0.0-4.0-1.0-22.0"}}, {"uniqueid": "w81274284:a61328299", "current_trial": 32, "dateTime": 1691160897822, "trialdata": {"revealed_states": [], "clicked_states": [], "num_clicks_accrued": [0, 0, 0, 0, 0, 0, 0, 0, 0, 0, 0, 0, 0], "stateRewards": ["", -1, -3, -3, 1, -38, 2, -53, -2, -1, -81, 70, -1, 1, -5, -9, 46, 15, 35, -1, -22, 38, 59, -2, 4, -8, 13, 1, -83, -43, 4, 76, 13, 48], "withholdReward": false, "trial_id": "mdp_trial_24", "block": "test", "trialIndex": 25, "score": -28, "costs": 0, "simulationMode": [null, null, null, null, null], "rewards": [-1, 1, -5, -1, -22], "path": ["0", "0", "12", "13", "14", "19", "20"], "rt": [1000, 25, 13, 704, 627], "actions": ["right", "right", "right", "down", "right"], "actionTimes": [3208, 3735, 4257, 5480, 6616], "queries": {"click": {"state": {"target": [], "time": []}, "edge": {"target": [], "time": []}}, "mouseover": {"state": {"target": [], "time": []}, "edge": {"target": [], "time": []}}, "mouseout": {"state": {"target": [], "time": []}, "edge": {"target": [], "time": []}}}, "displayed_time": "16.21", "trialTime": 17912, "trial_type": "mouselab-mdp", "trial_index": 32, "time_elapsed": 1497276, "internal_node_id": "0.0-4.0-1.0-23.0"}}, {"uniqueid": "w81274284:a61328299", "current_trial": 33, "dateTime": 1691160915373, "trialdata": {"revealed_states": [], "clicked_states": [], "num_clicks_accrued": [0, 0, 0, 0, 0, 0, 0, 0, 0, 0, 0, 0, 0], "stateRewards": ["", 1, 2, -6, -13, -51, 22, -4, -12, -44, -12, 6, -2, -2, -2, -14, -46, -4, -77, -2, 36, -79, 41, 2, -4, 2, -6, -55, 59, 70, -5, 39, -19, 24], "withholdReward": false, "trial_id": "mdp_trial_25", "block": "test", "trialIndex": 26, "score": 64, "costs": 0, "simulationMode": [null, null, null, null, null], "rewards": [2, -4, 2, -6, 70], "path": ["0", "0", "23", "24", "25", "26", "29"], "rt": [1753, 200, 1693, 787, 1633], "actions": ["left", "left", "left", "up", "left"], "actionTimes": [3369, 4081, 6297, 7601, 9737], "queries": {"click": {"state": {"target": [], "time": []}, "edge": {"target": [], "time": []}}, "mouseover": {"state": {"target": [], "time": []}, "edge": {"target": [], "time": []}}, "mouseout": {"state": {"target": [], "time": []}, "edge": {"target": [], "time": []}}}, "displayed_time": "15.62", "trialTime": 17153, "trial_type": "mouselab-mdp", "trial_index": 33, "time_elapsed": 1514828, "internal_node_id": "0.0-4.0-1.0-24.0"}}, {"uniqueid": "w81274284:a61328299", "current_trial": 34, "dateTime": 1691160933251, "trialdata": {"revealed_states": [], "clicked_states": [], "num_clicks_accrued": [0, 0, 0, 0, 0, 0, 0, 0, 0, 0, 0, 0, 0], "stateRewards": ["", -2, 2, 5, -14, -56, 64, 84, -5, 52, 39, 85, -2, 1, 7, 8, 21, 29, -78, -9, -10, -69, 10, -2, -1, -7, 15, 72, 20, 41, -2, 52, 80, 22], "withholdReward": false, "trial_id": "mdp_trial_26", "block": "test", "trialIndex": 27, "score": -13, "costs": 0, "simulationMode": [null, null, null, null, null], "rewards": [-2, 1, 7, -9, -10], "path": ["0", "0", "12", "13", "14", "19", "20"], "rt": [2221, 42, 755, 586, 801], "actions": ["right", "right", "right", "down", "right"], "actionTimes": [5000, 5551, 6832, 7928, 9232], "queries": {"click": {"state": {"target": [], "time": []}, "edge": {"target": [], "time": []}}, "mouseover": {"state": {"target": [], "time": []}, "edge": {"target": [], "time": []}}, "mouseout": {"state": {"target": ["0", "0"], "time": [1320, 11537]}, "edge": {"target": [], "time": []}}}, "displayed_time": "16.78", "trialTime": 17488, "trial_type": "mouselab-mdp", "trial_index": 34, "time_elapsed": 1532706, "internal_node_id": "0.0-4.0-1.0-25.0"}}, {"uniqueid": "w81274284:a61328299", "current_trial": 35, "dateTime": 1691160949954, "trialdata": {"revealed_states": [], "clicked_states": [], "num_clicks_accrued": [0, 0, 0, 0, 0, 0, 0, 0, 0, 0, 0, 0, 0], "stateRewards": ["", 1, 1, -2, 7, -31, -6, 76, 1, -36, -16, -53, 2, 1, 7, 13, -47, -10, 47, -7, 72, 46, -56, -2, -2, -2, 11, -80, 44, 38, 16, 67, 85, -78], "withholdReward": false, "trial_id": "mdp_trial_27", "block": "test", "trialIndex": 28, "score": -68, "costs": 0, "simulationMode": [null, null, null, null, null], "rewards": [-2, -2, -2, 16, -78], "path": ["0", "0", "23", "24", "25", "30", "33"], "rt": [2352, 21, 50, 37, 8315], "actions": ["left", "left", "left", "down", "left"], "actionTimes": [3330, 3873, 4449, 5001, 13818], "queries": {"click": {"state": {"target": [], "time": []}, "edge": {"target": [], "time": []}}, "mouseover": {"state": {"target": [], "time": []}, "edge": {"target": [], "time": []}}, "mouseout": {"state": {"target": [], "time": []}, "edge": {"target": [], "time": []}}}, "displayed_time": "14.98", "trialTime": 16313, "trial_type": "mouselab-mdp", "trial_index": 35, "time_elapsed": 1549410, "internal_node_id": "0.0-4.0-1.0-26.0"}}, {"uniqueid": "w81274284:a61328299", "current_trial": 36, "dateTime": 1691160967882, "trialdata": {"revealed_states": [], "clicked_states": [], "num_clicks_accrued": [0, 0, 0, 0, 0, 0, 0, 0, 0, 0, 0, 0, 0], "stateRewards": ["", -2, -4, 4, -11, -63, -60, -7, 2, -14, 81, -43, -1, -1, -5, 7, 10, 69, 40, 8, -83, 52, 60, 1, 2, 5, -5, 16, 64, 14, -3, 29, 7, -51], "withholdReward": false, "trial_id": "mdp_trial_28", "block": "test", "trialIndex": 29, "score": -76, "costs": 0, "simulationMode": [null, null, null, null, null], "rewards": [-2, -4, 4, -11, -63], "path": ["0", "0", "1", "2", "3", "4", "5"], "rt": [469, 14, 665, 134, 8177], "actions": ["up", "up", "up", "right", "up"], "actionTimes": [3212, 3743, 4925, 5564, 14261], "queries": {"click": {"state": {"target": [], "time": []}, "edge": {"target": [], "time": []}}, "mouseover": {"state": {"target": [], "time": []}, "edge": {"target": [], "time": []}}, "mouseout": {"state": {"target": ["0", "23"], "time": [1507, 1925]}, "edge": {"target": [], "time": []}}}, "displayed_time": "16.75", "trialTime": 17532, "trial_type": "mouselab-mdp", "trial_index": 36, "time_elapsed": 1567338, "internal_node_id": "0.0-4.0-1.0-27.0"}}, {"uniqueid": "w81274284:a61328299", "current_trial": 37, "dateTime": 1691160990010, "trialdata": {"revealed_states": [], "clicked_states": [], "num_clicks_accrued": [0, 0, 0, 0, 0, 0, 0, 0, 0, 0, 0, 0, 0], "stateRewards": ["", -2, 2, -4, -4, -59, 88, 62, -3, 69, -15, -34, 1, -2, -5, 7, -54, -20, 78, -16, -74, -53, -21, 2, -4, 2, 13, -8, -44, 26, 9, 72, 4, 17], "withholdReward": false, "trial_id": "mdp_trial_29", "block": "test", "trialIndex": 30, "score": -43, "costs": 0, "simulationMode": [null, null, null, null, null], "rewards": [1, -2, -5, -16, -21], "path": ["0", "0", "12", "13", "14", "19", "22"], "rt": [449, 444, 39, 42, 16058], "actions": ["right", "right", "right", "down", "left"], "actionTimes": [1442, 2402, 2954, 3506, 20083], "queries": {"click": {"state": {"target": [], "time": []}, "edge": {"target": [], "time": []}}, "mouseover": {"state": {"target": [], "time": []}, "edge": {"target": [], "time": []}}, "mouseout": {"state": {"target": ["0", "0", "20"], "time": [295, 4259, 4522]}, "edge": {"target": [], "time": []}}}, "displayed_time": "20.60", "trialTime": 21746, "trial_type": "mouselab-mdp", "trial_index": 37, "time_elapsed": 1589465, "internal_node_id": "0.0-4.0-1.0-28.0"}}, {"uniqueid": "w81274284:a61328299", "current_trial": 38, "dateTime": 1691161007099, "trialdata": {"revealed_states": [], "clicked_states": [], "num_clicks_accrued": [0, 0, 0, 0, 0, 0, 0, 0, 0, 0, 0, 0, 0], "stateRewards": ["", -2, 1, -5, 2, -68, 80, 33, 10, 67, -59, 20, -1, -3, 3, 14, 74, -2, 24, -16, 63, 80, 46, -1, 4, 6, 12, 83, -38, -43, -4, 43, 14, -79], "withholdReward": false, "trial_id": "mdp_trial_30", "block": "test", "trialIndex": 31, "score": 11, "costs": 0, "simulationMode": [null, null, null, null, null], "rewards": [-1, -3, 3, 14, -2], "path": ["0", "0", "12", "13", "14", "15", "17"], "rt": [1473, 353, 728, 89, 7463], "actions": ["right", "right", "right", "up", "right"], "actionTimes": [2696, 3560, 4808, 5400, 13376], "queries": {"click": {"state": {"target": [], "time": []}, "edge": {"target": [], "time": []}}, "mouseover": {"state": {"target": [], "time": []}, "edge": {"target": [], "time": []}}, "mouseout": {"state": {"target": ["14", "18", "12", "0"], "time": [458, 554, 788, 7283]}, "edge": {"target": [], "time": []}}}, "displayed_time": "15.23", "trialTime": 16682, "trial_type": "mouselab-mdp", "trial_index": 38, "time_elapsed": 1606555, "internal_node_id": "0.0-4.0-1.0-29.0"}}, {"uniqueid": "w81274284:a61328299", "current_trial": 39, "dateTime": 1691161024924, "trialdata": {"revealed_states": [], "clicked_states": [], "num_clicks_accrued": [0, 0, 0, 0, 0, 0, 0, 0, 0, 0, 0, 0, 0], "stateRewards": ["", -2, -1, -3, -1, -78, -6, 2, -1, 22, -88, 32, 2, 2, -7, -8, -51, -17, 54, 2, -44, 54, 75, 2, -2, -8, -15, -29, 12, -67, 15, -1, -47, -47], "withholdReward": false, "trial_id": "mdp_trial_31", "block": "test", "trialIndex": 32, "score": -52, "costs": 0, "simulationMode": [null, null, null, null, null], "rewards": [2, -2, -8, -15, -29], "path": ["0", "0", "23", "24", "25", "26", "27"], "rt": [901, 291, 36, 13, 9106], "actions": ["left", "left", "left", "up", "up"], "actionTimes": [2534, 3334, 3878, 4405, 14022], "queries": {"click": {"state": {"target": [], "time": []}, "edge": {"target": [], "time": []}}, "mouseover": {"state": {"target": ["0"], "time": [2085]}, "edge": {"target": [], "time": []}}, "mouseout": {"state": {"target": ["0", "0"], "time": [1296, 3400]}, "edge": {"target": [], "time": []}}}, "displayed_time": "15.64", "trialTime": 17422, "trial_type": "mouselab-mdp", "trial_index": 39, "time_elapsed": 1624379, "internal_node_id": "0.0-4.0-1.0-30.0"}}, {"uniqueid": "w81274284:a61328299", "current_trial": 40, "dateTime": 1691161042713, "trialdata": {"revealed_states": [], "clicked_states": [], "num_clicks_accrued": [0, 0, 0, 0, 0, 0, 0, 0, 0, 0, 0, 0, 0], "stateRewards": ["", 1, -2, -2, 10, -31, -77, 35, 9, -47, 8, 48, -2, 1, -4, -3, -26, -50, 43, -11, 76, -38, 17, 1, -1, 6, 10, 15, -9, 12, -8, 85, 11, -55], "withholdReward": false, "trial_id": "mdp_trial_32", "block": "test", "trialIndex": 33, "score": -54, "costs": 0, "simulationMode": [null, null, null, null, null], "rewards": [-2, 1, -4, -11, -38], "path": ["0", "0", "12", "13", "14", "19", "21"], "rt": [497, 138, 808, 86, 181], "actions": ["right", "right", "right", "down", "down"], "actionTimes": [1815, 2464, 3784, 4384, 5064], "queries": {"click": {"state": {"target": [], "time": []}, "edge": {"target": [], "time": []}}, "mouseover": {"state": {"target": [], "time": []}, "edge": {"target": [], "time": []}}, "mouseout": {"state": {"target": ["0"], "time": [6822]}, "edge": {"target": [], "time": []}}}, "displayed_time": "15.33", "trialTime": 17416, "trial_type": "mouselab-mdp", "trial_index": 40, "time_elapsed": 1642169, "internal_node_id": "0.0-4.0-1.0-31.0"}}, {"uniqueid": "w81274284:a61328299", "current_trial": 41, "dateTime": 1691161061745, "trialdata": {"revealed_states": [], "clicked_states": [], "num_clicks_accrued": [0, 0, 0, 0, 0, 0, 0, 0, 0, 0, 0, 0, 0], "stateRewards": ["", -2, 2, 2, -6, 9, 37, 50, -13, -7, -18, -75, -2, -4, 4, 7, 23, -57, -66, -7, -81, -48, -76, 1, 1, -8, 1, 51, -2, 70, 14, 59, 71, -37], "withholdReward": false, "trial_id": "mdp_trial_33", "block": "test", "trialIndex": 34, "score": 79, "costs": 0, "simulationMode": [null, null, null, null, null], "rewards": [1, 1, -8, 14, 71], "path": ["0", "0", "23", "24", "25", "30", "32"], "rt": [363, 83, 52, 335, 46], "actions": ["left", "left", "left", "down", "down"], "actionTimes": [2741, 3325, 3877, 4741, 5293], "queries": {"click": {"state": {"target": [], "time": []}, "edge": {"target": [], "time": []}}, "mouseover": {"state": {"target": [], "time": []}, "edge": {"target": [], "time": []}}, "mouseout": {"state": {"target": ["27", "23", "0", "0", "0", "4", "5", "9", "9", "27", "26", "25", "22", "19", "14", "15", "17", "14", "19", "21"], "time": [1634, 1946, 6853, 7268, 8139, 8183, 8203, 9041, 9226, 9353, 9388, 9454, 9993, 10095, 10913, 15611, 15812, 16014, 16074, 16881]}, "edge": {"target": [], "time": []}}}, "displayed_time": "16.38", "trialTime": 18637, "trial_type": "mouselab-mdp", "trial_index": 41, "time_elapsed": 1661201, "internal_node_id": "0.0-4.0-1.0-32.0"}}, {"uniqueid": "w81274284:a61328299", "current_trial": 42, "dateTime": 1691161077993, "trialdata": {"revealed_states": [], "clicked_states": [], "num_clicks_accrued": [0, 0, 0, 0, 0, 0, 0, 0, 0, 0, 0, 0, 0], "stateRewards": ["", -1, 3, -5, -2, -13, -9, -34, -7, -81, 32, 35, -2, -2, 1, -14, -32, 81, 7, 4, 82, 56, -8, -1, 3, -8, 6, -24, -24, -53, 2, 38, 61, 54], "withholdReward": false, "trial_id": "mdp_trial_34", "block": "test", "trialIndex": 35, "score": -53, "costs": 0, "simulationMode": [null, null, null, null, null], "rewards": [-1, 3, -8, 6, -53], "path": ["0", "0", "23", "24", "25", "26", "29"], "rt": [510, 14, 448, 69, 19], "actions": ["left", "left", "left", "up", "left"], "actionTimes": [1806, 2324, 3286, 3870, 4398], "queries": {"click": {"state": {"target": [], "time": []}, "edge": {"target": [], "time": []}}, "mouseover": {"state": {"target": [], "time": []}, "edge": {"target": [], "time": []}}, "mouseout": {"state": {"target": [], "time": []}, "edge": {"target": [], "time": []}}}, "displayed_time": "15.30", "trialTime": 15846, "trial_type": "mouselab-mdp", "trial_index": 42, "time_elapsed": 1677449, "internal_node_id": "0.0-4.0-1.0-33.0"}}, {"uniqueid": "w81274284:a61328299", "current_trial": 43, "dateTime": 1691161094721, "trialdata": {"revealed_states": [], "clicked_states": [], "num_clicks_accrued": [0, 0, 0, 0, 0, 0, 0, 0, 0, 0, 0, 0, 0], "stateRewards": ["", -1, -4, -1, -5, -28, -23, -15, -15, -38, 59, -87, 2, 2, -5, 9, -55, -39, -71, -6, 85, -85, -11, -1, -2, 5, -10, 1, 25, 41, -4, 69, -35, 86], "withholdReward": false, "trial_id": "mdp_trial_35", "block": "test", "trialIndex": 36, "score": 78, "costs": 0, "simulationMode": [null, null, null, null, null], "rewards": [2, 2, -5, -6, 85], "path": ["0", "0", "12", "13", "14", "19", "20"], "rt": [833, 179, 70, 1141, 154], "actions": ["right", "right", "right", "down", "right"], "actionTimes": [1974, 2654, 3238, 4886, 5550], "queries": {"click": {"state": {"target": [], "time": []}, "edge": {"target": [], "time": []}}, "mouseover": {"state": {"target": [], "time": []}, "edge": {"target": [], "time": []}}, "mouseout": {"state": {"target": ["0", "23", "0", "0", "22"], "time": [283, 685, 7537, 11855, 12218]}, "edge": {"target": [], "time": []}}}, "displayed_time": "15.15", "trialTime": 16310, "trial_type": "mouselab-mdp", "trial_index": 43, "time_elapsed": 1694177, "internal_node_id": "0.0-4.0-1.0-34.0"}}, {"uniqueid": "w81274284:a61328299", "current_trial": 44, "dateTime": 1691161113815, "trialdata": {"revealed_states": [], "clicked_states": [], "num_clicks_accrued": [0, 0, 0, 0, 0, 0, 0, 0, 0, 0, 0, 0, 0], "stateRewards": ["", -2, 2, -5, -6, 10, -66, -58, -10, -11, -63, -70, -1, -4, -5, 7, 66, -64, -43, -3, 45, -37, 4, -2, -2, -6, -4, -30, 33, 43, 15, -32, -65, -59], "withholdReward": false, "trial_id": "mdp_trial_36", "block": "test", "trialIndex": 37, "score": -77, "costs": 0, "simulationMode": [null, null, null, null, null], "rewards": [-2, 2, -5, -6, -66], "path": ["0", "0", "1", "2", "3", "4", "6"], "rt": [1490, 201, 677, 543, 41], "actions": ["up", "up", "up", "right", "right"], "actionTimes": [5052, 5764, 6940, 7996, 8547], "queries": {"click": {"state": {"target": [], "time": []}, "edge": {"target": [], "time": []}}, "mouseover": {"state": {"target": [], "time": []}, "edge": {"target": [], "time": []}}, "mouseout": {"state": {"target": ["12", "0", "0"], "time": [2963, 3246, 13480]}, "edge": {"target": [], "time": []}}}, "displayed_time": "17.57", "trialTime": 18655, "trial_type": "mouselab-mdp", "trial_index": 44, "time_elapsed": 1713270, "internal_node_id": "0.0-4.0-1.0-35.0"}}, {"uniqueid": "w81274284:a61328299", "current_trial": 45, "dateTime": 1691161130649, "trialdata": {"revealed_states": [], "clicked_states": [], "num_clicks_accrued": [0, 0, 0, 0, 0, 0, 0, 0, 0, 0, 0, 0, 0], "stateRewards": ["", -1, -4, 8, 8, -68, 47, 24, -7, -61, 49, -69, -1, -1, 8, -7, 42, 1, -45, -11, 10, -63, -6, 1, 4, 6, -16, 79, -37, -58, -12, 81, 18, -53], "withholdReward": false, "trial_id": "mdp_trial_37", "block": "test", "trialIndex": 38, "score": -65, "costs": 0, "simulationMode": [null, null, null, null, null], "rewards": [-1, -4, 8, -7, -61], "path": ["0", "0", "1", "2", "3", "8", "9"], "rt": [372, 291, 625, 19, 466], "actions": ["up", "up", "up", "left", "up"], "actionTimes": [2043, 2843, 3987, 4522, 5506], "queries": {"click": {"state": {"target": [], "time": []}, "edge": {"target": [], "time": []}}, "mouseover": {"state": {"target": [], "time": []}, "edge": {"target": [], "time": []}}, "mouseout": {"state": {"target": ["0", "0", "0", "12"], "time": [1284, 12418, 12499, 12531]}, "edge": {"target": [], "time": []}}}, "displayed_time": "15.68", "trialTime": 16459, "trial_type": "mouselab-mdp", "trial_index": 45, "time_elapsed": 1730105, "internal_node_id": "0.0-4.0-1.0-36.0"}}, {"uniqueid": "w81274284:a61328299", "current_trial": 46, "dateTime": 1691161148240, "trialdata": {"revealed_states": [], "clicked_states": [], "num_clicks_accrued": [0, 0, 0, 0, 0, 0, 0, 0, 0, 0, 0, 0, 0], "stateRewards": ["", 2, -2, -8, 9, -20, 55, -58, 14, 42, 2, 36, 1, -3, -5, 5, -58, 57, 60, 16, 57, 30, -70, -2, 1, 3, 10, 59, 23, 77, -13, -26, 88, -72], "withholdReward": false, "trial_id": "mdp_trial_38", "block": "test", "trialIndex": 39, "score": 35, "costs": 0, "simulationMode": [null, null, null, null, null], "rewards": [-2, 1, 3, 10, 23], "path": ["0", "0", "23", "24", "25", "26", "28"], "rt": [449, 48, 351, 570, 482], "actions": ["left", "left", "left", "up", "right"], "actionTimes": [1468, 2027, 2908, 3996, 4996], "queries": {"click": {"state": {"target": [], "time": []}, "edge": {"target": [], "time": []}}, "mouseover": {"state": {"target": [], "time": []}, "edge": {"target": [], "time": []}}, "mouseout": {"state": {"target": [], "time": []}, "edge": {"target": [], "time": []}}}, "displayed_time": "15.02", "trialTime": 17203, "trial_type": "mouselab-mdp", "trial_index": 46, "time_elapsed": 1747696, "internal_node_id": "0.0-4.0-1.0-37.0"}}, {"uniqueid": "w81274284:a61328299", "current_trial": 47, "dateTime": 1691161165712, "trialdata": {"revealed_states": [], "clicked_states": [], "num_clicks_accrued": [0, 0, 0, 0, 0, 0, 0, 0, 0, 0, 0, 0, 0], "stateRewards": ["", 1, -1, 1, 13, 31, -56, 72, 2, 41, 5, 63, -2, -3, -2, 3, -71, -26, 52, 13, -31, 24, -67, 2, -2, 5, 4, 66, 43, 72, 9, 86, -26, 44], "withholdReward": false, "trial_id": "mdp_trial_39", "block": "test", "trialIndex": 40, "score": -61, "costs": 0, "simulationMode": [null, null, null, null, null], "rewards": [-2, -3, -2, 13, -67], "path": ["0", "0", "12", "13", "14", "19", "22"], "rt": [746, 39, 868, 73, 151], "actions": ["right", "right", "right", "down", "left"], "actionTimes": [3331, 3866, 5243, 5835, 6499], "queries": {"click": {"state": {"target": [], "time": []}, "edge": {"target": [], "time": []}}, "mouseover": {"state": {"target": [], "time": []}, "edge": {"target": [], "time": []}}, "mouseout": {"state": {"target": ["0", "13", "12", "0", "23", "24", "13"], "time": [1518, 1798, 1966, 8553, 12571, 12738, 13170]}, "edge": {"target": [], "time": []}}}, "displayed_time": "16.59", "trialTime": 17051, "trial_type": "mouselab-mdp", "trial_index": 47, "time_elapsed": 1765167, "internal_node_id": "0.0-4.0-1.0-38.0"}}, {"uniqueid": "w81274284:a61328299", "current_trial": 48, "dateTime": 1691161184184, "trialdata": {"revealed_states": [], "clicked_states": [], "num_clicks_accrued": [0, 0, 0, 0, 0, 0, 0, 0, 0, 0, 0, 0, 0], "stateRewards": ["", -2, 4, 3, 5, -61, 4, 30, 1, -47, 83, 10, 1, 4, 7, -14, 19, -74, -83, 6, -2, -2, -65, -1, -2, 4, -11, 12, -1, -68, 11, -38, -28, 66], "withholdReward": false, "trial_id": "mdp_trial_40", "block": "test", "trialIndex": 41, "score": -26, "costs": 0, "simulationMode": [null, null, null, null, null], "rewards": [-1, -2, 4, 11, -38], "path": ["0", "0", "23", "24", "25", "30", "31"], "rt": [589, 225, 30, 37, 73], "actions": ["left", "left", "left", "down", "right"], "actionTimes": [2470, 3207, 3750, 4294, 4879], "queries": {"click": {"state": {"target": [], "time": []}, "edge": {"target": [], "time": []}}, "mouseover": {"state": {"target": ["0", "23"], "time": [2367, 2410]}, "edge": {"target": [], "time": []}}, "mouseout": {"state": {"target": ["0", "0", "0", "23", "23"], "time": [1028, 1609, 2406, 2431, 7583]}, "edge": {"target": [], "time": []}}}, "displayed_time": "15.89", "trialTime": 18031, "trial_type": "mouselab-mdp", "trial_index": 48, "time_elapsed": 1783639, "internal_node_id": "0.0-4.0-1.0-39.0"}}, {"uniqueid": "w81274284:a61328299", "current_trial": 49, "dateTime": 1691161278410, "trialdata": {"rt": 94218, "response": {"Q0": "$-2 to $2", "Q1": "$-16 to $16", "Q2": "$-88 to $88", "Q3": "The cost for clicking on nodes varied between nodes.", "Q4": "Slightly unmotivated"}, "question_order": [0, 1, 2, 3, 4], "trial_id": "final_quiz_control", "trial_type": "survey-multi-choice", "trial_index": 49, "time_elapsed": 1877865, "internal_node_id": "0.0-4.0-2.0"}}, {"uniqueid": "w81274284:a61328299", "current_trial": 50, "dateTime": 1691161456473, "trialdata": {"rt": 178052, "response": {"Q0": "I moved to different nodes at random to see which area gave more positive nodes ", "Q1": "I noticed that the bottom nodes gave more positive nodes ", "Q2": "It was quite difficult because there were a lot of negative nodes "}, "trial_id": "self_report_control", "trial_type": "survey-text", "trial_index": 50, "time_elapsed": 2055929, "internal_node_id": "0.0-4.0-3.0"}}, {"uniqueid": "w81274284:a61328299", "current_trial": 51, "dateTime": 1691161528021, "trialdata": {"rt": 71541, "response": {"Q0": "Strongly disagree", "Q1": "Strongly disagree", "Q2": "Strongly disagree", "Q3": "Neither disagree nor agree", "Q4": "Strongly disagree", "Q5": "Neither disagree nor agree", "Q6": "Neither disagree nor agree"}, "question_order": [0, 1, 2, 3, 4, 5, 6], "trial_id": "self_report_2", "trial_type": "survey-multi-choice", "trial_index": 51, "time_elapsed": 2127477, "internal_node_id": "0.0-4.0-4.0"}}, {"uniqueid": "w81274284:a61328299", "current_trial": 52, "dateTime": 1691161556672, "trialdata": {"rt": 28644, "response": {"gender": "male", "age": "28", "colorblind": "0", "effort": "1"}, "trial_type": "survey-html-form", "trial_index": 52, "time_elapsed": 2156128, "internal_node_id": "0.0-4.0-5.0"}}, {"uniqueid": "w81274284:a61328299", "current_trial": 53, "dateTime": 1691161574378, "trialdata": {"rt": 17698, "response": {"Q0": "No", "Q1": "No", "Q2": ""}, "trial_type": "survey-text", "trial_index": 53, "time_elapsed": 2173833, "internal_node_id": "0.0-4.0-6.0"}}, {"uniqueid": "w81274284:a61328299", "current_trial": 54, "dateTime": 1691161582564, "trialdata": {"rt": 8181, "stimulus": "Press 'Finish HIT' in order to reach the completion code. Once the data has been saved, you will receive the code either in this window or in the original browser window where you started the experiment.\n", "response": 0, "trial_type": "html-button-response", "trial_index": 54, "time_elapsed": 2182020, "internal_node_id": "0.0-5.0"}}, {"uniqueid": "w81274284:a61328299", "current_trial": 55, "dateTime": 1691161583576, "trialdata": {"success": true, "trial_type": "fullscreen", "trial_index": 55, "time_elapsed": 2183031, "internal_node_id": "0.0-6.0"}}], "questiondata": {"params": {"CODE": "C6DMOQA6", "MIN_TIME": 14, "inspectCost": 1, "startTime": "Fri Aug 04 2023 16:29:49 GMT+0200 (South Africa Standard Time)", "bonusRate": 0.002, "variance": "1_2_4_8_44", "branching": "31123"}, "final_score": -192}, "eventdata": [{"eventtype": "initialized", "value": null, "timestamp": 1691159389260, "interval": 0}, {"eventtype": "window_resize", "value": [1600, 827], "timestamp": 1691159389260, "interval": 0}, {"eventtype": "window_resize", "value": [1600, 827], "timestamp": 1691159389783, "interval": 523}, {"eventtype": "focus", "value": "on", "timestamp": 1691159432315, "interval": 42532}, {"eventtype": "window_resize", "value": [1600, 900], "timestamp": 1691159432632, "interval": 317}, {"eventtype": "window_resize", "value": [1600, 827], "timestamp": 1691161582793, "interval": 2150161}], "useragent": "Mozilla/5.0 (Windows NT 10.0; Win64; x64) AppleWebKit/537.36 (KHTML, like Gecko) Chrome/109.0.0.0 Safari/537.36", "mode": "live", "id": "w81274284:a61328299", "status": "user data saved", "Beginhit": "2023-08-04 14:29:29.064911", "Beginexp": "2023-08-04 14:30:28.413538", "Endhit": "2023-08-04 15:06:20.556229", "psiturkStatus": 3, "browser": "<redacted>", "platform": "windows", "language": "en-US"}