{"condition": 1, "counterbalance": 0, "assignmentId": "a38755361", "workerId": "w91898216", "hitId": "h84841502", "currenttrial": 24, "bonus": 0, "data": [{"uniqueid": "w91898216:a38755361", "current_trial": 0, "dateTime": 1693564904170, "trialdata": {"success": true, "trial_type": "fullscreen", "trial_index": 0, "time_elapsed": 9069, "internal_node_id": "0.0-0.0"}}, {"uniqueid": "w91898216:a38755361", "current_trial": 1, "dateTime": 1693564931414, "trialdata": {"view_history": [{"page_index": 0, "viewing_time": 27227}], "rt": 27227, "trial_id": "exp_instructions_misaligned", "trial_type": "instructions", "trial_index": 1, "time_elapsed": 36313, "internal_node_id": "0.0-1.0"}}, {"uniqueid": "w91898216:a38755361", "current_trial": 2, "dateTime": 1693565323263, "trialdata": {"view_history": [{"page_index": 0, "viewing_time": 108444}, {"page_index": 1, "viewing_time": 149860}, {"page_index": 0, "viewing_time": 10643}, {"page_index": 1, "viewing_time": 29683}, {"page_index": 2, "viewing_time": 37017}, {"page_index": 3, "viewing_time": 56193}], "rt": 391842, "trial_id": "mouselab_instructions_1_misaligned", "trial_type": "instructions", "trial_index": 2, "time_elapsed": 428161, "internal_node_id": "0.0-2.0-1.0"}}, {"uniqueid": "w91898216:a38755361", "current_trial": 3, "dateTime": 1693565348492, "trialdata": {"revealed_states": [], "clicked_states": [], "num_clicks_accrued": [0, 0, 0, 0, 0, 0, 0, 0, 0, 0, 0, 0, 0], "stateRewards": ["", -10, 10, 10, 10, -10, 10, 10, 10, 10, -10, 10, -10, -10, -10, 10, -10, 10, -10, -10, 10, 10, 10, 10, -10, -10, 10, 10, 10, 10, -10, -10, -10, -10], "withholdReward": false, "trial_id": "practice_1", "block": "test", "trialIndex": 0, "score": 13.5, "costs": 0, "simulationMode": [null, null, null, null, null], "rewards": [10, -10, -10, 10, 10], "path": ["0", "0", "23", "24", "25", "26", "27"], "rt": [1143, 519, 94, 704, 306], "actions": ["left", "left", "left", "up", "up"], "actionTimes": [10314, 11340, 11948, 13181, 14012], "queries": {"click": {"state": {"target": [], "time": []}, "edge": {"target": [], "time": []}}, "mouseover": {"state": {"target": [], "time": []}, "edge": {"target": [], "time": []}}, "mouseout": {"state": {"target": ["0", "0", "22", "19"], "time": [5487, 18091, 18174, 18209]}, "edge": {"target": [], "time": []}}}, "displayed_time": "14.54", "trialTime": 23251, "trial_type": "mouselab-mdp", "trial_index": 3, "time_elapsed": 453388, "internal_node_id": "0.0-2.0-2.0-0.0"}}, {"uniqueid": "w91898216:a38755361", "current_trial": 4, "dateTime": 1693565366296, "trialdata": {"revealed_states": [], "clicked_states": [], "num_clicks_accrued": [0, 0, 0, 0, 0, 0, 0, 0, 0, 0, 0, 0, 0], "stateRewards": ["", 10, 10, 10, -10, -10, 10, -10, 10, -10, 10, 10, 10, 10, -10, 10, 10, 10, 10, 10, 10, 10, 10, -10, -10, -10, 10, 10, 10, -10, -10, 10, -10, -10], "withholdReward": false, "trial_id": "practice_2", "block": "test", "trialIndex": 1, "score": 13.5, "costs": 0, "simulationMode": [null, null, null, null, null], "rewards": [10, 10, 10, -10, -10], "path": ["0", "0", "1", "2", "3", "4", "5"], "rt": [871, 386, 370, 144, 179], "actions": ["up", "up", "up", "right", "up"], "actionTimes": [6887, 7836, 8721, 9396, 10133], "queries": {"click": {"state": {"target": [], "time": []}, "edge": {"target": [], "time": []}}, "mouseover": {"state": {"target": [], "time": []}, "edge": {"target": [], "time": []}}, "mouseout": {"state": {"target": ["0", "23", "0", "0", "22"], "time": [2663, 3045, 3080, 12916, 12966]}, "edge": {"target": [], "time": []}}}, "displayed_time": "10.65", "trialTime": 16685, "trial_type": "mouselab-mdp", "trial_index": 4, "time_elapsed": 471193, "internal_node_id": "0.0-2.0-2.0-1.0"}}, {"uniqueid": "w91898216:a38755361", "current_trial": 5, "dateTime": 1693565488656, "trialdata": {"view_history": [{"page_index": 0, "viewing_time": 104923}, {"page_index": 1, "viewing_time": 17425}], "rt": 122349, "trial_id": "mouselab_instructions_2_misaligned", "trial_type": "instructions", "trial_index": 5, "time_elapsed": 593555, "internal_node_id": "0.0-2.0-3.0"}}, {"uniqueid": "w91898216:a38755361", "current_trial": 6, "dateTime": 1693565582853, "trialdata": {"rt": 94131, "response": {"Q0": "The cost for clicking on nodes may vary between nodes.", "Q1": "The better I perform the higher my bonus will be.", "Q2": "No, the amount of cash at each node of the web may be different each time.", "Q3": "To get the highest total score.", "Q4": "Only before moving the spider.", "Q5": "3 seconds"}, "question_order": [0, 1, 2, 3, 4, 5], "correct": {"Q0": "The cost for clicking on nodes may vary between nodes.", "Q1": "The better I perform the higher my bonus will be.", "Q2": "No, the amount of cash at each node of the web may be different each time.", "Q3": "To get the highest total score.", "Q4": "Only before moving the spider.", "Q5": "3 seconds"}, "trial_id": "mouselab_quiz_misaligned", "trial_type": "survey-multi-choice", "trial_index": 6, "time_elapsed": 687751, "internal_node_id": "0.0-2.0-4.0"}}, {"uniqueid": "w91898216:a38755361", "current_trial": 7, "dateTime": 1693565594813, "trialdata": {"rt": 11942, "response": {"Q0": "No"}, "question_order": [0], "trial_id": "repeat_check", "trial_type": "survey-multi-choice", "trial_index": 7, "time_elapsed": 699711, "internal_node_id": "0.0-4.0-0.0"}}, {"uniqueid": "w91898216:a38755361", "current_trial": 8, "dateTime": 1693565621909, "trialdata": {"rt": 27080, "stimulus": "\n<h1> Get ready to start the game! </h1>\n\nThank you for reading the instructions. Get ready start with the 40 rounds of this game.\n<br><br>\nIf you need to take a break, feel free to take one after the end of a round, before continuing to the next one.\n<br><br>\nRemember, the more money the spider gets, the bigger your bonus will be!\n<br><br>\n<div style='text-align: center;'>Press <code>space</code> to begin.</div>\n\n<br><br>\n(If, at any point, the <code>space</code> key does not take you to the next page, click once on the text and try again.)", "response": " ", "trial_id": "mdp_ready", "trial_type": "html-keyboard-response", "trial_index": 8, "time_elapsed": 726808, "internal_node_id": "0.0-6.0-0.0"}}, {"uniqueid": "w91898216:a38755361", "current_trial": 9, "dateTime": 1693565654170, "trialdata": {"revealed_states": [], "clicked_states": [], "num_clicks_accrued": [0, 0, 0, 0, 0, 0, 0, 0, 0, 0, 0, 0, 0], "stateRewards": ["", 1, -2, 7, -14, 88, -56, -44, -14, 64, -51, -57, -2, 3, -4, -9, -11, 19, -77, -1, 68, 75, -67, -1, 1, -2, 5, -37, 70, -34, -10, -72, 63, -41], "withholdReward": false, "trial_id": "mdp_trial_1", "block": "test", "trialIndex": 2, "score": -34, "costs": 0, "simulationMode": [null, null, null, null, null], "rewards": [-1, 1, -2, 5, -37], "path": ["0", "0", "23", "24", "25", "26", "27"], "rt": [1598, 348, 135, 415, 349], "actions": ["left", "left", "left", "up", "up"], "actionTimes": [7832, 8706, 9378, 10309, 11202], "queries": {"click": {"state": {"target": [], "time": []}, "edge": {"target": [], "time": []}}, "mouseover": {"state": {"target": [], "time": []}, "edge": {"target": [], "time": []}}, "mouseout": {"state": {"target": ["31", "23", "0"], "time": [232, 2148, 26951]}, "edge": {"target": [], "time": []}}}, "displayed_time": "20.23", "trialTime": 31092, "trial_type": "mouselab-mdp", "trial_index": 9, "time_elapsed": 759068, "internal_node_id": "0.0-6.0-1.0-0.0"}}, {"uniqueid": "w91898216:a38755361", "current_trial": 10, "dateTime": 1693565677381, "trialdata": {"revealed_states": [], "clicked_states": [], "num_clicks_accrued": [0, 0, 0, 0, 0, 0, 0, 0, 0, 0, 0, 0, 0], "stateRewards": ["", 1, 1, -7, -9, -44, 24, -83, -15, 44, -24, 72, -2, -3, 4, -5, 57, 55, 29, -11, 22, 12, -25, -1, 2, 7, 12, 33, -8, 47, -4, 8, 50, -4], "withholdReward": false, "trial_id": "mdp_trial_2", "block": "test", "trialIndex": 3, "score": 10, "costs": 0, "simulationMode": [null, null, null, null, null], "rewards": [1, 1, -7, -9, 24], "path": ["0", "0", "1", "2", "3", "4", "6"], "rt": [5383, 216, 354, 1316, 560], "actions": ["up", "up", "up", "right", "right"], "actionTimes": [9707, 10452, 11323, 13160, 14258], "queries": {"click": {"state": {"target": [], "time": []}, "edge": {"target": [], "time": []}}, "mouseover": {"state": {"target": [], "time": []}, "edge": {"target": [], "time": []}}, "mouseout": {"state": {"target": ["20", "19", "13"], "time": [2167, 2187, 2250]}, "edge": {"target": [], "time": []}}}, "displayed_time": "18.33", "trialTime": 22073, "trial_type": "mouselab-mdp", "trial_index": 10, "time_elapsed": 782279, "internal_node_id": "0.0-6.0-1.0-1.0"}}, {"uniqueid": "w91898216:a38755361", "current_trial": 11, "dateTime": 1693565702790, "trialdata": {"revealed_states": [], "clicked_states": [], "num_clicks_accrued": [0, 0, 0, 0, 0, 0, 0, 0, 0, 0, 0, 0, 0], "stateRewards": ["", 1, -3, -4, -11, -56, 61, -47, -16, -28, -9, 69, -2, -3, -4, -8, 40, -86, 59, -4, 80, 27, 54, -1, 3, -1, 8, 67, 23, 50, 6, 83, -43, -29], "withholdReward": false, "trial_id": "mdp_trial_3", "block": "test", "trialIndex": 4, "score": -103, "costs": 0, "simulationMode": [null, null, null, null, null], "rewards": [-2, -3, -4, -8, -86], "path": ["0", "0", "12", "13", "14", "15", "17"], "rt": [4536, 529, 380, 411, 9], "actions": ["right", "right", "right", "up", "right"], "actionTimes": [9714, 10813, 11726, 12665, 13201], "queries": {"click": {"state": {"target": [], "time": []}, "edge": {"target": [], "time": []}}, "mouseover": {"state": {"target": [], "time": []}, "edge": {"target": [], "time": []}}, "mouseout": {"state": {"target": ["0"], "time": [3029]}, "edge": {"target": [], "time": []}}}, "displayed_time": "19.18", "trialTime": 24199, "trial_type": "mouselab-mdp", "trial_index": 11, "time_elapsed": 807688, "internal_node_id": "0.0-6.0-1.0-2.0"}}, {"uniqueid": "w91898216:a38755361", "current_trial": 12, "dateTime": 1693565725961, "trialdata": {"revealed_states": [], "clicked_states": [], "num_clicks_accrued": [0, 0, 0, 0, 0, 0, 0, 0, 0, 0, 0, 0, 0], "stateRewards": ["", 2, 3, -3, 4, 72, -28, 34, -12, 57, -64, -15, 2, 1, -4, -15, 2, 49, 31, -1, -42, -58, 31, -2, 1, -2, -13, -75, -19, -22, -6, 61, 10, -56], "withholdReward": false, "trial_id": "mdp_trial_4", "block": "test", "trialIndex": 5, "score": -38, "costs": 0, "simulationMode": [null, null, null, null, null], "rewards": [-2, 1, -2, -13, -22], "path": ["0", "0", "23", "24", "25", "26", "29"], "rt": [6134, 555, 772, 442, 287], "actions": ["left", "left", "left", "up", "left"], "actionTimes": [8530, 9608, 10895, 11870, 12688], "queries": {"click": {"state": {"target": [], "time": []}, "edge": {"target": [], "time": []}}, "mouseover": {"state": {"target": [], "time": []}, "edge": {"target": [], "time": []}}, "mouseout": {"state": {"target": ["0"], "time": [1469]}, "edge": {"target": [], "time": []}}}, "displayed_time": "16.40", "trialTime": 21895, "trial_type": "mouselab-mdp", "trial_index": 12, "time_elapsed": 830859, "internal_node_id": "0.0-6.0-1.0-3.0"}}, {"uniqueid": "w91898216:a38755361", "current_trial": 13, "dateTime": 1693565750774, "trialdata": {"revealed_states": [], "clicked_states": [], "num_clicks_accrued": [0, 0, 0, 0, 0, 0, 0, 0, 0, 0, 0, 0, 0], "stateRewards": ["", -1, 4, -5, 9, 29, -75, -42, -16, 24, -28, -41, 2, -3, 1, 10, 60, 47, 55, -1, -53, 22, -40, 2, -3, -6, 4, -26, 44, 54, 15, -76, 42, 14], "withholdReward": false, "trial_id": "mdp_trial_5", "block": "test", "trialIndex": 6, "score": -59, "costs": 0, "simulationMode": [null, null, null, null, null], "rewards": [-1, 4, -5, -16, -41], "path": ["0", "0", "1", "2", "3", "8", "11"], "rt": [2525, 211, 269, 907, 202], "actions": ["up", "up", "up", "left", "left"], "actionTimes": [7361, 8094, 8905, 10350, 11108], "queries": {"click": {"state": {"target": [], "time": []}, "edge": {"target": [], "time": []}}, "mouseover": {"state": {"target": [], "time": []}, "edge": {"target": [], "time": []}}, "mouseout": {"state": {"target": ["0"], "time": [3939]}, "edge": {"target": [], "time": []}}}, "displayed_time": "18.84", "trialTime": 23197, "trial_type": "mouselab-mdp", "trial_index": 13, "time_elapsed": 855672, "internal_node_id": "0.0-6.0-1.0-4.0"}}, {"uniqueid": "w91898216:a38755361", "current_trial": 14, "dateTime": 1693565794941, "trialdata": {"revealed_states": [], "clicked_states": [], "num_clicks_accrued": [0, 0, 0, 0, 0, 0, 0, 0, 0, 0, 0, 0, 0], "stateRewards": ["", -1, 2, -6, 6, -82, -19, -39, -16, -83, 11, -33, -2, -2, 4, -6, -82, -1, -19, -6, -10, -67, -41, -2, 1, -7, 16, -23, -78, -52, 14, 31, -71, 74], "withholdReward": false, "trial_id": "mdp_trial_6", "block": "test", "trialIndex": 7, "score": -81, "costs": 0, "simulationMode": [null, null, null, null, null], "rewards": [-1, 2, -6, 6, -82], "path": ["0", "0", "1", "2", "3", "4", "5"], "rt": [9875, 333, 878, 1600, 1101], "actions": ["up", "up", "up", "right", "up"], "actionTimes": [27189, 28047, 29447, 31568, 33218], "queries": {"click": {"state": {"target": [], "time": []}, "edge": {"target": [], "time": []}}, "mouseover": {"state": {"target": [], "time": []}, "edge": {"target": [], "time": []}}, "mouseout": {"state": {"target": ["0", "0", "0"], "time": [3398, 7638, 14754]}, "edge": {"target": [], "time": []}}}, "displayed_time": "33.75", "trialTime": 42476, "trial_type": "mouselab-mdp", "trial_index": 14, "time_elapsed": 899839, "internal_node_id": "0.0-6.0-1.0-5.0"}}, {"uniqueid": "w91898216:a38755361", "current_trial": 15, "dateTime": 1693565844360, "trialdata": {"revealed_states": [], "clicked_states": ["12", "13", "14", "15", "16", "19", "24", "25", "26", "29"], "num_clicks_accrued": [0, 0, 0, 0, 0, 0, 0, 0, 0, 0, 0, 0, 0], "stateRewards": ["", -1, 2, -6, 6, 43, 78, 78, -2, 55, -29, -17, -2, -4, 1, -15, 13, 7, -79, 8, -28, -68, 36, -1, -3, 3, -16, 84, -18, 87, 10, 32, 13, -81], "withholdReward": false, "trial_id": "mdp_trial_7", "block": "test", "trialIndex": 8, "score": -35.3, "costs": -11.3, "simulationMode": [null, null, null, null, null], "rewards": [-1, 2, -6, -2, -17], "path": ["0", "0", "1", "2", "3", "8", "11"], "rt": [26809, 128, 211, 648, 332], "actions": ["up", "up", "up", "left", "left"], "actionTimes": [36532, 37187, 37933, 39094, 39961], "queries": {"click": {"state": {"target": ["12", "13", "14", "15", "16", "19", "24", "25", "26", "29"], "time": [12776, 14007, 14894, 16450, 17656, 22368, 25101, 26180, 28630, 31341]}, "edge": {"target": [], "time": []}}, "mouseover": {"state": {"target": ["12", "13", "14", "15", "16", "17", "15", "13", "19", "13", "12", "23", "24", "25", "26", "27", "29", "25", "30", "32", "24", "8"], "time": [12146, 13660, 14584, 16097, 17361, 18495, 21030, 21313, 21896, 23294, 23373, 24596, 24713, 25795, 26904, 29513, 30796, 32367, 32559, 33008, 34248, 34330]}, "edge": {"target": [], "time": []}}, "mouseout": {"state": {"target": ["0", "0", "12", "13", "14", "15", "16", "17", "15", "13", "19", "13", "12", "23", "24", "25", "26", "27", "29", "25", "30", "32", "24", "8", "6", "15"], "time": [1711, 12038, 13620, 14545, 15606, 17111, 18243, 20963, 21096, 21413, 23128, 23333, 23447, 24662, 25723, 26756, 29362, 30679, 32112, 32461, 32859, 34198, 34280, 34358, 46345, 46396]}, "edge": {"target": [], "time": []}}}, "displayed_time": "40.49", "trialTime": 47703, "trial_type": "mouselab-mdp", "trial_index": 15, "time_elapsed": 949258, "internal_node_id": "0.0-6.0-1.0-6.0"}}, {"uniqueid": "w91898216:a38755361", "current_trial": 16, "dateTime": 1693565869095, "trialdata": {"revealed_states": [], "clicked_states": ["12", "13"], "num_clicks_accrued": [0, 0, 0, 0, 0, 0, 0, 0, 0, 0, 0, 0, 0], "stateRewards": ["", -2, -3, 1, -14, 48, -49, 67, -1, -35, -48, 3, -2, 1, -4, -5, 86, -84, 39, 1, 48, 41, -42, -1, -4, 2, -7, 18, -86, 17, 7, -9, 57, -69], "withholdReward": false, "trial_id": "mdp_trial_8", "block": "test", "trialIndex": 9, "score": 36.9, "costs": -0.09999999999999998, "simulationMode": [null, null, null, null, null], "rewards": [-2, 1, -4, 1, 41], "path": ["0", "0", "12", "13", "14", "19", "21"], "rt": [5791, 174, 603, 716, 628], "actions": ["right", "right", "right", "down", "down"], "actionTimes": [10007, 10704, 11937, 13169, 14320], "queries": {"click": {"state": {"target": ["12", "13"], "time": [7025, 8182]}, "edge": {"target": [], "time": []}}, "mouseover": {"state": {"target": ["12", "13"], "time": [6674, 7617]}, "edge": {"target": [], "time": []}}, "mouseout": {"state": {"target": ["18", "12", "13"], "time": [1924, 7571, 8414]}, "edge": {"target": [], "time": []}}}, "displayed_time": "18.22", "trialTime": 23151, "trial_type": "mouselab-mdp", "trial_index": 16, "time_elapsed": 973993, "internal_node_id": "0.0-6.0-1.0-7.0"}}, {"uniqueid": "w91898216:a38755361", "current_trial": 17, "dateTime": 1693565889817, "trialdata": {"revealed_states": [], "clicked_states": ["12", "13", "14", "15"], "num_clicks_accrued": [0, 0, 0, 0, 0, 0, 0, 0, 0, 0, 0, 0, 0], "stateRewards": ["", 2, 4, -3, 16, -58, 30, -35, 11, -60, 47, 27, -2, -1, -7, -16, 23, -70, 68, -10, -65, -43, -34, -2, 1, 7, 9, -63, 34, -31, -8, -12, -86, 59], "withholdReward": false, "trial_id": "mdp_trial_9", "block": "test", "trialIndex": 10, "score": -90.6, "costs": -2.5999999999999996, "simulationMode": [null, null, null, null, null], "rewards": [-2, 1, 7, -8, -86], "path": ["0", "0", "23", "24", "25", "30", "32"], "rt": [8563, 419, 341, 433, 605], "actions": ["left", "left", "left", "down", "down"], "actionTimes": [11716, 12664, 13519, 14474, 15616], "queries": {"click": {"state": {"target": ["12", "13", "14", "15"], "time": [5086, 6337, 7165, 8011]}, "edge": {"target": [], "time": []}}, "mouseover": {"state": {"target": ["12", "13", "14", "15", "16"], "time": [4548, 5887, 6834, 7568, 8646]}, "edge": {"target": [], "time": []}}, "mouseout": {"state": {"target": ["13", "12", "13", "14", "15"], "time": [1195, 5675, 6563, 7466, 8554]}, "edge": {"target": [], "time": []}}}, "displayed_time": "17.16", "trialTime": 19131, "trial_type": "mouselab-mdp", "trial_index": 17, "time_elapsed": 994715, "internal_node_id": "0.0-6.0-1.0-8.0"}}, {"uniqueid": "w91898216:a38755361", "current_trial": 18, "dateTime": 1693565915961, "trialdata": {"revealed_states": [], "clicked_states": [], "num_clicks_accrued": [0, 0, 0, 0, 0, 0, 0, 0, 0, 0, 0, 0, 0], "stateRewards": ["", -1, -3, -6, 14, 41, 18, 63, -14, 80, 21, 17, -2, -4, -2, -5, 13, 70, 8, -4, -64, -10, -20, 2, -1, 4, -1, -17, -55, 42, -7, 47, 54, 15], "withholdReward": false, "trial_id": "mdp_trial_10", "block": "test", "trialIndex": 11, "score": 67, "costs": 0, "simulationMode": [null, null, null, null, null], "rewards": [-1, -3, -6, 14, 63], "path": ["0", "0", "1", "2", "3", "4", "7"], "rt": [2166, 567, 476, 1589, 617], "actions": ["up", "up", "up", "right", "down"], "actionTimes": [5226, 6314, 7328, 9440, 10600], "queries": {"click": {"state": {"target": [], "time": []}, "edge": {"target": [], "time": []}}, "mouseover": {"state": {"target": ["0"], "time": [3385]}, "edge": {"target": [], "time": []}}, "mouseout": {"state": {"target": ["16", "18", "12", "0"], "time": [1017, 1101, 1300, 18931]}, "edge": {"target": [], "time": []}}}, "displayed_time": "17.06", "trialTime": 24381, "trial_type": "mouselab-mdp", "trial_index": 18, "time_elapsed": 1020859, "internal_node_id": "0.0-6.0-1.0-9.0"}}, {"uniqueid": "w91898216:a38755361", "current_trial": 19, "dateTime": 1693565943774, "trialdata": {"revealed_states": [], "clicked_states": ["23"], "num_clicks_accrued": [0, 0, 0, 0, 0, 0, 0, 0, 0, 0, 0, 0, 0], "stateRewards": ["", -2, -1, -4, -15, -14, -67, 32, -3, -59, 63, 31, 2, -1, -7, -15, 71, -66, -27, -3, -54, -39, 72, 2, 1, 1, -13, 77, -40, 35, -9, 35, 75, 57], "withholdReward": false, "trial_id": "mdp_trial_11", "block": "test", "trialIndex": 12, "score": -48.75, "costs": 0.25, "simulationMode": [null, null, null, null, null], "rewards": [2, 1, 1, -13, -40], "path": ["0", "0", "23", "24", "25", "26", "28"], "rt": [3488, 315, 462, 268, 649], "actions": ["left", "left", "left", "up", "right"], "actionTimes": [7751, 8676, 9651, 10481, 11702], "queries": {"click": {"state": {"target": ["23"], "time": [6692]}, "edge": {"target": [], "time": []}}, "mouseover": {"state": {"target": ["23", "23"], "time": [5842, 6193]}, "edge": {"target": [], "time": []}}, "mouseout": {"state": {"target": ["32", "30", "31", "23", "23"], "time": [2057, 2140, 2274, 2490, 6026]}, "edge": {"target": [], "time": []}}}, "displayed_time": "18.27", "trialTime": 26135, "trial_type": "mouselab-mdp", "trial_index": 19, "time_elapsed": 1048672, "internal_node_id": "0.0-6.0-1.0-10.0"}}, {"uniqueid": "w91898216:a38755361", "current_trial": 20, "dateTime": 1693565968576, "trialdata": {"revealed_states": [], "clicked_states": ["23", "24", "28"], "num_clicks_accrued": [0, 0, 0, 0, 0, 0, 0, 0, 0, 0, 0, 0, 0], "stateRewards": ["", 1, -1, 4, -2, -75, -75, 84, -9, -60, -79, 59, 2, -4, 8, 9, -17, -82, 80, 14, -4, 49, 49, -1, 3, 6, -11, -33, 34, 55, 9, -57, 5, 59], "withholdReward": false, "trial_id": "mdp_trial_12", "block": "test", "trialIndex": 13, "score": 49.75, "costs": -2.25, "simulationMode": [null, null, null, null, null], "rewards": [-1, 3, 6, -11, 55], "path": ["0", "0", "23", "24", "25", "26", "29"], "rt": [8299, 450, 342, 202, 159], "actions": ["left", "left", "left", "up", "left"], "actionTimes": [11700, 12719, 13614, 14376, 15069], "queries": {"click": {"state": {"target": ["23", "24", "28"], "time": [5662, 6880, 8491]}, "edge": {"target": [], "time": []}}, "mouseover": {"state": {"target": ["23", "24", "28", "27"], "time": [5157, 6326, 8029, 9204]}, "edge": {"target": [], "time": []}}, "mouseout": {"state": {"target": ["23", "23", "24", "28"], "time": [1373, 6155, 7338, 9152]}, "edge": {"target": [], "time": []}}}, "displayed_time": "17.40", "trialTime": 23070, "trial_type": "mouselab-mdp", "trial_index": 20, "time_elapsed": 1073474, "internal_node_id": "0.0-6.0-1.0-11.0"}}, {"uniqueid": "w91898216:a38755361", "current_trial": 21, "dateTime": 1693565996154, "trialdata": {"revealed_states": [], "clicked_states": ["1", "2"], "num_clicks_accrued": [0, 0, 0, 0, 0, 0, 0, 0, 0, 0, 0, 0, 0], "stateRewards": ["", 2, -3, 5, 11, -79, 54, 11, -9, -78, 33, 22, -2, -1, 2, 14, 43, 34, 1, 10, 49, -65, 39, -1, 1, -1, 3, -16, -2, 11, 2, 12, 48, -65], "withholdReward": false, "trial_id": "mdp_trial_13", "block": "test", "trialIndex": 14, "score": 16.9, "costs": -0.09999999999999998, "simulationMode": [null, null, null, null, null], "rewards": [2, -3, 5, -9, 22], "path": ["0", "0", "1", "2", "3", "8", "11"], "rt": [4234, 587, 373, 453, 552], "actions": ["up", "up", "up", "left", "left"], "actionTimes": [12528, 13668, 14580, 15554, 16635], "queries": {"click": {"state": {"target": ["1", "2"], "time": [10914, 12020]}, "edge": {"target": [], "time": []}}, "mouseover": {"state": {"target": ["1", "2"], "time": [10381, 11531]}, "edge": {"target": [], "time": []}}, "mouseout": {"state": {"target": ["27", "24", "0", "1", "2"], "time": [1031, 1080, 9843, 11401, 12234]}, "edge": {"target": [], "time": []}}}, "displayed_time": "22.30", "trialTime": 25807, "trial_type": "mouselab-mdp", "trial_index": 21, "time_elapsed": 1101052, "internal_node_id": "0.0-6.0-1.0-12.0"}}, {"uniqueid": "w91898216:a38755361", "current_trial": 22, "dateTime": 1693566018586, "trialdata": {"revealed_states": [], "clicked_states": ["13", "12", "21"], "num_clicks_accrued": [0, 0, 0, 0, 0, 0, 0, 0, 0, 0, 0, 0, 0], "stateRewards": ["", -1, 2, 7, 8, 75, 67, -11, 6, 52, -17, 38, -1, 4, -8, 14, 74, -37, -17, -12, 52, 55, 71, -2, -1, -5, 2, 21, 6, -88, -14, 64, -61, -47], "withholdReward": false, "trial_id": "mdp_trial_14", "block": "test", "trialIndex": 15, "score": -30.25, "costs": -2.25, "simulationMode": [null, null, null, null, null, null], "rewards": [-1, 4, -8, 14, -37], "path": ["0", "0", "12", "13", "14", "15", "17"], "rt": [7012, 2592, 172, 348, 382, 257], "actions": ["up", "right", "right", "right", "up", "right"], "actionTimes": [10339, 12941, 13663, 14535, 15442, 16232], "queries": {"click": {"state": {"target": ["13", "12", "21"], "time": [5709, 6817, 9319]}, "edge": {"target": [], "time": []}}, "mouseover": {"state": {"target": ["0", "12", "13", "12", "14", "19", "21"], "time": [3360, 4962, 5213, 6325, 7997, 8308, 8813]}, "edge": {"target": [], "time": []}}, "mouseout": {"state": {"target": ["2", "1", "0", "12", "13", "12", "13", "14", "19", "21"], "time": [1312, 1477, 4929, 5046, 6287, 7695, 7792, 8280, 8338, 11400]}, "edge": {"target": [], "time": []}}}, "displayed_time": "17.33", "trialTime": 20605, "trial_type": "mouselab-mdp", "trial_index": 22, "time_elapsed": 1123485, "internal_node_id": "0.0-6.0-1.0-13.0"}}, {"uniqueid": "w91898216:a38755361", "current_trial": 23, "dateTime": 1693566048065, "trialdata": {"revealed_states": [], "clicked_states": ["23", "25", "27", "8", "2"], "num_clicks_accrued": [0, 0, 0, 0, 0, 0, 0, 0, 0, 0, 0, 0, 0], "stateRewards": ["", -1, 3, 8, 9, -53, 20, -84, 2, -28, -62, -31, -1, -2, -7, 2, 51, 58, 45, -4, -17, -41, 36, 2, -2, -7, -15, 29, -54, -37, -16, -43, 65, -17], "withholdReward": false, "trial_id": "mdp_trial_15", "block": "test", "trialIndex": 16, "score": -38.75, "costs": -4.749999999999999, "simulationMode": [null, null, null, null, null], "rewards": [-1, 3, 8, 9, -53], "path": ["0", "0", "1", "2", "3", "4", "5"], "rt": [13898, 652, 512, 1056, 854], "actions": ["up", "up", "up", "right", "up"], "actionTimes": [17654, 18833, 19966, 21562, 22956], "queries": {"click": {"state": {"target": ["23", "25", "27", "8", "2"], "time": [5462, 6508, 7768, 11645, 13530]}, "edge": {"target": [], "time": []}}, "mouseover": {"state": {"target": ["23", "23", "24", "25", "26", "27", "11", "9", "8", "2", "4", "6", "7", "1", "0"], "time": [4616, 5021, 5982, 6092, 6981, 7122, 8314, 9013, 11154, 12971, 14203, 14471, 16165, 16270, 16422]}, "edge": {"target": [], "time": []}}, "mouseout": {"state": {"target": ["0", "23", "23", "24", "25", "26", "27", "11", "9", "8", "2", "4", "6", "7", "1", "0"], "time": [2087, 4688, 5682, 6051, 6937, 7036, 8240, 8385, 11021, 12458, 13800, 14277, 16137, 16203, 16298, 16537]}, "edge": {"target": [], "time": []}}}, "displayed_time": "23.47", "trialTime": 27627, "trial_type": "mouselab-mdp", "trial_index": 23, "time_elapsed": 1152964, "internal_node_id": "0.0-6.0-1.0-14.0"}}], "questiondata": {"params": {"CODE": "C6DMOQA6", "MIN_TIME": 14, "inspectCost": 1, "startTime": "Fri Sep 01 2023 12:41:30 GMT+0200 (South Africa Standard Time)", "bonusRate": 0.002, "variance": "1_2_4_8_44", "branching": "31123"}}, "eventdata": [{"eventtype": "initialized", "value": null, "timestamp": 1693564890279, "interval": 0}, {"eventtype": "window_resize", "value": [1024, 698], "timestamp": 1693564890280, "interval": 1}, {"eventtype": "window_resize", "value": [1024, 698], "timestamp": 1693564890845, "interval": 565}, {"eventtype": "window_resize", "value": [1366, 768], "timestamp": 1693564903537, "interval": 12692}, {"eventtype": "focus", "value": "off", "timestamp": 1693565001045, "interval": 97508}, {"eventtype": "window_resize", "value": [1366, 767], "timestamp": 1693565001258, "interval": 213}, {"eventtype": "focus", "value": "on", "timestamp": 1693565004872, "interval": 3614}, {"eventtype": "window_resize", "value": [1366, 768], "timestamp": 1693565005096, "interval": 224}], "useragent": "Mozilla/5.0 (Windows NT 10.0; Win64; x64) AppleWebKit/537.36 (KHTML, like Gecko) Chrome/111.0.0.0 Safari/537.36 Edg/111.0.1661.62", "mode": "live", "id": "w91898216:a38755361", "status": "user data saved", "Beginhit": "2023-09-01 10:41:24.613141", "Beginexp": "2023-09-01 10:41:45.629758", "Endhit": null, "psiturkStatus": 2, "browser": "<redacted>", "platform": "windows", "language": "en-US", "excludeReason": "dataincomplete"}