{"condition": 1, "counterbalance": 0, "assignmentId": "a27645497", "workerId": "w14522309", "hitId": "h71643817", "currenttrial": 68, "bonus": 0, "data": [{"uniqueid": "w14522309:a27645497", "current_trial": 0, "dateTime": 1691070793286, "trialdata": {"success": true, "trial_type": "fullscreen", "trial_index": 0, "time_elapsed": 7584, "internal_node_id": "0.0-0.0"}}, {"uniqueid": "w14522309:a27645497", "current_trial": 1, "dateTime": 1691070811038, "trialdata": {"view_history": [{"page_index": 0, "viewing_time": 17749}], "rt": 17749, "trial_id": "exp_instructions_misaligned", "trial_type": "instructions", "trial_index": 1, "time_elapsed": 25335, "internal_node_id": "0.0-1.0"}}, {"uniqueid": "w14522309:a27645497", "current_trial": 2, "dateTime": 1691070816244, "trialdata": {"success": true, "trial_type": "fullscreen", "trial_index": 2, "time_elapsed": 30542, "internal_node_id": "0.0-2.0-0.0"}}, {"uniqueid": "w14522309:a27645497", "current_trial": 3, "dateTime": 1691071114234, "trialdata": {"view_history": [{"page_index": 0, "viewing_time": 108925}, {"page_index": 1, "viewing_time": 98460}, {"page_index": 2, "viewing_time": 19833}, {"page_index": 3, "viewing_time": 70770}], "rt": 297988, "trial_id": "mouselab_instructions_1_misaligned", "trial_type": "instructions", "trial_index": 3, "time_elapsed": 328532, "internal_node_id": "0.0-2.0-1.0"}}, {"uniqueid": "w14522309:a27645497", "current_trial": 4, "dateTime": 1691071144210, "trialdata": {"revealed_states": [], "clicked_states": ["7", "11"], "num_clicks_accrued": [0, 0, 0, 0, 0, 0, 0, 0, 0, 0, 0, 0, 0], "stateRewards": ["", -10, -10, -10, -10, 10, -10, -10, -10, 10, 10, -10, 10, 10, -10, 10, -10, 10, 10, -10, -10, 10, 10, -10, 10, -10, 10, 10, -10, -10, -10, -10, -10, 10], "withholdReward": false, "trial_id": "practice_1", "block": "test", "trialIndex": 0, "score": -27.5, "costs": -1, "simulationMode": [null, null, null, null, null], "rewards": [-10, -10, -10, -10, 10], "path": ["0", "0", "1", "2", "3", "8", "9"], "rt": [12386, 506, 618, 763, 965], "actions": ["up", "up", "up", "left", "up"], "actionTimes": [15937, 16935, 18049, 19312, 20782], "queries": {"click": {"state": {"target": ["7", "11"], "time": [6511, 9519]}, "edge": {"target": [], "time": []}}, "mouseover": {"state": {"target": ["7", "8", "11", "13", "12", "0", "1"], "time": [6093, 7545, 7762, 12003, 13773, 13889, 14090]}, "edge": {"target": [], "time": []}}, "mouseout": {"state": {"target": ["0", "7", "8", "11", "13", "12", "0", "1"], "time": [5927, 7061, 7629, 10500, 12070, 13790, 13989, 26928]}, "edge": {"target": [], "time": []}}}, "displayed_time": "21.29", "trialTime": 28710, "trial_type": "mouselab-mdp", "trial_index": 4, "time_elapsed": 358508, "internal_node_id": "0.0-2.0-2.0-0.0"}}, {"uniqueid": "w14522309:a27645497", "current_trial": 5, "dateTime": 1691071247083, "trialdata": {"revealed_states": [], "clicked_states": [], "num_clicks_accrued": [0, 0, 0, 0, 0, 0, 0, 0, 0, 0, 0, 0, 0], "stateRewards": ["", -10, 10, -10, -10, -10, 10, -10, -10, 10, -10, -10, -10, -10, -10, -10, -10, -10, 10, -10, -10, 10, 10, -10, -10, -10, 10, 10, -10, 10, 10, -10, -10, -10], "withholdReward": false, "trial_id": "practice_2", "block": "test", "trialIndex": 1, "score": -46.5, "costs": 0, "simulationMode": [null, null, null, null, null], "rewards": [-10, -10, -10, -10, -10], "path": ["0", "0", "12", "13", "14", "15", "17"], "rt": [1472, 333, 3466, 2300, 387], "actions": ["right", "right", "right", "up", "right"], "actionTimes": [7669, 8492, 12460, 15268, 16159], "queries": {"click": {"state": {"target": [], "time": []}, "edge": {"target": [], "time": []}}, "mouseover": {"state": {"target": [], "time": []}, "edge": {"target": [], "time": []}}, "mouseout": {"state": {"target": ["0", "0", "6", "7", "12"], "time": [5137, 21209, 99245, 99262, 100493]}, "edge": {"target": [], "time": []}}}, "displayed_time": "16.66", "trialTime": 102763, "trial_type": "mouselab-mdp", "trial_index": 5, "time_elapsed": 461381, "internal_node_id": "0.0-2.0-2.0-1.0"}}, {"uniqueid": "w14522309:a27645497", "current_trial": 6, "dateTime": 1691071287401, "trialdata": {"view_history": [{"page_index": 0, "viewing_time": 36370}, {"page_index": 1, "viewing_time": 3945}], "rt": 40316, "trial_id": "mouselab_instructions_2_misaligned", "trial_type": "instructions", "trial_index": 6, "time_elapsed": 501699, "internal_node_id": "0.0-2.0-3.0"}}, {"uniqueid": "w14522309:a27645497", "current_trial": 7, "dateTime": 1691071344959, "trialdata": {"rt": 57555, "response": {"Q0": "The cost for clicking on nodes may vary between nodes.", "Q1": "The better I perform the higher my bonus will be.", "Q2": "No, the amount of cash at each node of the web may be different each time.", "Q3": "To get the highest total score.", "Q4": "Any time during the round.", "Q5": "3 seconds"}, "question_order": [0, 1, 2, 3, 4, 5], "correct": {"Q0": "The cost for clicking on nodes may vary between nodes.", "Q1": "The better I perform the higher my bonus will be.", "Q2": "No, the amount of cash at each node of the web may be different each time.", "Q3": "To get the highest total score.", "Q4": "Only before moving the spider.", "Q5": "3 seconds"}, "trial_id": "mouselab_quiz_misaligned", "trial_type": "survey-multi-choice", "trial_index": 7, "time_elapsed": 559257, "internal_node_id": "0.0-2.0-4.0"}}, {"uniqueid": "w14522309:a27645497", "current_trial": 8, "dateTime": 1691071353994, "trialdata": {"success": true, "trial_type": "fullscreen", "trial_index": 8, "time_elapsed": 568292, "internal_node_id": "0.0-2.1-0.1"}}, {"uniqueid": "w14522309:a27645497", "current_trial": 9, "dateTime": 1691071492992, "trialdata": {"view_history": [{"page_index": 0, "viewing_time": 35737}, {"page_index": 1, "viewing_time": 96657}, {"page_index": 2, "viewing_time": 2906}, {"page_index": 3, "viewing_time": 3696}], "rt": 138997, "trial_id": "mouselab_instructions_1_misaligned", "trial_type": "instructions", "trial_index": 9, "time_elapsed": 707290, "internal_node_id": "0.0-2.1-1.1"}}, {"uniqueid": "w14522309:a27645497", "current_trial": 10, "dateTime": 1691071506656, "trialdata": {"revealed_states": [], "clicked_states": [], "num_clicks_accrued": [0, 0, 0, 0, 0, 0, 0, 0, 0, 0, 0, 0, 0], "stateRewards": ["", -10, -10, -10, -10, 10, -10, -10, -10, 10, 10, -10, 10, 10, -10, 10, -10, 10, 10, -10, -10, 10, 10, -10, 10, -10, 10, 10, -10, -10, -10, -10, -10, 10], "withholdReward": false, "trial_id": "practice_1", "block": "test", "trialIndex": 2, "score": -26.5, "costs": 0, "simulationMode": [null, null, null, null, null], "rewards": [-10, -10, -10, -10, 10], "path": ["0", "0", "1", "2", "3", "4", "5"], "rt": [1706, 125, 106, 680, 441], "actions": ["up", "up", "up", "right", "up"], "actionTimes": [7408, 8031, 8630, 9806, 10751], "queries": {"click": {"state": {"target": [], "time": []}, "edge": {"target": [], "time": []}}, "mouseover": {"state": {"target": [], "time": []}, "edge": {"target": [], "time": []}}, "mouseout": {"state": {"target": ["0"], "time": [2880]}, "edge": {"target": [], "time": []}}}, "displayed_time": "11.24", "trialTime": 13546, "trial_type": "mouselab-mdp", "trial_index": 10, "time_elapsed": 720953, "internal_node_id": "0.0-2.1-2.1-0.1"}}, {"uniqueid": "w14522309:a27645497", "current_trial": 11, "dateTime": 1691071518449, "trialdata": {"revealed_states": [], "clicked_states": [], "num_clicks_accrued": [0, 0, 0, 0, 0, 0, 0, 0, 0, 0, 0, 0, 0], "stateRewards": ["", -10, 10, -10, -10, -10, 10, -10, -10, 10, -10, -10, -10, -10, -10, -10, -10, -10, 10, -10, -10, 10, 10, -10, -10, -10, 10, 10, -10, 10, 10, -10, -10, -10], "withholdReward": false, "trial_id": "practice_2", "block": "test", "trialIndex": 3, "score": -26.5, "costs": 0, "simulationMode": [null, null, null, null, null], "rewards": [-10, 10, -10, -10, -10], "path": ["0", "0", "1", "2", "3", "8", "11"], "rt": [1565, 100, 2680, 215, 565], "actions": ["up", "up", "up", "left", "left"], "actionTimes": [3934, 4536, 7715, 8423, 9490], "queries": {"click": {"state": {"target": [], "time": []}, "edge": {"target": [], "time": []}}, "mouseover": {"state": {"target": [], "time": []}, "edge": {"target": [], "time": []}}, "mouseout": {"state": {"target": ["0"], "time": [1729]}, "edge": {"target": [], "time": []}}}, "displayed_time": "9.99", "trialTime": 11684, "trial_type": "mouselab-mdp", "trial_index": 11, "time_elapsed": 732747, "internal_node_id": "0.0-2.1-2.1-1.1"}}, {"uniqueid": "w14522309:a27645497", "current_trial": 12, "dateTime": 1691071571028, "trialdata": {"view_history": [{"page_index": 0, "viewing_time": 49708}, {"page_index": 1, "viewing_time": 2868}], "rt": 52576, "trial_id": "mouselab_instructions_2_misaligned", "trial_type": "instructions", "trial_index": 12, "time_elapsed": 785326, "internal_node_id": "0.0-2.1-3.1"}}, {"uniqueid": "w14522309:a27645497", "current_trial": 13, "dateTime": 1691071636504, "trialdata": {"rt": 65474, "response": {"Q0": "The cost for clicking on nodes may vary between nodes.", "Q1": "The better I perform the higher my bonus will be.", "Q2": "No, the amount of cash at each node of the web may be different each time.", "Q3": "To get the highest total score.", "Q4": "Only after moving the spider.", "Q5": "3 seconds"}, "question_order": [0, 1, 2, 3, 4, 5], "correct": {"Q0": "The cost for clicking on nodes may vary between nodes.", "Q1": "The better I perform the higher my bonus will be.", "Q2": "No, the amount of cash at each node of the web may be different each time.", "Q3": "To get the highest total score.", "Q4": "Only before moving the spider.", "Q5": "3 seconds"}, "trial_id": "mouselab_quiz_misaligned", "trial_type": "survey-multi-choice", "trial_index": 13, "time_elapsed": 850802, "internal_node_id": "0.0-2.1-4.1"}}, {"uniqueid": "w14522309:a27645497", "current_trial": 14, "dateTime": 1691071737145, "trialdata": {"success": true, "trial_type": "fullscreen", "trial_index": 14, "time_elapsed": 951443, "internal_node_id": "0.0-2.2-0.2"}}, {"uniqueid": "w14522309:a27645497", "current_trial": 15, "dateTime": 1691071806243, "trialdata": {"view_history": [{"page_index": 0, "viewing_time": 7566}, {"page_index": 1, "viewing_time": 57586}, {"page_index": 2, "viewing_time": 2388}, {"page_index": 3, "viewing_time": 1555}], "rt": 69095, "trial_id": "mouselab_instructions_1_misaligned", "trial_type": "instructions", "trial_index": 15, "time_elapsed": 1020541, "internal_node_id": "0.0-2.2-1.2"}}, {"uniqueid": "w14522309:a27645497", "current_trial": 16, "dateTime": 1691071815797, "trialdata": {"revealed_states": [], "clicked_states": [], "num_clicks_accrued": [0, 0, 0, 0, 0, 0, 0, 0, 0, 0, 0, 0, 0], "stateRewards": ["", -10, -10, -10, -10, 10, -10, -10, -10, 10, 10, -10, 10, 10, -10, 10, -10, 10, 10, -10, -10, 10, 10, -10, 10, -10, 10, 10, -10, -10, -10, -10, -10, 10], "withholdReward": false, "trial_id": "practice_1", "block": "test", "trialIndex": 4, "score": -6.5, "costs": 0, "simulationMode": [null, null, null, null, null], "rewards": [-10, 10, -10, -10, 10], "path": ["0", "0", "23", "24", "25", "30", "33"], "rt": [1434, 622, 120, 240, 137], "actions": ["left", "left", "left", "down", "left"], "actionTimes": [3804, 4926, 5543, 6281, 6913], "queries": {"click": {"state": {"target": [], "time": []}, "edge": {"target": [], "time": []}}, "mouseover": {"state": {"target": [], "time": []}, "edge": {"target": [], "time": []}}, "mouseout": {"state": {"target": ["0", "0", "12"], "time": [2049, 8628, 8744]}, "edge": {"target": [], "time": []}}}, "displayed_time": "7.41", "trialTime": 9428, "trial_type": "mouselab-mdp", "trial_index": 16, "time_elapsed": 1030095, "internal_node_id": "0.0-2.2-2.2-0.2"}}, {"uniqueid": "w14522309:a27645497", "current_trial": 17, "dateTime": 1691071829560, "trialdata": {"revealed_states": [], "clicked_states": [], "num_clicks_accrued": [0, 0, 0, 0, 0, 0, 0, 0, 0, 0, 0, 0, 0], "stateRewards": ["", -10, 10, -10, -10, -10, 10, -10, -10, 10, -10, -10, -10, -10, -10, -10, -10, -10, 10, -10, -10, 10, 10, -10, -10, -10, 10, 10, -10, 10, 10, -10, -10, -10], "withholdReward": false, "trial_id": "practice_2", "block": "test", "trialIndex": 5, "score": -26.5, "costs": 0, "simulationMode": [null, null, null, null, null], "rewards": [-10, -10, -10, -10, 10], "path": ["0", "0", "12", "13", "14", "19", "22"], "rt": [2887, 117, 206, 1032, 593], "actions": ["right", "right", "right", "down", "left"], "actionTimes": [7429, 8037, 8744, 10272, 11367], "queries": {"click": {"state": {"target": [], "time": []}, "edge": {"target": [], "time": []}}, "mouseover": {"state": {"target": [], "time": []}, "edge": {"target": [], "time": []}}, "mouseout": {"state": {"target": [], "time": []}, "edge": {"target": [], "time": []}}}, "displayed_time": "11.86", "trialTime": 13634, "trial_type": "mouselab-mdp", "trial_index": 17, "time_elapsed": 1043858, "internal_node_id": "0.0-2.2-2.2-1.2"}}, {"uniqueid": "w14522309:a27645497", "current_trial": 18, "dateTime": 1691071840374, "trialdata": {"view_history": [{"page_index": 0, "viewing_time": 8108}, {"page_index": 1, "viewing_time": 2703}], "rt": 10811, "trial_id": "mouselab_instructions_2_misaligned", "trial_type": "instructions", "trial_index": 18, "time_elapsed": 1054672, "internal_node_id": "0.0-2.2-3.2"}}, {"uniqueid": "w14522309:a27645497", "current_trial": 19, "dateTime": 1691071895424, "trialdata": {"rt": 55047, "response": {"Q0": "The cost for clicking on nodes may vary between nodes.", "Q1": "The better I perform the higher my bonus will be.", "Q2": "No, the amount of cash at each node of the web may be different each time.", "Q3": "To get the highest total score.", "Q4": "Only before moving the spider.", "Q5": "3 seconds"}, "question_order": [0, 1, 2, 3, 4, 5], "correct": {"Q0": "The cost for clicking on nodes may vary between nodes.", "Q1": "The better I perform the higher my bonus will be.", "Q2": "No, the amount of cash at each node of the web may be different each time.", "Q3": "To get the highest total score.", "Q4": "Only before moving the spider.", "Q5": "3 seconds"}, "trial_id": "mouselab_quiz_misaligned", "trial_type": "survey-multi-choice", "trial_index": 19, "time_elapsed": 1109722, "internal_node_id": "0.0-2.2-4.2"}}, {"uniqueid": "w14522309:a27645497", "current_trial": 20, "dateTime": 1691071900176, "trialdata": {"rt": 4747, "stimulus": "\n<h1> Get ready to start the game! </h1>\n\nThank you for reading the instructions. Get ready start with the 40 rounds of this game.\n<br><br>\nIf you need to take a break, feel free to take one after the end of a round, before continuing to the next one.\n<br><br>\nRemember, the more money the spider gets, the bigger your bonus will be!\n<br><br>\n<div style='text-align: center;'>Press <code>space</code> to begin.</div>\n\n<br><br>\n(If, at any point, the <code>space</code> key does not take you to the next page, click once on the text and try again.)", "response": " ", "trial_id": "mdp_ready", "trial_type": "html-keyboard-response", "trial_index": 20, "time_elapsed": 1114474, "internal_node_id": "0.0-4.0-0.0"}}, {"uniqueid": "w14522309:a27645497", "current_trial": 21, "dateTime": 1691071919282, "trialdata": {"revealed_states": [], "clicked_states": [], "num_clicks_accrued": [0, 0, 0, 0, 0, 0, 0, 0, 0, 0, 0, 0, 0], "stateRewards": ["", 2, -3, -5, 5, 11, -9, -33, 6, 67, 6, -30, -1, -2, -6, 13, 55, 13, 72, -14, 75, 21, -66, -2, -4, 6, 15, -1, -35, 60, 2, 51, -73, 12], "withholdReward": false, "trial_id": "mdp_trial_1", "block": "test", "trialIndex": 6, "score": 59, "costs": 0, "simulationMode": [null, null, null, null, null], "rewards": [-1, -2, -6, 13, 55], "path": ["0", "0", "12", "13", "14", "15", "16"], "rt": [1335, 544, 278, 937, 652], "actions": ["right", "right", "right", "up", "up"], "actionTimes": [3889, 4929, 5698, 7124, 8275], "queries": {"click": {"state": {"target": [], "time": []}, "edge": {"target": [], "time": []}}, "mouseover": {"state": {"target": [], "time": []}, "edge": {"target": [], "time": []}}, "mouseout": {"state": {"target": ["1", "0"], "time": [2012, 14701]}, "edge": {"target": [], "time": []}}}, "displayed_time": "16.56", "trialTime": 18967, "trial_type": "mouselab-mdp", "trial_index": 21, "time_elapsed": 1133580, "internal_node_id": "0.0-4.0-1.0-0.0"}}, {"uniqueid": "w14522309:a27645497", "current_trial": 22, "dateTime": 1691071937460, "trialdata": {"revealed_states": [], "clicked_states": [], "num_clicks_accrued": [0, 0, 0, 0, 0, 0, 0, 0, 0, 0, 0, 0, 0], "stateRewards": ["", -2, 4, 3, 5, -61, 4, 30, 1, -47, 83, 10, 1, 4, 7, -14, 19, -74, -83, 6, -2, -2, -65, -1, -2, 4, -11, 12, -1, -68, 11, -38, -28, 66], "withholdReward": false, "trial_id": "mdp_trial_2", "block": "test", "trialIndex": 7, "score": -16, "costs": 0, "simulationMode": [null, null, null, null, null], "rewards": [-1, -2, 4, 11, -28], "path": ["0", "0", "23", "24", "25", "30", "32"], "rt": [1370, 272, 824, 440, 339], "actions": ["left", "left", "left", "down", "down"], "actionTimes": [3403, 4176, 5494, 6430, 7264], "queries": {"click": {"state": {"target": [], "time": []}, "edge": {"target": [], "time": []}}, "mouseover": {"state": {"target": ["1"], "time": [2516]}, "edge": {"target": [], "time": []}}, "mouseout": {"state": {"target": ["0", "1"], "time": [1681, 2600]}, "edge": {"target": [], "time": []}}}, "displayed_time": "16.04", "trialTime": 18032, "trial_type": "mouselab-mdp", "trial_index": 22, "time_elapsed": 1151758, "internal_node_id": "0.0-4.0-1.0-1.0"}}, {"uniqueid": "w14522309:a27645497", "current_trial": 23, "dateTime": 1691071955441, "trialdata": {"revealed_states": [], "clicked_states": [], "num_clicks_accrued": [0, 0, 0, 0, 0, 0, 0, 0, 0, 0, 0, 0, 0], "stateRewards": ["", 1, -2, -8, -3, 31, -84, -55, -14, 15, -58, 17, -2, -3, 7, 7, -12, 48, 67, 4, -44, -68, 46, 2, 3, -5, -7, 76, 27, 5, 11, 57, 52, 59], "withholdReward": false, "trial_id": "mdp_trial_3", "block": "test", "trialIndex": 8, "score": -67, "costs": 0, "simulationMode": [null, null, null, null, null], "rewards": [1, -2, -8, -3, -55], "path": ["0", "0", "1", "2", "3", "4", "7"], "rt": [810, 294, 222, 2259, 635], "actions": ["up", "up", "up", "right", "down"], "actionTimes": [2545, 3342, 4054, 6810, 7940], "queries": {"click": {"state": {"target": [], "time": []}, "edge": {"target": [], "time": []}}, "mouseover": {"state": {"target": [], "time": []}, "edge": {"target": [], "time": []}}, "mouseout": {"state": {"target": [], "time": []}, "edge": {"target": [], "time": []}}}, "displayed_time": "15.74", "trialTime": 17829, "trial_type": "mouselab-mdp", "trial_index": 23, "time_elapsed": 1169738, "internal_node_id": "0.0-4.0-1.0-2.0"}}, {"uniqueid": "w14522309:a27645497", "current_trial": 24, "dateTime": 1691071975858, "trialdata": {"revealed_states": [], "clicked_states": [], "num_clicks_accrued": [0, 0, 0, 0, 0, 0, 0, 0, 0, 0, 0, 0, 0], "stateRewards": ["", -1, -4, -6, -15, 21, -67, -63, 9, 51, 69, -14, -1, 3, 8, -8, 39, 72, 63, 15, 19, 47, 15, 1, 4, 5, 16, -18, 34, 35, -14, -80, 40, 1], "withholdReward": false, "trial_id": "mdp_trial_4", "block": "test", "trialIndex": 9, "score": 44, "costs": 0, "simulationMode": [null, null, null, null, null], "rewards": [-1, 3, 8, 15, 19], "path": ["0", "0", "12", "13", "14", "19", "20"], "rt": [2246, 812, 1368, 737, 1520], "actions": ["right", "right", "right", "down", "right"], "actionTimes": [3707, 5012, 6870, 8109, 10127], "queries": {"click": {"state": {"target": [], "time": []}, "edge": {"target": [], "time": []}}, "mouseover": {"state": {"target": [], "time": []}, "edge": {"target": [], "time": []}}, "mouseout": {"state": {"target": [], "time": []}, "edge": {"target": [], "time": []}}}, "displayed_time": "15.46", "trialTime": 20265, "trial_type": "mouselab-mdp", "trial_index": 24, "time_elapsed": 1190155, "internal_node_id": "0.0-4.0-1.0-3.0"}}, {"uniqueid": "w14522309:a27645497", "current_trial": 25, "dateTime": 1691071993456, "trialdata": {"revealed_states": [], "clicked_states": [], "num_clicks_accrued": [0, 0, 0, 0, 0, 0, 0, 0, 0, 0, 0, 0, 0], "stateRewards": ["", -2, 2, 3, -7, -31, -33, 29, -8, -57, 50, -83, -1, -1, 5, 13, -23, -62, 25, 5, -66, -85, 14, 1, -2, -1, 16, 71, 33, -19, -14, 5, -43, 79], "withholdReward": false, "trial_id": "mdp_trial_5", "block": "test", "trialIndex": 10, "score": 47, "costs": 0, "simulationMode": [null, null, null, null, null], "rewards": [1, -2, -1, 16, 33], "path": ["0", "0", "23", "24", "25", "26", "28"], "rt": [1159, 362, 332, 1763, 96], "actions": ["left", "left", "left", "up", "right"], "actionTimes": [2259, 3126, 3947, 6213, 6799], "queries": {"click": {"state": {"target": [], "time": []}, "edge": {"target": [], "time": []}}, "mouseover": {"state": {"target": [], "time": []}, "edge": {"target": [], "time": []}}, "mouseout": {"state": {"target": [], "time": []}, "edge": {"target": [], "time": []}}}, "displayed_time": "15.10", "trialTime": 17445, "trial_type": "mouselab-mdp", "trial_index": 25, "time_elapsed": 1207754, "internal_node_id": "0.0-4.0-1.0-4.0"}}, {"uniqueid": "w14522309:a27645497", "current_trial": 26, "dateTime": 1691072011061, "trialdata": {"revealed_states": [], "clicked_states": [], "num_clicks_accrued": [0, 0, 0, 0, 0, 0, 0, 0, 0, 0, 0, 0, 0], "stateRewards": ["", -1, 4, -6, -5, -22, -38, -38, -2, -56, 88, 14, -1, -1, -7, -6, 61, -60, 21, 11, 57, 31, -30, -2, -2, 6, -9, -44, -70, -44, -15, 34, 16, -78], "withholdReward": false, "trial_id": "mdp_trial_6", "block": "test", "trialIndex": 11, "score": 9, "costs": 0, "simulationMode": [null, null, null, null, null], "rewards": [-1, 4, -6, -2, 14], "path": ["0", "0", "1", "2", "3", "8", "11"], "rt": [1042, 224, 234, 425, 748], "actions": ["up", "up", "up", "left", "left"], "actionTimes": [2455, 3182, 3910, 4836, 6076], "queries": {"click": {"state": {"target": [], "time": []}, "edge": {"target": [], "time": []}}, "mouseover": {"state": {"target": [], "time": []}, "edge": {"target": [], "time": []}}, "mouseout": {"state": {"target": [], "time": []}, "edge": {"target": [], "time": []}}}, "displayed_time": "15.41", "trialTime": 17448, "trial_type": "mouselab-mdp", "trial_index": 26, "time_elapsed": 1225358, "internal_node_id": "0.0-4.0-1.0-5.0"}}, {"uniqueid": "w14522309:a27645497", "current_trial": 27, "dateTime": 1691072029116, "trialdata": {"revealed_states": [], "clicked_states": [], "num_clicks_accrued": [0, 0, 0, 0, 0, 0, 0, 0, 0, 0, 0, 0, 0], "stateRewards": ["", 1, 1, -2, 7, -31, -6, 76, 1, -36, -16, -53, 2, 1, 7, 13, -47, -10, 47, -7, 72, 46, -56, -2, -2, -2, 11, -80, 44, 38, 16, 67, 85, -78], "withholdReward": false, "trial_id": "mdp_trial_7", "block": "test", "trialIndex": 12, "score": -24, "costs": 0, "simulationMode": [null, null, null, null, null], "rewards": [1, 1, -2, 7, -31], "path": ["0", "0", "1", "2", "3", "4", "5"], "rt": [1381, 300, 382, 279, 1594], "actions": ["up", "up", "up", "right", "up"], "actionTimes": [2316, 3112, 3996, 4776, 6860], "queries": {"click": {"state": {"target": [], "time": []}, "edge": {"target": [], "time": []}}, "mouseover": {"state": {"target": [], "time": []}, "edge": {"target": [], "time": []}}, "mouseout": {"state": {"target": [], "time": []}, "edge": {"target": [], "time": []}}}, "displayed_time": "14.94", "trialTime": 17894, "trial_type": "mouselab-mdp", "trial_index": 27, "time_elapsed": 1243414, "internal_node_id": "0.0-4.0-1.0-6.0"}}, {"uniqueid": "w14522309:a27645497", "current_trial": 28, "dateTime": 1691072046238, "trialdata": {"revealed_states": [], "clicked_states": [], "num_clicks_accrued": [0, 0, 0, 0, 0, 0, 0, 0, 0, 0, 0, 0, 0], "stateRewards": ["", -1, 3, -7, 16, -32, -74, -48, 2, 10, 15, -30, 1, 1, -2, 10, 12, -83, 67, 13, -66, 47, 65, -2, 4, 2, -14, -8, -57, 24, 9, 65, 12, 46], "withholdReward": false, "trial_id": "mdp_trial_8", "block": "test", "trialIndex": 13, "score": 77, "costs": 0, "simulationMode": [null, null, null, null, null], "rewards": [1, 1, -2, 10, 67], "path": ["0", "0", "12", "13", "14", "15", "18"], "rt": [762, 256, 462, 174, 518], "actions": ["right", "right", "right", "up", "left"], "actionTimes": [2110, 2858, 3815, 4479, 5491], "queries": {"click": {"state": {"target": [], "time": []}, "edge": {"target": [], "time": []}}, "mouseover": {"state": {"target": [], "time": []}, "edge": {"target": [], "time": []}}, "mouseout": {"state": {"target": [], "time": []}, "edge": {"target": [], "time": []}}}, "displayed_time": "15.35", "trialTime": 16959, "trial_type": "mouselab-mdp", "trial_index": 28, "time_elapsed": 1260536, "internal_node_id": "0.0-4.0-1.0-7.0"}}, {"uniqueid": "w14522309:a27645497", "current_trial": 29, "dateTime": 1691072064243, "trialdata": {"revealed_states": [], "clicked_states": [], "num_clicks_accrued": [0, 0, 0, 0, 0, 0, 0, 0, 0, 0, 0, 0, 0], "stateRewards": ["", -2, -4, -2, -13, -15, 87, -19, -6, -80, 30, 12, 1, 1, -8, 2, 55, 56, 15, 11, -68, -7, 55, -2, 3, -3, -3, 48, 62, 4, 1, -3, 69, -33], "withholdReward": false, "trial_id": "mdp_trial_9", "block": "test", "trialIndex": 14, "score": -4, "costs": 0, "simulationMode": [null, null, null, null, null], "rewards": [-2, 3, -3, 1, -3], "path": ["0", "0", "23", "24", "25", "30", "31"], "rt": [2052, 1041, 420, 1671, 922], "actions": ["left", "left", "left", "down", "right"], "actionTimes": [3319, 4863, 5779, 7948, 9369], "queries": {"click": {"state": {"target": [], "time": []}, "edge": {"target": [], "time": []}}, "mouseover": {"state": {"target": [], "time": []}, "edge": {"target": [], "time": []}}, "mouseout": {"state": {"target": [], "time": []}, "edge": {"target": [], "time": []}}}, "displayed_time": "15.27", "trialTime": 17837, "trial_type": "mouselab-mdp", "trial_index": 29, "time_elapsed": 1278541, "internal_node_id": "0.0-4.0-1.0-8.0"}}, {"uniqueid": "w14522309:a27645497", "current_trial": 30, "dateTime": 1691072080829, "trialdata": {"revealed_states": [], "clicked_states": [], "num_clicks_accrued": [0, 0, 0, 0, 0, 0, 0, 0, 0, 0, 0, 0, 0], "stateRewards": ["", 1, 1, 1, 15, -76, 52, -32, 14, -57, 37, 49, 1, -4, -3, 6, 83, -76, 25, 9, 36, -1, -17, -1, 4, 4, -2, -22, -21, 58, -15, -57, 49, -24], "withholdReward": false, "trial_id": "mdp_trial_10", "block": "test", "trialIndex": 15, "score": 39, "costs": 0, "simulationMode": [null, null, null, null, null], "rewards": [1, -4, -3, 9, 36], "path": ["0", "0", "12", "13", "14", "19", "20"], "rt": [1131, 69, 234, 233, 739], "actions": ["right", "right", "right", "down", "right"], "actionTimes": [2294, 2857, 3590, 4324, 5563], "queries": {"click": {"state": {"target": [], "time": []}, "edge": {"target": [], "time": []}}, "mouseover": {"state": {"target": [], "time": []}, "edge": {"target": [], "time": []}}, "mouseout": {"state": {"target": [], "time": []}, "edge": {"target": [], "time": []}}}, "displayed_time": "15.17", "trialTime": 16410, "trial_type": "mouselab-mdp", "trial_index": 30, "time_elapsed": 1295127, "internal_node_id": "0.0-4.0-1.0-9.0"}}, {"uniqueid": "w14522309:a27645497", "current_trial": 31, "dateTime": 1691072098120, "trialdata": {"revealed_states": [], "clicked_states": [], "num_clicks_accrued": [0, 0, 0, 0, 0, 0, 0, 0, 0, 0, 0, 0, 0], "stateRewards": ["", -1, 2, -2, 5, 80, -61, -27, 12, 44, -26, -75, -2, -4, 1, -16, 42, -49, -50, 4, -44, 2, 80, -2, -2, 5, -2, 59, 10, 24, 7, -48, -86, -44], "withholdReward": false, "trial_id": "mdp_trial_11", "block": "test", "trialIndex": 16, "score": 79, "costs": 0, "simulationMode": [null, null, null, null, null], "rewards": [-2, -4, 1, 4, 80], "path": ["0", "0", "12", "13", "14", "19", "22"], "rt": [881, 304, 203, 333, 398], "actions": ["right", "right", "right", "down", "left"], "actionTimes": [2090, 2894, 3595, 4425, 5325], "queries": {"click": {"state": {"target": [], "time": []}, "edge": {"target": [], "time": []}}, "mouseover": {"state": {"target": [], "time": []}, "edge": {"target": [], "time": []}}, "mouseout": {"state": {"target": [], "time": []}, "edge": {"target": [], "time": []}}}, "displayed_time": "15.21", "trialTime": 17125, "trial_type": "mouselab-mdp", "trial_index": 31, "time_elapsed": 1312418, "internal_node_id": "0.0-4.0-1.0-10.0"}}, {"uniqueid": "w14522309:a27645497", "current_trial": 32, "dateTime": 1691072154137, "trialdata": {"revealed_states": [], "clicked_states": [], "num_clicks_accrued": [0, 0, 0, 0, 0, 0, 0, 0, 0, 0, 0, 0, 0], "stateRewards": ["", 1, -1, 8, -3, 38, 85, -20, -4, 8, 23, 73, 2, -4, 6, -13, 44, 7, -28, -11, -77, 45, -69, 1, -1, -7, -11, 75, -51, -87, 7, 36, -53, -26], "withholdReward": false, "trial_id": "mdp_trial_12", "block": "test", "trialIndex": 17, "score": 90, "costs": 0, "simulationMode": [null, null, null, null, null], "rewards": [1, -1, 8, -3, 85], "path": ["0", "0", "1", "2", "3", "4", "6"], "rt": [6617, 3107, 482, 194, 15], "actions": ["up", "up", "up", "right", "right"], "actionTimes": [42567, 45893, 46873, 47570, 48076], "queries": {"click": {"state": {"target": [], "time": []}, "edge": {"target": [], "time": []}}, "mouseover": {"state": {"target": [], "time": []}, "edge": {"target": [], "time": []}}, "mouseout": {"state": {"target": ["0", "22"], "time": [462, 512]}, "edge": {"target": [], "time": []}}}, "displayed_time": "53.95", "trialTime": 55840, "trial_type": "mouselab-mdp", "trial_index": 32, "time_elapsed": 1368435, "internal_node_id": "0.0-4.0-1.0-11.0"}}, {"uniqueid": "w14522309:a27645497", "current_trial": 33, "dateTime": 1691072171842, "trialdata": {"revealed_states": [], "clicked_states": [], "num_clicks_accrued": [0, 0, 0, 0, 0, 0, 0, 0, 0, 0, 0, 0, 0], "stateRewards": ["", -1, -3, 1, -4, -48, -63, -49, -2, -84, -19, 65, 2, -2, -2, -12, -4, 59, 9, 6, 75, 69, -13, -1, -3, -3, -2, -37, -68, -36, 13, 32, 18, -14], "withholdReward": false, "trial_id": "mdp_trial_13", "block": "test", "trialIndex": 18, "score": 45, "costs": 0, "simulationMode": [null, null, null, null, null], "rewards": [2, -2, -2, -12, 59], "path": ["0", "0", "12", "13", "14", "15", "17"], "rt": [2620, 79, 175, 662, 63], "actions": ["right", "right", "right", "up", "right"], "actionTimes": [4469, 5050, 5715, 6870, 7422], "queries": {"click": {"state": {"target": [], "time": []}, "edge": {"target": [], "time": []}}, "mouseover": {"state": {"target": [], "time": []}, "edge": {"target": [], "time": []}}, "mouseout": {"state": {"target": ["0"], "time": [1734]}, "edge": {"target": [], "time": []}}}, "displayed_time": "15.85", "trialTime": 17501, "trial_type": "mouselab-mdp", "trial_index": 33, "time_elapsed": 1386140, "internal_node_id": "0.0-4.0-1.0-12.0"}}, {"uniqueid": "w14522309:a27645497", "current_trial": 34, "dateTime": 1691072190332, "trialdata": {"revealed_states": [], "clicked_states": [], "num_clicks_accrued": [0, 0, 0, 0, 0, 0, 0, 0, 0, 0, 0, 0, 0], "stateRewards": ["", 1, 2, 3, 16, 63, -25, 16, -4, -14, 82, -66, -1, -3, -3, -11, -14, 19, 46, 3, -34, -82, 66, -2, -3, 4, -5, -63, 77, -37, -1, -45, -41, 84], "withholdReward": false, "trial_id": "mdp_trial_14", "block": "test", "trialIndex": 19, "score": 82, "costs": 0, "simulationMode": [null, null, null, null, null], "rewards": [-2, -3, 4, -1, 84], "path": ["0", "0", "23", "24", "25", "30", "33"], "rt": [905, 459, 402, 372, 303], "actions": ["left", "left", "left", "down", "left"], "actionTimes": [3743, 4699, 5594, 6466, 7264], "queries": {"click": {"state": {"target": [], "time": []}, "edge": {"target": [], "time": []}}, "mouseover": {"state": {"target": [], "time": []}, "edge": {"target": [], "time": []}}, "mouseout": {"state": {"target": ["0"], "time": [2714]}, "edge": {"target": [], "time": []}}}, "displayed_time": "16.84", "trialTime": 18314, "trial_type": "mouselab-mdp", "trial_index": 34, "time_elapsed": 1404630, "internal_node_id": "0.0-4.0-1.0-13.0"}}, {"uniqueid": "w14522309:a27645497", "current_trial": 35, "dateTime": 1691072207864, "trialdata": {"revealed_states": [], "clicked_states": [], "num_clicks_accrued": [0, 0, 0, 0, 0, 0, 0, 0, 0, 0, 0, 0, 0], "stateRewards": ["", -2, -3, 8, 14, -73, 73, 84, -12, -2, -50, -17, 2, 1, -2, -9, -44, -27, -33, 16, -63, -47, -66, -2, 1, 4, -5, -33, -11, 50, 9, 38, -79, 31], "withholdReward": false, "trial_id": "mdp_trial_15", "block": "test", "trialIndex": 20, "score": -59, "costs": 0, "simulationMode": [null, null, null, null, null], "rewards": [-2, -3, 8, -12, -50], "path": ["0", "0", "1", "2", "3", "8", "10"], "rt": [1563, 196, 104, 1644, 209], "actions": ["up", "up", "up", "left", "down"], "actionTimes": [3352, 4045, 4636, 6778, 7480], "queries": {"click": {"state": {"target": [], "time": []}, "edge": {"target": [], "time": []}}, "mouseover": {"state": {"target": [], "time": []}, "edge": {"target": [], "time": []}}, "mouseout": {"state": {"target": ["0"], "time": [1688]}, "edge": {"target": [], "time": []}}}, "displayed_time": "15.80", "trialTime": 17357, "trial_type": "mouselab-mdp", "trial_index": 35, "time_elapsed": 1422161, "internal_node_id": "0.0-4.0-1.0-14.0"}}, {"uniqueid": "w14522309:a27645497", "current_trial": 36, "dateTime": 1691072225688, "trialdata": {"revealed_states": [], "clicked_states": [], "num_clicks_accrued": [0, 0, 0, 0, 0, 0, 0, 0, 0, 0, 0, 0, 0], "stateRewards": ["", -2, 2, 3, -7, 76, 63, 21, 15, 35, -8, -44, 1, 1, -2, -12, 23, 24, 76, -9, 46, 66, -49, -2, -1, 7, 12, 40, -71, -45, -6, 38, -49, 46], "withholdReward": false, "trial_id": "mdp_trial_16", "block": "test", "trialIndex": 21, "score": 37, "costs": 0, "simulationMode": [null, null, null, null, null], "rewards": [1, 1, -2, -9, 46], "path": ["0", "0", "12", "13", "14", "19", "20"], "rt": [932, 185, 309, 94, 480], "actions": ["right", "right", "right", "down", "right"], "actionTimes": [3001, 3690, 4497, 5083, 6055], "queries": {"click": {"state": {"target": [], "time": []}, "edge": {"target": [], "time": []}}, "mouseover": {"state": {"target": [], "time": []}, "edge": {"target": [], "time": []}}, "mouseout": {"state": {"target": ["0"], "time": [1448]}, "edge": {"target": [], "time": []}}}, "displayed_time": "16.07", "trialTime": 17641, "trial_type": "mouselab-mdp", "trial_index": 36, "time_elapsed": 1439986, "internal_node_id": "0.0-4.0-1.0-15.0"}}, {"uniqueid": "w14522309:a27645497", "current_trial": 37, "dateTime": 1691072242969, "trialdata": {"revealed_states": [], "clicked_states": [], "num_clicks_accrued": [0, 0, 0, 0, 0, 0, 0, 0, 0, 0, 0, 0, 0], "stateRewards": ["", 1, -1, 4, -2, -75, -75, 84, -9, -60, -79, 59, 2, -4, 8, 9, -17, -82, 80, 14, -4, 49, 49, -1, 3, 6, -11, -33, 34, 55, 9, -57, 5, 59], "withholdReward": false, "trial_id": "mdp_trial_17", "block": "test", "trialIndex": 22, "score": 69, "costs": 0, "simulationMode": [null, null, null, null, null], "rewards": [2, -4, 8, 14, 49], "path": ["0", "0", "12", "13", "14", "19", "22"], "rt": [1181, 156, 160, 105, 163], "actions": ["right", "right", "right", "down", "left"], "actionTimes": [2895, 3542, 4196, 4793, 5452], "queries": {"click": {"state": {"target": [], "time": []}, "edge": {"target": [], "time": []}}, "mouseover": {"state": {"target": [], "time": []}, "edge": {"target": [], "time": []}}, "mouseout": {"state": {"target": ["0"], "time": [1616]}, "edge": {"target": [], "time": []}}}, "displayed_time": "15.71", "trialTime": 17091, "trial_type": "mouselab-mdp", "trial_index": 37, "time_elapsed": 1457267, "internal_node_id": "0.0-4.0-1.0-16.0"}}, {"uniqueid": "w14522309:a27645497", "current_trial": 38, "dateTime": 1691072259815, "trialdata": {"revealed_states": [], "clicked_states": [], "num_clicks_accrued": [0, 0, 0, 0, 0, 0, 0, 0, 0, 0, 0, 0, 0], "stateRewards": ["", -2, -3, 1, -14, 48, -49, 67, -1, -35, -48, 3, -2, 1, -4, -5, 86, -84, 39, 1, 48, 41, -42, -1, -4, 2, -7, 18, -86, 17, 7, -9, 57, -69], "withholdReward": false, "trial_id": "mdp_trial_18", "block": "test", "trialIndex": 23, "score": -65, "costs": 0, "simulationMode": [null, null, null, null, null], "rewards": [-1, -4, 2, 7, -69], "path": ["0", "0", "23", "24", "25", "30", "33"], "rt": [896, 141, 342, 348, 423], "actions": ["left", "left", "left", "down", "left"], "actionTimes": [2444, 3082, 3916, 4759, 5684], "queries": {"click": {"state": {"target": [], "time": []}, "edge": {"target": [], "time": []}}, "mouseover": {"state": {"target": [], "time": []}, "edge": {"target": [], "time": []}}, "mouseout": {"state": {"target": ["0"], "time": [1455]}, "edge": {"target": [], "time": []}}}, "displayed_time": "15.55", "trialTime": 16665, "trial_type": "mouselab-mdp", "trial_index": 38, "time_elapsed": 1474113, "internal_node_id": "0.0-4.0-1.0-17.0"}}, {"uniqueid": "w14522309:a27645497", "current_trial": 39, "dateTime": 1691072289759, "trialdata": {"revealed_states": [], "clicked_states": [], "num_clicks_accrued": [0, 0, 0, 0, 0, 0, 0, 0, 0, 0, 0, 0, 0], "stateRewards": ["", 1, 3, 1, -13, 52, -28, 67, -14, 3, 63, -70, -1, -4, 7, -11, -10, 47, -18, 6, 69, -9, -61, 2, 3, -6, 10, 63, -34, 40, -6, -79, -35, -32], "withholdReward": false, "trial_id": "mdp_trial_19", "block": "test", "trialIndex": 24, "score": 44, "costs": 0, "simulationMode": [null, null, null, null, null], "rewards": [1, 3, 1, -13, 52], "path": ["0", "0", "1", "2", "3", "4", "5"], "rt": [1683, 623, 116, 90, 78], "actions": ["up", "up", "up", "right", "up"], "actionTimes": [4742, 5867, 6479, 7070, 7642], "queries": {"click": {"state": {"target": [], "time": []}, "edge": {"target": [], "time": []}}, "mouseover": {"state": {"target": [], "time": []}, "edge": {"target": [], "time": []}}, "mouseout": {"state": {"target": ["0"], "time": [2526]}, "edge": {"target": [], "time": []}}}, "displayed_time": "17.06", "trialTime": 29762, "trial_type": "mouselab-mdp", "trial_index": 39, "time_elapsed": 1504057, "internal_node_id": "0.0-4.0-1.0-18.0"}}, {"uniqueid": "w14522309:a27645497", "current_trial": 40, "dateTime": 1691072308165, "trialdata": {"revealed_states": [], "clicked_states": [], "num_clicks_accrued": [0, 0, 0, 0, 0, 0, 0, 0, 0, 0, 0, 0, 0], "stateRewards": ["", -1, 2, -6, 6, 43, 78, 78, -2, 55, -29, -17, -2, -4, 1, -15, 13, 7, -79, 8, -28, -68, 36, -1, -3, 3, -16, 84, -18, 87, 10, 32, 13, -81], "withholdReward": false, "trial_id": "mdp_trial_20", "block": "test", "trialIndex": 25, "score": 67, "costs": 0, "simulationMode": [null, null, null, null, null], "rewards": [-1, -3, 3, -16, 84], "path": ["0", "0", "23", "24", "25", "26", "27"], "rt": [1343, 136, 264, 703, 466], "actions": ["left", "left", "left", "up", "up"], "actionTimes": [4173, 4814, 5575, 6781, 7747], "queries": {"click": {"state": {"target": [], "time": []}, "edge": {"target": [], "time": []}}, "mouseover": {"state": {"target": [], "time": []}, "edge": {"target": [], "time": []}}, "mouseout": {"state": {"target": ["0"], "time": [2733]}, "edge": {"target": [], "time": []}}}, "displayed_time": "16.83", "trialTime": 18218, "trial_type": "mouselab-mdp", "trial_index": 40, "time_elapsed": 1522463, "internal_node_id": "0.0-4.0-1.0-19.0"}}, {"uniqueid": "w14522309:a27645497", "current_trial": 41, "dateTime": 1691072325093, "trialdata": {"revealed_states": [], "clicked_states": [], "num_clicks_accrued": [0, 0, 0, 0, 0, 0, 0, 0, 0, 0, 0, 0, 0], "stateRewards": ["", -2, 3, 8, -9, 59, 41, -50, -1, 82, 66, 33, 2, -2, 7, 8, 1, -38, 12, -16, 24, -37, 67, 1, 4, -2, 5, 35, -83, 28, 8, -27, 69, -64], "withholdReward": false, "trial_id": "mdp_trial_21", "block": "test", "trialIndex": 26, "score": 58, "costs": 0, "simulationMode": [null, null, null, null, null], "rewards": [2, -2, 7, -16, 67], "path": ["0", "0", "12", "13", "14", "19", "22"], "rt": [1669, 35, 341, 119, 297], "actions": ["right", "right", "right", "down", "left"], "actionTimes": [3044, 3575, 4432, 5046, 5841], "queries": {"click": {"state": {"target": [], "time": []}, "edge": {"target": [], "time": []}}, "mouseover": {"state": {"target": [], "time": []}, "edge": {"target": [], "time": []}}, "mouseout": {"state": {"target": ["0"], "time": [1280]}, "edge": {"target": [], "time": []}}}, "displayed_time": "15.38", "trialTime": 16747, "trial_type": "mouselab-mdp", "trial_index": 41, "time_elapsed": 1539391, "internal_node_id": "0.0-4.0-1.0-20.0"}}, {"uniqueid": "w14522309:a27645497", "current_trial": 42, "dateTime": 1691072342204, "trialdata": {"revealed_states": [], "clicked_states": [], "num_clicks_accrued": [0, 0, 0, 0, 0, 0, 0, 0, 0, 0, 0, 0, 0], "stateRewards": ["", 2, -1, 1, 10, -52, 86, -22, -2, -14, -63, 38, 1, 3, 7, -8, 11, -32, -27, 9, -71, 40, -87, -2, -1, 5, -7, 12, 31, -57, 13, 86, -58, 29], "withholdReward": false, "trial_id": "mdp_trial_22", "block": "test", "trialIndex": 27, "score": 98, "costs": 0, "simulationMode": [null, null, null, null, null], "rewards": [2, -1, 1, 10, 86], "path": ["0", "0", "1", "2", "3", "4", "6"], "rt": [1364, 109, 199, 197, 508], "actions": ["up", "up", "up", "right", "right"], "actionTimes": [3162, 3761, 4452, 5152, 6163], "queries": {"click": {"state": {"target": [], "time": []}, "edge": {"target": [], "time": []}}, "mouseover": {"state": {"target": [], "time": []}, "edge": {"target": [], "time": []}}, "mouseout": {"state": {"target": ["0"], "time": [1662]}, "edge": {"target": [], "time": []}}}, "displayed_time": "15.80", "trialTime": 16924, "trial_type": "mouselab-mdp", "trial_index": 42, "time_elapsed": 1556502, "internal_node_id": "0.0-4.0-1.0-21.0"}}, {"uniqueid": "w14522309:a27645497", "current_trial": 43, "dateTime": 1691072359667, "trialdata": {"revealed_states": [], "clicked_states": [], "num_clicks_accrued": [0, 0, 0, 0, 0, 0, 0, 0, 0, 0, 0, 0, 0], "stateRewards": ["", -1, -3, -7, -7, -76, 30, -49, 11, -70, 56, 2, 1, 4, -3, -14, -59, -83, -25, -9, -21, -67, -73, -2, 4, 4, -9, -11, -32, 60, 9, -87, 22, -64], "withholdReward": false, "trial_id": "mdp_trial_23", "block": "test", "trialIndex": 28, "score": -49, "costs": 0, "simulationMode": [null, null, null, null, null], "rewards": [-2, 4, 4, 9, -64], "path": ["0", "0", "23", "24", "25", "30", "33"], "rt": [1741, 144, 202, 66, 653], "actions": ["left", "left", "left", "down", "left"], "actionTimes": [3405, 4043, 4735, 5300, 6454], "queries": {"click": {"state": {"target": [], "time": []}, "edge": {"target": [], "time": []}}, "mouseover": {"state": {"target": [], "time": []}, "edge": {"target": [], "time": []}}, "mouseout": {"state": {"target": ["0"], "time": [1514]}, "edge": {"target": [], "time": []}}}, "displayed_time": "15.67", "trialTime": 17271, "trial_type": "mouselab-mdp", "trial_index": 43, "time_elapsed": 1573965, "internal_node_id": "0.0-4.0-1.0-22.0"}}, {"uniqueid": "w14522309:a27645497", "current_trial": 44, "dateTime": 1691072379190, "trialdata": {"revealed_states": [], "clicked_states": [], "num_clicks_accrued": [0, 0, 0, 0, 0, 0, 0, 0, 0, 0, 0, 0, 0], "stateRewards": ["", -1, -4, 8, 8, -68, 47, 24, -7, -61, 49, -69, -1, -1, 8, -7, 42, 1, -45, -11, 10, -63, -6, 1, 4, 6, -16, 79, -37, -58, -12, 81, 18, -53], "withholdReward": false, "trial_id": "mdp_trial_24", "block": "test", "trialIndex": 29, "score": -11, "costs": 0, "simulationMode": [null, null, null, null, null], "rewards": [-1, -1, 8, -11, -6], "path": ["0", "0", "12", "13", "14", "19", "22"], "rt": [1637, 31, 369, 238, 519], "actions": ["right", "right", "right", "down", "left"], "actionTimes": [3075, 3606, 4495, 5231, 6247], "queries": {"click": {"state": {"target": [], "time": []}, "edge": {"target": [], "time": []}}, "mouseover": {"state": {"target": [], "time": []}, "edge": {"target": [], "time": []}}, "mouseout": {"state": {"target": ["0"], "time": [1338]}, "edge": {"target": [], "time": []}}}, "displayed_time": "15.44", "trialTime": 19308, "trial_type": "mouselab-mdp", "trial_index": 44, "time_elapsed": 1593488, "internal_node_id": "0.0-4.0-1.0-23.0"}}, {"uniqueid": "w14522309:a27645497", "current_trial": 45, "dateTime": 1691072395775, "trialdata": {"revealed_states": [], "clicked_states": [], "num_clicks_accrued": [0, 0, 0, 0, 0, 0, 0, 0, 0, 0, 0, 0, 0], "stateRewards": ["", -2, -3, -5, 8, 27, 11, 43, -6, -24, -87, 69, -2, 1, 1, 9, 19, 48, -37, 9, -14, 45, 62, 1, 2, 1, 16, -81, -41, 22, 4, -6, -63, 47], "withholdReward": false, "trial_id": "mdp_trial_25", "block": "test", "trialIndex": 30, "score": 57, "costs": 0, "simulationMode": [null, null, null, null, null], "rewards": [-2, 1, 1, 9, 48], "path": ["0", "0", "12", "13", "14", "15", "17"], "rt": [1724, 343, 174, 139, 42], "actions": ["right", "right", "right", "up", "right"], "actionTimes": [2936, 3771, 4436, 5069, 5605], "queries": {"click": {"state": {"target": [], "time": []}, "edge": {"target": [], "time": []}}, "mouseover": {"state": {"target": ["12"], "time": [1739]}, "edge": {"target": [], "time": []}}, "mouseout": {"state": {"target": ["0"], "time": [1081]}, "edge": {"target": [], "time": []}}}, "displayed_time": "15.21", "trialTime": 16362, "trial_type": "mouselab-mdp", "trial_index": 45, "time_elapsed": 1610072, "internal_node_id": "0.0-4.0-1.0-24.0"}}, {"uniqueid": "w14522309:a27645497", "current_trial": 46, "dateTime": 1691072415133, "trialdata": {"revealed_states": [], "clicked_states": [], "num_clicks_accrued": [0, 0, 0, 0, 0, 0, 0, 0, 0, 0, 0, 0, 0], "stateRewards": ["", 2, 3, 8, 11, 25, -80, 6, -4, -56, 84, -23, -2, -4, -3, 4, -51, -9, -61, -15, -64, 67, -35, 1, -1, -7, -6, 83, 59, -15, 12, -79, 56, 41], "withholdReward": false, "trial_id": "mdp_trial_26", "block": "test", "trialIndex": 31, "score": 30, "costs": 0, "simulationMode": [null, null, null, null, null], "rewards": [2, 3, 8, 11, 6], "path": ["0", "0", "1", "2", "3", "4", "7"], "rt": [945, 69, 321, 270, 438], "actions": ["up", "up", "up", "right", "down"], "actionTimes": [4571, 5138, 5958, 6725, 7662], "queries": {"click": {"state": {"target": [], "time": []}, "edge": {"target": [], "time": []}}, "mouseover": {"state": {"target": [], "time": []}, "edge": {"target": [], "time": []}}, "mouseout": {"state": {"target": ["12"], "time": [1095]}, "edge": {"target": [], "time": []}}}, "displayed_time": "17.63", "trialTime": 19082, "trial_type": "mouselab-mdp", "trial_index": 46, "time_elapsed": 1629431, "internal_node_id": "0.0-4.0-1.0-25.0"}}, {"uniqueid": "w14522309:a27645497", "current_trial": 47, "dateTime": 1691072432748, "trialdata": {"revealed_states": [], "clicked_states": [], "num_clicks_accrued": [0, 0, 0, 0, 0, 0, 0, 0, 0, 0, 0, 0, 0], "stateRewards": ["", -1, 4, -5, 9, 29, -75, -42, -16, 24, -28, -41, 2, -3, 1, 10, 60, 47, 55, -1, -53, 22, -40, 2, -3, -6, 4, -26, 44, 54, 15, -76, 42, 14], "withholdReward": false, "trial_id": "mdp_trial_27", "block": "test", "trialIndex": 32, "score": 50, "costs": 0, "simulationMode": [null, null, null, null, null], "rewards": [2, -3, -6, 15, 42], "path": ["0", "0", "23", "24", "25", "30", "32"], "rt": [2534, 507, 180, 134, 1256], "actions": ["left", "left", "left", "down", "down"], "actionTimes": [4039, 5040, 5715, 6336, 8094], "queries": {"click": {"state": {"target": [], "time": []}, "edge": {"target": [], "time": []}}, "mouseover": {"state": {"target": [], "time": []}, "edge": {"target": [], "time": []}}, "mouseout": {"state": {"target": [], "time": []}, "edge": {"target": [], "time": []}}}, "displayed_time": "15.51", "trialTime": 17363, "trial_type": "mouselab-mdp", "trial_index": 47, "time_elapsed": 1647045, "internal_node_id": "0.0-4.0-1.0-26.0"}}, {"uniqueid": "w14522309:a27645497", "current_trial": 48, "dateTime": 1691072450346, "trialdata": {"revealed_states": [], "clicked_states": [], "num_clicks_accrued": [0, 0, 0, 0, 0, 0, 0, 0, 0, 0, 0, 0, 0], "stateRewards": ["", 1, 4, -8, -13, -13, -87, -77, -10, -44, 54, 42, 2, -3, -4, 12, -9, -80, 52, 9, 84, -2, -65, 1, -4, -5, -6, 8, 80, 32, 13, -59, -5, -13], "withholdReward": false, "trial_id": "mdp_trial_28", "block": "test", "trialIndex": 33, "score": -8, "costs": 0, "simulationMode": [null, null, null, null, null], "rewards": [1, -4, -5, 13, -13], "path": ["0", "0", "23", "24", "25", "30", "33"], "rt": [2126, 133, 197, 73, 443], "actions": ["left", "left", "left", "down", "left"], "actionTimes": [3858, 4480, 5178, 5755, 6695], "queries": {"click": {"state": {"target": [], "time": []}, "edge": {"target": [], "time": []}}, "mouseover": {"state": {"target": [], "time": []}, "edge": {"target": [], "time": []}}, "mouseout": {"state": {"target": [], "time": []}, "edge": {"target": [], "time": []}}}, "displayed_time": "15.73", "trialTime": 17378, "trial_type": "mouselab-mdp", "trial_index": 48, "time_elapsed": 1664644, "internal_node_id": "0.0-4.0-1.0-27.0"}}, {"uniqueid": "w14522309:a27645497", "current_trial": 49, "dateTime": 1691072469618, "trialdata": {"revealed_states": [], "clicked_states": [], "num_clicks_accrued": [0, 0, 0, 0, 0, 0, 0, 0, 0, 0, 0, 0, 0], "stateRewards": ["", 2, -4, 1, -12, -59, -53, -74, 16, -88, -66, 66, 1, -2, 8, -9, -14, 22, 25, -1, -39, 47, -14, -1, -1, -2, 1, -4, 52, -26, 15, -7, 46, 43], "withholdReward": false, "trial_id": "mdp_trial_29", "block": "test", "trialIndex": 34, "score": 54, "costs": 0, "simulationMode": [null, null, null, null, null], "rewards": [-1, -1, -2, 15, 43], "path": ["0", "0", "23", "24", "25", "30", "33"], "rt": [1474, 9, 162, 628, 2143], "actions": ["left", "left", "left", "down", "left"], "actionTimes": [3032, 3540, 4210, 5327, 7960], "queries": {"click": {"state": {"target": [], "time": []}, "edge": {"target": [], "time": []}}, "mouseover": {"state": {"target": [], "time": []}, "edge": {"target": [], "time": []}}, "mouseout": {"state": {"target": [], "time": []}, "edge": {"target": [], "time": []}}}, "displayed_time": "15.56", "trialTime": 19039, "trial_type": "mouselab-mdp", "trial_index": 49, "time_elapsed": 1683916, "internal_node_id": "0.0-4.0-1.0-28.0"}}, {"uniqueid": "w14522309:a27645497", "current_trial": 50, "dateTime": 1691072487807, "trialdata": {"revealed_states": [], "clicked_states": [], "num_clicks_accrued": [0, 0, 0, 0, 0, 0, 0, 0, 0, 0, 0, 0, 0], "stateRewards": ["", -1, -4, -1, -5, -28, -23, -15, -15, -38, 59, -87, 2, 2, -5, 9, -55, -39, -71, -6, 85, -85, -11, -1, -2, 5, -10, 1, 25, 41, -4, 69, -35, 86], "withholdReward": false, "trial_id": "mdp_trial_30", "block": "test", "trialIndex": 35, "score": 84, "costs": 0, "simulationMode": [null, null, null, null, null], "rewards": [-1, -2, 5, -4, 86], "path": ["0", "0", "23", "24", "25", "30", "33"], "rt": [846, 96, 272, 1507, 2935], "actions": ["left", "left", "left", "down", "left"], "actionTimes": [2192, 2781, 3557, 5560, 8991], "queries": {"click": {"state": {"target": [], "time": []}, "edge": {"target": [], "time": []}}, "mouseover": {"state": {"target": [], "time": []}, "edge": {"target": [], "time": []}}, "mouseout": {"state": {"target": [], "time": []}, "edge": {"target": [], "time": []}}}, "displayed_time": "15.35", "trialTime": 17900, "trial_type": "mouselab-mdp", "trial_index": 50, "time_elapsed": 1702105, "internal_node_id": "0.0-4.0-1.0-29.0"}}, {"uniqueid": "w14522309:a27645497", "current_trial": 51, "dateTime": 1691072505501, "trialdata": {"revealed_states": [], "clicked_states": [], "num_clicks_accrued": [0, 0, 0, 0, 0, 0, 0, 0, 0, 0, 0, 0, 0], "stateRewards": ["", -1, -3, -3, 1, -38, 2, -53, -2, -1, -81, 70, -1, 1, -5, -9, 46, 15, 35, -1, -22, 38, 59, -2, 4, -8, 13, 1, -83, -43, 4, 76, 13, 48], "withholdReward": false, "trial_id": "mdp_trial_31", "block": "test", "trialIndex": 36, "score": 46, "costs": 0, "simulationMode": [null, null, null, null, null], "rewards": [-2, 4, -8, 4, 48], "path": ["0", "0", "23", "24", "25", "30", "33"], "rt": [1515, 457, 237, 214, 327], "actions": ["left", "left", "left", "down", "left"], "actionTimes": [3344, 4292, 5023, 5735, 6564], "queries": {"click": {"state": {"target": [], "time": []}, "edge": {"target": [], "time": []}}, "mouseover": {"state": {"target": [], "time": []}, "edge": {"target": [], "time": []}}, "mouseout": {"state": {"target": ["0", "0"], "time": [1429, 12230]}, "edge": {"target": [], "time": []}}}, "displayed_time": "15.83", "trialTime": 17462, "trial_type": "mouselab-mdp", "trial_index": 51, "time_elapsed": 1719798, "internal_node_id": "0.0-4.0-1.0-30.0"}}, {"uniqueid": "w14522309:a27645497", "current_trial": 52, "dateTime": 1691072523349, "trialdata": {"revealed_states": [], "clicked_states": [], "num_clicks_accrued": [0, 0, 0, 0, 0, 0, 0, 0, 0, 0, 0, 0, 0], "stateRewards": ["", 1, -1, 1, -14, -10, 67, -28, -11, 72, 40, -65, -1, 1, 1, -2, 8, -55, 34, -10, 61, 33, -15, 2, -4, 7, 4, -75, 63, -21, -16, 61, 19, 21], "withholdReward": false, "trial_id": "mdp_trial_32", "block": "test", "trialIndex": 37, "score": -24, "costs": 0, "simulationMode": [null, null, null, null, null], "rewards": [-1, 1, 1, -10, -15], "path": ["0", "0", "12", "13", "14", "19", "22"], "rt": [1306, 676, 239, 386, 846], "actions": ["right", "right", "right", "down", "left"], "actionTimes": [3375, 4556, 5287, 6169, 7515], "queries": {"click": {"state": {"target": [], "time": []}, "edge": {"target": [], "time": []}}, "mouseover": {"state": {"target": [], "time": []}, "edge": {"target": [], "time": []}}, "mouseout": {"state": {"target": ["12"], "time": [1523]}, "edge": {"target": [], "time": []}}}, "displayed_time": "16.07", "trialTime": 17642, "trial_type": "mouselab-mdp", "trial_index": 52, "time_elapsed": 1737647, "internal_node_id": "0.0-4.0-1.0-31.0"}}, {"uniqueid": "w14522309:a27645497", "current_trial": 53, "dateTime": 1691072543704, "trialdata": {"revealed_states": [], "clicked_states": [], "num_clicks_accrued": [0, 0, 0, 0, 0, 0, 0, 0, 0, 0, 0, 0, 0], "stateRewards": ["", 2, -4, -8, -15, 71, -43, -41, 7, -17, 20, 67, -1, -1, -4, 6, 37, -24, -47, 9, 34, 57, 45, 1, 2, -4, -5, -23, 88, -5, 13, -40, 43, 44], "withholdReward": false, "trial_id": "mdp_trial_33", "block": "test", "trialIndex": 38, "score": 48, "costs": 0, "simulationMode": [null, null, null, null, null], "rewards": [-1, -1, -4, 9, 45], "path": ["0", "0", "12", "13", "14", "19", "22"], "rt": [1091, 245, 274, 65, 811], "actions": ["right", "right", "right", "down", "left"], "actionTimes": [2479, 3213, 3977, 4537, 5849], "queries": {"click": {"state": {"target": [], "time": []}, "edge": {"target": [], "time": []}}, "mouseover": {"state": {"target": [], "time": []}, "edge": {"target": [], "time": []}}, "mouseout": {"state": {"target": [], "time": []}, "edge": {"target": [], "time": []}}}, "displayed_time": "15.39", "trialTime": 20124, "trial_type": "mouselab-mdp", "trial_index": 53, "time_elapsed": 1758002, "internal_node_id": "0.0-4.0-1.0-32.0"}}, {"uniqueid": "w14522309:a27645497", "current_trial": 54, "dateTime": 1691072564040, "trialdata": {"revealed_states": [], "clicked_states": [], "num_clicks_accrued": [0, 0, 0, 0, 0, 0, 0, 0, 0, 0, 0, 0, 0], "stateRewards": ["", 1, -2, -8, -13, 4, 34, -84, -4, -49, 88, -70, -1, 3, -4, 10, -77, 13, -34, 15, -21, -16, 27, 1, -2, 8, -8, -6, 38, -26, 6, -15, 66, -3], "withholdReward": false, "trial_id": "mdp_trial_34", "block": "test", "trialIndex": 39, "score": 40, "costs": 0, "simulationMode": [null, null, null, null, null], "rewards": [-1, 3, -4, 15, 27], "path": ["0", "0", "12", "13", "14", "19", "22"], "rt": [1191, 398, 319, 63, 138], "actions": ["right", "right", "right", "down", "left"], "actionTimes": [2770, 3660, 4483, 5046, 5688], "queries": {"click": {"state": {"target": [], "time": []}, "edge": {"target": [], "time": []}}, "mouseover": {"state": {"target": [], "time": []}, "edge": {"target": [], "time": []}}, "mouseout": {"state": {"target": ["0"], "time": [1184]}, "edge": {"target": [], "time": []}}}, "displayed_time": "15.58", "trialTime": 20069, "trial_type": "mouselab-mdp", "trial_index": 54, "time_elapsed": 1778338, "internal_node_id": "0.0-4.0-1.0-33.0"}}, {"uniqueid": "w14522309:a27645497", "current_trial": 55, "dateTime": 1691072590872, "trialdata": {"revealed_states": [], "clicked_states": [], "num_clicks_accrued": [0, 0, 0, 0, 0, 0, 0, 0, 0, 0, 0, 0, 0], "stateRewards": ["", 2, 3, 6, -5, -74, -53, 17, -12, 46, 44, 18, -2, 4, 1, -8, 22, -23, -49, 9, -45, 55, 81, 1, -1, -7, -16, -83, -71, -45, 2, 51, 82, 61], "withholdReward": false, "trial_id": "mdp_trial_35", "block": "test", "trialIndex": 40, "score": -28, "costs": 0, "simulationMode": [null, null, null, null, null], "rewards": [-2, 4, 1, -8, -23], "path": ["0", "0", "12", "13", "14", "15", "17"], "rt": [1674, 466, 433, 392, 1581], "actions": ["right", "right", "right", "up", "right"], "actionTimes": [3474, 4439, 5374, 6293, 8375], "queries": {"click": {"state": {"target": [], "time": []}, "edge": {"target": [], "time": []}}, "mouseover": {"state": {"target": ["0", "12"], "time": [2503, 2603]}, "edge": {"target": [], "time": []}}, "mouseout": {"state": {"target": ["0", "0", "12", "0"], "time": [1653, 2552, 26161, 26292]}, "edge": {"target": [], "time": []}}}, "displayed_time": "15.80", "trialTime": 26593, "trial_type": "mouselab-mdp", "trial_index": 55, "time_elapsed": 1805170, "internal_node_id": "0.0-4.0-1.0-34.0"}}, {"uniqueid": "w14522309:a27645497", "current_trial": 56, "dateTime": 1691072617448, "trialdata": {"revealed_states": [], "clicked_states": [], "num_clicks_accrued": [0, 0, 0, 0, 0, 0, 0, 0, 0, 0, 0, 0, 0], "stateRewards": ["", -2, 1, -7, 9, 8, 25, 61, -7, -17, 69, -81, 1, 4, -4, -11, 16, 67, 44, 3, 6, -45, -54, -2, 3, 6, -11, -15, 32, -47, 3, -39, -6, -88], "withholdReward": false, "trial_id": "mdp_trial_36", "block": "test", "trialIndex": 41, "score": 57, "costs": 0, "simulationMode": [null, null, null, null, null], "rewards": [1, 4, -4, -11, 67], "path": ["0", "0", "12", "13", "14", "15", "17"], "rt": [4726, 147, 275, 115, 121], "actions": ["right", "right", "right", "up", "right"], "actionTimes": [13283, 13933, 14712, 15320, 15943], "queries": {"click": {"state": {"target": [], "time": []}, "edge": {"target": [], "time": []}}, "mouseover": {"state": {"target": [], "time": []}, "edge": {"target": [], "time": []}}, "mouseout": {"state": {"target": ["0"], "time": [529]}, "edge": {"target": [], "time": []}}}, "displayed_time": "22.57", "trialTime": 26321, "trial_type": "mouselab-mdp", "trial_index": 56, "time_elapsed": 1831746, "internal_node_id": "0.0-4.0-1.0-35.0"}}, {"uniqueid": "w14522309:a27645497", "current_trial": 57, "dateTime": 1691072647522, "trialdata": {"revealed_states": [], "clicked_states": [], "num_clicks_accrued": [0, 0, 0, 0, 0, 0, 0, 0, 0, 0, 0, 0, 0], "stateRewards": ["", 2, -1, 4, -9, -43, 7, 54, -13, 38, -40, -83, -1, 2, -8, -10, 34, -33, 11, -14, -79, 65, 26, 1, 2, 4, 10, 21, 1, 86, 4, -53, 28, -29], "withholdReward": false, "trial_id": "mdp_trial_37", "block": "test", "trialIndex": 42, "score": -50, "costs": 0, "simulationMode": [null, null, null, null, null], "rewards": [-1, 2, -8, -10, -33], "path": ["0", "0", "12", "13", "14", "15", "17"], "rt": [2480, 132, 2588, 61, 59], "actions": ["right", "right", "right", "up", "right"], "actionTimes": [4117, 4742, 7832, 8394, 8959], "queries": {"click": {"state": {"target": [], "time": []}, "edge": {"target": [], "time": []}}, "mouseover": {"state": {"target": [], "time": []}, "edge": {"target": [], "time": []}}, "mouseout": {"state": {"target": ["0"], "time": [818]}, "edge": {"target": [], "time": []}}}, "displayed_time": "15.64", "trialTime": 29822, "trial_type": "mouselab-mdp", "trial_index": 57, "time_elapsed": 1861820, "internal_node_id": "0.0-4.0-1.0-36.0"}}, {"uniqueid": "w14522309:a27645497", "current_trial": 58, "dateTime": 1691072665894, "trialdata": {"revealed_states": [], "clicked_states": [], "num_clicks_accrued": [0, 0, 0, 0, 0, 0, 0, 0, 0, 0, 0, 0, 0], "stateRewards": ["", -1, -3, -6, 14, 41, 18, 63, -14, 80, 21, 17, -2, -4, -2, -5, 13, 70, 8, -4, -64, -10, -20, 2, -1, 4, -1, -17, -55, 42, -7, 47, 54, 15], "withholdReward": false, "trial_id": "mdp_trial_38", "block": "test", "trialIndex": 43, "score": -51, "costs": 0, "simulationMode": [null, null, null, null, null], "rewards": [2, -1, 4, -1, -55], "path": ["0", "0", "23", "24", "25", "26", "28"], "rt": [1603, 1223, 235, 529, 132], "actions": ["left", "left", "left", "up", "right"], "actionTimes": [2899, 4626, 5358, 6387, 7024], "queries": {"click": {"state": {"target": [], "time": []}, "edge": {"target": [], "time": []}}, "mouseover": {"state": {"target": [], "time": []}, "edge": {"target": [], "time": []}}, "mouseout": {"state": {"target": ["0"], "time": [748]}, "edge": {"target": [], "time": []}}}, "displayed_time": "15.30", "trialTime": 18139, "trial_type": "mouselab-mdp", "trial_index": 58, "time_elapsed": 1880192, "internal_node_id": "0.0-4.0-1.0-37.0"}}, {"uniqueid": "w14522309:a27645497", "current_trial": 59, "dateTime": 1691072683960, "trialdata": {"revealed_states": [], "clicked_states": [], "num_clicks_accrued": [0, 0, 0, 0, 0, 0, 0, 0, 0, 0, 0, 0, 0], "stateRewards": ["", -2, -3, -7, 7, -54, -69, -4, -14, -77, 22, 40, -2, -1, 5, 6, -35, 50, -60, 10, -28, 75, 57, 1, -4, -2, 2, 68, 34, -18, 12, 3, -21, -43], "withholdReward": false, "trial_id": "mdp_trial_39", "block": "test", "trialIndex": 44, "score": 31, "costs": 0, "simulationMode": [null, null, null, null, null], "rewards": [1, -4, -2, 2, 34], "path": ["0", "0", "23", "24", "25", "26", "28"], "rt": [1145, 492, 692, 150, 5], "actions": ["left", "left", "left", "up", "right"], "actionTimes": [3007, 3996, 5181, 5823, 6330], "queries": {"click": {"state": {"target": [], "time": []}, "edge": {"target": [], "time": []}}, "mouseover": {"state": {"target": [], "time": []}, "edge": {"target": [], "time": []}}, "mouseout": {"state": {"target": ["0", "0"], "time": [638, 1482]}, "edge": {"target": [], "time": []}}}, "displayed_time": "15.86", "trialTime": 17808, "trial_type": "mouselab-mdp", "trial_index": 59, "time_elapsed": 1898258, "internal_node_id": "0.0-4.0-1.0-38.0"}}, {"uniqueid": "w14522309:a27645497", "current_trial": 60, "dateTime": 1691072701922, "trialdata": {"revealed_states": [], "clicked_states": [], "num_clicks_accrued": [0, 0, 0, 0, 0, 0, 0, 0, 0, 0, 0, 0, 0], "stateRewards": ["", -2, 4, -3, -13, 63, -36, 62, 11, 78, 34, -51, 2, -2, 8, -6, -40, -18, 31, 9, 64, 39, 79, 1, 4, -4, 15, -12, 76, 73, -10, -77, 86, -4], "withholdReward": false, "trial_id": "mdp_trial_40", "block": "test", "trialIndex": 45, "score": 92, "costs": 0, "simulationMode": [null, null, null, null, null], "rewards": [1, 4, -4, 15, 76], "path": ["0", "0", "23", "24", "25", "26", "28"], "rt": [737, 126, 461, 934, 509], "actions": ["left", "left", "left", "up", "right"], "actionTimes": [2485, 3104, 4057, 5480, 6491], "queries": {"click": {"state": {"target": [], "time": []}, "edge": {"target": [], "time": []}}, "mouseover": {"state": {"target": [], "time": []}, "edge": {"target": [], "time": []}}, "mouseout": {"state": {"target": ["0", "0"], "time": [708, 1323]}, "edge": {"target": [], "time": []}}}, "displayed_time": "15.75", "trialTime": 17697, "trial_type": "mouselab-mdp", "trial_index": 60, "time_elapsed": 1916220, "internal_node_id": "0.0-4.0-1.0-39.0"}}, {"uniqueid": "w14522309:a27645497", "current_trial": 61, "dateTime": 1691072794880, "trialdata": {"rt": 92954, "response": {"Q0": "$-88 to $88", "Q1": "$-32 to $32", "Q2": "$-16 to $16", "Q3": "The cost for clicking on nodes varied between nodes.", "Q4": "Very motivated"}, "question_order": [0, 1, 2, 3, 4], "trial_id": "final_quiz_control", "trial_type": "survey-multi-choice", "trial_index": 61, "time_elapsed": 2009178, "internal_node_id": "0.0-4.0-2.0"}}, {"uniqueid": "w14522309:a27645497", "current_trial": 62, "dateTime": 1691072982297, "trialdata": {"rt": 187409, "response": {"Q0": "I started by going to the edges of all sides to see what I would get. Then I started going back to similar nodes in the same manner as before, even though I had lost money because I realised that if I started on a negative then the following values (tries/attempts) would be positive values then they stop going up and start going down. At that point, I change and do the same in the opposite direction.", "Q1": "Yes. Initially I was just attempting going in different directions. Then i found a strategy I liked that guaranteed wins even though I lost some money", "Q2": "Not very difficult because I paid attention to what was happening and created a plan from that"}, "trial_id": "self_report_control", "trial_type": "survey-text", "trial_index": 62, "time_elapsed": 2196595, "internal_node_id": "0.0-4.0-3.0"}}, {"uniqueid": "w14522309:a27645497", "current_trial": 63, "dateTime": 1691073044116, "trialdata": {"rt": 61816, "response": {"Q0": "Strongly agree", "Q1": "Disagree", "Q2": "Agree", "Q3": "Strongly agree", "Q4": "Neither disagree nor agree", "Q5": "Neither disagree nor agree", "Q6": "Neither disagree nor agree"}, "question_order": [0, 1, 2, 3, 4, 5, 6], "trial_id": "self_report_2", "trial_type": "survey-multi-choice", "trial_index": 63, "time_elapsed": 2258414, "internal_node_id": "0.0-4.0-4.0"}}, {"uniqueid": "w14522309:a27645497", "current_trial": 64, "dateTime": 1691073076819, "trialdata": {"rt": 32698, "response": {"gender": "female", "age": "29", "colorblind": "0", "effort": "0"}, "trial_type": "survey-html-form", "trial_index": 64, "time_elapsed": 2291117, "internal_node_id": "0.0-4.0-5.0"}}, {"uniqueid": "w14522309:a27645497", "current_trial": 65, "dateTime": 1691073118573, "trialdata": {"rt": 41750, "response": {"Q0": "Nope", "Q1": "No", "Q2": "None. Good and refreshing game and study to take part in.\n\nThank you"}, "trial_type": "survey-text", "trial_index": 65, "time_elapsed": 2332871, "internal_node_id": "0.0-4.0-6.0"}}, {"uniqueid": "w14522309:a27645497", "current_trial": 66, "dateTime": 1691073121877, "trialdata": {"rt": 3300, "stimulus": "Press 'Finish HIT' in order to reach the completion code. Once the data has been saved, you will receive the code either in this window or in the original browser window where you started the experiment.\n", "response": 0, "trial_type": "html-button-response", "trial_index": 66, "time_elapsed": 2336174, "internal_node_id": "0.0-5.0"}}, {"uniqueid": "w14522309:a27645497", "current_trial": 67, "dateTime": 1691073122880, "trialdata": {"success": true, "trial_type": "fullscreen", "trial_index": 67, "time_elapsed": 2337178, "internal_node_id": "0.0-6.0"}}], "questiondata": {"params": {"CODE": "C6DMOQA6", "MIN_TIME": 14, "inspectCost": 1, "startTime": "Thu Aug 03 2023 15:53:02 GMT+0200 (South Africa Standard Time)", "bonusRate": 0.002, "variance": "1_2_4_8_44", "branching": "31123"}, "final_score": 1077}, "eventdata": [{"eventtype": "initialized", "value": null, "timestamp": 1691070782108, "interval": 0}, {"eventtype": "window_resize", "value": [1280, 706], "timestamp": 1691070782108, "interval": 0}, {"eventtype": "window_resize", "value": [1280, 706], "timestamp": 1691070782630, "interval": 522}, {"eventtype": "window_resize", "value": [1280, 800], "timestamp": 1691070792507, "interval": 9877}, {"eventtype": "focus", "value": "off", "timestamp": 1691071166607, "interval": 374100}, {"eventtype": "focus", "value": "on", "timestamp": 1691071246726, "interval": 80119}, {"eventtype": "focus", "value": "off", "timestamp": 1691071350639, "interval": 103913}, {"eventtype": "focus", "value": "on", "timestamp": 1691071350640, "interval": 1}, {"eventtype": "window_resize", "value": [1280, 706], "timestamp": 1691071350843, "interval": 203}, {"eventtype": "window_resize", "value": [1280, 800], "timestamp": 1691071353206, "interval": 2363}, {"eventtype": "focus", "value": "off", "timestamp": 1691071640251, "interval": 287045}, {"eventtype": "focus", "value": "on", "timestamp": 1691071640251, "interval": 0}, {"eventtype": "window_resize", "value": [1280, 706], "timestamp": 1691071640455, "interval": 204}, {"eventtype": "focus", "value": "off", "timestamp": 1691071641820, "interval": 1365}, {"eventtype": "focus", "value": "on", "timestamp": 1691071733952, "interval": 92132}, {"eventtype": "window_resize", "value": [1280, 800], "timestamp": 1691071736366, "interval": 2414}, {"eventtype": "focus", "value": "off", "timestamp": 1691072099671, "interval": 363305}, {"eventtype": "focus", "value": "on", "timestamp": 1691072134105, "interval": 34434}, {"eventtype": "window_resize", "value": [1280, 706], "timestamp": 1691073122100, "interval": 987995}], "useragent": "Mozilla/5.0 (Windows NT 10.0; Win64; x64) AppleWebKit/537.36 (KHTML, like Gecko) Chrome/115.0.0.0 Safari/537.36 Edg/115.0.1901.188", "mode": "live", "id": "w14522309:a27645497", "status": "user data saved", "Beginhit": "2023-08-03 13:52:58.496307", "Beginexp": "2023-08-03 13:53:13.485185", "Endhit": "2023-08-03 14:32:04.803822", "psiturkStatus": 3, "browser": "<redacted>", "platform": "windows", "language": "en-US"}