{"condition": 1, "counterbalance": 0, "assignmentId": "a66318162", "workerId": "w36007363", "hitId": "h79823369", "currenttrial": 56, "bonus": 0, "data": [{"uniqueid": "w36007363:a66318162", "current_trial": 0, "dateTime": 1693482809406, "trialdata": {"success": true, "trial_type": "fullscreen", "trial_index": 0, "time_elapsed": 23659, "internal_node_id": "0.0-0.0"}}, {"uniqueid": "w36007363:a66318162", "current_trial": 1, "dateTime": 1693482826900, "trialdata": {"view_history": [{"page_index": 0, "viewing_time": 17489}], "rt": 17489, "trial_id": "exp_instructions_misaligned", "trial_type": "instructions", "trial_index": 1, "time_elapsed": 41153, "internal_node_id": "0.0-1.0"}}, {"uniqueid": "w36007363:a66318162", "current_trial": 2, "dateTime": 1693483240515, "trialdata": {"view_history": [{"page_index": 0, "viewing_time": 120987}, {"page_index": 1, "viewing_time": 128426}, {"page_index": 2, "viewing_time": 41213}, {"page_index": 3, "viewing_time": 122986}], "rt": 413612, "trial_id": "mouselab_instructions_1_misaligned", "trial_type": "instructions", "trial_index": 2, "time_elapsed": 454767, "internal_node_id": "0.0-2.0-1.0"}}, {"uniqueid": "w36007363:a66318162", "current_trial": 3, "dateTime": 1693483310946, "trialdata": {"revealed_states": [], "clicked_states": [], "num_clicks_accrued": [0, 0, 0, 0, 0, 0, 0, 0, 0, 0, 0, 0, 0], "stateRewards": ["", -10, -10, 10, -10, -10, -10, -10, -10, -10, -10, -10, 10, 10, -10, 10, -10, 10, -10, 10, -10, 10, -10, 10, 10, -10, 10, -10, -10, -10, -10, -10, -10, 10], "withholdReward": false, "trial_id": "practice_1", "block": "test", "trialIndex": 0, "score": 13.5, "costs": 0, "simulationMode": [null, null, null, null, null], "rewards": [10, 10, -10, 10, -10], "path": ["0", "0", "23", "24", "25", "26", "27"], "rt": [10890, 447, 128, 941, 212], "actions": ["left", "left", "left", "up", "up"], "actionTimes": [52167, 53115, 53760, 55190, 55895], "queries": {"click": {"state": {"target": [], "time": []}, "edge": {"target": [], "time": []}}, "mouseover": {"state": {"target": [], "time": []}, "edge": {"target": [], "time": []}}, "mouseout": {"state": {"target": ["5", "1", "15", "18", "18", "16", "6", "0"], "time": [32799, 40715, 60300, 60315, 60748, 60781, 68299, 68632]}, "edge": {"target": [], "time": []}}}, "displayed_time": "56.40", "trialTime": 69411, "trial_type": "mouselab-mdp", "trial_index": 3, "time_elapsed": 525198, "internal_node_id": "0.0-2.0-2.0-0.0"}}, {"uniqueid": "w36007363:a66318162", "current_trial": 4, "dateTime": 1693483320346, "trialdata": {"revealed_states": [], "clicked_states": [], "num_clicks_accrued": [0, 0, 0, 0, 0, 0, 0, 0, 0, 0, 0, 0, 0], "stateRewards": ["", -10, 10, -10, 10, -10, 10, -10, 10, 10, 10, -10, 10, 10, 10, -10, -10, 10, -10, -10, 10, -10, 10, -10, 10, -10, -10, -10, 10, 10, -10, 10, -10, -10], "withholdReward": false, "trial_id": "practice_2", "block": "test", "trialIndex": 1, "score": 13.5, "costs": 0, "simulationMode": [null, null, null, null, null], "rewards": [10, 10, 10, -10, -10], "path": ["0", "0", "12", "13", "14", "15", "16"], "rt": [571, 99, 172, 587, 444], "actions": ["right", "right", "right", "up", "up"], "actionTimes": [2855, 3452, 4126, 5223, 6165], "queries": {"click": {"state": {"target": [], "time": []}, "edge": {"target": [], "time": []}}, "mouseover": {"state": {"target": [], "time": []}, "edge": {"target": [], "time": []}}, "mouseout": {"state": {"target": ["0"], "time": [1636]}, "edge": {"target": [], "time": []}}}, "displayed_time": "6.67", "trialTime": 9282, "trial_type": "mouselab-mdp", "trial_index": 4, "time_elapsed": 534598, "internal_node_id": "0.0-2.0-2.0-1.0"}}, {"uniqueid": "w36007363:a66318162", "current_trial": 5, "dateTime": 1693483356388, "trialdata": {"view_history": [{"page_index": 0, "viewing_time": 25391}, {"page_index": 1, "viewing_time": 10648}], "rt": 36039, "trial_id": "mouselab_instructions_2_misaligned", "trial_type": "instructions", "trial_index": 5, "time_elapsed": 570641, "internal_node_id": "0.0-2.0-3.0"}}, {"uniqueid": "w36007363:a66318162", "current_trial": 6, "dateTime": 1693483426152, "trialdata": {"rt": 69761, "response": {"Q0": "The cost for clicking on nodes may vary between nodes.", "Q1": "The better I perform the higher my bonus will be.", "Q2": "No, the amount of cash at each node of the web may be different each time.", "Q3": "To get the highest total score.", "Q4": "Only before moving the spider.", "Q5": "3 seconds"}, "question_order": [0, 1, 2, 3, 4, 5], "correct": {"Q0": "The cost for clicking on nodes may vary between nodes.", "Q1": "The better I perform the higher my bonus will be.", "Q2": "No, the amount of cash at each node of the web may be different each time.", "Q3": "To get the highest total score.", "Q4": "Only before moving the spider.", "Q5": "3 seconds"}, "trial_id": "mouselab_quiz_misaligned", "trial_type": "survey-multi-choice", "trial_index": 6, "time_elapsed": 640405, "internal_node_id": "0.0-2.0-4.0"}}, {"uniqueid": "w36007363:a66318162", "current_trial": 7, "dateTime": 1693483436472, "trialdata": {"rt": 10315, "response": {"Q0": "No"}, "question_order": [0], "trial_id": "repeat_check", "trial_type": "survey-multi-choice", "trial_index": 7, "time_elapsed": 650725, "internal_node_id": "0.0-4.0-0.0"}}, {"uniqueid": "w36007363:a66318162", "current_trial": 8, "dateTime": 1693483452055, "trialdata": {"rt": 15579, "stimulus": "\n<h1> Get ready to start the game! </h1>\n\nThank you for reading the instructions. Get ready start with the 40 rounds of this game.\n<br><br>\nIf you need to take a break, feel free to take one after the end of a round, before continuing to the next one.\n<br><br>\nRemember, the more money the spider gets, the bigger your bonus will be!\n<br><br>\n<div style='text-align: center;'>Press <code>space</code> to begin.</div>\n\n<br><br>\n(If, at any point, the <code>space</code> key does not take you to the next page, click once on the text and try again.)", "response": " ", "trial_id": "mdp_ready", "trial_type": "html-keyboard-response", "trial_index": 8, "time_elapsed": 666308, "internal_node_id": "0.0-6.0-0.0"}}, {"uniqueid": "w36007363:a66318162", "current_trial": 9, "dateTime": 1693483472158, "trialdata": {"revealed_states": [], "clicked_states": [], "num_clicks_accrued": [0, 0, 0, 0, 0, 0, 0, 0, 0, 0, 0, 0, 0], "stateRewards": ["", 1, -2, 4, 7, -43, -83, -60, -5, -86, -80, 83, -1, -2, 6, 11, -15, 21, 13, 9, 29, -49, 11, -1, 4, -6, -11, 87, 40, 63, -8, -39, -11, 62], "withholdReward": false, "trial_id": "mdp_trial_1", "block": "test", "trialIndex": 2, "score": -1, "costs": 0, "simulationMode": [null, null, null, null, null], "rewards": [-1, -2, 6, 11, -15], "path": ["0", "0", "12", "13", "14", "15", "16"], "rt": [1386, 172, 10, 344, 47], "actions": ["right", "right", "right", "up", "up"], "actionTimes": [3483, 4148, 4652, 5521, 6074], "queries": {"click": {"state": {"target": [], "time": []}, "edge": {"target": [], "time": []}}, "mouseover": {"state": {"target": ["12"], "time": [2774]}, "edge": {"target": [], "time": []}}, "mouseout": {"state": {"target": ["2", "1", "12", "0", "0", "22"], "time": [1374, 1692, 2791, 7108, 7242, 8877]}, "edge": {"target": [], "time": []}}}, "displayed_time": "16.10", "trialTime": 19952, "trial_type": "mouselab-mdp", "trial_index": 9, "time_elapsed": 686410, "internal_node_id": "0.0-6.0-1.0-0.0"}}, {"uniqueid": "w36007363:a66318162", "current_trial": 10, "dateTime": 1693483493216, "trialdata": {"revealed_states": [], "clicked_states": [], "num_clicks_accrued": [0, 0, 0, 0, 0, 0, 0, 0, 0, 0, 0, 0, 0], "stateRewards": ["", -2, 1, -5, 2, -68, 80, 33, 10, 67, -59, 20, -1, -3, 3, 14, 74, -2, 24, -16, 63, 80, 46, -1, 4, 6, 12, 83, -38, -43, -4, 43, 14, -79], "withholdReward": false, "trial_id": "mdp_trial_2", "block": "test", "trialIndex": 3, "score": 63, "costs": 0, "simulationMode": [null, null, null, null, null], "rewards": [-1, -3, 3, -16, 80], "path": ["0", "0", "12", "13", "14", "19", "21"], "rt": [1192, 491, 255, 577, 272], "actions": ["right", "right", "right", "down", "down"], "actionTimes": [6155, 7140, 7887, 8959, 9722], "queries": {"click": {"state": {"target": [], "time": []}, "edge": {"target": [], "time": []}}, "mouseover": {"state": {"target": [], "time": []}, "edge": {"target": [], "time": []}}, "mouseout": {"state": {"target": ["0", "0", "0", "15", "20"], "time": [1333, 4231, 11136, 11182, 12532]}, "edge": {"target": [], "time": []}}}, "displayed_time": "18.96", "trialTime": 20935, "trial_type": "mouselab-mdp", "trial_index": 10, "time_elapsed": 707469, "internal_node_id": "0.0-6.0-1.0-1.0"}}, {"uniqueid": "w36007363:a66318162", "current_trial": 11, "dateTime": 1693483511046, "trialdata": {"revealed_states": [], "clicked_states": [], "num_clicks_accrued": [0, 0, 0, 0, 0, 0, 0, 0, 0, 0, 0, 0, 0], "stateRewards": ["", -1, 3, 8, 10, -86, 61, -36, 10, 17, -60, 24, -1, -3, 3, 11, 50, 60, 33, -3, -20, 58, -6, 1, -4, -4, 13, -70, -71, 43, 14, 52, 82, -11], "withholdReward": false, "trial_id": "mdp_trial_3", "block": "test", "trialIndex": 4, "score": 89, "costs": 0, "simulationMode": [null, null, null, null, null], "rewards": [1, -4, -4, 14, 82], "path": ["0", "0", "23", "24", "25", "30", "32"], "rt": [700, 215, 80, 326, 12], "actions": ["left", "left", "left", "down", "down"], "actionTimes": [2231, 2964, 3563, 4409, 4911], "queries": {"click": {"state": {"target": [], "time": []}, "edge": {"target": [], "time": []}}, "mouseover": {"state": {"target": [], "time": []}, "edge": {"target": [], "time": []}}, "mouseout": {"state": {"target": ["12", "0", "12", "17", "13", "12"], "time": [1091, 6392, 6415, 8064, 8115, 8532]}, "edge": {"target": [], "time": []}}}, "displayed_time": "15.53", "trialTime": 17680, "trial_type": "mouselab-mdp", "trial_index": 11, "time_elapsed": 725299, "internal_node_id": "0.0-6.0-1.0-2.0"}}, {"uniqueid": "w36007363:a66318162", "current_trial": 12, "dateTime": 1693483530045, "trialdata": {"revealed_states": [], "clicked_states": [], "num_clicks_accrued": [0, 0, 0, 0, 0, 0, 0, 0, 0, 0, 0, 0, 0], "stateRewards": ["", -1, -2, 4, 9, 10, -75, 39, 16, -43, 88, -19, -1, 1, 2, 4, -31, 10, 73, 12, 41, -64, -81, -2, 2, -6, 1, -81, -1, -26, 3, -59, -3, -20], "withholdReward": false, "trial_id": "mdp_trial_4", "block": "test", "trialIndex": 5, "score": -65, "costs": 0, "simulationMode": [null, null, null, null, null], "rewards": [-1, -2, 4, 9, -75], "path": ["0", "0", "1", "2", "3", "4", "6"], "rt": [925, 320, 142, 528, 1], "actions": ["up", "up", "up", "right", "right"], "actionTimes": [3308, 4125, 4763, 5785, 6292], "queries": {"click": {"state": {"target": [], "time": []}, "edge": {"target": [], "time": []}}, "mouseover": {"state": {"target": [], "time": []}, "edge": {"target": [], "time": []}}, "mouseout": {"state": {"target": ["0", "12", "1"], "time": [7806, 8039, 9771]}, "edge": {"target": [], "time": []}}}, "displayed_time": "16.39", "trialTime": 18802, "trial_type": "mouselab-mdp", "trial_index": 12, "time_elapsed": 744298, "internal_node_id": "0.0-6.0-1.0-3.0"}}, {"uniqueid": "w36007363:a66318162", "current_trial": 13, "dateTime": 1693483547724, "trialdata": {"revealed_states": [], "clicked_states": [], "num_clicks_accrued": [0, 0, 0, 0, 0, 0, 0, 0, 0, 0, 0, 0, 0], "stateRewards": ["", 2, 4, 4, -8, -36, -33, 38, 16, -51, 57, 57, 1, 3, 4, -6, 45, 68, 87, 1, 63, 24, -55, -2, 2, -6, -13, -63, -50, 8, 2, 80, 6, 60], "withholdReward": false, "trial_id": "mdp_trial_5", "block": "test", "trialIndex": 6, "score": -31, "costs": 0, "simulationMode": [null, null, null, null, null], "rewards": [2, 4, 4, -8, -33], "path": ["0", "0", "1", "2", "3", "4", "6"], "rt": [1209, 144, 279, 385, 116], "actions": ["up", "up", "up", "right", "right"], "actionTimes": [2677, 3333, 4102, 4991, 5605], "queries": {"click": {"state": {"target": [], "time": []}, "edge": {"target": [], "time": []}}, "mouseover": {"state": {"target": [], "time": []}, "edge": {"target": [], "time": []}}, "mouseout": {"state": {"target": ["0", "0", "0"], "time": [687, 1154, 6988]}, "edge": {"target": [], "time": []}}}, "displayed_time": "15.47", "trialTime": 17514, "trial_type": "mouselab-mdp", "trial_index": 13, "time_elapsed": 761977, "internal_node_id": "0.0-6.0-1.0-4.0"}}, {"uniqueid": "w36007363:a66318162", "current_trial": 14, "dateTime": 1693483566228, "trialdata": {"revealed_states": [], "clicked_states": [], "num_clicks_accrued": [0, 0, 0, 0, 0, 0, 0, 0, 0, 0, 0, 0, 0], "stateRewards": ["", 2, 3, 6, -12, -29, 12, 87, 4, 35, -30, 67, 2, 3, -5, -9, 44, 69, -8, 1, 45, -8, 28, -2, -1, -8, 11, -12, -5, 81, 9, 87, 82, 88], "withholdReward": false, "trial_id": "mdp_trial_6", "block": "test", "trialIndex": 7, "score": 50, "costs": 0, "simulationMode": [null, null, null, null, null], "rewards": [2, 3, 6, 4, 35], "path": ["0", "0", "1", "2", "3", "8", "9"], "rt": [829, 136, 279, 4180, 502], "actions": ["up", "up", "up", "left", "up"], "actionTimes": [3012, 3640, 4432, 9118, 10141], "queries": {"click": {"state": {"target": [], "time": []}, "edge": {"target": [], "time": []}}, "mouseover": {"state": {"target": [], "time": []}, "edge": {"target": [], "time": []}}, "mouseout": {"state": {"target": ["0", "17"], "time": [5370, 7119]}, "edge": {"target": [], "time": []}}}, "displayed_time": "16.19", "trialTime": 18050, "trial_type": "mouselab-mdp", "trial_index": 14, "time_elapsed": 780480, "internal_node_id": "0.0-6.0-1.0-5.0"}}, {"uniqueid": "w36007363:a66318162", "current_trial": 15, "dateTime": 1693483584892, "trialdata": {"revealed_states": [], "clicked_states": [], "num_clicks_accrued": [0, 0, 0, 0, 0, 0, 0, 0, 0, 0, 0, 0, 0], "stateRewards": ["", 1, 2, -5, 14, 54, -14, -25, 16, -5, -87, 78, -1, 1, 3, -3, 52, 53, 53, -10, 73, -69, -48, 2, 3, 1, 8, -62, -7, 85, 7, 82, 52, -28], "withholdReward": false, "trial_id": "mdp_trial_7", "block": "test", "trialIndex": 8, "score": 9, "costs": 0, "simulationMode": [null, null, null, null, null], "rewards": [1, 2, -5, 16, -5], "path": ["0", "0", "1", "2", "3", "8", "9"], "rt": [838, 36, 70, 1373, 1603], "actions": ["up", "up", "up", "left", "up"], "actionTimes": [3029, 3565, 4149, 6020, 8115], "queries": {"click": {"state": {"target": [], "time": []}, "edge": {"target": [], "time": []}}, "mouseover": {"state": {"target": [], "time": []}, "edge": {"target": [], "time": []}}, "mouseout": {"state": {"target": ["4", "0", "31", "30", "25", "24", "23"], "time": [1399, 9211, 9295, 9328, 9413, 9546, 9912]}, "edge": {"target": [], "time": []}}}, "displayed_time": "16.19", "trialTime": 18524, "trial_type": "mouselab-mdp", "trial_index": 15, "time_elapsed": 799145, "internal_node_id": "0.0-6.0-1.0-6.0"}}, {"uniqueid": "w36007363:a66318162", "current_trial": 16, "dateTime": 1693483603865, "trialdata": {"revealed_states": [], "clicked_states": [], "num_clicks_accrued": [0, 0, 0, 0, 0, 0, 0, 0, 0, 0, 0, 0, 0], "stateRewards": ["", 2, 3, -2, -8, -8, -41, 74, 15, -23, -80, 1, 1, 3, 3, -15, -63, -78, 67, 13, 75, -41, 86, 2, -2, 6, -3, -8, -49, 50, -6, 83, 74, 80], "withholdReward": false, "trial_id": "mdp_trial_8", "block": "test", "trialIndex": 9, "score": -46, "costs": 0, "simulationMode": [null, null, null, null, null], "rewards": [2, -2, 6, -3, -49], "path": ["0", "0", "23", "24", "25", "26", "28"], "rt": [1145, 30, 115, 500, 55], "actions": ["left", "left", "left", "up", "right"], "actionTimes": [3606, 4125, 4742, 5744, 6301], "queries": {"click": {"state": {"target": [], "time": []}, "edge": {"target": [], "time": []}}, "mouseover": {"state": {"target": [], "time": []}, "edge": {"target": [], "time": []}}, "mouseout": {"state": {"target": ["9", "3", "2", "1", "0", "13", "15", "12", "0", "23", "28", "23", "23", "24", "25", "29", "26"], "time": [1625, 1709, 2009, 2025, 7276, 7578, 7593, 9378, 9394, 9444, 9814, 9962, 15861, 15895, 15927, 16012, 16328]}, "edge": {"target": [], "time": []}}}, "displayed_time": "16.46", "trialTime": 18760, "trial_type": "mouselab-mdp", "trial_index": 16, "time_elapsed": 818117, "internal_node_id": "0.0-6.0-1.0-7.0"}}, {"uniqueid": "w36007363:a66318162", "current_trial": 17, "dateTime": 1693483632646, "trialdata": {"revealed_states": [], "clicked_states": [], "num_clicks_accrued": [0, 0, 0, 0, 0, 0, 0, 0, 0, 0, 0, 0, 0], "stateRewards": ["", 1, -1, 4, 5, -32, 18, 20, 6, -88, -74, 9, -2, 1, -2, -14, 34, -77, -38, -1, 80, -36, 73, 2, 3, -8, 10, -48, -73, -71, -11, -22, 20, 54], "withholdReward": false, "trial_id": "mdp_trial_9", "block": "test", "trialIndex": 10, "score": -40, "costs": 0, "simulationMode": [null, null, null, null, null], "rewards": [-2, 1, -2, -1, -36], "path": ["0", "0", "12", "13", "14", "19", "21"], "rt": [1140, 65, 42, 744, 73], "actions": ["right", "right", "right", "down", "down"], "actionTimes": [3664, 4217, 4776, 6028, 6592], "queries": {"click": {"state": {"target": [], "time": []}, "edge": {"target": [], "time": []}}, "mouseover": {"state": {"target": [], "time": []}, "edge": {"target": [], "time": []}}, "mouseout": {"state": {"target": ["26", "23"], "time": [1467, 1766]}, "edge": {"target": [], "time": []}}}, "displayed_time": "16.53", "trialTime": 28384, "trial_type": "mouselab-mdp", "trial_index": 17, "time_elapsed": 846898, "internal_node_id": "0.0-6.0-1.0-8.0"}}, {"uniqueid": "w36007363:a66318162", "current_trial": 18, "dateTime": 1693483650904, "trialdata": {"revealed_states": [], "clicked_states": [], "num_clicks_accrued": [0, 0, 0, 0, 0, 0, 0, 0, 0, 0, 0, 0, 0], "stateRewards": ["", -1, 4, -3, 3, 57, -61, 5, -11, 23, -1, 34, -2, -4, -1, -13, 27, 38, -36, 4, -45, 21, 88, 1, -2, -1, 1, -69, -5, -78, -12, -9, 38, -54], "withholdReward": false, "trial_id": "mdp_trial_10", "block": "test", "trialIndex": 11, "score": 18, "costs": 0, "simulationMode": [null, null, null, null, null], "rewards": [-2, -4, -1, -13, 38], "path": ["0", "0", "12", "13", "14", "15", "17"], "rt": [1118, 98, 2, 450, 113], "actions": ["right", "right", "right", "up", "right"], "actionTimes": [2593, 3196, 3715, 4696, 5326], "queries": {"click": {"state": {"target": [], "time": []}, "edge": {"target": [], "time": []}}, "mouseover": {"state": {"target": [], "time": []}, "edge": {"target": [], "time": []}}, "mouseout": {"state": {"target": ["0", "0", "31", "31"], "time": [1078, 17081, 17128, 17396]}, "edge": {"target": [], "time": []}}}, "displayed_time": "15.48", "trialTime": 18102, "trial_type": "mouselab-mdp", "trial_index": 18, "time_elapsed": 865156, "internal_node_id": "0.0-6.0-1.0-9.0"}}, {"uniqueid": "w36007363:a66318162", "current_trial": 19, "dateTime": 1693483673971, "trialdata": {"revealed_states": [], "clicked_states": [], "num_clicks_accrued": [0, 0, 0, 0, 0, 0, 0, 0, 0, 0, 0, 0, 0], "stateRewards": ["", -1, 1, -1, 2, 19, 85, -18, 2, -3, -26, 36, 2, 4, 7, -9, -18, 70, 72, -5, 35, -20, -28, 1, -2, -4, -3, -59, -11, -63, -2, -72, 59, -69], "withholdReward": false, "trial_id": "mdp_trial_11", "block": "test", "trialIndex": 12, "score": 86, "costs": 0, "simulationMode": [null, null, null, null, null], "rewards": [-1, 1, -1, 2, 85], "path": ["0", "0", "1", "2", "3", "4", "6"], "rt": [1691, 83, 342, 334, 79], "actions": ["up", "up", "up", "right", "right"], "actionTimes": [5388, 5987, 6862, 7703, 8298], "queries": {"click": {"state": {"target": [], "time": []}, "edge": {"target": [], "time": []}}, "mouseover": {"state": {"target": ["23", "10"], "time": [4218, 4383]}, "edge": {"target": [], "time": []}}, "mouseout": {"state": {"target": ["0", "23", "10", "16", "17", "15", "18"], "time": [1050, 4251, 4552, 10083, 12166, 12201, 22585]}, "edge": {"target": [], "time": []}}}, "displayed_time": "17.70", "trialTime": 22908, "trial_type": "mouselab-mdp", "trial_index": 19, "time_elapsed": 888223, "internal_node_id": "0.0-6.0-1.0-10.0"}}, {"uniqueid": "w36007363:a66318162", "current_trial": 20, "dateTime": 1693483699299, "trialdata": {"revealed_states": [], "clicked_states": [], "num_clicks_accrued": [0, 0, 0, 0, 0, 0, 0, 0, 0, 0, 0, 0, 0], "stateRewards": ["", -1, -2, -1, -10, -57, 73, -72, -16, 75, -14, -46, -2, -3, -7, -1, -61, -60, 76, -4, 50, 4, 14, 2, 2, -7, 12, -65, -32, 15, -8, -76, -25, -61], "withholdReward": false, "trial_id": "mdp_trial_12", "block": "test", "trialIndex": 13, "score": 24, "costs": 0, "simulationMode": [null, null, null, null, null], "rewards": [2, 2, -7, 12, 15], "path": ["0", "0", "23", "24", "25", "26", "29"], "rt": [715, 24, 125, 1078, 129], "actions": ["left", "left", "left", "up", "left"], "actionTimes": [2702, 3239, 3855, 5442, 6059], "queries": {"click": {"state": {"target": [], "time": []}, "edge": {"target": [], "time": []}}, "mouseover": {"state": {"target": [], "time": []}, "edge": {"target": [], "time": []}}, "mouseout": {"state": {"target": ["1", "0", "23", "24", "28", "31", "24", "23", "23", "23", "1", "23", "23"], "time": [1446, 7411, 7461, 7544, 7578, 8277, 8428, 8827, 9045, 9796, 10430, 11596, 12212]}, "edge": {"target": [], "time": []}}}, "displayed_time": "15.99", "trialTime": 25130, "trial_type": "mouselab-mdp", "trial_index": 20, "time_elapsed": 913551, "internal_node_id": "0.0-6.0-1.0-11.0"}}, {"uniqueid": "w36007363:a66318162", "current_trial": 21, "dateTime": 1693483717175, "trialdata": {"revealed_states": [], "clicked_states": [], "num_clicks_accrued": [0, 0, 0, 0, 0, 0, 0, 0, 0, 0, 0, 0, 0], "stateRewards": ["", 2, 4, -3, 16, -58, 30, -35, 11, -60, 47, 27, -2, -1, -7, -16, 23, -70, 68, -10, -65, -43, -34, -2, 1, 7, 9, -63, 34, -31, -8, -12, -86, 59], "withholdReward": false, "trial_id": "mdp_trial_13", "block": "test", "trialIndex": 14, "score": -39, "costs": 0, "simulationMode": [null, null, null, null, null], "rewards": [2, 4, -3, 16, -58], "path": ["0", "0", "1", "2", "3", "4", "5"], "rt": [1181, 19, 49, 390, 141], "actions": ["up", "up", "up", "right", "up"], "actionTimes": [3469, 3977, 4557, 5448, 6084], "queries": {"click": {"state": {"target": [], "time": []}, "edge": {"target": [], "time": []}}, "mouseover": {"state": {"target": [], "time": []}, "edge": {"target": [], "time": []}}, "mouseout": {"state": {"target": ["24", "23", "23"], "time": [1456, 1523, 7025]}, "edge": {"target": [], "time": []}}}, "displayed_time": "16.29", "trialTime": 17702, "trial_type": "mouselab-mdp", "trial_index": 21, "time_elapsed": 931427, "internal_node_id": "0.0-6.0-1.0-12.0"}}, {"uniqueid": "w36007363:a66318162", "current_trial": 22, "dateTime": 1693483737662, "trialdata": {"revealed_states": [], "clicked_states": [], "num_clicks_accrued": [0, 0, 0, 0, 0, 0, 0, 0, 0, 0, 0, 0, 0], "stateRewards": ["", -1, 4, 3, 12, -27, 34, -33, 3, -63, 1, 6, 2, 2, -6, -11, -77, -85, 68, -6, 51, 81, -60, -2, -2, 1, 15, 20, 15, 68, -10, -14, 6, -4], "withholdReward": false, "trial_id": "mdp_trial_14", "block": "test", "trialIndex": 15, "score": -9, "costs": 0, "simulationMode": [null, null, null, null, null], "rewards": [-1, 4, 3, 12, -27], "path": ["0", "0", "1", "2", "3", "4", "5"], "rt": [398, 215, 317, 35, 10], "actions": ["up", "up", "up", "right", "up"], "actionTimes": [2550, 3271, 4105, 4641, 5183], "queries": {"click": {"state": {"target": [], "time": []}, "edge": {"target": [], "time": []}}, "mouseover": {"state": {"target": [], "time": []}, "edge": {"target": [], "time": []}}, "mouseout": {"state": {"target": ["1", "0", "0", "10"], "time": [987, 1371, 6122, 6254]}, "edge": {"target": [], "time": []}}}, "displayed_time": "16.15", "trialTime": 20319, "trial_type": "mouselab-mdp", "trial_index": 22, "time_elapsed": 951914, "internal_node_id": "0.0-6.0-1.0-13.0"}}, {"uniqueid": "w36007363:a66318162", "current_trial": 23, "dateTime": 1693483754622, "trialdata": {"revealed_states": [], "clicked_states": [], "num_clicks_accrued": [0, 0, 0, 0, 0, 0, 0, 0, 0, 0, 0, 0, 0], "stateRewards": ["", -1, 2, -2, 5, 80, -61, -27, 12, 44, -26, -75, -2, -4, 1, -16, 42, -49, -50, 4, -44, 2, 80, -2, -2, 5, -2, 59, 10, 24, 7, -48, -86, -44], "withholdReward": false, "trial_id": "mdp_trial_15", "block": "test", "trialIndex": 16, "score": -15, "costs": 0, "simulationMode": [null, null, null, null, null], "rewards": [-1, 2, -2, 12, -26], "path": ["0", "0", "1", "2", "3", "8", "10"], "rt": [575, 727, 109, 284, 528], "actions": ["up", "up", "up", "left", "down"], "actionTimes": [2874, 4091, 4707, 5498, 6526], "queries": {"click": {"state": {"target": [], "time": []}, "edge": {"target": [], "time": []}}, "mouseover": {"state": {"target": [], "time": []}, "edge": {"target": [], "time": []}}, "mouseout": {"state": {"target": ["10", "1", "0", "0"], "time": [1463, 1512, 1546, 1929]}, "edge": {"target": [], "time": []}}}, "displayed_time": "16.30", "trialTime": 16686, "trial_type": "mouselab-mdp", "trial_index": 23, "time_elapsed": 968874, "internal_node_id": "0.0-6.0-1.0-14.0"}}, {"uniqueid": "w36007363:a66318162", "current_trial": 24, "dateTime": 1693483770758, "trialdata": {"revealed_states": [], "clicked_states": [], "num_clicks_accrued": [0, 0, 0, 0, 0, 0, 0, 0, 0, 0, 0, 0, 0], "stateRewards": ["", -2, -3, -3, 9, 79, 67, 22, -15, -56, 27, -85, -2, 4, -4, -15, -20, -32, 60, 15, 71, 57, 17, 1, 2, -8, 15, -37, -81, 82, 15, 21, -3, 2], "withholdReward": false, "trial_id": "mdp_trial_16", "block": "test", "trialIndex": 17, "score": -71, "costs": 0, "simulationMode": [null, null, null, null, null], "rewards": [1, 2, -8, 15, -81], "path": ["0", "0", "23", "24", "25", "26", "28"], "rt": [1047, 516, 35, 303, 113], "actions": ["left", "left", "left", "up", "right"], "actionTimes": [2316, 3354, 3890, 4707, 5335], "queries": {"click": {"state": {"target": [], "time": []}, "edge": {"target": [], "time": []}}, "mouseover": {"state": {"target": [], "time": []}, "edge": {"target": [], "time": []}}, "mouseout": {"state": {"target": [], "time": []}, "edge": {"target": [], "time": []}}}, "displayed_time": "15.27", "trialTime": 15962, "trial_type": "mouselab-mdp", "trial_index": 24, "time_elapsed": 985010, "internal_node_id": "0.0-6.0-1.0-15.0"}}, {"uniqueid": "w36007363:a66318162", "current_trial": 25, "dateTime": 1693483795865, "trialdata": {"revealed_states": [], "clicked_states": ["16"], "num_clicks_accrued": [0, 0, 0, 0, 0, 0, 0, 0, 0, 0, 0, 0, 0], "stateRewards": ["", -1, 3, 8, 9, -53, 20, -84, 2, -28, -62, -31, -1, -2, -7, 2, 51, 58, 45, -4, -17, -41, 36, 2, -2, -7, -15, 29, -54, -37, -16, -43, 65, -17], "withholdReward": false, "trial_id": "mdp_trial_17", "block": "test", "trialIndex": 18, "score": 40.85, "costs": -2.15, "simulationMode": [null, null, null, null, null], "rewards": [-1, -2, -7, 2, 51], "path": ["0", "0", "12", "13", "14", "15", "16"], "rt": [5941, 30, 247, 748, 148], "actions": ["right", "right", "right", "up", "up"], "actionTimes": [15252, 15783, 16564, 17816, 18465], "queries": {"click": {"state": {"target": ["16"], "time": [10721]}, "edge": {"target": [], "time": []}}, "mouseover": {"state": {"target": ["16", "15", "14", "20"], "time": [10102, 11850, 11884, 12483]}, "edge": {"target": [], "time": []}}, "mouseout": {"state": {"target": ["0", "0", "10", "27", "8", "3", "4", "7", "16", "15", "14", "20", "22"], "time": [901, 984, 2735, 3284, 7451, 7751, 8468, 8500, 11834, 11867, 11917, 13552, 20068]}, "edge": {"target": [], "time": []}}}, "displayed_time": "23.31", "trialTime": 24935, "trial_type": "mouselab-mdp", "trial_index": 25, "time_elapsed": 1010117, "internal_node_id": "0.0-6.0-1.0-16.0"}}, {"uniqueid": "w36007363:a66318162", "current_trial": 26, "dateTime": 1693483813631, "trialdata": {"revealed_states": [], "clicked_states": ["21"], "num_clicks_accrued": [0, 0, 0, 0, 0, 0, 0, 0, 0, 0, 0, 0, 0], "stateRewards": ["", -1, -4, 8, 8, -68, 47, 24, -7, -61, 49, -69, -1, -1, 8, -7, 42, 1, -45, -11, 10, -63, -6, 1, 4, 6, -16, 79, -37, -58, -12, 81, 18, -53], "withholdReward": false, "trial_id": "mdp_trial_18", "block": "test", "trialIndex": 19, "score": 38.85, "costs": -2.15, "simulationMode": [null, null, null, null, null], "rewards": [-1, -1, 8, -7, 42], "path": ["0", "0", "12", "13", "14", "15", "16"], "rt": [4807, 2874, 86, 588, 36], "actions": ["right", "right", "right", "up", "up"], "actionTimes": [6638, 10022, 10598, 11684, 12232], "queries": {"click": {"state": {"target": ["21"], "time": [3246]}, "edge": {"target": [], "time": []}}, "mouseover": {"state": {"target": ["12", "13", "19", "21", "20", "19"], "time": [2147, 2161, 2210, 2662, 4126, 4443]}, "edge": {"target": [], "time": []}}, "mouseout": {"state": {"target": ["6", "7", "0", "12", "13", "19", "21", "20", "19", "13", "18", "16", "15", "0"], "time": [1029, 1144, 2145, 2160, 2176, 2562, 3944, 4260, 7779, 7861, 8047, 13195, 16312, 16362]}, "edge": {"target": [], "time": []}}}, "displayed_time": "15.83", "trialTime": 17594, "trial_type": "mouselab-mdp", "trial_index": 26, "time_elapsed": 1027883, "internal_node_id": "0.0-6.0-1.0-17.0"}}, {"uniqueid": "w36007363:a66318162", "current_trial": 27, "dateTime": 1693483830510, "trialdata": {"revealed_states": [], "clicked_states": ["32"], "num_clicks_accrued": [0, 0, 0, 0, 0, 0, 0, 0, 0, 0, 0, 0, 0], "stateRewards": ["", 2, -3, -4, -1, 25, -16, 16, 10, -71, -20, -55, 1, 3, -4, -9, 1, 32, 11, -6, 32, -50, -41, -1, 4, 4, -8, 7, -81, 70, 2, -52, 45, -10], "withholdReward": false, "trial_id": "mdp_trial_19", "block": "test", "trialIndex": 20, "score": 51.85, "costs": -2.15, "simulationMode": [null, null, null, null, null, null], "rewards": [-1, 4, 4, 2, 45], "path": ["0", "0", "23", "24", "25", "30", "32"], "rt": [3849, 226, 97, 115, 437, 4], "actions": ["left", "left", "left", "left", "down", "down"], "actionTimes": [5571, 5799, 6387, 7005, 7945, 8461], "queries": {"click": {"state": {"target": ["32"], "time": [2822]}, "edge": {"target": [], "time": []}}, "mouseover": {"state": {"target": ["31", "32", "33", "25"], "time": [2172, 2572, 3655, 3690]}, "edge": {"target": [], "time": []}}, "mouseout": {"state": {"target": ["0", "31", "32", "33", "25"], "time": [2138, 2189, 3455, 3688, 3711]}, "edge": {"target": [], "time": []}}}, "displayed_time": "15.72", "trialTime": 16718, "trial_type": "mouselab-mdp", "trial_index": 27, "time_elapsed": 1044762, "internal_node_id": "0.0-6.0-1.0-18.0"}}, {"uniqueid": "w36007363:a66318162", "current_trial": 28, "dateTime": 1693483847837, "trialdata": {"revealed_states": [], "clicked_states": ["29"], "num_clicks_accrued": [0, 0, 0, 0, 0, 0, 0, 0, 0, 0, 0, 0, 0], "stateRewards": ["", 2, -4, 4, 9, 69, 9, -75, 12, -86, 66, 25, -1, 3, 2, -13, -88, -3, 1, 4, -69, 49, -84, 2, -1, 4, 2, -18, -81, -52, -15, -69, -54, 25], "withholdReward": false, "trial_id": "mdp_trial_20", "block": "test", "trialIndex": 21, "score": -13.15, "costs": -2.15, "simulationMode": [null, null, null, null, null, null], "rewards": [2, -1, 4, 2, -18], "path": ["0", "0", "23", "24", "25", "26", "27"], "rt": [1941, 186, 77, 144, 569, 333], "actions": ["left", "left", "left", "left", "up", "up"], "actionTimes": [3324, 3512, 4122, 4790, 5864, 6711], "queries": {"click": {"state": {"target": ["29"], "time": [2486]}, "edge": {"target": [], "time": []}}, "mouseover": {"state": {"target": ["23", "24", "25", "29"], "time": [1793, 1826, 1911, 2144]}, "edge": {"target": [], "time": []}}, "mouseout": {"state": {"target": ["0", "23", "24", "25"], "time": [1788, 1809, 1843, 1994]}, "edge": {"target": [], "time": []}}}, "displayed_time": "15.38", "trialTime": 17150, "trial_type": "mouselab-mdp", "trial_index": 28, "time_elapsed": 1062089, "internal_node_id": "0.0-6.0-1.0-19.0"}}, {"uniqueid": "w36007363:a66318162", "current_trial": 29, "dateTime": 1693483864589, "trialdata": {"revealed_states": [], "clicked_states": ["27"], "num_clicks_accrued": [0, 0, 0, 0, 0, 0, 0, 0, 0, 0, 0, 0, 0], "stateRewards": ["", -1, 1, 3, -8, -23, -15, -14, -11, -23, 58, 68, 1, 3, 5, 12, -17, -41, -7, -10, -4, 82, 10, 1, 4, -4, 11, 73, 55, -55, -1, -86, -86, 54], "withholdReward": false, "trial_id": "mdp_trial_21", "block": "test", "trialIndex": 22, "score": 82.85, "costs": -2.15, "simulationMode": [null, null, null, null, null, null], "rewards": [1, 4, -4, 11, 73], "path": ["0", "0", "23", "24", "25", "26", "27"], "rt": [2887, 231, 16, 137, 481, 34], "actions": ["left", "left", "left", "left", "up", "up"], "actionTimes": [4664, 4896, 5429, 6099, 7092, 7644], "queries": {"click": {"state": {"target": ["27"], "time": [3111]}, "edge": {"target": [], "time": []}}, "mouseover": {"state": {"target": ["28", "27", "28"], "time": [2162, 2778, 3660]}, "edge": {"target": [], "time": []}}, "mouseout": {"state": {"target": ["29", "18", "28", "27", "27", "28", "0", "23", "0", "0", "0"], "time": [627, 959, 2175, 3335, 3643, 3693, 9892, 10226, 10626, 15011, 15278]}, "edge": {"target": [], "time": []}}}, "displayed_time": "15.78", "trialTime": 16551, "trial_type": "mouselab-mdp", "trial_index": 29, "time_elapsed": 1078841, "internal_node_id": "0.0-6.0-1.0-20.0"}}, {"uniqueid": "w36007363:a66318162", "current_trial": 30, "dateTime": 1693483881619, "trialdata": {"revealed_states": [], "clicked_states": ["11"], "num_clicks_accrued": [0, 0, 0, 0, 0, 0, 0, 0, 0, 0, 0, 0, 0], "stateRewards": ["", -1, 1, -6, -1, 80, 23, 2, -11, 73, -81, 59, 1, 3, 5, -1, -26, 28, -3, 16, -59, -13, -50, -2, -2, 2, 15, -50, 86, 17, -4, 37, 35, 44], "withholdReward": false, "trial_id": "mdp_trial_22", "block": "test", "trialIndex": 23, "score": 39.85, "costs": -2.15, "simulationMode": [null, null, null, null, null, null], "rewards": [-1, 1, -6, -11, 59], "path": ["0", "0", "1", "2", "3", "8", "11"], "rt": [1907, 227, 197, 217, 1058, 108], "actions": ["up", "up", "up", "up", "left", "left"], "actionTimes": [3284, 3513, 4227, 5113, 6704, 7303], "queries": {"click": {"state": {"target": ["11"], "time": [2669]}, "edge": {"target": [], "time": []}}, "mouseover": {"state": {"target": ["8", "11"], "time": [1844, 2242]}, "edge": {"target": [], "time": []}}, "mouseout": {"state": {"target": ["0", "0", "8", "11", "3", "4", "6", "16"], "time": [961, 1773, 1860, 8394, 8920, 8944, 8959, 16228]}, "edge": {"target": [], "time": []}}}, "displayed_time": "15.38", "trialTime": 16850, "trial_type": "mouselab-mdp", "trial_index": 30, "time_elapsed": 1095872, "internal_node_id": "0.0-6.0-1.0-21.0"}}, {"uniqueid": "w36007363:a66318162", "current_trial": 31, "dateTime": 1693483899464, "trialdata": {"revealed_states": [], "clicked_states": ["5"], "num_clicks_accrued": [0, 0, 0, 0, 0, 0, 0, 0, 0, 0, 0, 0, 0], "stateRewards": ["", 1, -3, -6, -5, 47, 80, -29, 11, -71, 10, -29, -2, 3, -6, 12, 2, -78, -6, 8, 34, -16, -5, -1, 3, 3, -13, 84, -36, -62, -3, -27, 66, 15], "withholdReward": false, "trial_id": "mdp_trial_23", "block": "test", "trialIndex": 24, "score": 31.85, "costs": -2.15, "simulationMode": [null, null, null, null, null, null], "rewards": [1, -3, -6, -5, 47], "path": ["0", "0", "1", "2", "3", "4", "5"], "rt": [2976, 248, 3, 2, 1084, 624], "actions": ["up", "up", "up", "up", "right", "up"], "actionTimes": [4548, 4797, 5317, 5850, 7465, 8620], "queries": {"click": {"state": {"target": ["5"], "time": [3857]}, "edge": {"target": [], "time": []}}, "mouseover": {"state": {"target": ["1", "7", "4", "5"], "time": [1979, 2079, 2095, 3561]}, "edge": {"target": [], "time": []}}, "mouseout": {"state": {"target": ["2", "1", "1", "7", "4", "5"], "time": [745, 1095, 1994, 2094, 2812, 7611]}, "edge": {"target": [], "time": []}}}, "displayed_time": "15.59", "trialTime": 17588, "trial_type": "mouselab-mdp", "trial_index": 31, "time_elapsed": 1113717, "internal_node_id": "0.0-6.0-1.0-22.0"}}, {"uniqueid": "w36007363:a66318162", "current_trial": 32, "dateTime": 1693483917403, "trialdata": {"revealed_states": [], "clicked_states": ["20"], "num_clicks_accrued": [0, 0, 0, 0, 0, 0, 0, 0, 0, 0, 0, 0, 0], "stateRewards": ["", -2, 2, 8, -6, -25, 3, 87, 2, -62, -2, 74, -2, -1, 2, -1, 79, 49, -37, -14, 5, 67, -9, -1, 2, -2, 5, 15, 38, 32, -14, -38, -38, 30], "withholdReward": false, "trial_id": "mdp_trial_24", "block": "test", "trialIndex": 25, "score": 49.85, "costs": -2.15, "simulationMode": [null, null, null, null, null, null], "rewards": [-2, -1, 2, -14, 67], "path": ["0", "0", "12", "13", "14", "19", "21"], "rt": [2852, 181, 84, 50, 821, 103], "actions": ["right", "right", "right", "right", "down", "down"], "actionTimes": [5230, 5413, 6007, 6573, 7909, 8524], "queries": {"click": {"state": {"target": ["20"], "time": [4146]}, "edge": {"target": [], "time": []}}, "mouseover": {"state": {"target": ["12", "13", "20"], "time": [2993, 3421, 3786]}, "edge": {"target": [], "time": []}}, "mouseout": {"state": {"target": ["12", "0", "12", "13", "20", "21", "20"], "time": [1153, 1952, 3166, 3436, 10322, 13306, 17088]}, "edge": {"target": [], "time": []}}}, "displayed_time": "16.38", "trialTime": 17726, "trial_type": "mouselab-mdp", "trial_index": 32, "time_elapsed": 1131655, "internal_node_id": "0.0-6.0-1.0-23.0"}}, {"uniqueid": "w36007363:a66318162", "current_trial": 33, "dateTime": 1693483934902, "trialdata": {"revealed_states": [], "clicked_states": ["18"], "num_clicks_accrued": [0, 0, 0, 0, 0, 0, 0, 0, 0, 0, 0, 0, 0], "stateRewards": ["", -1, 2, 5, -6, 13, -64, -47, 8, -79, -80, -33, 1, 2, -2, -16, 56, -71, -10, 3, 29, 44, 85, -1, 4, 5, 4, -36, -56, 19, 8, 52, -13, -2], "withholdReward": false, "trial_id": "mdp_trial_25", "block": "test", "trialIndex": 26, "score": 38.85, "costs": -2.15, "simulationMode": [null, null, null, null, null, null], "rewards": [1, 2, -2, -16, 56], "path": ["0", "0", "12", "13", "14", "15", "16"], "rt": [2301, 224, 38, 18, 455, 1043], "actions": ["right", "right", "right", "right", "up", "up"], "actionTimes": [4412, 4637, 5180, 5710, 6698, 8234], "queries": {"click": {"state": {"target": ["18"], "time": [3801]}, "edge": {"target": [], "time": []}}, "mouseover": {"state": {"target": ["16", "18"], "time": [2875, 3224]}, "edge": {"target": [], "time": []}}, "mouseout": {"state": {"target": ["0", "0", "16", "18", "7", "16", "16", "16", "15"], "time": [1257, 1674, 2958, 9016, 9274, 9374, 10157, 11041, 11558]}, "edge": {"target": [], "time": []}}}, "displayed_time": "16.11", "trialTime": 17294, "trial_type": "mouselab-mdp", "trial_index": 33, "time_elapsed": 1149154, "internal_node_id": "0.0-6.0-1.0-24.0"}}, {"uniqueid": "w36007363:a66318162", "current_trial": 34, "dateTime": 1693483951895, "trialdata": {"revealed_states": [], "clicked_states": ["6"], "num_clicks_accrued": [0, 0, 0, 0, 0, 0, 0, 0, 0, 0, 0, 0, 0], "stateRewards": ["", 1, 4, -8, -5, -15, -7, 21, 13, -30, 40, -65, 1, 1, 5, -14, 35, 27, -38, -11, 36, -58, -47, -2, 4, -3, 13, -16, -49, 22, 15, -56, -44, -10], "withholdReward": false, "trial_id": "mdp_trial_26", "block": "test", "trialIndex": 27, "score": -22.15, "costs": -2.15, "simulationMode": [null, null, null, null, null, null], "rewards": [1, 4, -8, 13, -30], "path": ["0", "0", "1", "2", "3", "8", "9"], "rt": [2882, 212, 1124, 162, 2687, 406], "actions": ["up", "up", "up", "up", "left", "up"], "actionTimes": [4622, 4836, 6491, 7159, 10351, 11270], "queries": {"click": {"state": {"target": ["6"], "time": [3727]}, "edge": {"target": [], "time": []}}, "mouseover": {"state": {"target": ["2", "4", "6"], "time": [2331, 3046, 3197]}, "edge": {"target": [], "time": []}}, "mouseout": {"state": {"target": ["15", "18", "1", "1", "12", "2", "4", "6", "6", "4", "10", "11", "8", "3", "4", "16"], "time": [512, 529, 578, 746, 1345, 2997, 3079, 3951, 8114, 8129, 8180, 12262, 12279, 12296, 12313, 16396]}, "edge": {"target": [], "time": []}}}, "displayed_time": "15.74", "trialTime": 16778, "trial_type": "mouselab-mdp", "trial_index": 34, "time_elapsed": 1166148, "internal_node_id": "0.0-6.0-1.0-25.0"}}, {"uniqueid": "w36007363:a66318162", "current_trial": 35, "dateTime": 1693483970808, "trialdata": {"revealed_states": [], "clicked_states": ["29"], "num_clicks_accrued": [0, 0, 0, 0, 0, 0, 0, 0, 0, 0, 0, 0, 0], "stateRewards": ["", -1, 2, -6, 6, 43, 78, 78, -2, 55, -29, -17, -2, -4, 1, -15, 13, 7, -79, 8, -28, -68, 36, -1, -3, 3, -16, 84, -18, 87, 10, 32, 13, -81], "withholdReward": false, "trial_id": "mdp_trial_27", "block": "test", "trialIndex": 28, "score": 67.85, "costs": -2.15, "simulationMode": [null, null, null, null, null, null], "rewards": [-1, -3, 3, -16, 87], "path": ["0", "0", "23", "24", "25", "26", "29"], "rt": [2964, 218, 185, 160, 1309, 501], "actions": ["left", "left", "left", "left", "up", "left"], "actionTimes": [6342, 6562, 7261, 7950, 9750, 10758], "queries": {"click": {"state": {"target": ["29"], "time": [4781]}, "edge": {"target": [], "time": []}}, "mouseover": {"state": {"target": ["23", "24", "25", "29", "23"], "time": [3791, 3825, 4155, 4455, 5475]}, "edge": {"target": [], "time": []}}, "mouseout": {"state": {"target": ["7", "2", "1", "23", "24", "25", "29", "29", "23", "0", "12", "13"], "time": [755, 2656, 2689, 3823, 3839, 4405, 5000, 5389, 12774, 12788, 12805, 12822]}, "edge": {"target": [], "time": []}}}, "displayed_time": "17.38", "trialTime": 18735, "trial_type": "mouselab-mdp", "trial_index": 35, "time_elapsed": 1185061, "internal_node_id": "0.0-6.0-1.0-26.0"}}, {"uniqueid": "w36007363:a66318162", "current_trial": 36, "dateTime": 1693483990347, "trialdata": {"revealed_states": [], "clicked_states": [], "num_clicks_accrued": [0, 0, 0, 0, 0, 0, 0, 0, 0, 0, 0, 0, 0], "stateRewards": ["", 1, 1, 4, 11, 83, -66, 18, -16, -23, 5, 25, 1, -3, 1, -12, 18, 24, -86, -11, -64, 36, 40, 2, 1, -6, 13, 55, 29, 72, -2, 81, -72, -41], "withholdReward": false, "trial_id": "mdp_trial_28", "block": "test", "trialIndex": 29, "score": 39, "costs": 0, "simulationMode": [null, null, null, null, null], "rewards": [2, 1, -6, 13, 29], "path": ["0", "0", "23", "24", "25", "26", "28"], "rt": [8757, 4, 232, 643, 101], "actions": ["left", "left", "left", "up", "right"], "actionTimes": [11768, 12285, 13031, 14027, 14617], "queries": {"click": {"state": {"target": [], "time": []}, "edge": {"target": [], "time": []}}, "mouseover": {"state": {"target": ["0", "18", "23", "24", "28"], "time": [5000, 7799, 8099, 8115, 8547]}, "edge": {"target": [], "time": []}}, "mouseout": {"state": {"target": ["0", "18", "23", "24", "28", "28", "16", "14", "31", "30"], "time": [6808, 7814, 8113, 8432, 15682, 15897, 16782, 18516, 19032, 19064]}, "edge": {"target": [], "time": []}}}, "displayed_time": "18.01", "trialTime": 19283, "trial_type": "mouselab-mdp", "trial_index": 36, "time_elapsed": 1204600, "internal_node_id": "0.0-6.0-1.0-27.0"}}, {"uniqueid": "w36007363:a66318162", "current_trial": 37, "dateTime": 1693484007419, "trialdata": {"revealed_states": [], "clicked_states": ["28"], "num_clicks_accrued": [0, 0, 0, 0, 0, 0, 0, 0, 0, 0, 0, 0, 0], "stateRewards": ["", 2, -3, -8, 14, -7, -51, 73, 2, 36, 36, -43, -1, 3, -4, 1, 6, 87, -65, 15, 61, -42, -83, -1, 3, -2, -7, 30, -48, 35, 13, 26, 60, 78], "withholdReward": false, "trial_id": "mdp_trial_29", "block": "test", "trialIndex": 30, "score": 20.85, "costs": -2.15, "simulationMode": [null, null, null, null, null, null], "rewards": [-1, 3, -2, -7, 30], "path": ["0", "0", "23", "24", "25", "26", "27"], "rt": [3111, 370, 150, 35, 443, 325], "actions": ["left", "left", "left", "left", "up", "up"], "actionTimes": [4482, 4853, 5511, 6078, 7037, 7869], "queries": {"click": {"state": {"target": ["28"], "time": [2895]}, "edge": {"target": [], "time": []}}, "mouseover": {"state": {"target": ["10", "28"], "time": [1992, 2627]}, "edge": {"target": [], "time": []}}, "mouseout": {"state": {"target": ["25", "24", "23", "10", "28", "29", "26"], "time": [627, 659, 692, 2444, 3109, 9678, 9809]}, "edge": {"target": [], "time": []}}}, "displayed_time": "15.37", "trialTime": 16848, "trial_type": "mouselab-mdp", "trial_index": 37, "time_elapsed": 1221671, "internal_node_id": "0.0-6.0-1.0-28.0"}}, {"uniqueid": "w36007363:a66318162", "current_trial": 38, "dateTime": 1693484026591, "trialdata": {"revealed_states": [], "clicked_states": ["32"], "num_clicks_accrued": [0, 0, 0, 0, 0, 0, 0, 0, 0, 0, 0, 0, 0], "stateRewards": ["", -2, -1, 3, -3, 71, -58, -21, 7, -10, -75, -37, 2, 4, -1, -12, -79, -29, -48, 3, -41, -10, -30, -1, -2, 1, -15, 13, 66, 22, -1, -42, -86, -55], "withholdReward": false, "trial_id": "mdp_trial_30", "block": "test", "trialIndex": 31, "score": -6.149999999999999, "costs": -2.15, "simulationMode": [null, null, null, null, null], "rewards": [-1, -2, 1, -15, 13], "path": ["0", "0", "23", "24", "25", "26", "27"], "rt": [5305, 278, 22, 373, 124], "actions": ["left", "left", "left", "up", "up"], "actionTimes": [8962, 9751, 10261, 11163, 11780], "queries": {"click": {"state": {"target": ["32"], "time": [5765]}, "edge": {"target": [], "time": []}}, "mouseover": {"state": {"target": ["23", "25", "30", "30", "32", "23"], "time": [4023, 4471, 4572, 4705, 5489, 6671]}, "edge": {"target": [], "time": []}}, "mouseout": {"state": {"target": ["28", "12", "13", "17", "1", "23", "25", "30", "30", "32", "23", "28", "26", "28", "23"], "time": [1054, 1422, 1438, 1488, 3222, 4038, 4504, 4621, 4756, 6605, 6721, 12706, 18171, 18188, 18221]}, "edge": {"target": [], "time": []}}}, "displayed_time": "17.66", "trialTime": 18918, "trial_type": "mouselab-mdp", "trial_index": 38, "time_elapsed": 1240843, "internal_node_id": "0.0-6.0-1.0-29.0"}}, {"uniqueid": "w36007363:a66318162", "current_trial": 39, "dateTime": 1693484042835, "trialdata": {"revealed_states": [], "clicked_states": ["17"], "num_clicks_accrued": [0, 0, 0, 0, 0, 0, 0, 0, 0, 0, 0, 0, 0], "stateRewards": ["", -2, 1, -3, -16, -39, -52, 30, -7, -41, -59, 11, 2, 1, 8, 2, -11, -26, -42, -13, 87, -59, -48, -1, -1, -1, 16, -79, 31, 50, -1, -84, 34, -82], "withholdReward": false, "trial_id": "mdp_trial_31", "block": "test", "trialIndex": 32, "score": -63.15, "costs": -2.15, "simulationMode": [null, null, null, null, null, null], "rewards": [2, 1, 8, -13, -59], "path": ["0", "0", "12", "13", "14", "19", "21"], "rt": [3340, 256, 268, 27, 836, 252], "actions": ["right", "right", "right", "right", "down", "down"], "actionTimes": [4281, 4538, 5314, 5872, 7230, 7997], "queries": {"click": {"state": {"target": ["17"], "time": [3038]}, "edge": {"target": [], "time": []}}, "mouseover": {"state": {"target": ["15", "17", "17"], "time": [2078, 2160, 2461]}, "edge": {"target": [], "time": []}}, "mouseout": {"state": {"target": ["0", "15", "17", "17", "19", "20", "14", "13"], "time": [1226, 2145, 2394, 9162, 9563, 10362, 13109, 13446]}, "edge": {"target": [], "time": []}}}, "displayed_time": "14.94", "trialTime": 15998, "trial_type": "mouselab-mdp", "trial_index": 39, "time_elapsed": 1257087, "internal_node_id": "0.0-6.0-1.0-30.0"}}, {"uniqueid": "w36007363:a66318162", "current_trial": 40, "dateTime": 1693484059558, "trialdata": {"revealed_states": [], "clicked_states": ["31"], "num_clicks_accrued": [0, 0, 0, 0, 0, 0, 0, 0, 0, 0, 0, 0, 0], "stateRewards": ["", -2, -4, -2, -13, -15, 87, -19, -6, -80, 30, 12, 1, 1, -8, 2, 55, 56, 15, 11, -68, -7, 55, -2, 3, -3, -3, 48, 62, 4, 1, -3, 69, -33], "withholdReward": false, "trial_id": "mdp_trial_32", "block": "test", "trialIndex": 33, "score": 65.85, "costs": -2.15, "simulationMode": [null, null, null, null, null, null], "rewards": [-2, 3, -3, 1, 69], "path": ["0", "0", "23", "24", "25", "30", "32"], "rt": [3211, 201, 18, 119, 698, 63], "actions": ["left", "left", "left", "left", "down", "down"], "actionTimes": [4435, 4638, 5186, 5841, 7047, 7630], "queries": {"click": {"state": {"target": ["31"], "time": [3526]}, "edge": {"target": [], "time": []}}, "mouseover": {"state": {"target": ["32", "32", "33", "30", "31"], "time": [1631, 2066, 2433, 3014, 3080]}, "edge": {"target": [], "time": []}}, "mouseout": {"state": {"target": ["0", "32", "32", "33", "30", "31", "32", "32"], "time": [1582, 1897, 2233, 2999, 3064, 8833, 10014, 12047]}, "edge": {"target": [], "time": []}}}, "displayed_time": "15.23", "trialTime": 16494, "trial_type": "mouselab-mdp", "trial_index": 40, "time_elapsed": 1273810, "internal_node_id": "0.0-6.0-1.0-31.0"}}, {"uniqueid": "w36007363:a66318162", "current_trial": 41, "dateTime": 1693484076454, "trialdata": {"revealed_states": [], "clicked_states": ["33"], "num_clicks_accrued": [0, 0, 0, 0, 0, 0, 0, 0, 0, 0, 0, 0, 0], "stateRewards": ["", -1, 3, -5, -2, -13, -9, -34, -7, -81, 32, 35, -2, -2, 1, -14, -32, 81, 7, 4, 82, 56, -8, -1, 3, -8, 6, -24, -24, -53, 2, 38, 61, 54], "withholdReward": false, "trial_id": "mdp_trial_33", "block": "test", "trialIndex": 34, "score": 47.85, "costs": -2.15, "simulationMode": [null, null, null, null, null, null], "rewards": [-1, 3, -8, 2, 54], "path": ["0", "0", "23", "24", "25", "30", "33"], "rt": [2906, 221, 37, 100, 277, 286], "actions": ["left", "left", "left", "left", "down", "left"], "actionTimes": [4275, 4497, 5044, 5655, 6449, 7224], "queries": {"click": {"state": {"target": ["33"], "time": [2390]}, "edge": {"target": [], "time": []}}, "mouseover": {"state": {"target": ["31", "30", "33", "30", "31", "24", "23", "22"], "time": [1772, 1820, 2103, 3103, 3220, 3253, 3605, 3703]}, "edge": {"target": [], "time": []}}, "mouseout": {"state": {"target": ["30", "31", "23", "31", "30", "33", "30", "31", "24", "23", "22", "31", "23", "32"], "time": [553, 586, 904, 1804, 2053, 3087, 3153, 3236, 3604, 3620, 11754, 12420, 12887, 13287]}, "edge": {"target": [], "time": []}}}, "displayed_time": "15.37", "trialTime": 16646, "trial_type": "mouselab-mdp", "trial_index": 41, "time_elapsed": 1290707, "internal_node_id": "0.0-6.0-1.0-32.0"}}, {"uniqueid": "w36007363:a66318162", "current_trial": 42, "dateTime": 1693484095666, "trialdata": {"revealed_states": [], "clicked_states": ["29"], "num_clicks_accrued": [0, 0, 0, 0, 0, 0, 0, 0, 0, 0, 0, 0, 0], "stateRewards": ["", -2, 2, 2, -6, 9, 37, 50, -13, -7, -18, -75, -2, -4, 4, 7, 23, -57, -66, -7, -81, -48, -76, 1, 1, -8, 1, 51, -2, 70, 14, 59, 71, -37], "withholdReward": false, "trial_id": "mdp_trial_34", "block": "test", "trialIndex": 35, "score": 62.85, "costs": -2.15, "simulationMode": [null, null, null, null, null, null], "rewards": [1, 1, -8, 1, 70], "path": ["0", "0", "23", "24", "25", "26", "29"], "rt": [2275, 298, 168, 155, 180, 50], "actions": ["left", "left", "left", "left", "up", "left"], "actionTimes": [3970, 4270, 4971, 5658, 6332, 6902], "queries": {"click": {"state": {"target": ["29"], "time": [2876]}, "edge": {"target": [], "time": []}}, "mouseover": {"state": {"target": ["23", "26", "29"], "time": [2152, 2268, 2568]}, "edge": {"target": [], "time": []}}, "mouseout": {"state": {"target": ["0", "23", "26", "29"], "time": [2139, 2167, 2503, 7767]}, "edge": {"target": [], "time": []}}}, "displayed_time": "15.70", "trialTime": 18987, "trial_type": "mouselab-mdp", "trial_index": 42, "time_elapsed": 1309918, "internal_node_id": "0.0-6.0-1.0-33.0"}}, {"uniqueid": "w36007363:a66318162", "current_trial": 43, "dateTime": 1693484115297, "trialdata": {"revealed_states": [], "clicked_states": ["27"], "num_clicks_accrued": [0, 0, 0, 0, 0, 0, 0, 0, 0, 0, 0, 0, 0], "stateRewards": ["", -1, 4, -8, 12, 14, 69, -8, 5, -72, -14, 56, -1, -1, -1, 9, 67, 19, 11, -9, -88, -58, 3, 2, -4, -8, 4, 62, 77, -74, 5, -31, 65, 88], "withholdReward": false, "trial_id": "mdp_trial_35", "block": "test", "trialIndex": 36, "score": 53.85, "costs": -2.15, "simulationMode": [null, null, null, null, null, null], "rewards": [2, -4, -8, 4, 62], "path": ["0", "0", "23", "24", "25", "26", "27"], "rt": [3326, 457, 1141, 97, 578, 124], "actions": ["left", "left", "left", "left", "up", "up"], "actionTimes": [5312, 5770, 7443, 8031, 9110, 9724], "queries": {"click": {"state": {"target": ["27"], "time": [3712]}, "edge": {"target": [], "time": []}}, "mouseover": {"state": {"target": ["23", "24", "29", "27", "26", "25"], "time": [2367, 2383, 2449, 3000, 4466, 4515]}, "edge": {"target": [], "time": []}}, "mouseout": {"state": {"target": ["26", "28", "0", "0", "23", "24", "29", "27", "26", "25", "24"], "time": [865, 881, 1182, 1599, 2382, 2398, 2465, 3921, 4499, 11065, 11098]}, "edge": {"target": [], "time": []}}}, "displayed_time": "15.99", "trialTime": 19401, "trial_type": "mouselab-mdp", "trial_index": 43, "time_elapsed": 1329549, "internal_node_id": "0.0-6.0-1.0-34.0"}}, {"uniqueid": "w36007363:a66318162", "current_trial": 44, "dateTime": 1693484132922, "trialdata": {"revealed_states": [], "clicked_states": ["20"], "num_clicks_accrued": [0, 0, 0, 0, 0, 0, 0, 0, 0, 0, 0, 0, 0], "stateRewards": ["", -2, -1, -6, -14, -55, 78, -13, 11, 14, -71, 59, 2, 2, 6, -6, 9, 38, 14, 7, 85, 11, 68, 1, -4, -1, -3, -63, -85, 9, -2, 63, -86, -10], "withholdReward": false, "trial_id": "mdp_trial_36", "block": "test", "trialIndex": 37, "score": 99.85, "costs": -2.15, "simulationMode": [null, null, null, null, null, null], "rewards": [2, 2, 6, 7, 85], "path": ["0", "0", "12", "13", "14", "19", "20"], "rt": [4238, 203, 19, 9, 1196, 110], "actions": ["right", "right", "right", "right", "down", "right"], "actionTimes": [6500, 6705, 7233, 7778, 9475, 10073], "queries": {"click": {"state": {"target": ["20"], "time": [4226]}, "edge": {"target": [], "time": []}}, "mouseover": {"state": {"target": ["23", "31", "30", "33", "33", "25", "24", "23", "19", "20"], "time": [2628, 2662, 2679, 2712, 2964, 3011, 3099, 3113, 3530, 3945]}, "edge": {"target": [], "time": []}}, "mouseout": {"state": {"target": ["15", "16", "23", "31", "30", "33", "33", "25", "24", "23", "19", "20", "20"], "time": [1178, 1229, 2645, 2678, 2695, 2728, 2978, 3097, 3112, 3128, 3845, 4451, 8496]}, "edge": {"target": [], "time": []}}}, "displayed_time": "16.26", "trialTime": 17373, "trial_type": "mouselab-mdp", "trial_index": 44, "time_elapsed": 1347175, "internal_node_id": "0.0-6.0-1.0-35.0"}}, {"uniqueid": "w36007363:a66318162", "current_trial": 45, "dateTime": 1693484149992, "trialdata": {"revealed_states": [], "clicked_states": ["22"], "num_clicks_accrued": [0, 0, 0, 0, 0, 0, 0, 0, 0, 0, 0, 0, 0], "stateRewards": ["", -1, -3, -7, -4, -85, -70, 79, 8, 84, -66, 42, 2, -2, -3, -16, -54, -66, 68, -3, 21, -14, 7, -2, -1, -3, -8, 75, 80, 86, -7, -84, 73, -16], "withholdReward": false, "trial_id": "mdp_trial_37", "block": "test", "trialIndex": 38, "score": -1.1500000000000004, "costs": -2.15, "simulationMode": [null, null, null, null, null, null], "rewards": [2, -2, -3, -3, 7], "path": ["0", "0", "12", "13", "14", "19", "22"], "rt": [2446, 211, 539, 4, 362, 219], "actions": ["right", "right", "right", "right", "down", "left"], "actionTimes": [3768, 3980, 5051, 5564, 6455, 7162], "queries": {"click": {"state": {"target": ["22"], "time": [2640]}, "edge": {"target": [], "time": []}}, "mouseover": {"state": {"target": ["22", "22"], "time": [1741, 2258]}, "edge": {"target": [], "time": []}}, "mouseout": {"state": {"target": ["0", "22", "22", "0"], "time": [1708, 1774, 8311, 15924]}, "edge": {"target": [], "time": []}}}, "displayed_time": "15.32", "trialTime": 16806, "trial_type": "mouselab-mdp", "trial_index": 45, "time_elapsed": 1364245, "internal_node_id": "0.0-6.0-1.0-36.0"}}, {"uniqueid": "w36007363:a66318162", "current_trial": 46, "dateTime": 1693484167388, "trialdata": {"revealed_states": [], "clicked_states": ["5"], "num_clicks_accrued": [0, 0, 0, 0, 0, 0, 0, 0, 0, 0, 0, 0, 0], "stateRewards": ["", -2, -4, 2, 10, -17, 18, 73, 11, -32, 23, -13, -2, -4, 7, 12, -25, 66, -23, 15, 40, -76, -9, 1, 2, -7, -5, -20, 24, 3, -5, 16, -73, 70], "withholdReward": false, "trial_id": "mdp_trial_38", "block": "test", "trialIndex": 39, "score": 21.85, "costs": -2.15, "simulationMode": [null, null, null, null, null, null], "rewards": [-2, -4, 2, 10, 18], "path": ["0", "0", "1", "2", "3", "4", "6"], "rt": [2634, 209, 168, 68, 349, 34], "actions": ["up", "up", "up", "up", "right", "right"], "actionTimes": [4198, 4409, 5081, 5663, 6511, 7046], "queries": {"click": {"state": {"target": ["5"], "time": [2447]}, "edge": {"target": [], "time": []}}, "mouseover": {"state": {"target": ["1", "2", "5", "4"], "time": [1979, 2011, 2062, 3218]}, "edge": {"target": [], "time": []}}, "mouseout": {"state": {"target": ["0", "1", "2", "5", "5", "4", "4", "14"], "time": [1094, 1995, 2028, 2665, 3198, 3245, 8728, 15778]}, "edge": {"target": [], "time": []}}}, "displayed_time": "15.57", "trialTime": 17154, "trial_type": "mouselab-mdp", "trial_index": 46, "time_elapsed": 1381641, "internal_node_id": "0.0-6.0-1.0-37.0"}}, {"uniqueid": "w36007363:a66318162", "current_trial": 47, "dateTime": 1693484184080, "trialdata": {"revealed_states": [], "clicked_states": ["11"], "num_clicks_accrued": [0, 0, 0, 0, 0, 0, 0, 0, 0, 0, 0, 0, 0], "stateRewards": ["", 2, -1, -1, 7, 11, -40, -22, -2, 69, 37, 8, -2, 4, -8, -12, -2, -72, -3, -12, 17, 63, 12, 1, 3, -7, 6, 25, 61, 61, -9, 28, -17, 27], "withholdReward": false, "trial_id": "mdp_trial_39", "block": "test", "trialIndex": 40, "score": 3.8499999999999996, "costs": -2.15, "simulationMode": [null, null, null, null, null, null], "rewards": [2, -1, -1, -2, 8], "path": ["0", "0", "1", "2", "3", "8", "11"], "rt": [2040, 224, 3, 84, 2312, 123], "actions": ["up", "up", "up", "up", "left", "left"], "actionTimes": [3539, 3765, 4299, 4897, 7722, 8334], "queries": {"click": {"state": {"target": ["11"], "time": [2568]}, "edge": {"target": [], "time": []}}, "mouseover": {"state": {"target": ["11", "11"], "time": [1909, 2275]}, "edge": {"target": [], "time": []}}, "mouseout": {"state": {"target": ["0", "11", "11", "8", "4", "4", "6", "22"], "time": [1817, 2042, 2799, 6793, 6809, 9410, 9892, 15211]}, "edge": {"target": [], "time": []}}}, "displayed_time": "15.50", "trialTime": 16427, "trial_type": "mouselab-mdp", "trial_index": 47, "time_elapsed": 1398333, "internal_node_id": "0.0-6.0-1.0-38.0"}}, {"uniqueid": "w36007363:a66318162", "current_trial": 48, "dateTime": 1693484200709, "trialdata": {"revealed_states": [], "clicked_states": ["27"], "num_clicks_accrued": [0, 0, 0, 0, 0, 0, 0, 0, 0, 0, 0, 0, 0], "stateRewards": ["", -2, 1, -8, 12, -65, -79, 16, 7, -80, -17, -45, -2, 2, -5, -2, -85, 23, -4, -7, 48, 27, -76, 2, 3, 5, 2, 43, 71, -13, 7, -49, 59, -31], "withholdReward": false, "trial_id": "mdp_trial_40", "block": "test", "trialIndex": 41, "score": 52.85, "costs": -2.15, "simulationMode": [null, null, null, null, null, null], "rewards": [2, 3, 5, 2, 43], "path": ["0", "0", "23", "24", "25", "26", "27"], "rt": [2117, 198, 85, 68, 1000, 442], "actions": ["left", "left", "left", "left", "up", "up"], "actionTimes": [3562, 3761, 4378, 4962, 6492, 7433], "queries": {"click": {"state": {"target": ["27"], "time": [2432]}, "edge": {"target": [], "time": []}}, "mouseover": {"state": {"target": ["28", "27", "27", "28"], "time": [1775, 1824, 2191, 3074]}, "edge": {"target": [], "time": []}}, "mouseout": {"state": {"target": ["31", "31", "0", "28", "27", "27", "28", "1"], "time": [506, 689, 1737, 1790, 1975, 3057, 3090, 8527]}, "edge": {"target": [], "time": []}}}, "displayed_time": "15.45", "trialTime": 16386, "trial_type": "mouselab-mdp", "trial_index": 48, "time_elapsed": 1414961, "internal_node_id": "0.0-6.0-1.0-39.0"}}, {"uniqueid": "w36007363:a66318162", "current_trial": 49, "dateTime": 1693484288267, "trialdata": {"rt": 87554, "response": {"Q0": "$-16 to 16", "Q1": "$-4 to $4", "Q2": "$-88 to $88", "Q3": "The cost for clicking on nodes varied between nodes.", "Q4": "Very motivated"}, "question_order": [0, 1, 2, 3, 4], "trial_id": "final_quiz_control", "trial_type": "survey-multi-choice", "trial_index": 49, "time_elapsed": 1502520, "internal_node_id": "0.0-6.0-2.0"}}, {"uniqueid": "w36007363:a66318162", "current_trial": 50, "dateTime": 1693484827484, "trialdata": {"rt": 538789, "response": {"Q0": "I clicked to reveal random nodes in each round to check if I should take the spider to that node, or to try my luck on another one. Sometimes when the node revealed that I would lose an amount but it was not a lot, I would select it either way because the next option may cause me to lose so much more. ", "Q1": "Yes, I made use of clicking on nodes to estimate the most gains", "Q2": "It was not too difficult. In the beginning I did not make use of clicking on nodes because of the fact that it would cost me to do so, but it is actually much more worth it."}, "trial_id": "self_report_control", "trial_type": "survey-text", "trial_index": 50, "time_elapsed": 2041705, "internal_node_id": "0.0-6.0-3.0"}}, {"uniqueid": "w36007363:a66318162", "current_trial": 51, "dateTime": 1693484887068, "trialdata": {"rt": 59381, "response": {"Q0": "Disagree", "Q1": "Strongly disagree", "Q2": "Agree", "Q3": "Strongly agree", "Q4": "Strongly disagree", "Q5": "Strongly agree", "Q6": "Strongly disagree"}, "question_order": [0, 1, 2, 3, 4, 5, 6], "trial_id": "self_report_2", "trial_type": "survey-multi-choice", "trial_index": 51, "time_elapsed": 2101321, "internal_node_id": "0.0-6.0-4.0"}}, {"uniqueid": "w36007363:a66318162", "current_trial": 52, "dateTime": 1693484946118, "trialdata": {"rt": 58952, "response": {"gender": "female", "age": "51", "colorblind": "0", "effort": "0"}, "trial_type": "survey-html-form", "trial_index": 52, "time_elapsed": 2160371, "internal_node_id": "0.0-6.0-5.0"}}, {"uniqueid": "w36007363:a66318162", "current_trial": 53, "dateTime": 1693484991043, "trialdata": {"rt": 44918, "response": {"Q0": "No", "Q1": "No, I have not participated before", "Q2": "N/A"}, "trial_type": "survey-text", "trial_index": 53, "time_elapsed": 2205295, "internal_node_id": "0.0-6.0-6.0"}}, {"uniqueid": "w36007363:a66318162", "current_trial": 54, "dateTime": 1693485050477, "trialdata": {"rt": 59396, "stimulus": "<h1>Completion Code Instructions (1/2)</h1>\n<br><br><br><br>\nYou have reached the end of the experiment! The completion code consists of two parts: (1) a code with 2 characters (2) a code with 6 characters. On this page, you will receive the second part of the code. The first part of the completion code will be on the next page.\n<br><br>\nThe second part of your completion code is: <b>EWEK22</b>\n<br><br>\nPlease note this down. Then, press 'Finish HIT' in order to find the first part of your completion code. Once the data has been saved, you will receive this code either in this window or in the original browser window where you started the experiment.\n", "response": 0, "trial_type": "html-button-response", "trial_index": 54, "time_elapsed": 2264729, "internal_node_id": "0.0-6.0-7.0"}}, {"uniqueid": "w36007363:a66318162", "current_trial": 55, "dateTime": 1693485051481, "trialdata": {"success": true, "trial_type": "fullscreen", "trial_index": 55, "time_elapsed": 2265734, "internal_node_id": "0.0-7.0"}}], "questiondata": {"params": {"CODE": "C6DMOQA6", "MIN_TIME": 14, "inspectCost": 1, "startTime": "Thu Aug 31 2023 13:53:01 GMT+0200 (South Africa Standard Time)", "bonusRate": 0.002, "variance": "1_2_4_8_44", "branching": "31123"}, "final_score": 827.55}, "eventdata": [{"eventtype": "initialized", "value": null, "timestamp": 1693482780460, "interval": 0}, {"eventtype": "window_resize", "value": [1028, 744], "timestamp": 1693482780460, "interval": 0}, {"eventtype": "window_resize", "value": [1028, 744], "timestamp": 1693482781290, "interval": 830}, {"eventtype": "window_resize", "value": [1536, 758], "timestamp": 1693482806998, "interval": 25708}, {"eventtype": "window_resize", "value": [1536, 864], "timestamp": 1693482808622, "interval": 1624}, {"eventtype": "focus", "value": "off", "timestamp": 1693483270060, "interval": 461438}, {"eventtype": "window_resize", "value": [1536, 758], "timestamp": 1693483270279, "interval": 219}, {"eventtype": "window_resize", "value": [1028, 744], "timestamp": 1693483304266, "interval": 33987}, {"eventtype": "window_resize", "value": [1536, 758], "timestamp": 1693483306774, "interval": 2508}, {"eventtype": "window_resize", "value": [1536, 864], "timestamp": 1693484412740, "interval": 1105966}, {"eventtype": "window_resize", "value": [1536, 758], "timestamp": 1693484522650, "interval": 109910}, {"eventtype": "focus", "value": "on", "timestamp": 1693484627768, "interval": 105118}, {"eventtype": "window_resize", "value": [1536, 864], "timestamp": 1693484833818, "interval": 206050}], "useragent": "Mozilla/5.0 (Windows NT 10.0; Win64; x64) AppleWebKit/537.36 (KHTML, like Gecko) Chrome/116.0.0.0 Safari/537.36", "mode": "live", "id": "w36007363:a66318162", "status": "user data saved", "Beginhit": "2023-08-31 11:52:55.723193", "Beginexp": "2023-08-31 11:53:29.695719", "Endhit": "2023-08-31 12:30:52.998289", "psiturkStatus": 3, "browser": "<redacted>", "platform": "windows", "language": "en-US"}