{"condition": 0, "counterbalance": 0, "assignmentId": "a71638736", "workerId": "w50792197", "hitId": "h58567505", "currenttrial": 61, "bonus": 0, "data": [{"uniqueid": "w50792197:a71638736", "current_trial": 0, "dateTime": 1693565326320, "trialdata": {"success": true, "trial_type": "fullscreen", "trial_index": 0, "time_elapsed": 20988, "internal_node_id": "0.0-0.0"}}, {"uniqueid": "w50792197:a71638736", "current_trial": 1, "dateTime": 1693565343515, "trialdata": {"view_history": [{"page_index": 0, "viewing_time": 17158}], "rt": 17161, "trial_id": "exp_instructions_control", "trial_type": "instructions", "trial_index": 1, "time_elapsed": 38185, "internal_node_id": "0.0-1.0"}}, {"uniqueid": "w50792197:a71638736", "current_trial": 2, "dateTime": 1693565572553, "trialdata": {"view_history": [{"page_index": 0, "viewing_time": 80695}, {"page_index": 1, "viewing_time": 80294}, {"page_index": 2, "viewing_time": 26826}, {"page_index": 3, "viewing_time": 41207}], "rt": 229023, "trial_id": "mouselab_instructions_1_control", "trial_type": "instructions", "trial_index": 2, "time_elapsed": 267223, "internal_node_id": "0.0-2.0-1.0"}}, {"uniqueid": "w50792197:a71638736", "current_trial": 3, "dateTime": 1693565609438, "trialdata": {"revealed_states": [], "clicked_states": [], "num_clicks_accrued": [0, 0, 0, 0, 0, 0, 0, 0, 0, 0, 0, 0, 0], "stateRewards": ["", -10, -10, -10, -10, 10, 10, 10, 10, 10, 10, 10, 10, -10, -10, 10, -10, 10, -10, -10, -10, -10, -10, -10, -10, 10, -10, 10, 10, -10, 10, -10, 10, -10], "withholdReward": false, "trial_id": "practice_1", "block": "test", "trialIndex": 0, "score": -26.5, "costs": 0, "simulationMode": [null, null, null, null, null], "rewards": [-10, -10, -10, -10, 10], "path": ["0", "0", "1", "2", "3", "4", "5"], "rt": [4878, 4660, 338, 640, 305], "actions": ["up", "up", "up", "right", "up"], "actionTimes": [13008, 18199, 19064, 20236, 21062], "queries": {"click": {"state": {"target": [], "time": []}, "edge": {"target": [], "time": []}}, "mouseover": {"state": {"target": ["30"], "time": [9570]}, "edge": {"target": [], "time": []}}, "mouseout": {"state": {"target": ["31", "30", "0", "30"], "time": [245, 284, 9424, 9622]}, "edge": {"target": [], "time": []}}}, "displayed_time": "21.60", "trialTime": 34459, "trial_type": "mouselab-mdp", "trial_index": 3, "time_elapsed": 304106, "internal_node_id": "0.0-2.0-2.0-0.0"}}, {"uniqueid": "w50792197:a71638736", "current_trial": 4, "dateTime": 1693565635272, "trialdata": {"revealed_states": [], "clicked_states": [], "num_clicks_accrued": [0, 0, 0, 0, 0, 0, 0, 0, 0, 0, 0, 0, 0], "stateRewards": ["", 10, -10, -10, -10, -10, -10, -10, 10, -10, 10, 10, 10, 10, 10, -10, 10, 10, -10, 10, -10, -10, -10, -10, 10, -10, 10, 10, 10, -10, -10, -10, 10, -10], "withholdReward": false, "trial_id": "practice_2", "block": "test", "trialIndex": 1, "score": -6.5, "costs": 0, "simulationMode": [null, null, null, null, null], "rewards": [-10, 10, -10, 10, -10], "path": ["0", "0", "23", "24", "25", "26", "29"], "rt": [3220, 244, 1188, 1281, 253], "actions": ["left", "left", "left", "up", "left"], "actionTimes": [7397, 8175, 9934, 11749, 12527], "queries": {"click": {"state": {"target": [], "time": []}, "edge": {"target": [], "time": []}}, "mouseover": {"state": {"target": [], "time": []}, "edge": {"target": [], "time": []}}, "mouseout": {"state": {"target": ["33", "0"], "time": [1669, 2090]}, "edge": {"target": [], "time": []}}}, "displayed_time": "13.10", "trialTime": 24161, "trial_type": "mouselab-mdp", "trial_index": 4, "time_elapsed": 329941, "internal_node_id": "0.0-2.0-2.0-1.0"}}, {"uniqueid": "w50792197:a71638736", "current_trial": 5, "dateTime": 1693565709056, "trialdata": {"view_history": [{"page_index": 0, "viewing_time": 63123}, {"page_index": 1, "viewing_time": 10649}], "rt": 73773, "trial_id": "mouselab_instructions_2_control", "trial_type": "instructions", "trial_index": 5, "time_elapsed": 403726, "internal_node_id": "0.0-2.0-3.0"}}, {"uniqueid": "w50792197:a71638736", "current_trial": 6, "dateTime": 1693565764293, "trialdata": {"rt": 55215, "response": {"Q0": "The cost for clicking on nodes may vary between nodes.", "Q1": "The better I perform the higher my bonus will be.", "Q2": "No, the amount of cash at each node of the web may be different each time.", "Q3": "To get the highest total score.", "Q4": "Any time during the round.", "Q5": "3 seconds"}, "question_order": [0, 1, 2, 3, 4, 5], "correct": {"Q0": "The cost for clicking on nodes may vary between nodes.", "Q1": "The better I perform the higher my bonus will be.", "Q2": "No, the amount of cash at each node of the web may be different each time.", "Q3": "To get the highest total score.", "Q4": "Only before moving the spider.", "Q5": "3 seconds"}, "trial_id": "mouselab_quiz_control", "trial_type": "survey-multi-choice", "trial_index": 6, "time_elapsed": 458963, "internal_node_id": "0.0-2.0-4.0"}}, {"uniqueid": "w50792197:a71638736", "current_trial": 7, "dateTime": 1693565773991, "trialdata": {"success": true, "trial_type": "fullscreen", "trial_index": 7, "time_elapsed": 468660, "internal_node_id": "0.0-2.1-0.1-0.1"}}, {"uniqueid": "w50792197:a71638736", "current_trial": 8, "dateTime": 1693565997169, "trialdata": {"view_history": [{"page_index": 0, "viewing_time": 86873}, {"page_index": 1, "viewing_time": 65520}, {"page_index": 2, "viewing_time": 29017}, {"page_index": 3, "viewing_time": 41747}], "rt": 223160, "trial_id": "mouselab_instructions_1_control", "trial_type": "instructions", "trial_index": 8, "time_elapsed": 691838, "internal_node_id": "0.0-2.1-1.1"}}, {"uniqueid": "w50792197:a71638736", "current_trial": 9, "dateTime": 1693566015012, "trialdata": {"revealed_states": [], "clicked_states": [], "num_clicks_accrued": [0, 0, 0, 0, 0, 0, 0, 0, 0, 0, 0, 0, 0], "stateRewards": ["", -10, -10, -10, -10, 10, 10, 10, 10, 10, 10, 10, 10, -10, -10, 10, -10, 10, -10, -10, -10, -10, -10, -10, -10, 10, -10, 10, 10, -10, 10, -10, 10, -10], "withholdReward": false, "trial_id": "practice_1", "block": "test", "trialIndex": 2, "score": -6.5, "costs": 0, "simulationMode": [null, null, null, null, null], "rewards": [-10, -10, 10, 10, -10], "path": ["0", "0", "23", "24", "25", "30", "31"], "rt": [1469, 532, 967, 559, 867], "actions": ["left", "left", "left", "down", "right"], "actionTimes": [4474, 5548, 7048, 8154, 9572], "queries": {"click": {"state": {"target": [], "time": []}, "edge": {"target": [], "time": []}}, "mouseover": {"state": {"target": [], "time": []}, "edge": {"target": [], "time": []}}, "mouseout": {"state": {"target": [], "time": []}, "edge": {"target": [], "time": []}}}, "displayed_time": "10.11", "trialTime": 15846, "trial_type": "mouselab-mdp", "trial_index": 9, "time_elapsed": 709681, "internal_node_id": "0.0-2.1-2.1-0.1"}}, {"uniqueid": "w50792197:a71638736", "current_trial": 10, "dateTime": 1693566033750, "trialdata": {"revealed_states": [], "clicked_states": [], "num_clicks_accrued": [0, 0, 0, 0, 0, 0, 0, 0, 0, 0, 0, 0, 0], "stateRewards": ["", 10, -10, -10, -10, -10, -10, -10, 10, -10, 10, 10, 10, 10, 10, -10, 10, 10, -10, 10, -10, -10, -10, -10, 10, -10, 10, 10, 10, -10, -10, -10, 10, -10], "withholdReward": false, "trial_id": "practice_2", "block": "test", "trialIndex": 3, "score": 33.5, "costs": 0, "simulationMode": [null, null, null, null, null], "rewards": [10, 10, 10, 10, -10], "path": ["0", "0", "12", "13", "14", "19", "21"], "rt": [2774, 767, 409, 875, 1374], "actions": ["right", "right", "right", "down", "down"], "actionTimes": [5586, 6904, 7859, 9273, 11189], "queries": {"click": {"state": {"target": [], "time": []}, "edge": {"target": [], "time": []}}, "mouseover": {"state": {"target": [], "time": []}, "edge": {"target": [], "time": []}}, "mouseout": {"state": {"target": ["0", "18"], "time": [14541, 14595]}, "edge": {"target": [], "time": []}}}, "displayed_time": "11.72", "trialTime": 16771, "trial_type": "mouselab-mdp", "trial_index": 10, "time_elapsed": 728418, "internal_node_id": "0.0-2.1-2.1-1.1"}}, {"uniqueid": "w50792197:a71638736", "current_trial": 11, "dateTime": 1693566078376, "trialdata": {"view_history": [{"page_index": 0, "viewing_time": 42085}, {"page_index": 1, "viewing_time": 2529}], "rt": 44616, "trial_id": "mouselab_instructions_2_control", "trial_type": "instructions", "trial_index": 11, "time_elapsed": 773046, "internal_node_id": "0.0-2.1-3.1"}}, {"uniqueid": "w50792197:a71638736", "current_trial": 12, "dateTime": 1693566127395, "trialdata": {"rt": 49002, "response": {"Q0": "The cost for clicking on nodes may vary between nodes.", "Q1": "The better I perform the higher my bonus will be.", "Q2": "No, the amount of cash at each node of the web may be different each time.", "Q3": "To get the highest total score.", "Q4": "Only before moving the spider.", "Q5": "3 seconds"}, "question_order": [0, 1, 2, 3, 4, 5], "correct": {"Q0": "The cost for clicking on nodes may vary between nodes.", "Q1": "The better I perform the higher my bonus will be.", "Q2": "No, the amount of cash at each node of the web may be different each time.", "Q3": "To get the highest total score.", "Q4": "Only before moving the spider.", "Q5": "3 seconds"}, "trial_id": "mouselab_quiz_control", "trial_type": "survey-multi-choice", "trial_index": 12, "time_elapsed": 822065, "internal_node_id": "0.0-2.1-4.1"}}, {"uniqueid": "w50792197:a71638736", "current_trial": 13, "dateTime": 1693566141060, "trialdata": {"rt": 13631, "response": {"Q0": "No"}, "question_order": [0], "trial_id": "repeat_check", "trial_type": "survey-multi-choice", "trial_index": 13, "time_elapsed": 835728, "internal_node_id": "0.0-4.0-0.0"}}, {"uniqueid": "w50792197:a71638736", "current_trial": 14, "dateTime": 1693566161117, "trialdata": {"rt": 20035, "stimulus": "\n<h1> Get ready to start the game! </h1>\n\nThank you for reading the instructions. Get ready start with the 40 rounds of this game.\n<br><br>\nIf you need to take a break, feel free to take one after the end of a round, before continuing to the next one.\n<br><br>\nRemember, the more money the spider gets, the bigger your bonus will be!\n<br><br>\n<div style='text-align: center;'>Press <code>space</code> to begin.</div>\n\n<br><br>\n(If, at any point, the <code>space</code> key does not take you to the next page, click once on the text and try again.)", "response": " ", "trial_id": "mdp_ready", "trial_type": "html-keyboard-response", "trial_index": 14, "time_elapsed": 855787, "internal_node_id": "0.0-6.0-0.0"}}, {"uniqueid": "w50792197:a71638736", "current_trial": 15, "dateTime": 1693566183557, "trialdata": {"revealed_states": [], "clicked_states": [], "num_clicks_accrued": [0, 0, 0, 0, 0, 0, 0, 0, 0, 0, 0, 0, 0], "stateRewards": ["", 1, 1, -7, -9, -44, 24, -83, -15, 44, -24, 72, -2, -3, 4, -5, 57, 55, 29, -11, 22, 12, -25, -1, 2, 7, 12, 33, -8, 47, -4, 8, 50, -4], "withholdReward": false, "trial_id": "mdp_trial_1", "block": "test", "trialIndex": 4, "score": 0, "costs": 0, "simulationMode": [null, null, null, null, null], "rewards": [-2, -3, 4, -11, 12], "path": ["0", "0", "12", "13", "14", "19", "21"], "rt": [1150, 206, 261, 271, 264], "actions": ["right", "right", "right", "down", "down"], "actionTimes": [4789, 5532, 6323, 7198, 8009], "queries": {"click": {"state": {"target": [], "time": []}, "edge": {"target": [], "time": []}}, "mouseover": {"state": {"target": [], "time": []}, "edge": {"target": [], "time": []}}, "mouseout": {"state": {"target": [], "time": []}, "edge": {"target": [], "time": []}}}, "displayed_time": "17.64", "trialTime": 20405, "trial_type": "mouselab-mdp", "trial_index": 15, "time_elapsed": 878226, "internal_node_id": "0.0-6.0-1.0-0.0"}}, {"uniqueid": "w50792197:a71638736", "current_trial": 16, "dateTime": 1693566204857, "trialdata": {"revealed_states": [], "clicked_states": [], "num_clicks_accrued": [0, 0, 0, 0, 0, 0, 0, 0, 0, 0, 0, 0, 0], "stateRewards": ["", -1, -3, 1, 13, -64, -29, 12, -4, -33, 50, 56, 2, -3, 4, 11, -64, -58, -55, 12, 47, 38, -25, -2, 2, 5, -15, 85, 7, 84, 10, 8, 57, 26], "withholdReward": false, "trial_id": "mdp_trial_2", "block": "test", "trialIndex": 5, "score": 22, "costs": 0, "simulationMode": [null, null, null, null, null], "rewards": [-1, -3, 1, 13, 12], "path": ["0", "0", "1", "2", "3", "4", "7"], "rt": [1292, 148, 307, 538, 298], "actions": ["up", "up", "up", "right", "down"], "actionTimes": [3409, 4150, 5016, 6072, 6973], "queries": {"click": {"state": {"target": [], "time": []}, "edge": {"target": [], "time": []}}, "mouseover": {"state": {"target": [], "time": []}, "edge": {"target": [], "time": []}}, "mouseout": {"state": {"target": ["0", "13", "14"], "time": [9860, 9925, 9964]}, "edge": {"target": [], "time": []}}}, "displayed_time": "16.12", "trialTime": 19289, "trial_type": "mouselab-mdp", "trial_index": 16, "time_elapsed": 899526, "internal_node_id": "0.0-6.0-1.0-1.0"}}, {"uniqueid": "w50792197:a71638736", "current_trial": 17, "dateTime": 1693566230330, "trialdata": {"revealed_states": [], "clicked_states": [], "num_clicks_accrued": [0, 0, 0, 0, 0, 0, 0, 0, 0, 0, 0, 0, 0], "stateRewards": ["", 2, -1, -1, 7, 11, -40, -22, -2, 69, 37, 8, -2, 4, -8, -12, -2, -72, -3, -12, 17, 63, 12, 1, 3, -7, 6, 25, 61, 61, -9, 28, -17, 27], "withholdReward": false, "trial_id": "mdp_trial_3", "block": "test", "trialIndex": 6, "score": -90, "costs": 0, "simulationMode": [null, null, null, null, null], "rewards": [-2, 4, -8, -12, -72], "path": ["0", "0", "12", "13", "14", "15", "17"], "rt": [942, 285, 369, 710, 323], "actions": ["right", "right", "right", "up", "right"], "actionTimes": [4783, 5597, 6499, 7798, 8663], "queries": {"click": {"state": {"target": [], "time": []}, "edge": {"target": [], "time": []}}, "mouseover": {"state": {"target": [], "time": []}, "edge": {"target": [], "time": []}}, "mouseout": {"state": {"target": ["19", "22", "0", "0"], "time": [1367, 1428, 1950, 10874]}, "edge": {"target": [], "time": []}}}, "displayed_time": "17.85", "trialTime": 22909, "trial_type": "mouselab-mdp", "trial_index": 17, "time_elapsed": 924999, "internal_node_id": "0.0-6.0-1.0-2.0"}}, {"uniqueid": "w50792197:a71638736", "current_trial": 18, "dateTime": 1693566255371, "trialdata": {"revealed_states": [], "clicked_states": [], "num_clicks_accrued": [0, 0, 0, 0, 0, 0, 0, 0, 0, 0, 0, 0, 0], "stateRewards": ["", 2, -3, -4, -1, 25, -16, 16, 10, -71, -20, -55, 1, 3, -4, -9, 1, 32, 11, -6, 32, -50, -41, -1, 4, 4, -8, 7, -81, 70, 2, -52, 45, -10], "withholdReward": false, "trial_id": "mdp_trial_4", "block": "test", "trialIndex": 7, "score": 2, "costs": 0, "simulationMode": [null, null, null, null, null], "rewards": [1, 3, -4, -9, 11], "path": ["0", "0", "12", "13", "14", "15", "18"], "rt": [561, 200, 309, 346, 317], "actions": ["right", "right", "right", "up", "left"], "actionTimes": [5514, 6248, 7093, 7972, 8821], "queries": {"click": {"state": {"target": [], "time": []}, "edge": {"target": [], "time": []}}, "mouseover": {"state": {"target": [], "time": []}, "edge": {"target": [], "time": []}}, "mouseout": {"state": {"target": ["20", "12"], "time": [1773, 2543]}, "edge": {"target": [], "time": []}}}, "displayed_time": "18.96", "trialTime": 22604, "trial_type": "mouselab-mdp", "trial_index": 18, "time_elapsed": 950038, "internal_node_id": "0.0-6.0-1.0-3.0"}}, {"uniqueid": "w50792197:a71638736", "current_trial": 19, "dateTime": 1693566280340, "trialdata": {"revealed_states": [], "clicked_states": [], "num_clicks_accrued": [0, 0, 0, 0, 0, 0, 0, 0, 0, 0, 0, 0, 0], "stateRewards": ["", -1, -2, 4, 9, 10, -75, 39, 16, -43, 88, -19, -1, 1, 2, 4, -31, 10, 73, 12, 41, -64, -81, -2, 2, -6, 1, -81, -1, -26, 3, -59, -3, -20], "withholdReward": false, "trial_id": "mdp_trial_5", "block": "test", "trialIndex": 8, "score": -62, "costs": 0, "simulationMode": [null, null, null, null, null], "rewards": [-2, 2, -6, 3, -59], "path": ["0", "0", "23", "24", "25", "30", "31"], "rt": [1911, 122, 95, 334, 434], "actions": ["left", "left", "left", "down", "right"], "actionTimes": [3949, 4603, 5247, 6126, 7105], "queries": {"click": {"state": {"target": [], "time": []}, "edge": {"target": [], "time": []}}, "mouseover": {"state": {"target": [], "time": []}, "edge": {"target": [], "time": []}}, "mouseout": {"state": {"target": [], "time": []}, "edge": {"target": [], "time": []}}}, "displayed_time": "16.04", "trialTime": 22806, "trial_type": "mouselab-mdp", "trial_index": 19, "time_elapsed": 975008, "internal_node_id": "0.0-6.0-1.0-4.0"}}, {"uniqueid": "w50792197:a71638736", "current_trial": 20, "dateTime": 1693566303278, "trialdata": {"revealed_states": [], "clicked_states": [], "num_clicks_accrued": [0, 0, 0, 0, 0, 0, 0, 0, 0, 0, 0, 0, 0], "stateRewards": ["", 1, 2, -8, 9, 18, -83, -11, 6, -64, -48, 17, -2, -2, -5, -3, -24, -3, -86, -2, 48, -41, -22, -2, 4, 7, 8, 81, 13, -48, 10, 61, 19, 57], "withholdReward": false, "trial_id": "mdp_trial_6", "block": "test", "trialIndex": 9, "score": 22, "costs": 0, "simulationMode": [null, null, null, null, null], "rewards": [1, 2, -8, 9, 18], "path": ["0", "0", "1", "2", "3", "4", "5"], "rt": [483, 595, 236, 162, 257], "actions": ["up", "up", "up", "right", "up"], "actionTimes": [2526, 3647, 4425, 5118, 5917], "queries": {"click": {"state": {"target": [], "time": []}, "edge": {"target": [], "time": []}}, "mouseover": {"state": {"target": [], "time": []}, "edge": {"target": [], "time": []}}, "mouseout": {"state": {"target": [], "time": []}, "edge": {"target": [], "time": []}}}, "displayed_time": "16.05", "trialTime": 20682, "trial_type": "mouselab-mdp", "trial_index": 20, "time_elapsed": 997947, "internal_node_id": "0.0-6.0-1.0-5.0"}}, {"uniqueid": "w50792197:a71638736", "current_trial": 21, "dateTime": 1693566328746, "trialdata": {"revealed_states": [], "clicked_states": [], "num_clicks_accrued": [0, 0, 0, 0, 0, 0, 0, 0, 0, 0, 0, 0, 0], "stateRewards": ["", 2, -1, 8, -2, -16, 69, -39, -7, -13, -27, -86, 2, -2, 2, 13, -34, -16, -20, -5, 19, 81, 32, -2, -1, 2, -14, 20, 80, 58, 4, 70, 12, 73], "withholdReward": false, "trial_id": "mdp_trial_7", "block": "test", "trialIndex": 10, "score": -9, "costs": 0, "simulationMode": [null, null, null, null, null], "rewards": [2, -1, 8, -2, -16], "path": ["0", "0", "1", "2", "3", "4", "5"], "rt": [517, 49, 111, 235, 624], "actions": ["up", "up", "up", "right", "up"], "actionTimes": [2646, 3240, 3906, 4679, 5832], "queries": {"click": {"state": {"target": [], "time": []}, "edge": {"target": [], "time": []}}, "mouseover": {"state": {"target": [], "time": []}, "edge": {"target": [], "time": []}}, "mouseout": {"state": {"target": [], "time": []}, "edge": {"target": [], "time": []}}}, "displayed_time": "16.13", "trialTime": 22656, "trial_type": "mouselab-mdp", "trial_index": 21, "time_elapsed": 1023415, "internal_node_id": "0.0-6.0-1.0-6.0"}}, {"uniqueid": "w50792197:a71638736", "current_trial": 22, "dateTime": 1693566353575, "trialdata": {"revealed_states": [], "clicked_states": [], "num_clicks_accrued": [0, 0, 0, 0, 0, 0, 0, 0, 0, 0, 0, 0, 0], "stateRewards": ["", 1, 2, -3, 6, -88, 74, -45, 7, -46, 40, -77, 1, -4, 4, 3, 22, -25, -59, 8, -83, 19, -60, -1, -1, -1, -8, 26, -29, 64, -7, -88, -51, -55], "withholdReward": false, "trial_id": "mdp_trial_8", "block": "test", "trialIndex": 11, "score": -40, "costs": 0, "simulationMode": [null, null, null, null, null], "rewards": [-1, -1, -1, -8, -29], "path": ["0", "0", "23", "24", "25", "26", "28"], "rt": [1356, 171, 393, 227, 721], "actions": ["left", "left", "left", "up", "right"], "actionTimes": [3659, 4391, 5325, 6081, 7343], "queries": {"click": {"state": {"target": [], "time": []}, "edge": {"target": [], "time": []}}, "mouseover": {"state": {"target": [], "time": []}, "edge": {"target": [], "time": []}}, "mouseout": {"state": {"target": [], "time": []}, "edge": {"target": [], "time": []}}}, "displayed_time": "16.31", "trialTime": 22170, "trial_type": "mouselab-mdp", "trial_index": 22, "time_elapsed": 1048244, "internal_node_id": "0.0-6.0-1.0-7.0"}}, {"uniqueid": "w50792197:a71638736", "current_trial": 23, "dateTime": 1693566378815, "trialdata": {"revealed_states": [], "clicked_states": [], "num_clicks_accrued": [0, 0, 0, 0, 0, 0, 0, 0, 0, 0, 0, 0, 0], "stateRewards": ["", 2, -4, 1, -12, -59, -53, -74, 16, -88, -66, 66, 1, -2, 8, -9, -14, 22, 25, -1, -39, 47, -14, -1, -1, -2, 1, -4, 52, -26, 15, -7, 46, 43], "withholdReward": false, "trial_id": "mdp_trial_9", "block": "test", "trialIndex": 12, "score": -33, "costs": 0, "simulationMode": [null, null, null, null, null], "rewards": [1, -2, 8, -1, -39], "path": ["0", "0", "12", "13", "14", "19", "20"], "rt": [2282, 51, 157, 380, 221], "actions": ["right", "right", "right", "down", "right"], "actionTimes": [4902, 5513, 6237, 7174, 7934], "queries": {"click": {"state": {"target": [], "time": []}, "edge": {"target": [], "time": []}}, "mouseover": {"state": {"target": [], "time": []}, "edge": {"target": [], "time": []}}, "mouseout": {"state": {"target": [], "time": []}, "edge": {"target": [], "time": []}}}, "displayed_time": "16.62", "trialTime": 22854, "trial_type": "mouselab-mdp", "trial_index": 23, "time_elapsed": 1073483, "internal_node_id": "0.0-6.0-1.0-8.0"}}, {"uniqueid": "w50792197:a71638736", "current_trial": 24, "dateTime": 1693566403454, "trialdata": {"revealed_states": [], "clicked_states": ["21"], "num_clicks_accrued": [0, 0, 0, 0, 0, 0, 0, 0, 0, 0, 0, 0, 0], "stateRewards": ["", -1, 2, -2, 13, -56, -28, 10, 14, 53, -80, -29, 1, -3, -3, -14, 14, 9, -40, -9, 18, 18, 48, 1, 1, 1, -9, 64, -39, -9, 7, -52, -78, 7], "withholdReward": false, "trial_id": "mdp_trial_10", "block": "test", "trialIndex": 13, "score": -11.399999999999999, "costs": -1.4, "simulationMode": [null, null, null, null, null], "rewards": [1, -3, -3, -14, 9], "path": ["0", "0", "12", "13", "14", "15", "17"], "rt": [3286, 64, 167, 167, 71], "actions": ["right", "right", "right", "up", "right"], "actionTimes": [6335, 6931, 7634, 8338, 8925], "queries": {"click": {"state": {"target": ["21"], "time": [4722]}, "edge": {"target": [], "time": []}}, "mouseover": {"state": {"target": ["21"], "time": [3814]}, "edge": {"target": [], "time": []}}, "mouseout": {"state": {"target": ["12", "0", "21"], "time": [49, 3247, 4764]}, "edge": {"target": [], "time": []}}}, "displayed_time": "17.05", "trialTime": 21832, "trial_type": "mouselab-mdp", "trial_index": 24, "time_elapsed": 1098123, "internal_node_id": "0.0-6.0-1.0-9.0"}}, {"uniqueid": "w50792197:a71638736", "current_trial": 25, "dateTime": 1693566427234, "trialdata": {"revealed_states": [], "clicked_states": [], "num_clicks_accrued": [0, 0, 0, 0, 0, 0, 0, 0, 0, 0, 0, 0, 0], "stateRewards": ["", 2, 4, 4, 9, -88, -10, 44, 16, -54, 64, 78, 1, 2, 5, 16, 80, 36, 7, -4, 9, -47, -70, -1, -3, 6, -16, 11, 80, 28, 8, -1, 34, -17], "withholdReward": false, "trial_id": "mdp_trial_11", "block": "test", "trialIndex": 14, "score": 44, "costs": 0, "simulationMode": [null, null, null, null, null], "rewards": [-1, -3, 6, 8, 34], "path": ["0", "0", "23", "24", "25", "30", "32"], "rt": [523, 55, 210, 336, 254], "actions": ["left", "left", "left", "down", "down"], "actionTimes": [3360, 3966, 4725, 5595, 6397], "queries": {"click": {"state": {"target": [], "time": []}, "edge": {"target": [], "time": []}}, "mouseover": {"state": {"target": [], "time": []}, "edge": {"target": [], "time": []}}, "mouseout": {"state": {"target": ["0"], "time": [901]}, "edge": {"target": [], "time": []}}}, "displayed_time": "16.84", "trialTime": 21440, "trial_type": "mouselab-mdp", "trial_index": 25, "time_elapsed": 1121903, "internal_node_id": "0.0-6.0-1.0-10.0"}}, {"uniqueid": "w50792197:a71638736", "current_trial": 26, "dateTime": 1693566449755, "trialdata": {"revealed_states": [], "clicked_states": [], "num_clicks_accrued": [0, 0, 0, 0, 0, 0, 0, 0, 0, 0, 0, 0, 0], "stateRewards": ["", 1, 4, -8, -5, -15, -7, 21, 13, -30, 40, -65, 1, 1, 5, -14, 35, 27, -38, -11, 36, -58, -47, -2, 4, -3, 13, -16, -49, 22, 15, -56, -44, -10], "withholdReward": false, "trial_id": "mdp_trial_12", "block": "test", "trialIndex": 15, "score": -42, "costs": 0, "simulationMode": [null, null, null, null, null], "rewards": [-2, 4, -3, 15, -56], "path": ["0", "0", "23", "24", "25", "30", "31"], "rt": [420, 86, 75, 265, 335], "actions": ["left", "left", "left", "down", "right"], "actionTimes": [2893, 3533, 4152, 4958, 5840], "queries": {"click": {"state": {"target": [], "time": []}, "edge": {"target": [], "time": []}}, "mouseover": {"state": {"target": [], "time": []}, "edge": {"target": [], "time": []}}, "mouseout": {"state": {"target": ["0"], "time": [973]}, "edge": {"target": [], "time": []}}}, "displayed_time": "16.48", "trialTime": 19963, "trial_type": "mouselab-mdp", "trial_index": 26, "time_elapsed": 1144423, "internal_node_id": "0.0-6.0-1.0-11.0"}}, {"uniqueid": "w50792197:a71638736", "current_trial": 27, "dateTime": 1693566483735, "trialdata": {"revealed_states": [], "clicked_states": [], "num_clicks_accrued": [0, 0, 0, 0, 0, 0, 0, 0, 0, 0, 0, 0, 0], "stateRewards": ["", 2, -3, 5, 11, -79, 54, 11, -9, -78, 33, 22, -2, -1, 2, 14, 43, 34, 1, 10, 49, -65, 39, -1, 1, -1, 3, -16, -2, 11, 2, 12, 48, -65], "withholdReward": false, "trial_id": "mdp_trial_13", "block": "test", "trialIndex": 16, "score": -64, "costs": 0, "simulationMode": [null, null, null, null, null], "rewards": [-1, 1, -1, 2, -65], "path": ["0", "0", "23", "24", "25", "30", "33"], "rt": [402, 191, 273, 162, 203], "actions": ["left", "left", "left", "down", "left"], "actionTimes": [2546, 3293, 4098, 4792, 5541], "queries": {"click": {"state": {"target": [], "time": []}, "edge": {"target": [], "time": []}}, "mouseover": {"state": {"target": [], "time": []}, "edge": {"target": [], "time": []}}, "mouseout": {"state": {"target": ["0"], "time": [503]}, "edge": {"target": [], "time": []}}}, "displayed_time": "16.15", "trialTime": 30876, "trial_type": "mouselab-mdp", "trial_index": 27, "time_elapsed": 1178404, "internal_node_id": "0.0-6.0-1.0-12.0"}}, {"uniqueid": "w50792197:a71638736", "current_trial": 28, "dateTime": 1693566506341, "trialdata": {"revealed_states": [], "clicked_states": [], "num_clicks_accrued": [0, 0, 0, 0, 0, 0, 0, 0, 0, 0, 0, 0, 0], "stateRewards": ["", -2, -3, -5, 8, 27, 11, 43, -6, -24, -87, 69, -2, 1, 1, 9, 19, 48, -37, 9, -14, 45, 62, 1, 2, 1, 16, -81, -41, 22, 4, -6, -63, 47], "withholdReward": false, "trial_id": "mdp_trial_14", "block": "test", "trialIndex": 17, "score": -40, "costs": 0, "simulationMode": [null, null, null, null, null], "rewards": [-2, -3, -5, -6, -24], "path": ["0", "0", "1", "2", "3", "8", "9"], "rt": [672, 659, 211, 1519, 231], "actions": ["up", "up", "up", "left", "up"], "actionTimes": [2784, 4003, 4745, 6784, 7528], "queries": {"click": {"state": {"target": [], "time": []}, "edge": {"target": [], "time": []}}, "mouseover": {"state": {"target": [], "time": []}, "edge": {"target": [], "time": []}}, "mouseout": {"state": {"target": ["0"], "time": [722]}, "edge": {"target": [], "time": []}}}, "displayed_time": "16.12", "trialTime": 19860, "trial_type": "mouselab-mdp", "trial_index": 28, "time_elapsed": 1201010, "internal_node_id": "0.0-6.0-1.0-13.0"}}, {"uniqueid": "w50792197:a71638736", "current_trial": 29, "dateTime": 1693566528282, "trialdata": {"revealed_states": [], "clicked_states": [], "num_clicks_accrued": [0, 0, 0, 0, 0, 0, 0, 0, 0, 0, 0, 0, 0], "stateRewards": ["", 1, 1, -3, 7, 49, 78, 26, -5, 26, 48, -43, -1, -3, 2, -5, 4, -1, -60, 10, -35, 51, 81, -2, 1, -7, -5, -39, -86, -54, 4, -3, 74, 77], "withholdReward": false, "trial_id": "mdp_trial_15", "block": "test", "trialIndex": 18, "score": 70, "costs": 0, "simulationMode": [null, null, null, null, null], "rewards": [-2, 1, -7, 4, 74], "path": ["0", "0", "23", "24", "25", "30", "32"], "rt": [561, 163, 103, 307, 211], "actions": ["left", "left", "left", "down", "down"], "actionTimes": [2977, 3666, 4307, 5143, 5890], "queries": {"click": {"state": {"target": [], "time": []}, "edge": {"target": [], "time": []}}, "mouseover": {"state": {"target": [], "time": []}, "edge": {"target": [], "time": []}}, "mouseout": {"state": {"target": ["0"], "time": [807]}, "edge": {"target": [], "time": []}}}, "displayed_time": "16.42", "trialTime": 18666, "trial_type": "mouselab-mdp", "trial_index": 29, "time_elapsed": 1222951, "internal_node_id": "0.0-6.0-1.0-14.0"}}, {"uniqueid": "w50792197:a71638736", "current_trial": 30, "dateTime": 1693566549337, "trialdata": {"revealed_states": [], "clicked_states": [], "num_clicks_accrued": [0, 0, 0, 0, 0, 0, 0, 0, 0, 0, 0, 0, 0], "stateRewards": ["", -2, 1, -7, -8, -37, -76, -87, 11, 30, -63, 80, -1, 4, 2, -1, 42, 17, 52, -3, -75, -80, -68, 2, -3, -5, -15, -48, 82, 24, -7, 5, -22, -71], "withholdReward": false, "trial_id": "mdp_trial_16", "block": "test", "trialIndex": 19, "score": 61, "costs": 0, "simulationMode": [null, null, null, null, null], "rewards": [2, -3, -5, -15, 82], "path": ["0", "0", "23", "24", "25", "26", "28"], "rt": [848, 135, 205, 257, 113], "actions": ["left", "left", "left", "up", "right"], "actionTimes": [2998, 3677, 4410, 5188, 5832], "queries": {"click": {"state": {"target": [], "time": []}, "edge": {"target": [], "time": []}}, "mouseover": {"state": {"target": [], "time": []}, "edge": {"target": [], "time": []}}, "mouseout": {"state": {"target": ["0"], "time": [638]}, "edge": {"target": [], "time": []}}}, "displayed_time": "16.15", "trialTime": 18281, "trial_type": "mouselab-mdp", "trial_index": 30, "time_elapsed": 1244005, "internal_node_id": "0.0-6.0-1.0-15.0"}}, {"uniqueid": "w50792197:a71638736", "current_trial": 31, "dateTime": 1693566569730, "trialdata": {"revealed_states": [], "clicked_states": [], "num_clicks_accrued": [0, 0, 0, 0, 0, 0, 0, 0, 0, 0, 0, 0, 0], "stateRewards": ["", 2, -1, -3, 16, -3, -16, -62, -1, 13, -26, 43, -1, 4, 3, -9, -54, -37, -3, -12, -71, -68, -57, 1, -3, 2, -9, 2, -2, -9, -11, 84, -52, 55], "withholdReward": false, "trial_id": "mdp_trial_17", "block": "test", "trialIndex": 20, "score": -18, "costs": 0, "simulationMode": [null, null, null, null, null], "rewards": [1, -3, 2, -9, -9], "path": ["0", "0", "23", "24", "25", "26", "29"], "rt": [512, 104, 122, 152, 139], "actions": ["left", "left", "left", "up", "left"], "actionTimes": [2407, 3048, 3700, 4397, 5084], "queries": {"click": {"state": {"target": [], "time": []}, "edge": {"target": [], "time": []}}, "mouseover": {"state": {"target": [], "time": []}, "edge": {"target": [], "time": []}}, "mouseout": {"state": {"target": ["0"], "time": [515]}, "edge": {"target": [], "time": []}}}, "displayed_time": "15.90", "trialTime": 17732, "trial_type": "mouselab-mdp", "trial_index": 31, "time_elapsed": 1264399, "internal_node_id": "0.0-6.0-1.0-16.0"}}, {"uniqueid": "w50792197:a71638736", "current_trial": 32, "dateTime": 1693566589390, "trialdata": {"revealed_states": [], "clicked_states": [], "num_clicks_accrued": [0, 0, 0, 0, 0, 0, 0, 0, 0, 0, 0, 0, 0], "stateRewards": ["", 1, 4, 5, 8, -55, -11, 8, 16, -37, 77, -22, -2, 3, -8, -10, 45, 87, -67, 4, 17, -33, -22, -1, -3, 7, 6, -39, -85, 75, -1, 7, -48, 45], "withholdReward": false, "trial_id": "mdp_trial_18", "block": "test", "trialIndex": 21, "score": -30, "costs": 0, "simulationMode": [null, null, null, null, null], "rewards": [-1, -3, 7, 6, -39], "path": ["0", "0", "23", "24", "25", "26", "27"], "rt": [465, 71, 76, 278, 289], "actions": ["left", "left", "left", "up", "up"], "actionTimes": [2613, 3234, 3883, 4690, 5519], "queries": {"click": {"state": {"target": [], "time": []}, "edge": {"target": [], "time": []}}, "mouseover": {"state": {"target": [], "time": []}, "edge": {"target": [], "time": []}}, "mouseout": {"state": {"target": ["0"], "time": [694]}, "edge": {"target": [], "time": []}}}, "displayed_time": "16.15", "trialTime": 16886, "trial_type": "mouselab-mdp", "trial_index": 32, "time_elapsed": 1284058, "internal_node_id": "0.0-6.0-1.0-17.0"}}, {"uniqueid": "w50792197:a71638736", "current_trial": 33, "dateTime": 1693566611133, "trialdata": {"revealed_states": [], "clicked_states": [], "num_clicks_accrued": [0, 0, 0, 0, 0, 0, 0, 0, 0, 0, 0, 0, 0], "stateRewards": ["", -2, -1, -5, 10, -36, -70, 68, -9, 86, 71, -10, 2, -4, 7, -7, 66, 44, -66, -13, -69, 43, 15, -2, 2, 6, -13, 62, 57, 50, -10, -69, 42, -72], "withholdReward": false, "trial_id": "mdp_trial_19", "block": "test", "trialIndex": 22, "score": 55, "costs": 0, "simulationMode": [null, null, null, null, null], "rewards": [-2, 2, 6, -13, 62], "path": ["0", "0", "23", "24", "25", "26", "27"], "rt": [454, 97, 112, 171, 37], "actions": ["left", "left", "left", "up", "up"], "actionTimes": [2540, 3155, 3789, 4497, 5073], "queries": {"click": {"state": {"target": [], "time": []}, "edge": {"target": [], "time": []}}, "mouseover": {"state": {"target": [], "time": []}, "edge": {"target": [], "time": []}}, "mouseout": {"state": {"target": ["0"], "time": [636]}, "edge": {"target": [], "time": []}}}, "displayed_time": "16.09", "trialTime": 19208, "trial_type": "mouselab-mdp", "trial_index": 33, "time_elapsed": 1305801, "internal_node_id": "0.0-6.0-1.0-18.0"}}, {"uniqueid": "w50792197:a71638736", "current_trial": 34, "dateTime": 1693566637265, "trialdata": {"revealed_states": [], "clicked_states": [], "num_clicks_accrued": [0, 0, 0, 0, 0, 0, 0, 0, 0, 0, 0, 0, 0], "stateRewards": ["", -1, 3, 8, 10, -86, 61, -36, 10, 17, -60, 24, -1, -3, 3, 11, 50, 60, 33, -3, -20, 58, -6, 1, -4, -4, 13, -70, -71, 43, 14, 52, 82, -11], "withholdReward": false, "trial_id": "mdp_trial_20", "block": "test", "trialIndex": 23, "score": -64, "costs": 0, "simulationMode": [null, null, null, null, null], "rewards": [1, -4, -4, 13, -70], "path": ["0", "0", "23", "24", "25", "26", "27"], "rt": [600, 105, 105, 186, 252], "actions": ["left", "left", "left", "up", "up"], "actionTimes": [8303, 8942, 9586, 10309, 11131], "queries": {"click": {"state": {"target": [], "time": []}, "edge": {"target": [], "time": []}}, "mouseover": {"state": {"target": [], "time": []}, "edge": {"target": [], "time": []}}, "mouseout": {"state": {"target": ["0"], "time": [6104]}, "edge": {"target": [], "time": []}}}, "displayed_time": "21.71", "trialTime": 23469, "trial_type": "mouselab-mdp", "trial_index": 34, "time_elapsed": 1331934, "internal_node_id": "0.0-6.0-1.0-19.0"}}, {"uniqueid": "w50792197:a71638736", "current_trial": 35, "dateTime": 1693566660219, "trialdata": {"revealed_states": [], "clicked_states": [], "num_clicks_accrued": [0, 0, 0, 0, 0, 0, 0, 0, 0, 0, 0, 0, 0], "stateRewards": ["", 2, 3, 8, 11, 25, -80, 6, -4, -56, 84, -23, -2, -4, -3, 4, -51, -9, -61, -15, -64, 67, -35, 1, -1, -7, -6, 83, 59, -15, 12, -79, 56, 41], "withholdReward": false, "trial_id": "mdp_trial_21", "block": "test", "trialIndex": 24, "score": 46, "costs": 0, "simulationMode": [null, null, null, null, null], "rewards": [1, -1, -7, -6, 59], "path": ["0", "0", "23", "24", "25", "26", "28"], "rt": [455, 90, 86, 328, 19], "actions": ["left", "left", "left", "up", "right"], "actionTimes": [3035, 3664, 4308, 5173, 5729], "queries": {"click": {"state": {"target": [], "time": []}, "edge": {"target": [], "time": []}}, "mouseover": {"state": {"target": [], "time": []}, "edge": {"target": [], "time": []}}, "mouseout": {"state": {"target": ["0"], "time": [1027]}, "edge": {"target": [], "time": []}}}, "displayed_time": "16.58", "trialTime": 19527, "trial_type": "mouselab-mdp", "trial_index": 35, "time_elapsed": 1354887, "internal_node_id": "0.0-6.0-1.0-20.0"}}, {"uniqueid": "w50792197:a71638736", "current_trial": 36, "dateTime": 1693566681590, "trialdata": {"revealed_states": [], "clicked_states": [], "num_clicks_accrued": [0, 0, 0, 0, 0, 0, 0, 0, 0, 0, 0, 0, 0], "stateRewards": ["", -2, -3, 1, -14, 48, -49, 67, -1, -35, -48, 3, -2, 1, -4, -5, 86, -84, 39, 1, 48, 41, -42, -1, -4, 2, -7, 18, -86, 17, 7, -9, 57, -69], "withholdReward": false, "trial_id": "mdp_trial_22", "block": "test", "trialIndex": 25, "score": -94, "costs": 0, "simulationMode": [null, null, null, null, null], "rewards": [-2, 1, -4, -5, -84], "path": ["0", "0", "12", "13", "14", "15", "17"], "rt": [685, 62, 113, 300, 610], "actions": ["right", "right", "right", "up", "right"], "actionTimes": [3292, 3890, 4771, 5608, 6764], "queries": {"click": {"state": {"target": [], "time": []}, "edge": {"target": [], "time": []}}, "mouseover": {"state": {"target": [], "time": []}, "edge": {"target": [], "time": []}}, "mouseout": {"state": {"target": ["0", "0", "17", "20", "19", "22"], "time": [1091, 9000, 9219, 10674, 10741, 10818]}, "edge": {"target": [], "time": []}}}, "displayed_time": "16.61", "trialTime": 18648, "trial_type": "mouselab-mdp", "trial_index": 36, "time_elapsed": 1376258, "internal_node_id": "0.0-6.0-1.0-21.0"}}, {"uniqueid": "w50792197:a71638736", "current_trial": 37, "dateTime": 1693566703766, "trialdata": {"revealed_states": [], "clicked_states": [], "num_clicks_accrued": [0, 0, 0, 0, 0, 0, 0, 0, 0, 0, 0, 0, 0], "stateRewards": ["", -1, -3, 4, -10, -5, 79, -87, -2, 53, 29, -20, -2, -1, -5, 10, 27, 86, 46, -16, -29, 40, 3, 2, 4, -1, -6, 37, 79, -29, 7, 86, -62, 29], "withholdReward": false, "trial_id": "mdp_trial_23", "block": "test", "trialIndex": 26, "score": 36, "costs": 0, "simulationMode": [null, null, null, null, null], "rewards": [2, 4, -1, -6, 37], "path": ["0", "0", "23", "24", "25", "26", "27"], "rt": [751, 125, 81, 150, 115], "actions": ["left", "left", "left", "up", "up"], "actionTimes": [3821, 4484, 5106, 5783, 6428], "queries": {"click": {"state": {"target": [], "time": []}, "edge": {"target": [], "time": []}}, "mouseover": {"state": {"target": [], "time": []}, "edge": {"target": [], "time": []}}, "mouseout": {"state": {"target": [], "time": []}, "edge": {"target": [], "time": []}}}, "displayed_time": "17.07", "trialTime": 19301, "trial_type": "mouselab-mdp", "trial_index": 37, "time_elapsed": 1398435, "internal_node_id": "0.0-6.0-1.0-22.0"}}, {"uniqueid": "w50792197:a71638736", "current_trial": 38, "dateTime": 1693566723823, "trialdata": {"revealed_states": [], "clicked_states": [], "num_clicks_accrued": [0, 0, 0, 0, 0, 0, 0, 0, 0, 0, 0, 0, 0], "stateRewards": ["", -1, 4, -8, 12, 14, 69, -8, 5, -72, -14, 56, -1, -1, -1, 9, 67, 19, 11, -9, -88, -58, 3, 2, -4, -8, 4, 62, 77, -74, 5, -31, 65, 88], "withholdReward": false, "trial_id": "mdp_trial_24", "block": "test", "trialIndex": 27, "score": -80, "costs": 0, "simulationMode": [null, null, null, null, null], "rewards": [2, -4, -8, 4, -74], "path": ["0", "0", "23", "24", "25", "26", "29"], "rt": [700, 159, 135, 115, 153], "actions": ["left", "left", "left", "up", "left"], "actionTimes": [3083, 3767, 4436, 5097, 5800], "queries": {"click": {"state": {"target": [], "time": []}, "edge": {"target": [], "time": []}}, "mouseover": {"state": {"target": [], "time": []}, "edge": {"target": [], "time": []}}, "mouseout": {"state": {"target": ["0"], "time": [701]}, "edge": {"target": [], "time": []}}}, "displayed_time": "16.39", "trialTime": 17258, "trial_type": "mouselab-mdp", "trial_index": 38, "time_elapsed": 1418492, "internal_node_id": "0.0-6.0-1.0-23.0"}}, {"uniqueid": "w50792197:a71638736", "current_trial": 39, "dateTime": 1693566745100, "trialdata": {"revealed_states": [], "clicked_states": [], "num_clicks_accrued": [0, 0, 0, 0, 0, 0, 0, 0, 0, 0, 0, 0, 0], "stateRewards": ["", 1, -3, -1, 9, -34, -40, 22, -7, 45, 53, -11, 2, 4, 5, 15, 21, 37, -49, -3, 80, -28, -34, 1, -3, 1, 1, -40, -6, -5, -16, -85, -86, 59], "withholdReward": false, "trial_id": "mdp_trial_25", "block": "test", "trialIndex": 28, "score": -103, "costs": 0, "simulationMode": [null, null, null, null, null], "rewards": [1, -3, 1, -16, -86], "path": ["0", "0", "23", "24", "25", "30", "32"], "rt": [701, 20, 141, 179, 102], "actions": ["left", "left", "left", "down", "down"], "actionTimes": [3781, 4335, 5045, 5754, 6386], "queries": {"click": {"state": {"target": [], "time": []}, "edge": {"target": [], "time": []}}, "mouseover": {"state": {"target": [], "time": []}, "edge": {"target": [], "time": []}}, "mouseout": {"state": {"target": ["0"], "time": [1508]}, "edge": {"target": [], "time": []}}}, "displayed_time": "17.08", "trialTime": 18513, "trial_type": "mouselab-mdp", "trial_index": 39, "time_elapsed": 1439768, "internal_node_id": "0.0-6.0-1.0-24.0"}}, {"uniqueid": "w50792197:a71638736", "current_trial": 40, "dateTime": 1693566765474, "trialdata": {"revealed_states": [], "clicked_states": [], "num_clicks_accrued": [0, 0, 0, 0, 0, 0, 0, 0, 0, 0, 0, 0, 0], "stateRewards": ["", 2, -4, 4, 9, 69, 9, -75, 12, -86, 66, 25, -1, 3, 2, -13, -88, -3, 1, 4, -69, 49, -84, 2, -1, 4, 2, -18, -81, -52, -15, -69, -54, 25], "withholdReward": false, "trial_id": "mdp_trial_26", "block": "test", "trialIndex": 29, "score": -64, "costs": 0, "simulationMode": [null, null, null, null, null], "rewards": [2, -4, 4, 9, -75], "path": ["0", "0", "1", "2", "3", "4", "7"], "rt": [542, 41, 180, 15, 234], "actions": ["up", "up", "up", "right", "down"], "actionTimes": [2881, 3465, 4194, 4761, 5555], "queries": {"click": {"state": {"target": [], "time": []}, "edge": {"target": [], "time": []}}, "mouseover": {"state": {"target": [], "time": []}, "edge": {"target": [], "time": []}}, "mouseout": {"state": {"target": ["0"], "time": [693]}, "edge": {"target": [], "time": []}}}, "displayed_time": "16.34", "trialTime": 17573, "trial_type": "mouselab-mdp", "trial_index": 40, "time_elapsed": 1460143, "internal_node_id": "0.0-6.0-1.0-25.0"}}, {"uniqueid": "w50792197:a71638736", "current_trial": 41, "dateTime": 1693566785917, "trialdata": {"revealed_states": [], "clicked_states": [], "num_clicks_accrued": [0, 0, 0, 0, 0, 0, 0, 0, 0, 0, 0, 0, 0], "stateRewards": ["", -2, -1, -3, -1, -78, -6, 2, -1, 22, -88, 32, 2, 2, -7, -8, -51, -17, 54, 2, -44, 54, 75, 2, -2, -8, -15, -29, 12, -67, 15, -1, -47, -47], "withholdReward": false, "trial_id": "mdp_trial_27", "block": "test", "trialIndex": 30, "score": -62, "costs": 0, "simulationMode": [null, null, null, null, null], "rewards": [2, 2, -7, -8, -51], "path": ["0", "0", "12", "13", "14", "15", "16"], "rt": [687, 105, 195, 185, 100], "actions": ["right", "right", "right", "up", "up"], "actionTimes": [3332, 3959, 4698, 5420, 6047], "queries": {"click": {"state": {"target": [], "time": []}, "edge": {"target": [], "time": []}}, "mouseover": {"state": {"target": [], "time": []}, "edge": {"target": [], "time": []}}, "mouseout": {"state": {"target": ["0"], "time": [1045]}, "edge": {"target": [], "time": []}}}, "displayed_time": "16.65", "trialTime": 17445, "trial_type": "mouselab-mdp", "trial_index": 41, "time_elapsed": 1480585, "internal_node_id": "0.0-6.0-1.0-26.0"}}, {"uniqueid": "w50792197:a71638736", "current_trial": 42, "dateTime": 1693566806535, "trialdata": {"revealed_states": [], "clicked_states": [], "num_clicks_accrued": [0, 0, 0, 0, 0, 0, 0, 0, 0, 0, 0, 0, 0], "stateRewards": ["", -1, 4, -3, 3, 57, -61, 5, -11, 23, -1, 34, -2, -4, -1, -13, 27, 38, -36, 4, -45, 21, 88, 1, -2, -1, 1, -69, -5, -78, -12, -9, 38, -54], "withholdReward": false, "trial_id": "mdp_trial_28", "block": "test", "trialIndex": 31, "score": -56, "costs": 0, "simulationMode": [null, null, null, null, null], "rewards": [-2, -4, -1, -13, -36], "path": ["0", "0", "12", "13", "14", "15", "18"], "rt": [684, 23, 197, 310, 87], "actions": ["right", "right", "right", "up", "left"], "actionTimes": [3664, 4244, 4982, 5846, 6459], "queries": {"click": {"state": {"target": [], "time": []}, "edge": {"target": [], "time": []}}, "mouseover": {"state": {"target": [], "time": []}, "edge": {"target": [], "time": []}}, "mouseout": {"state": {"target": ["0"], "time": [1371]}, "edge": {"target": [], "time": []}}}, "displayed_time": "16.98", "trialTime": 17722, "trial_type": "mouselab-mdp", "trial_index": 42, "time_elapsed": 1501203, "internal_node_id": "0.0-6.0-1.0-27.0"}}, {"uniqueid": "w50792197:a71638736", "current_trial": 43, "dateTime": 1693566827129, "trialdata": {"revealed_states": [], "clicked_states": [], "num_clicks_accrued": [0, 0, 0, 0, 0, 0, 0, 0, 0, 0, 0, 0, 0], "stateRewards": ["", -1, 1, 8, -3, -24, 11, -65, -6, -77, 48, 44, -2, 1, -2, -7, -55, -35, 33, 8, -28, 19, -53, -1, -1, -5, -5, -70, 10, 44, 8, -58, -70, 51], "withholdReward": false, "trial_id": "mdp_trial_29", "block": "test", "trialIndex": 32, "score": 50, "costs": 0, "simulationMode": [null, null, null, null, null], "rewards": [-1, 1, 8, -6, 48], "path": ["0", "0", "1", "2", "3", "8", "10"], "rt": [475, 34, 631, 205, 152], "actions": ["up", "up", "up", "left", "down"], "actionTimes": [2940, 3524, 4733, 5462, 6155], "queries": {"click": {"state": {"target": [], "time": []}, "edge": {"target": [], "time": []}}, "mouseover": {"state": {"target": [], "time": []}, "edge": {"target": [], "time": []}}, "mouseout": {"state": {"target": ["0"], "time": [729]}, "edge": {"target": [], "time": []}}}, "displayed_time": "16.47", "trialTime": 17339, "trial_type": "mouselab-mdp", "trial_index": 43, "time_elapsed": 1521798, "internal_node_id": "0.0-6.0-1.0-28.0"}}, {"uniqueid": "w50792197:a71638736", "current_trial": 44, "dateTime": 1693566848580, "trialdata": {"revealed_states": [], "clicked_states": [], "num_clicks_accrued": [0, 0, 0, 0, 0, 0, 0, 0, 0, 0, 0, 0, 0], "stateRewards": ["", 1, -3, -4, -11, -56, 61, -47, -16, -28, -9, 69, -2, -3, -4, -8, 40, -86, 59, -4, 80, 27, 54, -1, 3, -1, 8, 67, 23, 50, 6, 83, -43, -29], "withholdReward": false, "trial_id": "mdp_trial_30", "block": "test", "trialIndex": 33, "score": 47, "costs": 0, "simulationMode": [null, null, null, null, null], "rewards": [1, -3, -4, -16, 69], "path": ["0", "0", "1", "2", "3", "8", "11"], "rt": [451, 88, 41, 303, 118], "actions": ["up", "up", "up", "left", "left"], "actionTimes": [3085, 3697, 4286, 5116, 5752], "queries": {"click": {"state": {"target": [], "time": []}, "edge": {"target": [], "time": []}}, "mouseover": {"state": {"target": [], "time": []}, "edge": {"target": [], "time": []}}, "mouseout": {"state": {"target": ["0"], "time": [692]}, "edge": {"target": [], "time": []}}}, "displayed_time": "16.64", "trialTime": 18258, "trial_type": "mouselab-mdp", "trial_index": 44, "time_elapsed": 1543249, "internal_node_id": "0.0-6.0-1.0-29.0"}}, {"uniqueid": "w50792197:a71638736", "current_trial": 45, "dateTime": 1693566870082, "trialdata": {"revealed_states": [], "clicked_states": [], "num_clicks_accrued": [0, 0, 0, 0, 0, 0, 0, 0, 0, 0, 0, 0, 0], "stateRewards": ["", 2, -2, -8, 9, -20, 55, -58, 14, 42, 2, 36, 1, -3, -5, 5, -58, 57, 60, 16, 57, 30, -70, -2, 1, 3, 10, 59, 23, 77, -13, -26, 88, -72], "withholdReward": false, "trial_id": "mdp_trial_31", "block": "test", "trialIndex": 34, "score": 71, "costs": 0, "simulationMode": [null, null, null, null, null], "rewards": [-2, 1, 3, 10, 59], "path": ["0", "0", "23", "24", "25", "26", "27"], "rt": [640, 16, 194, 95, 161], "actions": ["left", "left", "left", "up", "up"], "actionTimes": [4134, 4684, 5420, 6056, 6749], "queries": {"click": {"state": {"target": [], "time": []}, "edge": {"target": [], "time": []}}, "mouseover": {"state": {"target": [], "time": []}, "edge": {"target": [], "time": []}}, "mouseout": {"state": {"target": ["0"], "time": [1353]}, "edge": {"target": [], "time": []}}}, "displayed_time": "17.50", "trialTime": 18383, "trial_type": "mouselab-mdp", "trial_index": 45, "time_elapsed": 1564751, "internal_node_id": "0.0-6.0-1.0-30.0"}}, {"uniqueid": "w50792197:a71638736", "current_trial": 46, "dateTime": 1693566890495, "trialdata": {"revealed_states": [], "clicked_states": [], "num_clicks_accrued": [0, 0, 0, 0, 0, 0, 0, 0, 0, 0, 0, 0, 0], "stateRewards": ["", -1, 4, -5, 9, 29, -75, -42, -16, 24, -28, -41, 2, -3, 1, 10, 60, 47, 55, -1, -53, 22, -40, 2, -3, -6, 4, -26, 44, 54, 15, -76, 42, 14], "withholdReward": false, "trial_id": "mdp_trial_32", "block": "test", "trialIndex": 35, "score": -68, "costs": 0, "simulationMode": [null, null, null, null, null], "rewards": [2, -3, -6, 15, -76], "path": ["0", "0", "23", "24", "25", "30", "31"], "rt": [421, 74, 350, 71, 174], "actions": ["left", "left", "left", "down", "right"], "actionTimes": [3382, 3980, 4888, 5503, 6214], "queries": {"click": {"state": {"target": [], "time": []}, "edge": {"target": [], "time": []}}, "mouseover": {"state": {"target": [], "time": []}, "edge": {"target": [], "time": []}}, "mouseout": {"state": {"target": ["0"], "time": [1186]}, "edge": {"target": [], "time": []}}}, "displayed_time": "16.96", "trialTime": 17543, "trial_type": "mouselab-mdp", "trial_index": 46, "time_elapsed": 1585164, "internal_node_id": "0.0-6.0-1.0-31.0"}}, {"uniqueid": "w50792197:a71638736", "current_trial": 47, "dateTime": 1693566911638, "trialdata": {"revealed_states": [], "clicked_states": [], "num_clicks_accrued": [0, 0, 0, 0, 0, 0, 0, 0, 0, 0, 0, 0, 0], "stateRewards": ["", -2, 1, -3, -16, -39, -52, 30, -7, -41, -59, 11, 2, 1, 8, 2, -11, -26, -42, -13, 87, -59, -48, -1, -1, -1, 16, -79, 31, 50, -1, -84, 34, -82], "withholdReward": false, "trial_id": "mdp_trial_33", "block": "test", "trialIndex": 36, "score": -52, "costs": 0, "simulationMode": [null, null, null, null, null], "rewards": [-2, 1, -3, -7, -41], "path": ["0", "0", "1", "2", "3", "8", "9"], "rt": [711, 163, 163, 634, 200], "actions": ["up", "up", "up", "left", "up"], "actionTimes": [3532, 4246, 4939, 6117, 6882], "queries": {"click": {"state": {"target": [], "time": []}, "edge": {"target": [], "time": []}}, "mouseover": {"state": {"target": [], "time": []}, "edge": {"target": [], "time": []}}, "mouseout": {"state": {"target": ["0"], "time": [688]}, "edge": {"target": [], "time": []}}}, "displayed_time": "16.82", "trialTime": 17817, "trial_type": "mouselab-mdp", "trial_index": 47, "time_elapsed": 1606307, "internal_node_id": "0.0-6.0-1.0-32.0"}}, {"uniqueid": "w50792197:a71638736", "current_trial": 48, "dateTime": 1693566932713, "trialdata": {"revealed_states": [], "clicked_states": [], "num_clicks_accrued": [0, 0, 0, 0, 0, 0, 0, 0, 0, 0, 0, 0, 0], "stateRewards": ["", -1, 1, 3, -8, -23, -15, -14, -11, -23, 58, 68, 1, 3, 5, 12, -17, -41, -7, -10, -4, 82, 10, 1, 4, -4, 11, 73, 55, -55, -1, -86, -86, 54], "withholdReward": false, "trial_id": "mdp_trial_34", "block": "test", "trialIndex": 37, "score": -5, "costs": 0, "simulationMode": [null, null, null, null, null], "rewards": [1, 3, 5, -10, -4], "path": ["0", "0", "12", "13", "14", "19", "20"], "rt": [459, 147, 34, 138, 128], "actions": ["right", "right", "right", "down", "right"], "actionTimes": [3046, 3725, 4313, 4997, 5646], "queries": {"click": {"state": {"target": [], "time": []}, "edge": {"target": [], "time": []}}, "mouseover": {"state": {"target": [], "time": []}, "edge": {"target": [], "time": []}}, "mouseout": {"state": {"target": ["0"], "time": [758]}, "edge": {"target": [], "time": []}}}, "displayed_time": "16.59", "trialTime": 17715, "trial_type": "mouselab-mdp", "trial_index": 48, "time_elapsed": 1627381, "internal_node_id": "0.0-6.0-1.0-33.0"}}, {"uniqueid": "w50792197:a71638736", "current_trial": 49, "dateTime": 1693566953201, "trialdata": {"revealed_states": [], "clicked_states": [], "num_clicks_accrued": [0, 0, 0, 0, 0, 0, 0, 0, 0, 0, 0, 0, 0], "stateRewards": ["", -1, -3, -5, -14, -13, -47, 79, 8, -60, -64, 41, -1, 2, 3, 13, -46, 61, -79, -11, -64, -65, 23, 1, -2, 6, -14, 46, 32, 21, 7, 75, -66, 15], "withholdReward": false, "trial_id": "mdp_trial_35", "block": "test", "trialIndex": 38, "score": -29, "costs": 0, "simulationMode": [null, null, null, null, null], "rewards": [-1, 2, 3, 13, -46], "path": ["0", "0", "12", "13", "14", "15", "16"], "rt": [516, 21, 200, 1938, 744], "actions": ["right", "right", "right", "up", "up"], "actionTimes": [3225, 3790, 4569, 7046, 8982], "queries": {"click": {"state": {"target": [], "time": []}, "edge": {"target": [], "time": []}}, "mouseover": {"state": {"target": [], "time": []}, "edge": {"target": [], "time": []}}, "mouseout": {"state": {"target": ["0"], "time": [934]}, "edge": {"target": [], "time": []}}}, "displayed_time": "16.71", "trialTime": 17853, "trial_type": "mouselab-mdp", "trial_index": 49, "time_elapsed": 1647870, "internal_node_id": "0.0-6.0-1.0-34.0"}}, {"uniqueid": "w50792197:a71638736", "current_trial": 50, "dateTime": 1693566976470, "trialdata": {"revealed_states": [], "clicked_states": [], "num_clicks_accrued": [0, 0, 0, 0, 0, 0, 0, 0, 0, 0, 0, 0, 0], "stateRewards": ["", 1, -2, -8, -13, 4, 34, -84, -4, -49, 88, -70, -1, 3, -4, 10, -77, 13, -34, 15, -21, -16, 27, 1, -2, 8, -8, -6, 38, -26, 6, -15, 66, -3], "withholdReward": false, "trial_id": "mdp_trial_36", "block": "test", "trialIndex": 39, "score": -3, "costs": 0, "simulationMode": [null, null, null, null, null], "rewards": [-1, 3, -4, 15, -16], "path": ["0", "0", "12", "13", "14", "19", "21"], "rt": [798, 166, 176, 343, 187], "actions": ["right", "right", "right", "down", "down"], "actionTimes": [4682, 5396, 6135, 7023, 7736], "queries": {"click": {"state": {"target": [], "time": []}, "edge": {"target": [], "time": []}}, "mouseover": {"state": {"target": [], "time": []}, "edge": {"target": [], "time": []}}, "mouseout": {"state": {"target": ["0"], "time": [1335]}, "edge": {"target": [], "time": []}}}, "displayed_time": "17.89", "trialTime": 20097, "trial_type": "mouselab-mdp", "trial_index": 50, "time_elapsed": 1671139, "internal_node_id": "0.0-6.0-1.0-35.0"}}, {"uniqueid": "w50792197:a71638736", "current_trial": 51, "dateTime": 1693566997584, "trialdata": {"revealed_states": [], "clicked_states": [], "num_clicks_accrued": [0, 0, 0, 0, 0, 0, 0, 0, 0, 0, 0, 0, 0], "stateRewards": ["", 2, 3, -3, 12, -43, 81, -82, -15, 58, -7, -75, -1, -1, 3, -5, 50, -25, -8, 4, 66, 65, -66, 2, -4, 2, -1, -10, 10, 37, 11, 88, -37, 8], "withholdReward": false, "trial_id": "mdp_trial_37", "block": "test", "trialIndex": 40, "score": 19, "costs": 0, "simulationMode": [null, null, null, null, null], "rewards": [2, -4, 2, 11, 8], "path": ["0", "0", "23", "24", "25", "30", "33"], "rt": [794, 57, 378, 251, 469], "actions": ["left", "left", "left", "down", "left"], "actionTimes": [3392, 3989, 4945, 5725, 6729], "queries": {"click": {"state": {"target": [], "time": []}, "edge": {"target": [], "time": []}}, "mouseover": {"state": {"target": [], "time": []}, "edge": {"target": [], "time": []}}, "mouseout": {"state": {"target": ["0"], "time": [784]}, "edge": {"target": [], "time": []}}}, "displayed_time": "16.60", "trialTime": 17527, "trial_type": "mouselab-mdp", "trial_index": 51, "time_elapsed": 1692253, "internal_node_id": "0.0-6.0-1.0-36.0"}}, {"uniqueid": "w50792197:a71638736", "current_trial": 52, "dateTime": 1693567018613, "trialdata": {"revealed_states": [], "clicked_states": [], "num_clicks_accrued": [0, 0, 0, 0, 0, 0, 0, 0, 0, 0, 0, 0, 0], "stateRewards": ["", -1, -4, -3, 1, -45, -67, -24, 14, 32, 22, 22, -1, 1, -5, -7, 72, 84, -79, -5, 19, -40, -2, -1, -2, 8, -3, 84, -25, -28, 11, 64, -66, 77], "withholdReward": false, "trial_id": "mdp_trial_38", "block": "test", "trialIndex": 41, "score": -31, "costs": 0, "simulationMode": [null, null, null, null, null], "rewards": [-1, -4, -3, 1, -24], "path": ["0", "0", "1", "2", "3", "4", "7"], "rt": [1285, 142, 339, 201, 396], "actions": ["up", "up", "up", "right", "down"], "actionTimes": [4233, 4949, 5817, 6560, 7491], "queries": {"click": {"state": {"target": [], "time": []}, "edge": {"target": [], "time": []}}, "mouseover": {"state": {"target": [], "time": []}, "edge": {"target": [], "time": []}}, "mouseout": {"state": {"target": ["0"], "time": [937]}, "edge": {"target": [], "time": []}}}, "displayed_time": "16.95", "trialTime": 17846, "trial_type": "mouselab-mdp", "trial_index": 52, "time_elapsed": 1713282, "internal_node_id": "0.0-6.0-1.0-37.0"}}, {"uniqueid": "w50792197:a71638736", "current_trial": 53, "dateTime": 1693567040686, "trialdata": {"revealed_states": [], "clicked_states": [], "num_clicks_accrued": [0, 0, 0, 0, 0, 0, 0, 0, 0, 0, 0, 0, 0], "stateRewards": ["", 1, 4, -8, -13, -13, -87, -77, -10, -44, 54, 42, 2, -3, -4, 12, -9, -80, 52, 9, 84, -2, -65, 1, -4, -5, -6, 8, 80, 32, 13, -59, -5, -13], "withholdReward": false, "trial_id": "mdp_trial_39", "block": "test", "trialIndex": 42, "score": -6, "costs": 0, "simulationMode": [null, null, null, null, null], "rewards": [1, -4, -5, -6, 8], "path": ["0", "0", "23", "24", "25", "26", "27"], "rt": [616, 145, 99, 193, 106], "actions": ["left", "left", "left", "up", "up"], "actionTimes": [3397, 4159, 4819, 5541, 6213], "queries": {"click": {"state": {"target": [], "time": []}, "edge": {"target": [], "time": []}}, "mouseover": {"state": {"target": [], "time": []}, "edge": {"target": [], "time": []}}, "mouseout": {"state": {"target": ["0"], "time": [916]}, "edge": {"target": [], "time": []}}}, "displayed_time": "16.78", "trialTime": 18607, "trial_type": "mouselab-mdp", "trial_index": 53, "time_elapsed": 1735354, "internal_node_id": "0.0-6.0-1.0-38.0"}}, {"uniqueid": "w50792197:a71638736", "current_trial": 54, "dateTime": 1693567067948, "trialdata": {"revealed_states": [], "clicked_states": ["29", "27", "32"], "num_clicks_accrued": [0, 0, 0, 0, 0, 0, 0, 0, 0, 0, 0, 0, 0], "stateRewards": ["", 1, -2, 7, -14, 88, -56, -44, -14, 64, -51, -57, -2, 3, -4, -9, -11, 19, -77, -1, 68, 75, -67, -1, 1, -2, 5, -37, 70, -34, -10, -72, 63, -41], "withholdReward": false, "trial_id": "mdp_trial_40", "block": "test", "trialIndex": 43, "score": 2.8000000000000007, "costs": -4.199999999999999, "simulationMode": [null, null, null, null, null], "rewards": [-2, 3, -4, -9, 19], "path": ["0", "0", "12", "13", "14", "15", "17"], "rt": [7478, 402, 200, 364, 72], "actions": ["right", "right", "right", "up", "right"], "actionTimes": [10281, 11235, 11975, 12901, 13505], "queries": {"click": {"state": {"target": ["29", "27", "32"], "time": [4594, 6655, 8477]}, "edge": {"target": [], "time": []}}, "mouseover": {"state": {"target": ["23", "24", "29", "27", "25", "32"], "time": [3510, 3595, 3923, 5729, 7549, 7689]}, "edge": {"target": [], "time": []}}, "mouseout": {"state": {"target": ["0", "23", "24", "29", "27", "27", "25", "32"], "time": [1061, 3580, 3762, 5533, 6781, 7462, 7620, 8641]}, "edge": {"target": [], "time": []}}}, "displayed_time": "16.81", "trialTime": 23935, "trial_type": "mouselab-mdp", "trial_index": 54, "time_elapsed": 1762617, "internal_node_id": "0.0-6.0-1.0-39.0"}}, {"uniqueid": "w50792197:a71638736", "current_trial": 55, "dateTime": 1693567123092, "trialdata": {"rt": 53642, "response": {"Q0": "$-2 to $2", "Q1": "$-16 to $16", "Q2": "$-88 to $88", "Q3": "The cost was always $1.4.", "Q4": "Very motivated"}, "question_order": [0, 1, 2, 3, 4], "trial_id": "final_quiz_control", "trial_type": "survey-multi-choice", "trial_index": 55, "time_elapsed": 1817761, "internal_node_id": "0.0-6.0-2.0"}}, {"uniqueid": "w50792197:a71638736", "current_trial": 56, "dateTime": 1693567303854, "trialdata": {"rt": 179847, "response": {"Q0": "Try not to use the node inspector as much as i would like to as it is costly to use it", "Q1": "Not exactly", "Q2": "It was definitely difficult. What made it difficult was obviously not knowing what's on a node before moving the spider to it"}, "trial_id": "self_report_control", "trial_type": "survey-text", "trial_index": 56, "time_elapsed": 1998523, "internal_node_id": "0.0-6.0-3.0"}}, {"uniqueid": "w50792197:a71638736", "current_trial": 57, "dateTime": 1693567339367, "trialdata": {"rt": 35443, "response": {"gender": "male", "age": "21", "colorblind": "0", "effort": "0"}, "trial_type": "survey-html-form", "trial_index": 57, "time_elapsed": 2034037, "internal_node_id": "0.0-6.0-4.0"}}, {"uniqueid": "w50792197:a71638736", "current_trial": 58, "dateTime": 1693567380398, "trialdata": {"rt": 40968, "response": {"Q0": "No", "Q1": "No", "Q2": "None"}, "trial_type": "survey-text", "trial_index": 58, "time_elapsed": 2075068, "internal_node_id": "0.0-6.0-5.0"}}, {"uniqueid": "w50792197:a71638736", "current_trial": 59, "dateTime": 1693567398905, "trialdata": {"rt": 18459, "stimulus": "<h1>Completion Code Instructions (1/2)</h1>\n<br><br><br><br>\nYou have reached the end of the experiment! The completion code consists of two parts: (1) a code with 2 characters (2) a code with 6 characters. On this page, you will receive the second part of the code. The first part of the completion code will be on the next page.\n<br><br>\nThe second part of your completion code is: <b>EWEK22</b>\n<br><br>\nPlease note this down. Then, press 'Finish HIT' in order to find the first part of your completion code. Once the data has been saved, you will receive this code either in this window or in the original browser window where you started the experiment.\n", "response": 0, "trial_type": "html-button-response", "trial_index": 59, "time_elapsed": 2093574, "internal_node_id": "0.0-6.0-6.0"}}, {"uniqueid": "w50792197:a71638736", "current_trial": 60, "dateTime": 1693567399920, "trialdata": {"success": true, "trial_type": "fullscreen", "trial_index": 60, "time_elapsed": 2094590, "internal_node_id": "0.0-7.0"}}], "questiondata": {"params": {"CODE": "C6DMOQA6", "MIN_TIME": 14, "inspectCost": 1, "startTime": "Fri Sep 01 2023 12:48:20 GMT+0200 (South Africa Standard Time)", "bonusRate": 0.002, "variance": "1_2_4_8_44", "branching": "31123"}, "final_score": -608.6}, "eventdata": [{"eventtype": "initialized", "value": null, "timestamp": 1693565299447, "interval": 0}, {"eventtype": "window_resize", "value": [1024, 654], "timestamp": 1693565299448, "interval": 1}, {"eventtype": "window_resize", "value": [1024, 654], "timestamp": 1693565300226, "interval": 778}, {"eventtype": "window_resize", "value": [1366, 768], "timestamp": 1693565325755, "interval": 25529}, {"eventtype": "focus", "value": "off", "timestamp": 1693565770556, "interval": 444801}, {"eventtype": "focus", "value": "on", "timestamp": 1693565770557, "interval": 1}, {"eventtype": "window_resize", "value": [1024, 654], "timestamp": 1693565770812, "interval": 255}, {"eventtype": "window_resize", "value": [1366, 768], "timestamp": 1693565773516, "interval": 2704}, {"eventtype": "focus", "value": "off", "timestamp": 1693567152091, "interval": 1378575}, {"eventtype": "focus", "value": "on", "timestamp": 1693567152096, "interval": 5}, {"eventtype": "window_resize", "value": [1024, 654], "timestamp": 1693567155912, "interval": 3816}], "useragent": "Mozilla/5.0 (Windows NT 10.0; Win64; x64) AppleWebKit/537.36 (KHTML, like Gecko) Chrome/116.0.0.0 Safari/537.36", "mode": "live", "id": "w50792197:a71638736", "status": "user data saved", "Beginhit": "2023-09-01 10:43:33.769435", "Beginexp": "2023-09-01 10:44:47.011433", "Endhit": "2023-09-01 11:19:24.185829", "psiturkStatus": 3, "browser": "<redacted>", "platform": "windows", "language": "en-ZA"}