{"condition": 1, "counterbalance": 0, "assignmentId": "a93443840", "workerId": "w31800484", "hitId": "h58975266", "currenttrial": 62, "bonus": 0, "data": [{"uniqueid": "w31800484:a93443840", "current_trial": 0, "dateTime": 1693480648513, "trialdata": {"success": true, "trial_type": "fullscreen", "trial_index": 0, "time_elapsed": 3220, "internal_node_id": "0.0-0.0"}}, {"uniqueid": "w31800484:a93443840", "current_trial": 1, "dateTime": 1693480670370, "trialdata": {"view_history": [{"page_index": 0, "viewing_time": 21791}], "rt": 21795, "trial_id": "exp_instructions_misaligned", "trial_type": "instructions", "trial_index": 1, "time_elapsed": 25080, "internal_node_id": "0.0-1.0"}}, {"uniqueid": "w31800484:a93443840", "current_trial": 2, "dateTime": 1693480945409, "trialdata": {"view_history": [{"page_index": 0, "viewing_time": 166245}, {"page_index": 1, "viewing_time": 79577}, {"page_index": 2, "viewing_time": 20740}, {"page_index": 3, "viewing_time": 8453}], "rt": 275019, "trial_id": "mouselab_instructions_1_misaligned", "trial_type": "instructions", "trial_index": 2, "time_elapsed": 300119, "internal_node_id": "0.0-2.0-1.0"}}, {"uniqueid": "w31800484:a93443840", "current_trial": 3, "dateTime": 1693481072761, "trialdata": {"revealed_states": [], "clicked_states": ["23", "24", "25", "30", "31", "12", "13", "15", "16", "1", "2"], "num_clicks_accrued": [0, 0, 0, 0, 0, 0, 0, 0, 0, 0, 0, 0, 0], "stateRewards": ["", 10, 10, 10, 10, -10, 10, 10, -10, -10, -10, -10, 10, -10, 10, -10, -10, 10, -10, -10, -10, 10, 10, -10, 10, -10, 10, 10, -10, 10, 10, 10, 10, 10], "withholdReward": false, "trial_id": "practice_1", "block": "test", "trialIndex": 0, "score": 8, "costs": -5.5, "simulationMode": [null, null, null, null, null], "rewards": [10, -10, 10, -10, 10], "path": ["0", "0", "12", "13", "14", "19", "21"], "rt": [101987, 8, 543, 479, 5], "actions": ["right", "right", "right", "down", "down"], "actionTimes": [105777, 106339, 107466, 108507, 109093], "queries": {"click": {"state": {"target": ["23", "24", "25", "30", "31", "12", "13", "15", "16", "1", "2"], "time": [9527, 11134, 12585, 15547, 16999, 25708, 29451, 31946, 38837, 44496, 45759]}, "edge": {"target": [], "time": []}}, "mouseover": {"state": {"target": ["23", "24", "25", "23", "30", "30", "31", "32", "31", "31", "30", "32", "31", "0", "12", "13", "14", "13", "14", "15", "18", "0", "12", "14", "15", "16", "13", "12", "0", "1", "2", "2", "0", "13", "12", "13", "14", "12", "0", "23", "0", "1", "1", "1", "2", "0", "24", "23", "12"], "time": [9089, 10668, 12022, 14159, 14593, 15000, 16481, 18270, 21669, 22697, 22790, 23953, 24690, 25051, 25164, 26284, 27061, 28713, 29861, 31106, 33878, 36524, 36739, 37820, 37951, 38248, 39789, 40567, 40656, 43939, 44882, 45432, 64078, 64679, 65089, 70611, 70874, 71938, 72005, 84123, 85982, 94252, 94798, 95545, 95845, 96409, 99643, 99937, 101848]}, "edge": {"target": [], "time": []}}, "mouseout": {"state": {"target": ["0", "0", "23", "24", "25", "23", "23", "24", "30", "30", "31", "30", "32", "30", "31", "31", "30", "32", "31", "0", "12", "13", "14", "13", "14", "15", "18", "0", "12", "14", "15", "16", "13", "12", "0", "1", "2", "2", "0", "13", "12", "13", "14", "12", "0", "23", "0", "1", "1", "1", "2", "0", "24", "23", "12"], "time": [null, 3870, 10311, 11755, 13672, 13806, 14211, 14540, 14657, 16082, 17836, 18168, 19249, 21618, 21723, 22746, 23112, 24624, 24742, 25099, 26125, 27004, 28614, 29779, 31052, 33838, 33925, 36653, 36838, 37898, 38035, 39665, 40518, 40604, 43467, 44775, 45045, 45879, 64137, 64725, 69255, 70666, 71885, 71986, 72070, 85816, 91520, 94618, 94866, 95644, 96246, 97239, 99822, 100758, 102613]}, "edge": {"target": [], "time": []}}}, "displayed_time": "109.67", "trialTime": 124261, "trial_type": "mouselab-mdp", "trial_index": 3, "time_elapsed": 427469, "internal_node_id": "0.0-2.0-2.0-0.0"}}, {"uniqueid": "w31800484:a93443840", "current_trial": 4, "dateTime": 1693481107870, "trialdata": {"revealed_states": [], "clicked_states": ["23", "12"], "num_clicks_accrued": [0, 0, 0, 0, 0, 0, 0, 0, 0, 0, 0, 0, 0], "stateRewards": ["", -10, -10, -10, -10, -10, -10, 10, -10, -10, -10, -10, 10, 10, -10, -10, 10, 10, 10, 10, -10, 10, -10, 10, -10, -10, -10, 10, 10, -10, 10, -10, 10, -10], "withholdReward": false, "trial_id": "practice_2", "block": "test", "trialIndex": 1, "score": -7.5, "costs": -1, "simulationMode": [null, null, null, null, null], "rewards": [10, -10, -10, -10, 10], "path": ["0", "0", "23", "24", "25", "26", "27"], "rt": [6064, 408, 1632, 798, 420], "actions": ["left", "left", "left", "up", "up"], "actionTimes": [11109, 12060, 14253, 15634, 16608], "queries": {"click": {"state": {"target": ["23", "12"], "time": [7629, 9353]}, "edge": {"target": [], "time": []}}, "mouseover": {"state": {"target": ["23", "12"], "time": [5808, 8819]}, "edge": {"target": [], "time": []}}, "mouseout": {"state": {"target": ["0", "23", "12", "23", "25", "26", "23", "23"], "time": [3354, 8563, 9479, 18586, 23557, 25124, 25265, 27156]}, "edge": {"target": [], "time": []}}}, "displayed_time": "17.16", "trialTime": 32920, "trial_type": "mouselab-mdp", "trial_index": 4, "time_elapsed": 462578, "internal_node_id": "0.0-2.0-2.0-1.0"}}, {"uniqueid": "w31800484:a93443840", "current_trial": 5, "dateTime": 1693481225862, "trialdata": {"view_history": [{"page_index": 0, "viewing_time": 105812}, {"page_index": 1, "viewing_time": 12160}], "rt": 117974, "trial_id": "mouselab_instructions_2_misaligned", "trial_type": "instructions", "trial_index": 5, "time_elapsed": 580571, "internal_node_id": "0.0-2.0-3.0"}}, {"uniqueid": "w31800484:a93443840", "current_trial": 6, "dateTime": 1693481357073, "trialdata": {"rt": 131164, "response": {"Q0": "There is no cost for clicking on nodes.", "Q1": "The better I perform the higher my bonus will be.", "Q2": "No, the amount of cash at each node of the web may be different each time.", "Q3": "To get the highest total score.", "Q4": "Only before moving the spider.", "Q5": "3 seconds"}, "question_order": [0, 1, 2, 3, 4, 5], "correct": {"Q0": "The cost for clicking on nodes may vary between nodes.", "Q1": "The better I perform the higher my bonus will be.", "Q2": "No, the amount of cash at each node of the web may be different each time.", "Q3": "To get the highest total score.", "Q4": "Only before moving the spider.", "Q5": "3 seconds"}, "trial_id": "mouselab_quiz_misaligned", "trial_type": "survey-multi-choice", "trial_index": 6, "time_elapsed": 711783, "internal_node_id": "0.0-2.0-4.0"}}, {"uniqueid": "w31800484:a93443840", "current_trial": 7, "dateTime": 1693481369899, "trialdata": {"success": true, "trial_type": "fullscreen", "trial_index": 7, "time_elapsed": 724609, "internal_node_id": "0.0-2.1-0.1-0.1"}}, {"uniqueid": "w31800484:a93443840", "current_trial": 8, "dateTime": 1693481529848, "trialdata": {"view_history": [{"page_index": 0, "viewing_time": 91980}, {"page_index": 1, "viewing_time": 27570}, {"page_index": 2, "viewing_time": 14788}, {"page_index": 3, "viewing_time": 25587}], "rt": 159930, "trial_id": "mouselab_instructions_1_misaligned", "trial_type": "instructions", "trial_index": 8, "time_elapsed": 884558, "internal_node_id": "0.0-2.1-1.1"}}, {"uniqueid": "w31800484:a93443840", "current_trial": 9, "dateTime": 1693481565175, "trialdata": {"revealed_states": [], "clicked_states": ["23", "24", "12", "1", "3", "10", "13"], "num_clicks_accrued": [0, 0, 0, 0, 0, 0, 0, 0, 0, 0, 0, 0, 0], "stateRewards": ["", 10, 10, 10, 10, -10, 10, 10, -10, -10, -10, -10, 10, -10, 10, -10, -10, 10, -10, -10, -10, 10, 10, -10, 10, -10, 10, 10, -10, 10, 10, 10, 10, 10], "withholdReward": false, "trial_id": "practice_1", "block": "test", "trialIndex": 2, "score": 30, "costs": -3.5, "simulationMode": [null, null, null, null, null], "rewards": [10, 10, 10, 10, -10], "path": ["0", "0", "1", "2", "3", "4", "5"], "rt": [18046, 1025, 905, 485, 521], "actions": ["up", "up", "up", "right", "up"], "actionTimes": [22262, 23851, 25332, 26398, 27482], "queries": {"click": {"state": {"target": ["23", "24", "12", "1", "3", "10", "13"], "time": [5816, 7352, 8647, 9869, 12347, 13730, 18593]}, "edge": {"target": [], "time": []}}, "mouseover": {"state": {"target": ["23", "24", "12", "12", "1", "2", "3", "10", "0", "0", "12", "12", "13", "1", "1"], "time": [4996, 7002, 7878, 8181, 9253, 10414, 11501, 13155, 14279, 15905, 17317, 17747, 18043, 19124, 21673]}, "edge": {"target": [], "time": []}}, "mouseout": {"state": {"target": ["0", "0", "23", "24", "23", "12", "12", "1", "2", "3", "3", "10", "0", "0", "12", "12", "13", "1", "1", "20"], "time": [698, 1757, 6727, 7787, 7855, 7945, 9187, 9985, 11429, 12476, 13076, 14251, 14345, 15946, 17365, 17992, 18912, 19337, 29768, 30396]}, "edge": {"target": [], "time": []}}}, "displayed_time": "28.03", "trialTime": 33094, "trial_type": "mouselab-mdp", "trial_index": 9, "time_elapsed": 919884, "internal_node_id": "0.0-2.1-2.1-0.1"}}, {"uniqueid": "w31800484:a93443840", "current_trial": 10, "dateTime": 1693481596490, "trialdata": {"revealed_states": [], "clicked_states": ["1", "23", "12", "25"], "num_clicks_accrued": [0, 0, 0, 0, 0, 0, 0, 0, 0, 0, 0, 0, 0], "stateRewards": ["", -10, -10, -10, -10, -10, -10, 10, -10, -10, -10, -10, 10, 10, -10, -10, 10, 10, 10, 10, -10, 10, -10, 10, -10, -10, -10, 10, 10, -10, 10, -10, 10, -10], "withholdReward": false, "trial_id": "practice_2", "block": "test", "trialIndex": 3, "score": -8.5, "costs": -2, "simulationMode": [null, null, null, null, null], "rewards": [10, -10, -10, -10, 10], "path": ["0", "0", "23", "24", "25", "26", "27"], "rt": [10080, 1643, 996, 587, 2103], "actions": ["left", "left", "left", "up", "up"], "actionTimes": [16108, 18321, 19860, 21018, 23678], "queries": {"click": {"state": {"target": ["1", "23", "12", "25"], "time": [8088, 9349, 10545, 12326]}, "edge": {"target": [], "time": []}}, "mouseover": {"state": {"target": ["1", "1", "23", "12", "24", "25", "24"], "time": [6133, 6958, 8940, 10003, 11433, 11764, 12911]}, "edge": {"target": [], "time": []}}, "mouseout": {"state": {"target": ["0", "1", "1", "23", "12", "24", "25", "24", "23"], "time": [6115, 6335, 8639, 9879, 10663, 11508, 12840, 13081, 27764]}, "edge": {"target": [], "time": []}}}, "displayed_time": "24.27", "trialTime": 28986, "trial_type": "mouselab-mdp", "trial_index": 10, "time_elapsed": 951198, "internal_node_id": "0.0-2.1-2.1-1.1"}}, {"uniqueid": "w31800484:a93443840", "current_trial": 11, "dateTime": 1693481621292, "trialdata": {"view_history": [{"page_index": 0, "viewing_time": 15489}, {"page_index": 1, "viewing_time": 9290}], "rt": 24787, "trial_id": "mouselab_instructions_2_misaligned", "trial_type": "instructions", "trial_index": 11, "time_elapsed": 976001, "internal_node_id": "0.0-2.1-3.1"}}, {"uniqueid": "w31800484:a93443840", "current_trial": 12, "dateTime": 1693481696235, "trialdata": {"rt": 74905, "response": {"Q0": "The cost for clicking on nodes may vary between nodes.", "Q1": "The better I perform the higher my bonus will be.", "Q2": "No, the amount of cash at each node of the web may be different each time.", "Q3": "To get the highest total score.", "Q4": "Only before moving the spider.", "Q5": "3 seconds"}, "question_order": [0, 1, 2, 3, 4, 5], "correct": {"Q0": "The cost for clicking on nodes may vary between nodes.", "Q1": "The better I perform the higher my bonus will be.", "Q2": "No, the amount of cash at each node of the web may be different each time.", "Q3": "To get the highest total score.", "Q4": "Only before moving the spider.", "Q5": "3 seconds"}, "trial_id": "mouselab_quiz_misaligned", "trial_type": "survey-multi-choice", "trial_index": 12, "time_elapsed": 1050945, "internal_node_id": "0.0-2.1-4.1"}}, {"uniqueid": "w31800484:a93443840", "current_trial": 13, "dateTime": 1693481705129, "trialdata": {"rt": 8808, "response": {"Q0": "No"}, "question_order": [0], "trial_id": "repeat_check", "trial_type": "survey-multi-choice", "trial_index": 13, "time_elapsed": 1059836, "internal_node_id": "0.0-4.0-0.0"}}, {"uniqueid": "w31800484:a93443840", "current_trial": 14, "dateTime": 1693481720573, "trialdata": {"rt": 15411, "stimulus": "\n<h1> Get ready to start the game! </h1>\n\nThank you for reading the instructions. Get ready start with the 40 rounds of this game.\n<br><br>\nIf you need to take a break, feel free to take one after the end of a round, before continuing to the next one.\n<br><br>\nRemember, the more money the spider gets, the bigger your bonus will be!\n<br><br>\n<div style='text-align: center;'>Press <code>space</code> to begin.</div>\n\n<br><br>\n(If, at any point, the <code>space</code> key does not take you to the next page, click once on the text and try again.)", "response": " ", "trial_id": "mdp_ready", "trial_type": "html-keyboard-response", "trial_index": 14, "time_elapsed": 1075283, "internal_node_id": "0.0-6.0-0.0"}}, {"uniqueid": "w31800484:a93443840", "current_trial": 15, "dateTime": 1693481768538, "trialdata": {"revealed_states": [], "clicked_states": ["23", "12", "1"], "num_clicks_accrued": [0, 0, 0, 0, 0, 0, 0, 0, 0, 0, 0, 0, 0], "stateRewards": ["", 1, -2, 4, 7, -43, -83, -60, -5, -86, -80, 83, -1, -2, 6, 11, -15, 21, 13, 9, 29, -49, 11, -1, 4, -6, -11, 87, 40, 63, -8, -39, -11, 62], "withholdReward": false, "trial_id": "mdp_trial_1", "block": "test", "trialIndex": 4, "score": -32.25, "costs": 0.75, "simulationMode": [null, null, null, null, null], "rewards": [1, -2, 4, 7, -43], "path": ["0", "0", "1", "2", "3", "4", "5"], "rt": [6804, 1733, 969, 5574, 3417], "actions": ["up", "up", "up", "right", "up"], "actionTimes": [14193, 16477, 18046, 24178, 28160], "queries": {"click": {"state": {"target": ["23", "12", "1"], "time": [8748, 10010, 11354]}, "edge": {"target": [], "time": []}}, "mouseover": {"state": {"target": ["23", "12", "1"], "time": [8134, 9439, 10807]}, "edge": {"target": [], "time": []}}, "mouseout": {"state": {"target": ["23", "31", "23", "23", "12", "1", "2", "4", "7", "22"], "time": [369, 896, 2220, 9164, 10529, 25637, 25789, 33815, 33889, 34794]}, "edge": {"target": [], "time": []}}}, "displayed_time": "28.74", "trialTime": 45866, "trial_type": "mouselab-mdp", "trial_index": 15, "time_elapsed": 1123246, "internal_node_id": "0.0-6.0-1.0-0.0"}}, {"uniqueid": "w31800484:a93443840", "current_trial": 16, "dateTime": 1693481801573, "trialdata": {"revealed_states": [], "clicked_states": ["23", "25", "14"], "num_clicks_accrued": [0, 0, 0, 0, 0, 0, 0, 0, 0, 0, 0, 0, 0], "stateRewards": ["", 1, 1, 1, 15, -76, 52, -32, 14, -57, 37, 49, 1, -4, -3, 6, 83, -76, 25, 9, 36, -1, -17, -1, 4, 4, -2, -22, -21, 58, -15, -57, 49, -24], "withholdReward": false, "trial_id": "mdp_trial_2", "block": "test", "trialIndex": 5, "score": -66.65, "costs": -1.65, "simulationMode": [null, null, null, null, null], "rewards": [-1, 4, 4, -15, -57], "path": ["0", "0", "23", "24", "25", "30", "31"], "rt": [7574, 2660, 1288, 714, 2107], "actions": ["left", "left", "left", "down", "right"], "actionTimes": [11710, 14931, 16778, 18055, 20712], "queries": {"click": {"state": {"target": ["23", "25", "14"], "time": [5506, 6836, 8849]}, "edge": {"target": [], "time": []}}, "mouseover": {"state": {"target": ["23", "24", "25", "15", "14", "3"], "time": [4920, 6056, 6354, 7656, 8351, 10430]}, "edge": {"target": [], "time": []}}, "mouseout": {"state": {"target": ["0", "23", "24", "25", "15", "14", "3", "13"], "time": [91, 5985, 6183, 7488, 7909, 9761, 28048, 29526]}, "edge": {"target": [], "time": []}}}, "displayed_time": "21.27", "trialTime": 30244, "trial_type": "mouselab-mdp", "trial_index": 16, "time_elapsed": 1156281, "internal_node_id": "0.0-6.0-1.0-1.0"}}, {"uniqueid": "w31800484:a93443840", "current_trial": 17, "dateTime": 1693481831763, "trialdata": {"revealed_states": [], "clicked_states": ["14", "25", "3", "1"], "num_clicks_accrued": [0, 0, 0, 0, 0, 0, 0, 0, 0, 0, 0, 0, 0], "stateRewards": ["", 1, -3, -6, -5, 47, 80, -29, 11, -71, 10, -29, -2, 3, -6, 12, 2, -78, -6, 8, 34, -16, -5, -1, 3, 3, -13, 84, -36, -62, -3, -27, 66, 15], "withholdReward": false, "trial_id": "mdp_trial_3", "block": "test", "trialIndex": 6, "score": 10.4, "costs": -2.5999999999999996, "simulationMode": [null, null, null, null, null], "rewards": [1, -3, -6, 11, 10], "path": ["0", "0", "1", "2", "3", "8", "10"], "rt": [8499, 2198, 1678, 858, 2377], "actions": ["up", "up", "up", "left", "down"], "actionTimes": [12038, 14802, 17054, 18484, 21418], "queries": {"click": {"state": {"target": ["14", "25", "3", "1"], "time": [5039, 6483, 8169, 10795]}, "edge": {"target": [], "time": []}}, "mouseover": {"state": {"target": ["12", "13", "14", "24", "25", "2", "3", "2", "23", "24", "1"], "time": [3618, 4263, 4333, 5828, 5979, 7377, 7712, 8976, 9405, 9562, 10278]}, "edge": {"target": [], "time": []}}, "mouseout": {"state": {"target": ["0", "12", "13", "14", "24", "25", "2", "3", "2", "23", "24", "1", "20"], "time": [3603, 4193, 4312, 5436, 5905, 7048, 7533, 8957, 9047, 9497, 9728, 25035, 26529]}, "edge": {"target": [], "time": []}}}, "displayed_time": "21.99", "trialTime": 27478, "trial_type": "mouselab-mdp", "trial_index": 17, "time_elapsed": 1186472, "internal_node_id": "0.0-6.0-1.0-2.0"}}, {"uniqueid": "w31800484:a93443840", "current_trial": 18, "dateTime": 1693481868772, "trialdata": {"revealed_states": [], "clicked_states": ["14", "25", "6"], "num_clicks_accrued": [0, 0, 0, 0, 0, 0, 0, 0, 0, 0, 0, 0, 0], "stateRewards": ["", -2, 2, 8, -6, -25, 3, 87, 2, -62, -2, 74, -2, -1, 2, -1, 79, 49, -37, -14, 5, 67, -9, -1, 2, -2, 5, 15, 38, 32, -14, -38, -38, 30], "withholdReward": false, "trial_id": "mdp_trial_4", "block": "test", "trialIndex": 7, "score": 79.95, "costs": -4.05, "simulationMode": [null, null, null, null, null, null], "rewards": [-2, 2, 8, 2, 74], "path": ["0", "0", "1", "2", "3", "8", "11"], "rt": [8086, 1266, 2428, 1125, 2543, 449], "actions": ["up", "up", "up", "up", "left", "left"], "actionTimes": [11624, 12914, 15943, 17621, 20769, 21767], "queries": {"click": {"state": {"target": ["14", "25", "6"], "time": [5180, 6560, 9597]}, "edge": {"target": [], "time": []}}, "mouseover": {"state": {"target": ["22", "14", "13", "24", "25", "27", "8", "3", "4", "6", "3", "8", "11"], "time": [4200, 4644, 5591, 5741, 6051, 7174, 7489, 7792, 8738, 9020, 10158, 10258, 10555]}, "edge": {"target": [], "time": []}}, "mouseout": {"state": {"target": ["0", "22", "14", "13", "24", "25", "27", "8", "3", "4", "6", "3", "8", "11", "3", "4"], "time": [4098, 4434, 5566, 5687, 5976, 7037, 7305, 7661, 8545, 8923, 10087, 10237, 10413, 10633, 25304, 25364]}, "edge": {"target": [], "time": []}}}, "displayed_time": "22.37", "trialTime": 34418, "trial_type": "mouselab-mdp", "trial_index": 18, "time_elapsed": 1223481, "internal_node_id": "0.0-6.0-1.0-3.0"}}, {"uniqueid": "w31800484:a93443840", "current_trial": 19, "dateTime": 1693481914626, "trialdata": {"revealed_states": [], "clicked_states": ["14", "25", "3"], "num_clicks_accrued": [0, 0, 0, 0, 0, 0, 0, 0, 0, 0, 0, 0, 0], "stateRewards": ["", 1, -3, -2, 14, 49, -40, -39, 2, 26, -61, 73, 1, -4, -8, 12, 79, 29, -65, -13, 55, -26, 27, -1, 3, 3, 9, -17, -60, -18, -8, 35, -88, 69], "withholdReward": false, "trial_id": "mdp_trial_5", "block": "test", "trialIndex": 8, "score": 63.15, "costs": -2.8499999999999996, "simulationMode": [null, null, null, null, null], "rewards": [-1, 3, 3, -8, 69], "path": ["0", "0", "23", "24", "25", "30", "33"], "rt": [7305, 716, 628, 3581, 1122], "actions": ["left", "left", "left", "down", "left"], "actionTimes": [10837, 12146, 13379, 17514, 19222], "queries": {"click": {"state": {"target": ["14", "25", "3"], "time": [5252, 6886, 9297]}, "edge": {"target": [], "time": []}}, "mouseover": {"state": {"target": ["1", "14", "13", "25", "24", "1", "4", "3", "23"], "time": [3697, 4717, 5613, 6456, 7222, 7587, 8446, 8663, 10291]}, "edge": {"target": [], "time": []}}, "mouseout": {"state": {"target": ["0", "1", "14", "13", "25", "24", "1", "4", "3", "23", "20"], "time": [895, 4255, 5425, 5686, 7017, 7293, 7663, 8489, 10085, 25611, 43003]}, "edge": {"target": [], "time": []}}}, "displayed_time": "19.79", "trialTime": 43320, "trial_type": "mouselab-mdp", "trial_index": 19, "time_elapsed": 1269334, "internal_node_id": "0.0-6.0-1.0-4.0"}}, {"uniqueid": "w31800484:a93443840", "current_trial": 20, "dateTime": 1693481948582, "trialdata": {"revealed_states": [], "clicked_states": ["21", "22", "6"], "num_clicks_accrued": [0, 0, 0, 0, 0, 0, 0, 0, 0, 0, 0, 0, 0], "stateRewards": ["", -2, 3, 8, -9, 59, 41, -50, -1, 82, 66, 33, 2, -2, 7, 8, 1, -38, 12, -16, 24, -37, 67, 1, 4, -2, 5, 35, -83, 28, 8, -27, 69, -64], "withholdReward": false, "trial_id": "mdp_trial_6", "block": "test", "trialIndex": 9, "score": 52.55, "costs": -6.449999999999999, "simulationMode": [null, null, null, null, null], "rewards": [-2, 3, 8, -9, 59], "path": ["0", "0", "1", "2", "3", "4", "5"], "rt": [13681, 1114, 1290, 625, 390], "actions": ["up", "up", "up", "right", "up"], "actionTimes": [17145, 18817, 20675, 21865, 22805], "queries": {"click": {"state": {"target": ["21", "22", "6"], "time": [4837, 8511, 12232]}, "edge": {"target": [], "time": []}}, "mouseover": {"state": {"target": ["21", "20", "19", "22", "28", "26", "27", "3", "6", "4", "3", "9", "9", "5"], "time": [4371, 5669, 6944, 7388, 9959, 10276, 10591, 10766, 11551, 12874, 13038, 13974, 14220, 14469]}, "edge": {"target": [], "time": []}}, "mouseout": {"state": {"target": ["0", "21", "20", "19", "22", "28", "26", "27", "3", "6", "4", "3", "9", "9", "5", "7", "17", "21"], "time": [3532, 5405, 6865, 7300, 9472, 10249, 10352, 10675, 11020, 12851, 12961, 13896, 14041, 14302, 24881, 24980, 28713, 30269]}, "edge": {"target": [], "time": []}}}, "displayed_time": "23.46", "trialTime": 30625, "trial_type": "mouselab-mdp", "trial_index": 20, "time_elapsed": 1303291, "internal_node_id": "0.0-6.0-1.0-5.0"}}, {"uniqueid": "w31800484:a93443840", "current_trial": 21, "dateTime": 1693481976281, "trialdata": {"revealed_states": [], "clicked_states": ["29"], "num_clicks_accrued": [0, 0, 0, 0, 0, 0, 0, 0, 0, 0, 0, 0, 0], "stateRewards": ["", 1, 2, -3, 6, -88, 74, -45, 7, -46, 40, -77, 1, -4, 4, 3, 22, -25, -59, 8, -83, 19, -60, -1, -1, -1, -8, 26, -29, 64, -7, -88, -51, -55], "withholdReward": false, "trial_id": "mdp_trial_7", "block": "test", "trialIndex": 10, "score": 77.85, "costs": -2.15, "simulationMode": [null, null, null, null, null], "rewards": [1, 2, -3, 6, 74], "path": ["0", "0", "1", "2", "3", "4", "6"], "rt": [9361, 2014, 244, 187, 360], "actions": ["up", "up", "up", "right", "right"], "actionTimes": [12366, 14987, 15785, 16539, 17471], "queries": {"click": {"state": {"target": ["29"], "time": [4787]}, "edge": {"target": [], "time": []}}, "mouseover": {"state": {"target": ["25", "29", "26", "12", "13", "14", "20", "20", "17", "17"], "time": [3102, 4257, 5399, 5498, 5586, 5830, 6034, 6377, 6479, 6828]}, "edge": {"target": [], "time": []}}, "mouseout": {"state": {"target": ["0", "25", "29", "26", "12", "13", "14", "20", "20", "17", "17"], "time": [3087, 4082, 5376, 5475, 5568, 5805, 5955, 6106, 6462, 6556, 23031]}, "edge": {"target": [], "time": []}}}, "displayed_time": "18.04", "trialTime": 24471, "trial_type": "mouselab-mdp", "trial_index": 21, "time_elapsed": 1330988, "internal_node_id": "0.0-6.0-1.0-6.0"}}, {"uniqueid": "w31800484:a93443840", "current_trial": 22, "dateTime": 1693482015409, "trialdata": {"revealed_states": [], "clicked_states": ["29", "17", "27", "21"], "num_clicks_accrued": [0, 0, 0, 0, 0, 0, 0, 0, 0, 0, 0, 0, 0], "stateRewards": ["", -2, -3, 4, 1, 33, -53, 15, 9, -12, 61, -6, -2, 4, 6, -11, 47, -43, -7, -11, 46, 23, -28, -1, -1, 3, -10, 11, 76, -76, 10, 18, -38, 87], "withholdReward": false, "trial_id": "mdp_trial_8", "block": "test", "trialIndex": 11, "score": 58.4, "costs": -8.6, "simulationMode": [null, null, null, null, null, null], "rewards": [-1, -1, 3, -10, 76], "path": ["0", "0", "23", "24", "25", "26", "28"], "rt": [15138, 1443, 412, 405, 897, 1420], "actions": ["left", "left", "left", "left", "up", "right"], "actionTimes": [19335, 20805, 21863, 22837, 24282, 26287], "queries": {"click": {"state": {"target": ["29", "17", "27", "21"], "time": [5875, 10761, 14732, 17970]}, "edge": {"target": [], "time": []}}, "mouseover": {"state": {"target": ["26", "23", "26", "29", "26", "15", "17", "16", "9", "8", "28", "27", "20", "21"], "time": [4458, 4565, 4971, 5244, 6573, 6720, 6808, 11595, 12588, 13269, 13364, 14227, 16795, 17438]}, "edge": {"target": [], "time": []}}, "mouseout": {"state": {"target": ["22", "0", "26", "23", "26", "29", "26", "15", "17", "16", "9", "8", "28", "27", "20", "21", "20", "21"], "time": [569, 4271, 4509, 4840, 5172, 6549, 6647, 6790, 11467, 11776, 12904, 13347, 13647, 15640, 16869, 18633, 32168, 33442]}, "edge": {"target": [], "time": []}}}, "displayed_time": "26.86", "trialTime": 36377, "trial_type": "mouselab-mdp", "trial_index": 22, "time_elapsed": 1370116, "internal_node_id": "0.0-6.0-1.0-7.0"}}, {"uniqueid": "w31800484:a93443840", "current_trial": 23, "dateTime": 1693482046386, "trialdata": {"revealed_states": [], "clicked_states": ["9", "5", "11"], "num_clicks_accrued": [0, 0, 0, 0, 0, 0, 0, 0, 0, 0, 0, 0, 0], "stateRewards": ["", 1, 3, 3, -10, 52, 68, 59, 12, 7, 49, 21, -2, -3, -4, -2, -2, 63, 63, -4, 44, 43, -76, -2, -3, -6, 13, 48, 36, 12, -5, -36, -33, -11], "withholdReward": false, "trial_id": "mdp_trial_9", "block": "test", "trialIndex": 12, "score": 42.55, "costs": -6.449999999999999, "simulationMode": [null, null, null, null, null], "rewards": [1, 3, 3, -10, 52], "path": ["0", "0", "1", "2", "3", "4", "5"], "rt": [16148, 60, 247, 67, 254], "actions": ["up", "up", "up", "right", "up"], "actionTimes": [19550, 20187, 21009, 21652, 22471], "queries": {"click": {"state": {"target": ["9", "5", "11"], "time": [4995, 8249, 11326]}, "edge": {"target": [], "time": []}}, "mouseover": {"state": {"target": ["9", "5", "11", "10"], "time": [4234, 5685, 9653, 17420]}, "edge": {"target": [], "time": []}}, "mouseout": {"state": {"target": ["1", "0", "9", "5", "9", "11", "10", "23"], "time": [560, 3540, 5565, 8861, 9054, 17231, 24376, 24444]}, "edge": {"target": [], "time": []}}}, "displayed_time": "23.06", "trialTime": 27651, "trial_type": "mouselab-mdp", "trial_index": 23, "time_elapsed": 1401095, "internal_node_id": "0.0-6.0-1.0-8.0"}}, {"uniqueid": "w31800484:a93443840", "current_trial": 24, "dateTime": 1693482075020, "trialdata": {"revealed_states": [], "clicked_states": ["32"], "num_clicks_accrued": [0, 0, 0, 0, 0, 0, 0, 0, 0, 0, 0, 0, 0], "stateRewards": ["", 2, -3, -2, 14, -4, 85, 46, 15, -28, 41, 31, -1, -1, -1, 5, 62, 79, 57, 12, -73, -64, 86, -1, 1, -3, -5, 68, 11, -32, 8, -80, -21, -56], "withholdReward": false, "trial_id": "mdp_trial_10", "block": "test", "trialIndex": 13, "score": -66.15, "costs": -2.15, "simulationMode": [null, null, null, null, null], "rewards": [-1, -1, -1, 12, -73], "path": ["0", "0", "12", "13", "14", "19", "20"], "rt": [10681, 669, 385, 229, 1206], "actions": ["right", "right", "right", "down", "right"], "actionTimes": [14023, 15263, 16201, 17014, 18805], "queries": {"click": {"state": {"target": ["32"], "time": [4605]}, "edge": {"target": [], "time": []}}, "mouseover": {"state": {"target": ["32", "32", "21"], "time": [3428, 4154, 5695]}, "edge": {"target": [], "time": []}}, "mouseout": {"state": {"target": ["22", "0", "32", "32", "21", "12", "20"], "time": [684, 3412, 4023, 5214, 12426, 23573, 25210]}, "edge": {"target": [], "time": []}}}, "displayed_time": "19.36", "trialTime": 25604, "trial_type": "mouselab-mdp", "trial_index": 24, "time_elapsed": 1429728, "internal_node_id": "0.0-6.0-1.0-9.0"}}, {"uniqueid": "w31800484:a93443840", "current_trial": 25, "dateTime": 1693482122296, "trialdata": {"revealed_states": [], "clicked_states": ["29", "33", "20", "21", "5"], "num_clicks_accrued": [0, 0, 0, 0, 0, 0, 0, 0, 0, 0, 0, 0, 0], "stateRewards": ["", -1, -1, 4, -16, -75, 81, -51, -7, -84, 73, -30, -2, 1, -3, -16, -77, 33, 14, 1, 45, 87, -66, 2, 2, -5, -7, -19, -17, 79, -3, 8, 49, 47], "withholdReward": false, "trial_id": "mdp_trial_11", "block": "test", "trialIndex": 14, "score": 60.25, "costs": -10.75, "simulationMode": [null, null, null, null, null], "rewards": [2, 2, -5, -7, 79], "path": ["0", "0", "23", "24", "25", "26", "29"], "rt": [26749, 45, 153, 155, 2276], "actions": ["left", "left", "left", "up", "left"], "actionTimes": [30457, 31077, 31799, 32526, 35367], "queries": {"click": {"state": {"target": ["29", "33", "20", "21", "5"], "time": [5469, 8326, 12255, 17974, 23272]}, "edge": {"target": [], "time": []}}, "mouseover": {"state": {"target": ["25", "29", "33", "30", "23", "18", "20", "21", "7", "5", "3", "10"], "time": [3851, 4747, 6914, 9733, 11182, 11275, 11637, 17481, 22083, 22648, 25076, 25210]}, "edge": {"target": [], "time": []}}, "mouseout": {"state": {"target": ["12", "0", "0", "25", "29", "33", "30", "23", "18", "20", "21", "7", "5", "3", "10", "23", "21"], "time": [777, 855, 3825, 4264, 6023, 9647, 9814, 11255, 11359, 17083, 22020, 22132, 23399, 25149, 29516, 41787, 42145]}, "edge": {"target": [], "time": []}}}, "displayed_time": "35.94", "trialTime": 44009, "trial_type": "mouselab-mdp", "trial_index": 25, "time_elapsed": 1477004, "internal_node_id": "0.0-6.0-1.0-10.0"}}, {"uniqueid": "w31800484:a93443840", "current_trial": 26, "dateTime": 1693482150588, "trialdata": {"revealed_states": [], "clicked_states": ["9", "5"], "num_clicks_accrued": [0, 0, 0, 0, 0, 0, 0, 0, 0, 0, 0, 0, 0], "stateRewards": ["", -2, 2, -5, 1, 42, -63, -58, -6, 2, 16, 81, -2, 4, 7, -10, 33, 3, -33, -2, -52, -84, -27, 2, -3, -3, 15, -74, -14, -5, -5, -84, 79, -31], "withholdReward": false, "trial_id": "mdp_trial_12", "block": "test", "trialIndex": 15, "score": 33.7, "costs": -4.3, "simulationMode": [null, null, null, null, null], "rewards": [-2, 2, -5, 1, 42], "path": ["0", "0", "1", "2", "3", "4", "5"], "rt": [12379, 154, 339, 94, 137], "actions": ["up", "up", "up", "right", "up"], "actionTimes": [16340, 17079, 17969, 18631, 19387], "queries": {"click": {"state": {"target": ["9", "5"], "time": [5669, 9217]}, "edge": {"target": [], "time": []}}, "mouseover": {"state": {"target": ["8", "9", "5", "13", "21", "22", "12", "21"], "time": [4794, 5104, 6495, 11320, 12198, 13083, 13154, 14720]}, "edge": {"target": [], "time": []}}, "mouseout": {"state": {"target": ["0", "8", "9", "5", "13", "21", "22", "12", "21"], "time": [4039, 5016, 6262, 9372, 11458, 13061, 13136, 14158, 22975]}, "edge": {"target": [], "time": []}}}, "displayed_time": "19.94", "trialTime": 25229, "trial_type": "mouselab-mdp", "trial_index": 26, "time_elapsed": 1505296, "internal_node_id": "0.0-6.0-1.0-11.0"}}, {"uniqueid": "w31800484:a93443840", "current_trial": 27, "dateTime": 1693482191971, "trialdata": {"revealed_states": [], "clicked_states": ["32", "21", "17"], "num_clicks_accrued": [0, 0, 0, 0, 0, 0, 0, 0, 0, 0, 0, 0, 0], "stateRewards": ["", -2, -4, 4, -11, -63, -60, -7, 2, -14, 81, -43, -1, -1, -5, 7, 10, 69, 40, 8, -83, 52, 60, 1, 2, 5, -5, 16, 64, 14, -3, 29, 7, -51], "withholdReward": false, "trial_id": "mdp_trial_13", "block": "test", "trialIndex": 16, "score": 62.55, "costs": -6.449999999999999, "simulationMode": [null, null, null, null, null], "rewards": [-1, -1, -5, 7, 69], "path": ["0", "0", "12", "13", "14", "15", "17"], "rt": [19099, 161, 337, 233, 44], "actions": ["right", "right", "right", "up", "right"], "actionTimes": [30769, 31490, 32426, 33215, 33829], "queries": {"click": {"state": {"target": ["32", "21", "17"], "time": [13707, 17557, 22701]}, "edge": {"target": [], "time": []}}, "mouseover": {"state": {"target": ["24", "30", "32", "21", "19", "14", "5", "3", "17", "15", "29", "29", "26", "23"], "time": [11751, 12701, 13220, 14628, 18509, 18609, 19647, 21332, 22095, 24668, 27711, 28158, 29362, 29483]}, "edge": {"target": [], "time": []}}, "mouseout": {"state": {"target": ["0", "24", "30", "32", "21", "19", "14", "5", "3", "17", "15", "29", "29", "26", "23", "19"], "time": [7262, 12641, 12750, 14038, 18345, 18592, 19009, 21115, 21397, 24650, 24732, 27901, 29306, 29419, 35771, 36152]}, "edge": {"target": [], "time": []}}}, "displayed_time": "34.45", "trialTime": 38107, "trial_type": "mouselab-mdp", "trial_index": 27, "time_elapsed": 1546679, "internal_node_id": "0.0-6.0-1.0-12.0"}}, {"uniqueid": "w31800484:a93443840", "current_trial": 28, "dateTime": 1693482242051, "trialdata": {"revealed_states": [], "clicked_states": ["11", "6", "29", "27", "32", "33", "14"], "num_clicks_accrued": [0, 0, 0, 0, 0, 0, 0, 0, 0, 0, 0, 0, 0], "stateRewards": ["", -1, 4, 3, 12, -27, 34, -33, 3, -63, 1, 6, 2, 2, -6, -11, -77, -85, 68, -6, 51, 81, -60, -2, -2, 1, 15, 20, 15, 68, -10, -14, 6, -4], "withholdReward": false, "trial_id": "mdp_trial_14", "block": "test", "trialIndex": 17, "score": 66.15, "costs": -13.85, "simulationMode": [null, null, null, null, null], "rewards": [-2, -2, 1, 15, 68], "path": ["0", "0", "23", "24", "25", "26", "29"], "rt": [33432, 815, 212, 283, 143], "actions": ["left", "left", "left", "up", "left"], "actionTimes": [37920, 39343, 40121, 40961, 41673], "queries": {"click": {"state": {"target": ["11", "6", "29", "27", "32", "33", "14"], "time": [6586, 9914, 13770, 17935, 21979, 25972, 30955]}, "edge": {"target": [], "time": []}}, "mouseover": {"state": {"target": ["11", "8", "3", "4", "6", "26", "29", "26", "27", "26", "25", "30", "32", "30", "33", "30", "22", "19", "14", "13", "13", "17"], "time": [5797, 6934, 7034, 7380, 7499, 12006, 12646, 14710, 17474, 18720, 18815, 19184, 19907, 24873, 25344, 28334, 29588, 29706, 30352, 33042, 33390, 35319]}, "edge": {"target": [], "time": []}}, "mouseout": {"state": {"target": ["31", "0", "11", "8", "3", "4", "6", "26", "29", "26", "27", "26", "25", "30", "32", "30", "33", "30", "22", "19", "14", "13", "13", "17"], "time": [1397, 4554, 6915, 7013, 7360, 7482, 10556, 12137, 14633, 14985, 18699, 18797, 18878, 19252, 24756, 24961, 28314, 28413, 29658, 30221, 32960, 33098, 34065, 44694]}, "edge": {"target": [], "time": []}}}, "displayed_time": "42.25", "trialTime": 46777, "trial_type": "mouselab-mdp", "trial_index": 28, "time_elapsed": 1596759, "internal_node_id": "0.0-6.0-1.0-13.0"}}, {"uniqueid": "w31800484:a93443840", "current_trial": 29, "dateTime": 1693482278314, "trialdata": {"revealed_states": [], "clicked_states": [], "num_clicks_accrued": [0, 0, 0, 0, 0, 0, 0, 0, 0, 0, 0, 0, 0], "stateRewards": ["", -1, -3, -3, 1, -38, 2, -53, -2, -1, -81, 70, -1, 1, -5, -9, 46, 15, 35, -1, -22, 38, 59, -2, 4, -8, 13, 1, -83, -43, 4, 76, 13, 48], "withholdReward": false, "trial_id": "mdp_trial_15", "block": "test", "trialIndex": 18, "score": 53, "costs": 0, "simulationMode": [null, null, null, null, null], "rewards": [-1, 1, -5, -1, 59], "path": ["0", "0", "12", "13", "14", "19", "22"], "rt": [9135, 741, 442, 149, 957], "actions": ["right", "right", "right", "down", "left"], "actionTimes": [23943, 25249, 26255, 26964, 28474], "queries": {"click": {"state": {"target": [], "time": []}, "edge": {"target": [], "time": []}}, "mouseover": {"state": {"target": ["28", "27", "27", "8", "9", "3", "2", "1"], "time": [16099, 16174, 16398, 16512, 17393, 19107, 19175, 19772]}, "edge": {"target": [], "time": []}}, "mouseout": {"state": {"target": ["21", "22", "0", "28", "27", "27", "8", "9", "3", "2", "1", "0"], "time": [11706, 11765, 12445, 16157, 16222, 16453, 16783, 19051, 19159, 19713, 19890, 32300]}, "edge": {"target": [], "time": []}}}, "displayed_time": "29.03", "trialTime": 33440, "trial_type": "mouselab-mdp", "trial_index": 29, "time_elapsed": 1633022, "internal_node_id": "0.0-6.0-1.0-14.0"}}, {"uniqueid": "w31800484:a93443840", "current_trial": 30, "dateTime": 1693482374878, "trialdata": {"revealed_states": [], "clicked_states": ["9", "5", "21", "32", "29", "17", "16", "28", "10", "7", "6", "11", "31", "33", "18", "22", "20"], "num_clicks_accrued": [0, 0, 0, 0, 0, 0, 0, 0, 0, 0, 0, 0, 0], "stateRewards": ["", -2, -3, -7, 7, -54, -69, -4, -14, -77, 22, 40, -2, -1, 5, 6, -35, 50, -60, 10, -28, 75, 57, 1, -4, -2, 2, 68, 34, -18, 12, 3, -21, -43], "withholdReward": false, "trial_id": "mdp_trial_16", "block": "test", "trialIndex": 19, "score": 21.45000000000001, "costs": -36.54999999999999, "simulationMode": [null, null, null, null, null], "rewards": [-2, -1, 5, 6, 50], "path": ["0", "0", "12", "13", "14", "15", "17"], "rt": [77235, 121, 316, 208, 27], "actions": ["right", "right", "right", "up", "right"], "actionTimes": [81653, 82356, 83250, 84054, 84653], "queries": {"click": {"state": {"target": ["9", "5", "21", "32", "29", "17", "16", "28", "10", "7", "6", "11", "31", "33", "18", "22", "20"], "time": [6059, 9103, 12574, 16480, 21380, 26918, 30769, 35062, 40518, 45597, 50270, 54306, 58873, 63065, 66652, 70723, 74275]}, "edge": {"target": [], "time": []}}, "mouseover": {"state": {"target": ["18", "2", "9", "5", "15", "21", "33", "32", "29", "26", "23", "0", "12", "14", "17", "16", "2", "28", "1", "10", "1", "7", "6", "3", "8", "11", "26", "31", "30", "33", "23", "18", "13", "22", "20", "14", "18", "10", "11", "8", "24", "25"], "time": [4865, 4946, 5265, 7088, 10585, 11843, 14191, 14464, 18917, 23835, 24264, 24579, 24661, 25275, 26026, 29654, 33097, 33866, 39405, 39963, 44775, 45039, 49715, 52706, 52857, 53572, 57256, 58305, 62004, 62253, 65236, 66029, 69739, 70196, 73669, 78913, 79306, 79739, 79941, 80090, 80572, 80682]}, "edge": {"target": [], "time": []}}, "mouseout": {"state": {"target": ["0", "18", "2", "9", "5", "15", "21", "33", "32", "29", "26", "23", "0", "12", "14", "17", "16", "2", "28", "1", "10", "1", "7", "6", "3", "8", "11", "26", "31", "30", "33", "23", "18", "13", "22", "20", "14", "18", "10", "11", "8", "24", "25", "22"], "time": [1578, 4924, 5004, 6578, 10403, 10815, 13653, 14330, 17423, 21478, 23914, 24321, 24641, 24717, 25825, 29094, 32907, 33545, 38142, 39867, 43942, 44841, 49380, 52621, 52788, 53267, 57172, 57619, 61902, 62087, 63193, 65342, 69676, 69805, 73180, 78784, 78990, 79371, 79822, 80012, 80214, 80656, 80866, 90560]}, "edge": {"target": [], "time": []}}}, "displayed_time": "85.22", "trialTime": 92673, "trial_type": "mouselab-mdp", "trial_index": 30, "time_elapsed": 1729585, "internal_node_id": "0.0-6.0-1.0-15.0"}}, {"uniqueid": "w31800484:a93443840", "current_trial": 31, "dateTime": 1693482419034, "trialdata": {"revealed_states": [], "clicked_states": ["25", "11", "5", "9", "21", "32"], "num_clicks_accrued": [0, 0, 0, 0, 0, 0, 0, 0, 0, 0, 0, 0, 0], "stateRewards": ["", -1, -3, -6, 14, 41, 18, 63, -14, 80, 21, 17, -2, -4, -2, -5, 13, 70, 8, -4, -64, -10, -20, 2, -1, 4, -1, -17, -55, 42, -7, 47, 54, 15], "withholdReward": false, "trial_id": "mdp_trial_17", "block": "test", "trialIndex": 20, "score": 44.3, "costs": -11.700000000000001, "simulationMode": [null, null, null, null, null], "rewards": [-1, -3, -6, -14, 80], "path": ["0", "0", "1", "2", "3", "8", "9"], "rt": [25541, 592, 303, 99, 150], "actions": ["up", "up", "up", "left", "up"], "actionTimes": [31914, 33058, 33920, 34587, 35298], "queries": {"click": {"state": {"target": ["25", "11", "5", "9", "21", "32"], "time": [8520, 10960, 14659, 18082, 21092, 25552]}, "edge": {"target": [], "time": []}}, "mouseover": {"state": {"target": ["23", "24", "25", "26", "27", "10", "11", "8", "3", "4", "6", "5", "9", "8", "1", "21", "31", "32", "30", "30", "22", "13", "12"], "time": [7503, 7586, 7775, 9367, 9690, 10157, 10395, 11555, 11738, 11856, 12179, 13776, 15352, 19050, 19400, 20568, 21752, 22433, 26952, 29520, 30117, 31031, 31108]}, "edge": {"target": [], "time": []}}, "mouseout": {"state": {"target": ["17", "13", "12", "0", "23", "24", "25", "26", "27", "10", "11", "8", "3", "4", "6", "5", "9", "8", "1", "21", "31", "32", "30", "30", "22", "13", "12", "13"], "time": [2870, 3711, 3763, 7439, 7563, 7719, 9178, 9553, 9992, 10323, 11476, 11717, 11834, 11947, 13430, 15275, 19029, 19126, 19481, 21576, 22077, 26926, 27039, 29579, 30451, 31088, 39256, 39333]}, "edge": {"target": [], "time": []}}}, "displayed_time": "35.84", "trialTime": 40986, "trial_type": "mouselab-mdp", "trial_index": 31, "time_elapsed": 1773742, "internal_node_id": "0.0-6.0-1.0-16.0"}}, {"uniqueid": "w31800484:a93443840", "current_trial": 32, "dateTime": 1693482453484, "trialdata": {"revealed_states": [], "clicked_states": ["23", "12", "24", "14", "1"], "num_clicks_accrued": [0, 0, 0, 0, 0, 0, 0, 0, 0, 0, 0, 0, 0], "stateRewards": ["", 2, 3, 6, -5, -74, -53, 17, -12, 46, 44, 18, -2, 4, 1, -8, 22, -23, -49, 9, -45, 55, 81, 1, -1, -7, -16, -83, -71, -45, 2, 51, 82, 61], "withholdReward": false, "trial_id": "mdp_trial_18", "block": "test", "trialIndex": 21, "score": -68.55, "costs": -0.5499999999999999, "simulationMode": [null, null, null, null, null], "rewards": [2, 3, 6, -5, -74], "path": ["0", "0", "1", "2", "3", "4", "5"], "rt": [17110, 918, 207, 83, 543], "actions": ["up", "up", "up", "right", "up"], "actionTimes": [20746, 22240, 23010, 23651, 24861], "queries": {"click": {"state": {"target": ["23", "12", "24", "14", "1"], "time": [5071, 6467, 9184, 11467, 14379]}, "edge": {"target": [], "time": []}}, "mouseover": {"state": {"target": ["23", "12", "24", "0", "12", "14", "1", "2", "1", "28", "2", "3"], "time": [4624, 5768, 7591, 10510, 10599, 10859, 12752, 13233, 13848, 15441, 17213, 19720]}, "edge": {"target": [], "time": []}}, "mouseout": {"state": {"target": ["0", "23", "12", "24", "0", "12", "14", "1", "2", "1", "28", "2", "3", "8"], "time": [1084, 5690, 6603, 10363, 10578, 10666, 12536, 12900, 13763, 15243, 16812, 19397, 19779, 27437]}, "edge": {"target": [], "time": []}}}, "displayed_time": "25.41", "trialTime": 30928, "trial_type": "mouselab-mdp", "trial_index": 32, "time_elapsed": 1808192, "internal_node_id": "0.0-6.0-1.0-17.0"}}, {"uniqueid": "w31800484:a93443840", "current_trial": 33, "dateTime": 1693482516414, "trialdata": {"revealed_states": [], "clicked_states": ["9", "5", "11", "6", "7", "10", "28", "29", "27", "32"], "num_clicks_accrued": [0, 0, 0, 0, 0, 0, 0, 0, 0, 0, 0, 0, 0], "stateRewards": ["", -1, 1, -5, -6, -78, 47, -13, 12, 48, -88, 20, 2, -3, -2, 13, -20, 37, -57, 14, -38, 30, 31, -2, -2, 8, 2, -23, 78, 28, 12, -74, -88, 8], "withholdReward": false, "trial_id": "mdp_trial_19", "block": "test", "trialIndex": 22, "score": 62.5, "costs": -21.499999999999996, "simulationMode": [null, null, null, null, null], "rewards": [-2, -2, 8, 2, 78], "path": ["0", "0", "23", "24", "25", "26", "28"], "rt": [43629, 286, 96, 154, 29], "actions": ["left", "left", "left", "up", "right"], "actionTimes": [50089, 50943, 51626, 52330, 52950], "queries": {"click": {"state": {"target": ["9", "5", "11", "6", "7", "10", "28", "29", "27", "32"], "time": [8351, 12575, 17874, 21611, 25487, 30028, 34521, 38666, 42937, 47030]}, "edge": {"target": [], "time": []}}, "mouseover": {"state": {"target": ["11", "11", "9", "5", "11", "11", "3", "6", "7", "2", "10", "28", "26", "29", "27", "30", "32"], "time": [6845, 7159, 7540, 9190, 13179, 13969, 18681, 18782, 24118, 28748, 29033, 33917, 35896, 36612, 42392, 44392, 46450]}, "edge": {"target": [], "time": []}}, "mouseout": {"state": {"target": ["0", "0", "11", "11", "9", "5", "11", "11", "3", "6", "7", "2", "10", "28", "26", "29", "27", "30", "32", "21"], "time": [3702, 6529, 6909, 7217, 8854, 13079, 13259, 18599, 18764, 23472, 28678, 28911, 33457, 35820, 36024, 41286, 43865, 45707, 54897, 55671]}, "edge": {"target": [], "time": []}}}, "displayed_time": "53.73", "trialTime": 59685, "trial_type": "mouselab-mdp", "trial_index": 33, "time_elapsed": 1871122, "internal_node_id": "0.0-6.0-1.0-18.0"}}, {"uniqueid": "w31800484:a93443840", "current_trial": 34, "dateTime": 1693482562628, "trialdata": {"revealed_states": [], "clicked_states": ["21", "32", "27", "16", "9", "5"], "num_clicks_accrued": [0, 0, 0, 0, 0, 0, 0, 0, 0, 0, 0, 0, 0], "stateRewards": ["", -2, 4, -5, -12, 85, -24, -18, -15, -78, -22, 26, -1, -1, 2, 14, -45, 52, -23, 7, -33, 24, -6, -2, -4, 5, -7, -16, 36, -39, 5, 71, -87, -23], "withholdReward": false, "trial_id": "mdp_trial_20", "block": "test", "trialIndex": 23, "score": 57.1, "costs": -12.9, "simulationMode": [null, null, null, null, null], "rewards": [-2, 4, -5, -12, 85], "path": ["0", "0", "1", "2", "3", "4", "5"], "rt": [29627, 87, 27, 17, 76], "actions": ["up", "up", "up", "right", "up"], "actionTimes": [34460, 35139, 35795, 36410, 37062], "queries": {"click": {"state": {"target": ["21", "32", "27", "16", "9", "5"], "time": [7276, 11745, 16877, 21872, 26881, 30822]}, "edge": {"target": [], "time": []}}, "mouseover": {"state": {"target": ["12", "20", "21", "32", "33", "11", "27", "10", "16", "3", "9", "5"], "time": [5673, 6149, 6640, 8600, 12541, 15703, 16416, 18901, 19340, 25952, 26415, 30441]}, "edge": {"target": [], "time": []}}, "mouseout": {"state": {"target": ["18", "12", "20", "21", "32", "33", "11", "27", "10", "16", "3", "9", "5", "21"], "time": [1578, 6012, 6456, 7342, 12452, 15246, 15765, 18106, 18987, 25883, 26009, 30359, 38799, 41084]}, "edge": {"target": [], "time": []}}}, "displayed_time": "37.62", "trialTime": 43133, "trial_type": "mouselab-mdp", "trial_index": 34, "time_elapsed": 1917337, "internal_node_id": "0.0-6.0-1.0-19.0"}}, {"uniqueid": "w31800484:a93443840", "current_trial": 35, "dateTime": 1693482589124, "trialdata": {"revealed_states": [], "clicked_states": ["32", "21"], "num_clicks_accrued": [0, 0, 0, 0, 0, 0, 0, 0, 0, 0, 0, 0, 0], "stateRewards": ["", -1, 4, -5, 9, 29, -75, -42, -16, 24, -28, -41, 2, -3, 1, 10, 60, 47, 55, -1, -53, 22, -40, 2, -3, -6, 4, -26, 44, 54, 15, -76, 42, 14], "withholdReward": false, "trial_id": "mdp_trial_21", "block": "test", "trialIndex": 24, "score": 45.7, "costs": -4.3, "simulationMode": [null, null, null, null, null], "rewards": [2, -3, -6, 15, 42], "path": ["0", "0", "23", "24", "25", "30", "32"], "rt": [9686, 550, 190, 45, 80], "actions": ["left", "left", "left", "down", "down"], "actionTimes": [14043, 15167, 15917, 16533, 17194], "queries": {"click": {"state": {"target": ["32", "21"], "time": [5871, 9596]}, "edge": {"target": [], "time": []}}, "mouseover": {"state": {"target": ["30", "32", "21"], "time": [5147, 5325, 6755]}, "edge": {"target": [], "time": []}}, "mouseout": {"state": {"target": ["0", "30", "32", "21"], "time": [4979, 5208, 6425, 18938]}, "edge": {"target": [], "time": []}}}, "displayed_time": "18.36", "trialTime": 23427, "trial_type": "mouselab-mdp", "trial_index": 35, "time_elapsed": 1943832, "internal_node_id": "0.0-6.0-1.0-20.0"}}, {"uniqueid": "w31800484:a93443840", "current_trial": 36, "dateTime": 1693482741590, "trialdata": {"revealed_states": [], "clicked_states": ["25", "27", "32", "21", "17", "16", "18", "5", "9"], "num_clicks_accrued": [0, 0, 0, 0, 0, 0, 0, 0, 0, 0, 0, 0, 0], "stateRewards": ["", -2, -3, -5, 8, 27, 11, 43, -6, -24, -87, 69, -2, 1, 1, 9, 19, 48, -37, 9, -14, 45, 62, 1, 2, 1, 16, -81, -41, 22, 4, -6, -63, 47], "withholdReward": false, "trial_id": "mdp_trial_22", "block": "test", "trialIndex": 25, "score": 35.85, "costs": -18.15, "simulationMode": [null, null, null, null, null], "rewards": [-2, 1, 1, 9, 45], "path": ["0", "0", "12", "13", "14", "19", "21"], "rt": [32890, 282, 558, 904, 158], "actions": ["right", "right", "right", "down", "down"], "actionTimes": [131081, 131924, 133042, 134520, 135266], "queries": {"click": {"state": {"target": ["25", "27", "32", "21", "17", "16", "18", "5", "9"], "time": [100302, 101814, 105009, 108431, 111880, 115672, 118866, 123090, 127477]}, "edge": {"target": [], "time": []}}, "mouseover": {"state": {"target": ["25", "26", "27", "32", "32", "21", "20", "17", "16", "18", "6", "5", "9", "2", "1"], "time": [99691, 100626, 101322, 103181, 104278, 106540, 109417, 110150, 113970, 117685, 121774, 122297, 127011, 128728, 128834]}, "edge": {"target": [], "time": []}}, "mouseout": {"state": {"target": ["0", "25", "26", "27", "32", "32", "21", "20", "17", "16", "18", "6", "5", "9", "2", "1", "15"], "time": [99278, 100607, 101027, 102746, 103354, 105831, 108563, 109676, 113758, 117006, 121166, 121831, 124146, 128092, 128812, 144671, 145160]}, "edge": {"target": [], "time": []}}}, "displayed_time": "135.83", "trialTime": 149098, "trial_type": "mouselab-mdp", "trial_index": 36, "time_elapsed": 2096298, "internal_node_id": "0.0-6.0-1.0-21.0"}}, {"uniqueid": "w31800484:a93443840", "current_trial": 37, "dateTime": 1693482799229, "trialdata": {"revealed_states": [], "clicked_states": [], "num_clicks_accrued": [0, 0, 0, 0, 0, 0, 0, 0, 0, 0, 0, 0, 0], "stateRewards": ["", 1, 1, 6, -14, -40, 37, 16, -13, 33, -68, 49, 2, 4, 3, 6, 55, 27, 32, 10, -65, 20, -87, 2, 1, -6, -5, -42, 12, 29, -8, 16, 76, -33], "withholdReward": false, "trial_id": "mdp_trial_23", "block": "test", "trialIndex": 26, "score": -73, "costs": 0, "simulationMode": [null, null, null, null, null], "rewards": [1, 1, 6, -13, -68], "path": ["0", "0", "1", "2", "3", "8", "10"], "rt": [7278, 211, 19, 304, 1840], "actions": ["up", "up", "up", "left", "down"], "actionTimes": [25184, 25944, 26695, 27572, 29965], "queries": {"click": {"state": {"target": [], "time": []}, "edge": {"target": [], "time": []}}, "mouseover": {"state": {"target": ["23", "0", "1", "3", "2"], "time": [20693, 21921, 23457, 24002, 24723]}, "edge": {"target": [], "time": []}}, "mouseout": {"state": {"target": ["0", "23", "0", "1", "3", "2", "18", "15"], "time": [20620, 21853, 21988, 23514, 24665, 31364, 37749, 37860]}, "edge": {"target": [], "time": []}}}, "displayed_time": "31.91", "trialTime": 54320, "trial_type": "mouselab-mdp", "trial_index": 37, "time_elapsed": 2153938, "internal_node_id": "0.0-6.0-1.0-22.0"}}, {"uniqueid": "w31800484:a93443840", "current_trial": 38, "dateTime": 1693482856361, "trialdata": {"revealed_states": [], "clicked_states": ["5", "9", "32", "21"], "num_clicks_accrued": [0, 0, 0, 0, 0, 0, 0, 0, 0, 0, 0, 0, 0], "stateRewards": ["", -2, -3, -3, 9, 79, 67, 22, -15, -56, 27, -85, -2, 4, -4, -15, -20, -32, 60, 15, 71, 57, 17, 1, 2, -8, 15, -37, -81, 82, 15, 21, -3, 2], "withholdReward": false, "trial_id": "mdp_trial_24", "block": "test", "trialIndex": 27, "score": 71.4, "costs": -8.6, "simulationMode": [null, null, null, null, null], "rewards": [-2, -3, -3, 9, 79], "path": ["0", "0", "1", "2", "3", "4", "5"], "rt": [22843, 463, 399, 548, 143], "actions": ["up", "up", "up", "right", "up"], "actionTimes": [30314, 31349, 32362, 33584, 34292], "queries": {"click": {"state": {"target": ["5", "9", "32", "21"], "time": [9298, 13617, 17017, 22098]}, "edge": {"target": [], "time": []}}, "mouseover": {"state": {"target": ["6", "4", "5", "9", "30", "32", "21"], "time": [8332, 8418, 8715, 10263, 14671, 15405, 18548]}, "edge": {"target": [], "time": []}}, "mouseout": {"state": {"target": ["13", "0", "6", "4", "5", "9", "30", "32", "21"], "time": [3637, 4178, 8398, 8482, 9435, 14185, 15266, 17668, 51593]}, "edge": {"target": [], "time": []}}}, "displayed_time": "34.88", "trialTime": 53870, "trial_type": "mouselab-mdp", "trial_index": 38, "time_elapsed": 2211070, "internal_node_id": "0.0-6.0-1.0-23.0"}}, {"uniqueid": "w31800484:a93443840", "current_trial": 39, "dateTime": 1693483041696, "trialdata": {"revealed_states": [], "clicked_states": ["5", "9", "20", "32", "21"], "num_clicks_accrued": [0, 0, 0, 0, 0, 0, 0, 0, 0, 0, 0, 0, 0], "stateRewards": ["", 1, 2, -8, 9, 18, -83, -11, 6, -64, -48, 17, -2, -2, -5, -3, -24, -3, -86, -2, 48, -41, -22, -2, 4, 7, 8, 81, 13, -48, 10, 61, 19, 57], "withholdReward": false, "trial_id": "mdp_trial_25", "block": "test", "trialIndex": 28, "score": 26.25, "costs": -10.75, "simulationMode": [null, null, null, null, null], "rewards": [-2, -2, -5, -2, 48], "path": ["0", "0", "12", "13", "14", "19", "20"], "rt": [20670, 26, 69, 106, 104], "actions": ["right", "right", "right", "down", "right"], "actionTimes": [171213, 171799, 172420, 173123, 173798], "queries": {"click": {"state": {"target": ["5", "9", "20", "32", "21"], "time": [152286, 156262, 159837, 163630, 167197]}, "edge": {"target": [], "time": []}}, "mouseover": {"state": {"target": ["1", "1", "3", "5", "9", "20", "19", "22", "32", "21"], "time": [150763, 151259, 151339, 151774, 153089, 157651, 161479, 161644, 162574, 165392]}, "edge": {"target": [], "time": []}}, "mouseout": {"state": {"target": ["0", "1", "1", "3", "5", "9", "20", "19", "22", "32"], "time": [147388, 150943, 151317, 151394, 152612, 156814, 161385, 161589, 162437, 164622]}, "edge": {"target": [], "time": []}}}, "displayed_time": "174.36", "trialTime": 181929, "trial_type": "mouselab-mdp", "trial_index": 39, "time_elapsed": 2396399, "internal_node_id": "0.0-6.0-1.0-24.0"}}, {"uniqueid": "w31800484:a93443840", "current_trial": 40, "dateTime": 1693483095981, "trialdata": {"revealed_states": [], "clicked_states": ["27", "29", "32", "5", "9"], "num_clicks_accrued": [0, 0, 0, 0, 0, 0, 0, 0, 0, 0, 0, 0, 0], "stateRewards": ["", 1, 1, -5, 8, -6, 45, 16, -6, -7, -22, -38, -1, -4, 8, -11, -16, 21, -45, -15, -59, -32, 42, -1, 3, 6, 11, -7, 34, -27, -8, 85, 43, -9], "withholdReward": false, "trial_id": "mdp_trial_26", "block": "test", "trialIndex": 29, "score": 32.25, "costs": -10.75, "simulationMode": [null, null, null, null, null], "rewards": [-1, 3, 6, -8, 43], "path": ["0", "0", "23", "24", "25", "30", "32"], "rt": [24529, 412, 595, 551, 271], "actions": ["left", "left", "left", "down", "down"], "actionTimes": [32155, 33137, 34286, 35396, 36254], "queries": {"click": {"state": {"target": ["27", "29", "32", "5", "9"], "time": [10031, 13657, 18068, 23492, 27415]}, "edge": {"target": [], "time": []}}, "mouseover": {"state": {"target": ["27", "29", "27", "29", "29", "33", "32", "32", "12", "3", "5", "9"], "time": [8484, 8931, 9346, 10874, 11707, 16097, 16925, 17488, 21236, 22223, 22996, 26742]}, "edge": {"target": [], "time": []}}, "mouseout": {"state": {"target": ["21", "22", "0", "27", "29", "27", "29", "29", "33", "32", "32", "12", "3", "5", "9", "20"], "time": [4115, 4202, 4859, 8597, 9063, 10786, 10969, 15548, 16355, 17059, 19400, 22162, 22281, 26030, 44663, 50019]}, "edge": {"target": [], "time": []}}}, "displayed_time": "36.80", "trialTime": 50837, "trial_type": "mouselab-mdp", "trial_index": 40, "time_elapsed": 2450689, "internal_node_id": "0.0-6.0-1.0-25.0"}}, {"uniqueid": "w31800484:a93443840", "current_trial": 41, "dateTime": 1693483150152, "trialdata": {"revealed_states": [], "clicked_states": ["21", "32", "29", "28", "16", "9", "6", "7"], "num_clicks_accrued": [0, 0, 0, 0, 0, 0, 0, 0, 0, 0, 0, 0, 0], "stateRewards": ["", 1, -4, 6, -3, 40, 76, -51, 5, -24, -63, 44, -2, -2, 8, 1, 76, -85, -58, 10, 59, 20, 11, -2, 3, -3, 3, -82, -10, 54, -7, -57, -6, -32], "withholdReward": false, "trial_id": "mdp_trial_27", "block": "test", "trialIndex": 30, "score": 58.8, "costs": -17.2, "simulationMode": [null, null, null, null, null], "rewards": [1, -4, 6, -3, 76], "path": ["0", "0", "1", "2", "3", "4", "6"], "rt": [33829, 155, 467, 274, 47], "actions": ["up", "up", "up", "right", "right"], "actionTimes": [43378, 44101, 45130, 45974, 46620], "queries": {"click": {"state": {"target": ["21", "32", "29", "28", "16", "9", "6", "7"], "time": [12517, 16118, 19608, 22607, 26496, 31208, 34971, 39295]}, "edge": {"target": [], "time": []}}, "mouseover": {"state": {"target": ["0", "13", "14", "21", "21", "32", "27", "29", "28", "16", "4", "3", "9", "5", "6", "7"], "time": [9898, 10477, 10890, 11608, 12001, 14057, 17589, 17922, 20256, 25724, 27920, 28287, 28583, 32041, 33695, 38529]}, "edge": {"target": [], "time": []}}, "mouseout": {"state": {"target": ["0", "0", "13", "14", "21", "21", "32", "27", "29", "28", "16", "4", "3", "9", "5", "6", "7"], "time": [9631, 10409, 10535, 11539, 11674, 12661, 16946, 17844, 20133, 24823, 27838, 28268, 28368, 31903, 33325, 38380, 48558]}, "edge": {"target": [], "time": []}}}, "displayed_time": "47.20", "trialTime": 50599, "trial_type": "mouselab-mdp", "trial_index": 41, "time_elapsed": 2504860, "internal_node_id": "0.0-6.0-1.0-26.0"}}, {"uniqueid": "w31800484:a93443840", "current_trial": 42, "dateTime": 1693483192137, "trialdata": {"revealed_states": [], "clicked_states": ["17", "9", "29", "32", "21"], "num_clicks_accrued": [0, 0, 0, 0, 0, 0, 0, 0, 0, 0, 0, 0, 0], "stateRewards": ["", 1, 1, 7, -11, 80, -20, -53, -14, 3, 31, 27, 2, -1, -8, -10, 33, 41, 86, 9, 78, -37, -13, -1, -2, -6, -8, -80, 75, 4, -16, -49, -74, 24], "withholdReward": false, "trial_id": "mdp_trial_28", "block": "test", "trialIndex": 31, "score": 13.25, "costs": -10.75, "simulationMode": [null, null, null, null, null], "rewards": [2, -1, -8, -10, 41], "path": ["0", "0", "12", "13", "14", "15", "17"], "rt": [24543, 181, 199, 481, 18], "actions": ["right", "right", "right", "up", "right"], "actionTimes": [29059, 29845, 30600, 31638, 32312], "queries": {"click": {"state": {"target": ["17", "9", "29", "32", "21"], "time": [6548, 10348, 15894, 20155, 24393]}, "edge": {"target": [], "time": []}}, "mouseover": {"state": {"target": ["17", "2", "8", "9", "11", "27", "29", "30", "32", "19", "21", "21", "19", "14"], "time": [5766, 7375, 7921, 8353, 14446, 14850, 15234, 18896, 19658, 21894, 22753, 23738, 27948, 28034]}, "edge": {"target": [], "time": []}}, "mouseout": {"state": {"target": ["0", "17", "2", "8", "9", "9", "11", "27", "29", "30", "32", "19", "21", "21", "19", "14"], "time": [5155, 7290, 7450, 8011, 10479, 14389, 14509, 14935, 18787, 19278, 20294, 22061, 23267, 27884, 28016, 28092]}, "edge": {"target": [], "time": []}}}, "displayed_time": "32.89", "trialTime": 38018, "trial_type": "mouselab-mdp", "trial_index": 42, "time_elapsed": 2546845, "internal_node_id": "0.0-6.0-1.0-27.0"}}, {"uniqueid": "w31800484:a93443840", "current_trial": 43, "dateTime": 1693483252626, "trialdata": {"revealed_states": [], "clicked_states": ["9", "5", "11", "10", "6", "7", "27", "29", "33", "32"], "num_clicks_accrued": [0, 0, 0, 0, 0, 0, 0, 0, 0, 0, 0, 0, 0], "stateRewards": ["", -1, 3, 2, 9, 41, 4, -46, -12, -54, -87, -25, 2, 3, -1, 11, -77, 12, -33, -9, -32, 35, 72, 1, 3, -7, 4, 37, 65, -73, 6, 77, -43, 8], "withholdReward": false, "trial_id": "mdp_trial_29", "block": "test", "trialIndex": 32, "score": 32.5, "costs": -21.499999999999996, "simulationMode": [null, null, null, null, null], "rewards": [-1, 3, 2, 9, 41], "path": ["0", "0", "1", "2", "3", "4", "5"], "rt": [41903, 267, 774, 15, 297], "actions": ["up", "up", "up", "right", "up"], "actionTimes": [47801, 48648, 50172, 50729, 51630], "queries": {"click": {"state": {"target": ["9", "5", "11", "10", "6", "7", "27", "29", "33", "32"], "time": [7991, 10954, 14797, 20389, 24944, 28393, 33601, 37464, 41662, 44518]}, "edge": {"target": [], "time": []}}, "mouseover": {"state": {"target": ["1", "2", "3", "9", "5", "8", "11", "8", "7", "6", "2", "10", "2", "7", "6", "7", "27", "27", "29", "33", "32"], "time": [6428, 6732, 7092, 7413, 10383, 12230, 12636, 15664, 15764, 16242, 19059, 19268, 21529, 21869, 22394, 26582, 32822, 33174, 36714, 40516, 42564]}, "edge": {"target": [], "time": []}}, "mouseout": {"state": {"target": ["0", "1", "2", "3", "9", "5", "8", "11", "8", "7", "6", "2", "10", "2", "7", "6", "6", "6", "7", "27", "27", "29", "33", "33", "32", "22"], "time": [6360, 6659, 7025, 7149, 8125, 11092, 12346, 15648, 15747, 16032, 18982, 19191, 21507, 21602, 21956, 25096, 25717, 26150, 32428, 32888, 36458, 39695, 41798, 42182, 53364, 55403]}, "edge": {"target": [], "time": []}}}, "displayed_time": "52.20", "trialTime": 57226, "trial_type": "mouselab-mdp", "trial_index": 43, "time_elapsed": 2607334, "internal_node_id": "0.0-6.0-1.0-28.0"}}, {"uniqueid": "w31800484:a93443840", "current_trial": 44, "dateTime": 1693483281607, "trialdata": {"revealed_states": [], "clicked_states": [], "num_clicks_accrued": [0, 0, 0, 0, 0, 0, 0, 0, 0, 0, 0, 0, 0], "stateRewards": ["", 2, -3, -8, 14, -7, -51, 73, 2, 36, 36, -43, -1, 3, -4, 1, 6, 87, -65, 15, 61, -42, -83, -1, 3, -2, -7, 30, -48, 35, 13, 26, 60, 78], "withholdReward": false, "trial_id": "mdp_trial_30", "block": "test", "trialIndex": 33, "score": -46, "costs": 0, "simulationMode": [null, null, null, null, null], "rewards": [2, -3, -8, 14, -51], "path": ["0", "0", "1", "2", "3", "4", "6"], "rt": [10781, 55, 71, 34, 556], "actions": ["up", "up", "up", "right", "right"], "actionTimes": [16105, 16744, 17392, 18015, 19155], "queries": {"click": {"state": {"target": [], "time": []}, "edge": {"target": [], "time": []}}, "mouseover": {"state": {"target": ["0", "12"], "time": [7668, 8325]}, "edge": {"target": [], "time": []}}, "mouseout": {"state": {"target": ["22", "0", "0", "0", "12"], "time": [888, 1607, 2654, 8264, 22144]}, "edge": {"target": [], "time": []}}}, "displayed_time": "19.77", "trialTime": 25077, "trial_type": "mouselab-mdp", "trial_index": 44, "time_elapsed": 2636316, "internal_node_id": "0.0-6.0-1.0-29.0"}}, {"uniqueid": "w31800484:a93443840", "current_trial": 45, "dateTime": 1693483338778, "trialdata": {"revealed_states": [], "clicked_states": ["32", "21", "9", "5", "29", "33", "17", "16", "27"], "num_clicks_accrued": [0, 0, 0, 0, 0, 0, 0, 0, 0, 0, 0, 0, 0], "stateRewards": ["", -2, -2, -3, -6, -15, -11, 41, -12, -63, -76, 2, -2, -3, 8, 9, -36, -2, -18, -16, -32, -85, -17, -2, 1, 5, -16, 82, 35, -88, -1, 80, -82, -20], "withholdReward": false, "trial_id": "mdp_trial_31", "block": "test", "trialIndex": 34, "score": 50.650000000000006, "costs": -19.349999999999998, "simulationMode": [null, null, null, null, null], "rewards": [-2, 1, 5, -16, 82], "path": ["0", "0", "23", "24", "25", "26", "27"], "rt": [38444, 17, 103, 476, 112], "actions": ["left", "left", "left", "up", "up"], "actionTimes": [42545, 43109, 43795, 44826, 45499], "queries": {"click": {"state": {"target": ["32", "21", "9", "5", "29", "33", "17", "16", "27"], "time": [6073, 10741, 14268, 17723, 21208, 26171, 29650, 33691, 38108]}, "edge": {"target": [], "time": []}}, "mouseover": {"state": {"target": ["30", "12", "13", "13", "32", "21", "9", "5", "5", "11", "29", "33", "17", "15", "16", "28", "26", "27", "24", "0", "12"], "time": [4189, 4587, 4672, 4927, 5405, 7180, 12377, 14758, 15329, 18666, 19716, 22253, 28338, 32043, 32458, 35684, 36675, 37505, 39287, 39684, 40360]}, "edge": {"target": [], "time": []}}, "mouseout": {"state": {"target": ["0", "30", "12", "13", "13", "32", "21", "9", "5", "5", "5", "11", "29", "29", "33", "17", "15", "16", "28", "26", "27", "24", "0", "12", "15"], "time": [4173, 4488, 4653, 4724, 5003, 6287, 11171, 14591, 15084, 17874, 18575, 19330, 21333, 21791, 26891, 29830, 32160, 33833, 36610, 37385, 39174, 39441, 39767, 49641, 49725]}, "edge": {"target": [], "time": []}}}, "displayed_time": "46.05", "trialTime": 53303, "trial_type": "mouselab-mdp", "trial_index": 45, "time_elapsed": 2693485, "internal_node_id": "0.0-6.0-1.0-30.0"}}, {"uniqueid": "w31800484:a93443840", "current_trial": 46, "dateTime": 1693483369125, "trialdata": {"revealed_states": [], "clicked_states": ["29", "17"], "num_clicks_accrued": [0, 0, 0, 0, 0, 0, 0, 0, 0, 0, 0, 0, 0], "stateRewards": ["", -1, -3, 4, -10, -5, 79, -87, -2, 53, 29, -20, -2, -1, -5, 10, 27, 86, 46, -16, -29, 40, 3, 2, 4, -1, -6, 37, 79, -29, 7, 86, -62, 29], "withholdReward": false, "trial_id": "mdp_trial_32", "block": "test", "trialIndex": 35, "score": 83.7, "costs": -4.3, "simulationMode": [null, null, null, null, null], "rewards": [-2, -1, -5, 10, 86], "path": ["0", "0", "12", "13", "14", "15", "17"], "rt": [10031, 230, 139, 82, 58], "actions": ["right", "right", "right", "up", "right"], "actionTimes": [20457, 21339, 22053, 22707, 23366], "queries": {"click": {"state": {"target": ["29", "17"], "time": [12226, 15964]}, "edge": {"target": [], "time": []}}, "mouseover": {"state": {"target": ["26", "29", "15", "17", "30", "32"], "time": [11297, 11687, 12980, 13589, 17498, 17831]}, "edge": {"target": [], "time": []}}, "mouseout": {"state": {"target": ["12", "13", "0", "0", "26", "29", "15", "17", "30", "32", "12"], "time": [4865, 5541, 6816, 10496, 11601, 12531, 13498, 17360, 17808, 19559, 25661]}, "edge": {"target": [], "time": []}}}, "displayed_time": "24.43", "trialTime": 26668, "trial_type": "mouselab-mdp", "trial_index": 46, "time_elapsed": 2723834, "internal_node_id": "0.0-6.0-1.0-31.0"}}, {"uniqueid": "w31800484:a93443840", "current_trial": 47, "dateTime": 1693483406367, "trialdata": {"revealed_states": [], "clicked_states": ["17", "20", "21", "22"], "num_clicks_accrued": [0, 0, 0, 0, 0, 0, 0, 0, 0, 0, 0, 0, 0], "stateRewards": ["", 1, 2, -5, 14, 54, -14, -25, 16, -5, -87, 78, -1, 1, 3, -3, 52, 53, 53, -10, 73, -69, -48, 2, 3, 1, 8, -62, -7, 85, 7, 82, 52, -28], "withholdReward": false, "trial_id": "mdp_trial_33", "block": "test", "trialIndex": 36, "score": 57.4, "costs": -8.6, "simulationMode": [null, null, null, null, null], "rewards": [-1, 1, 3, -10, 73], "path": ["0", "0", "12", "13", "14", "19", "20"], "rt": [16601, 280, 249, 53, 193], "actions": ["right", "right", "right", "down", "right"], "actionTimes": [27407, 28263, 29083, 29700, 30476], "queries": {"click": {"state": {"target": ["17", "20", "21", "22"], "time": [12480, 16280, 19981, 23849]}, "edge": {"target": [], "time": []}}, "mouseover": {"state": {"target": ["17", "20", "28", "26", "21", "22"], "time": [11975, 13011, 17488, 17595, 19050, 22389]}, "edge": {"target": [], "time": []}}, "mouseout": {"state": {"target": ["17", "15", "17", "20", "28", "26", "21"], "time": [6710, 6785, 12795, 17153, 17577, 17957, 20112]}, "edge": {"target": [], "time": []}}}, "displayed_time": "31.06", "trialTime": 33694, "trial_type": "mouselab-mdp", "trial_index": 47, "time_elapsed": 2761075, "internal_node_id": "0.0-6.0-1.0-32.0"}}, {"uniqueid": "w31800484:a93443840", "current_trial": 48, "dateTime": 1693483508055, "trialdata": {"revealed_states": [], "clicked_states": ["29", "17", "32", "21", "27", "5", "9", "6", "11"], "num_clicks_accrued": [0, 0, 0, 0, 0, 0, 0, 0, 0, 0, 0, 0, 0], "stateRewards": ["", 2, -1, -3, 16, -3, -16, -62, -1, 13, -26, 43, -1, 4, 3, -9, -54, -37, -3, -12, -71, -68, -57, 1, -3, 2, -9, 2, -2, -9, -11, 84, -52, 55], "withholdReward": false, "trial_id": "mdp_trial_34", "block": "test", "trialIndex": 37, "score": 20.650000000000002, "costs": -19.349999999999998, "simulationMode": [null, null, null, null, null], "rewards": [2, -1, -3, -1, 43], "path": ["0", "0", "1", "2", "3", "8", "11"], "rt": [34944, 238, 435, 20, 80], "actions": ["up", "up", "up", "left", "left"], "actionTimes": [92529, 93348, 94357, 94933, 95608], "queries": {"click": {"state": {"target": ["29", "17", "32", "21", "27", "5", "9", "6", "11"], "time": [59723, 63221, 66700, 70336, 73352, 78140, 81211, 86219, 89128]}, "edge": {"target": [], "time": []}}, "mouseover": {"state": {"target": ["29", "26", "15", "17", "31", "32", "21", "2", "8", "11", "27", "28", "3", "5", "9", "8", "10", "6", "6", "11"], "time": [58844, 60045, 60496, 60984, 64596, 64998, 67872, 71817, 72201, 72302, 72888, 76801, 77190, 77581, 79030, 84506, 85004, 85306, 85633, 87471]}, "edge": {"target": [], "time": []}}, "mouseout": {"state": {"target": ["22", "0", "29", "26", "15", "17", "31", "32", "21", "2", "8", "11", "27", "28", "3", "5", "9", "8", "10", "6", "6", "11", "10"], "time": [24914, 58761, 60023, 60129, 60760, 64036, 64834, 67150, 71438, 71926, 72282, 72405, 76663, 76865, 77507, 78923, 84451, 84938, 85222, 85383, 86975, 89274, 97119]}, "edge": {"target": [], "time": []}}}, "displayed_time": "96.17", "trialTime": 97742, "trial_type": "mouselab-mdp", "trial_index": 48, "time_elapsed": 2862763, "internal_node_id": "0.0-6.0-1.0-33.0"}}, {"uniqueid": "w31800484:a93443840", "current_trial": 49, "dateTime": 1693483537948, "trialdata": {"revealed_states": [], "clicked_states": [], "num_clicks_accrued": [0, 0, 0, 0, 0, 0, 0, 0, 0, 0, 0, 0, 0], "stateRewards": ["", -1, -4, -6, -15, 21, -67, -63, 9, 51, 69, -14, -1, 3, 8, -8, 39, 72, 63, 15, 19, 47, 15, 1, 4, 5, 16, -18, 34, 35, -14, -80, 40, 1], "withholdReward": false, "trial_id": "mdp_trial_35", "block": "test", "trialIndex": 38, "score": -89, "costs": 0, "simulationMode": [null, null, null, null, null], "rewards": [-1, -4, -6, -15, -63], "path": ["0", "0", "1", "2", "3", "4", "7"], "rt": [7397, 448, 417, 1285, 775], "actions": ["up", "up", "up", "right", "down"], "actionTimes": [11318, 12334, 13312, 15176, 16502], "queries": {"click": {"state": {"target": [], "time": []}, "edge": {"target": [], "time": []}}, "mouseover": {"state": {"target": ["24", "24", "1", "16", "1"], "time": [5558, 6650, 6742, 7389, 9401]}, "edge": {"target": [], "time": []}}, "mouseout": {"state": {"target": ["0", "24", "24", "1", "16", "1", "23", "31", "20"], "time": [5487, 5669, 6721, 6800, 9320, 19447, 19534, 19862, 24483]}, "edge": {"target": [], "time": []}}}, "displayed_time": "17.92", "trialTime": 25837, "trial_type": "mouselab-mdp", "trial_index": 49, "time_elapsed": 2892656, "internal_node_id": "0.0-6.0-1.0-34.0"}}, {"uniqueid": "w31800484:a93443840", "current_trial": 50, "dateTime": 1693483590852, "trialdata": {"revealed_states": [], "clicked_states": ["5", "9", "16", "21", "27", "29", "32", "33", "31"], "num_clicks_accrued": [0, 0, 0, 0, 0, 0, 0, 0, 0, 0, 0, 0, 0], "stateRewards": ["", -1, -3, -6, -2, -7, 80, -45, -3, -38, -72, 76, 2, 1, 7, 4, -62, 14, -74, 14, -87, -21, -88, -2, 1, -7, -10, 66, 56, -76, 10, -29, -72, -70], "withholdReward": false, "trial_id": "mdp_trial_36", "block": "test", "trialIndex": 39, "score": 28.650000000000006, "costs": -19.349999999999998, "simulationMode": [null, null, null, null, null], "rewards": [-2, 1, -7, -10, 66], "path": ["0", "0", "23", "24", "25", "26", "27"], "rt": [34068, 194, 249, 622, 31], "actions": ["left", "left", "left", "up", "up"], "actionTimes": [43067, 43818, 44635, 45822, 46423], "queries": {"click": {"state": {"target": ["5", "9", "16", "21", "27", "29", "32", "33", "31"], "time": [10817, 14378, 18399, 22278, 25706, 29267, 32486, 35890, 39759]}, "edge": {"target": [], "time": []}}, "mouseover": {"state": {"target": ["7", "5", "9", "2", "16", "16", "19", "21", "20", "29", "27", "29", "32", "33", "30", "31"], "time": [9754, 10245, 11368, 15475, 15594, 16177, 19549, 19945, 23553, 24956, 25208, 28373, 31771, 34093, 36518, 36634]}, "edge": {"target": [], "time": []}}, "mouseout": {"state": {"target": ["0", "7", "5", "9", "2", "16", "16", "19", "21", "20", "29", "27", "29", "32", "33", "30", "31"], "time": [9097, 9821, 11117, 15099, 15576, 15665, 19204, 19841, 23041, 24044, 25060, 27917, 29412, 33678, 36497, 36614, 47936]}, "edge": {"target": [], "time": []}}}, "displayed_time": "47.03", "trialTime": 49053, "trial_type": "mouselab-mdp", "trial_index": 50, "time_elapsed": 2945560, "internal_node_id": "0.0-6.0-1.0-35.0"}}, {"uniqueid": "w31800484:a93443840", "current_trial": 51, "dateTime": 1693483651902, "trialdata": {"revealed_states": [], "clicked_states": ["9", "5", "32", "21", "20", "33", "16", "17", "18"], "num_clicks_accrued": [0, 0, 0, 0, 0, 0, 0, 0, 0, 0, 0, 0, 0], "stateRewards": ["", -1, 4, -6, -5, -22, -38, -38, -2, -56, 88, 14, -1, -1, -7, -6, 61, -60, 21, 11, 57, 31, -30, -2, -2, 6, -9, -44, -70, -44, -15, 34, 16, -78], "withholdReward": false, "trial_id": "mdp_trial_37", "block": "test", "trialIndex": 40, "score": 26.650000000000006, "costs": -19.349999999999998, "simulationMode": [null, null, null, null, null], "rewards": [-1, -1, -7, -6, 61], "path": ["0", "0", "12", "13", "14", "15", "16"], "rt": [34465, 30, 354, 19, 342], "actions": ["right", "right", "right", "up", "up"], "actionTimes": [45050, 45663, 46604, 47228, 48157], "queries": {"click": {"state": {"target": ["9", "5", "32", "21", "20", "33", "16", "17", "18"], "time": [12913, 16372, 20068, 23220, 26391, 29623, 34177, 38204, 41986]}, "edge": {"target": [], "time": []}}, "mouseover": {"state": {"target": ["9", "9", "5", "10", "32", "21", "21", "20", "22", "31", "30", "33", "30", "31", "12", "13", "15", "16", "17", "18"], "time": [11988, 12404, 14285, 16738, 17191, 22120, 22602, 24345, 27456, 28466, 28732, 29255, 31839, 31953, 32315, 32591, 33127, 33425, 37321, 41255]}, "edge": {"target": [], "time": []}}, "mouseout": {"state": {"target": ["6", "4", "8", "1", "9", "9", "5", "10", "32", "21", "21", "20", "22", "31", "30", "33", "30", "31", "12", "13", "15", "16", "17", "18"], "time": [5058, 5132, 7304, 7743, 12056, 13058, 16720, 16817, 21190, 22255, 23956, 26475, 27857, 28622, 28804, 31742, 31936, 32224, 32570, 32660, 33217, 37208, 41102, 56808]}, "edge": {"target": [], "time": []}}}, "displayed_time": "48.73", "trialTime": 57331, "trial_type": "mouselab-mdp", "trial_index": 51, "time_elapsed": 3006610, "internal_node_id": "0.0-6.0-1.0-36.0"}}, {"uniqueid": "w31800484:a93443840", "current_trial": 52, "dateTime": 1693483923724, "trialdata": {"revealed_states": [], "clicked_states": ["17", "9", "5"], "num_clicks_accrued": [0, 0, 0, 0, 0, 0, 0, 0, 0, 0, 0, 0, 0], "stateRewards": ["", 1, 3, -2, 15, 51, 15, -19, 11, 67, -45, -73, 2, 4, -2, -13, 36, 9, -28, 10, -30, 31, 16, 1, 2, -1, -16, 14, -22, 36, -1, 88, -5, 45], "withholdReward": false, "trial_id": "mdp_trial_38", "block": "test", "trialIndex": 41, "score": 73.55, "costs": -6.449999999999999, "simulationMode": [null, null, null, null, null], "rewards": [1, 3, -2, 11, 67], "path": ["0", "0", "1", "2", "3", "8", "9"], "rt": [12220, 189, 620, 614, 1314], "actions": ["up", "up", "up", "left", "up"], "actionTimes": [257818, 258604, 259789, 261000, 262889], "queries": {"click": {"state": {"target": ["17", "9", "5"], "time": [248072, 250953, 253846]}, "edge": {"target": [], "time": []}}, "mouseover": {"state": {"target": ["17", "2", "9", "5"], "time": [247554, 249139, 249827, 253477]}, "edge": {"target": [], "time": []}}, "mouseout": {"state": {"target": ["0", "17", "2", "9"], "time": [247009, 248981, 249225, 251056]}, "edge": {"target": [], "time": []}}}, "displayed_time": "263.47", "trialTime": 267693, "trial_type": "mouselab-mdp", "trial_index": 52, "time_elapsed": 3278428, "internal_node_id": "0.0-6.0-1.0-37.0"}}, {"uniqueid": "w31800484:a93443840", "current_trial": 53, "dateTime": 1693483992798, "trialdata": {"revealed_states": [], "clicked_states": ["21", "32", "27"], "num_clicks_accrued": [0, 0, 0, 0, 0, 0, 0, 0, 0, 0, 0, 0, 0], "stateRewards": ["", 2, -1, -1, -9, -81, -30, 55, -6, 78, 25, 62, 2, 4, -1, 9, -85, 1, -19, 1, -60, 12, -34, 1, 4, -1, -13, -24, -16, -83, -8, 16, 43, 9], "withholdReward": false, "trial_id": "mdp_trial_39", "block": "test", "trialIndex": 42, "score": 32.55, "costs": -6.449999999999999, "simulationMode": [null, null, null, null, null], "rewards": [1, 4, -1, -8, 43], "path": ["0", "0", "23", "24", "25", "30", "32"], "rt": [12479, 70, 145, 178, 56], "actions": ["left", "left", "left", "down", "down"], "actionTimes": [60115, 60729, 61469, 62192, 62829], "queries": {"click": {"state": {"target": ["21", "32", "27"], "time": [49531, 52434, 55748]}, "edge": {"target": [], "time": []}}, "mouseover": {"state": {"target": ["13", "14", "21", "32", "30", "27", "23", "25"], "time": [48290, 48409, 48937, 50630, 54268, 55189, 58720, 59260]}, "edge": {"target": [], "time": []}}, "mouseout": {"state": {"target": ["5", "7", "13", "14", "21", "32", "30", "27", "23", "25"], "time": [41579, 43279, 48391, 48539, 49689, 53216, 54353, 57099, 59075, 64192]}, "edge": {"target": [], "time": []}}}, "displayed_time": "63.37", "trialTime": 64879, "trial_type": "mouselab-mdp", "trial_index": 53, "time_elapsed": 3347506, "internal_node_id": "0.0-6.0-1.0-38.0"}}, {"uniqueid": "w31800484:a93443840", "current_trial": 54, "dateTime": 1693484019159, "trialdata": {"revealed_states": [], "clicked_states": ["7", "10"], "num_clicks_accrued": [0, 0, 0, 0, 0, 0, 0, 0, 0, 0, 0, 0, 0], "stateRewards": ["", -2, -1, -4, -15, -14, -67, 32, -3, -59, 63, 31, 2, -1, -7, -15, 71, -66, -27, -3, -54, -39, 72, 2, 1, 1, -13, 77, -40, 35, -9, 35, 75, 57], "withholdReward": false, "trial_id": "mdp_trial_40", "block": "test", "trialIndex": 43, "score": 48.7, "costs": -4.3, "simulationMode": [null, null, null, null, null], "rewards": [-2, -1, -4, -3, 63], "path": ["0", "0", "1", "2", "3", "8", "10"], "rt": [10477, 19, 169, 318, 202], "actions": ["up", "up", "up", "left", "down"], "actionTimes": [16142, 16736, 17467, 18303, 19078], "queries": {"click": {"state": {"target": ["7", "10"], "time": [7802, 11568]}, "edge": {"target": [], "time": []}}, "mouseover": {"state": {"target": ["4", "4", "7", "10", "8", "8"], "time": [5839, 6789, 7289, 9702, 14650, 15269]}, "edge": {"target": [], "time": []}}, "mouseout": {"state": {"target": ["0", "4", "4", "7", "10", "8", "8", "8", "3"], "time": [2869, 5931, 7125, 8629, 13859, 15001, 15346, 20800, 20888]}, "edge": {"target": [], "time": []}}}, "displayed_time": "19.73", "trialTime": 22641, "trial_type": "mouselab-mdp", "trial_index": 54, "time_elapsed": 3373864, "internal_node_id": "0.0-6.0-1.0-39.0"}}, {"uniqueid": "w31800484:a93443840", "current_trial": 55, "dateTime": 1693484100837, "trialdata": {"rt": 81604, "response": {"Q0": "$-16 to 16", "Q1": "$-32 to $32", "Q2": "$-88 to $88", "Q3": "The cost for clicking on nodes varied between nodes.", "Q4": "Very motivated"}, "question_order": [0, 1, 2, 3, 4], "trial_id": "final_quiz_control", "trial_type": "survey-multi-choice", "trial_index": 55, "time_elapsed": 3455546, "internal_node_id": "0.0-6.0-2.0"}}, {"uniqueid": "w31800484:a93443840", "current_trial": 56, "dateTime": 1693484295076, "trialdata": {"rt": 194043, "response": {"Q0": "to avoid being overly charged i only inspected nodes at the end.", "Q1": "No, i only used one strategy that worked for me.", "Q2": "The time limit made it difficult to improve the performance."}, "trial_id": "self_report_control", "trial_type": "survey-text", "trial_index": 56, "time_elapsed": 3649785, "internal_node_id": "0.0-6.0-3.0"}}, {"uniqueid": "w31800484:a93443840", "current_trial": 57, "dateTime": 1693484379461, "trialdata": {"rt": 84339, "response": {"Q0": "Disagree", "Q1": "Disagree", "Q2": "Agree", "Q3": "Agree", "Q4": "Disagree", "Q5": "Disagree", "Q6": "Agree"}, "question_order": [0, 1, 2, 3, 4, 5, 6], "trial_id": "self_report_2", "trial_type": "survey-multi-choice", "trial_index": 57, "time_elapsed": 3734171, "internal_node_id": "0.0-6.0-4.0"}}, {"uniqueid": "w31800484:a93443840", "current_trial": 58, "dateTime": 1693484403888, "trialdata": {"rt": 24323, "response": {"gender": "female", "age": "24", "colorblind": "0", "effort": "0"}, "trial_type": "survey-html-form", "trial_index": 58, "time_elapsed": 3758597, "internal_node_id": "0.0-6.0-5.0"}}, {"uniqueid": "w31800484:a93443840", "current_trial": 59, "dateTime": 1693484425949, "trialdata": {"rt": 21960, "response": {"Q0": "NO", "Q1": "NO", "Q2": ""}, "trial_type": "survey-text", "trial_index": 59, "time_elapsed": 3780659, "internal_node_id": "0.0-6.0-6.0"}}, {"uniqueid": "w31800484:a93443840", "current_trial": 60, "dateTime": 1693484461055, "trialdata": {"rt": 35058, "stimulus": "<h1>Completion Code Instructions (1/2)</h1>\n<br><br><br><br>\nYou have reached the end of the experiment! The completion code consists of two parts: (1) a code with 2 characters (2) a code with 6 characters. On this page, you will receive the second part of the code. The first part of the completion code will be on the next page.\n<br><br>\nThe second part of your completion code is: <b>EWEK22</b>\n<br><br>\nPlease note this down. Then, press 'Finish HIT' in order to find the first part of your completion code. Once the data has been saved, you will receive this code either in this window or in the original browser window where you started the experiment.\n", "response": 0, "trial_type": "html-button-response", "trial_index": 60, "time_elapsed": 3815764, "internal_node_id": "0.0-6.0-7.0"}}, {"uniqueid": "w31800484:a93443840", "current_trial": 61, "dateTime": 1693484462117, "trialdata": {"success": true, "trial_type": "fullscreen", "trial_index": 61, "time_elapsed": 3816826, "internal_node_id": "0.0-7.0"}}], "questiondata": {"params": {"CODE": "C6DMOQA6", "MIN_TIME": 14, "inspectCost": 1, "startTime": "Thu Aug 31 2023 13:17:21 GMT+0200 (South Africa Standard Time)", "bonusRate": 0.002, "variance": "1_2_4_8_44", "branching": "31123"}, "final_score": 1142.75}, "eventdata": [{"eventtype": "initialized", "value": null, "timestamp": 1693480640030, "interval": 0}, {"eventtype": "window_resize", "value": [1024, 694], "timestamp": 1693480640031, "interval": 1}, {"eventtype": "window_resize", "value": [1024, 694], "timestamp": 1693480640943, "interval": 912}, {"eventtype": "window_resize", "value": [1366, 768], "timestamp": 1693480648055, "interval": 7112}, {"eventtype": "focus", "value": "off", "timestamp": 1693481366156, "interval": 718101}, {"eventtype": "focus", "value": "on", "timestamp": 1693481366161, "interval": 5}, {"eventtype": "window_resize", "value": [1024, 694], "timestamp": 1693481366511, "interval": 350}, {"eventtype": "window_resize", "value": [1366, 768], "timestamp": 1693481369361, "interval": 2850}, {"eventtype": "window_resize", "value": [1024, 694], "timestamp": 1693484461752, "interval": 3092391}], "useragent": "Mozilla/5.0 (Windows NT 10.0; Win64; x64) AppleWebKit/537.36 (KHTML, like Gecko) Chrome/116.0.0.0 Safari/537.36", "mode": "live", "id": "w31800484:a93443840", "status": "user data saved", "Beginhit": "2023-08-31 11:17:17.197836", "Beginexp": "2023-08-31 11:17:30.657589", "Endhit": "2023-08-31 12:21:06.299054", "psiturkStatus": 3, "browser": "<redacted>", "platform": "windows", "language": "en-ZA", "excludeReason": "invalidClickStrats"}