{"condition": 1, "counterbalance": 0, "assignmentId": "a40451577", "workerId": "w43384380", "hitId": "h67569536", "currenttrial": 5, "bonus": 0, "data": [{"uniqueid": "w43384380:a40451577", "current_trial": 0, "dateTime": 1691071135397, "trialdata": {"success": true, "trial_type": "fullscreen", "trial_index": 0, "time_elapsed": 5880, "internal_node_id": "0.0-0.0"}}, {"uniqueid": "w43384380:a40451577", "current_trial": 1, "dateTime": 1691071158599, "trialdata": {"view_history": [{"page_index": 0, "viewing_time": 23183}], "rt": 23184, "trial_id": "exp_instructions_misaligned", "trial_type": "instructions", "trial_index": 1, "time_elapsed": 29082, "internal_node_id": "0.0-1.0"}}, {"uniqueid": "w43384380:a40451577", "current_trial": 2, "dateTime": 1691071163516, "trialdata": {"success": true, "trial_type": "fullscreen", "trial_index": 2, "time_elapsed": 33999, "internal_node_id": "0.0-2.0-0.0"}}, {"uniqueid": "w43384380:a40451577", "current_trial": 3, "dateTime": 1691071553363, "trialdata": {"view_history": [{"page_index": 0, "viewing_time": 188993}, {"page_index": 1, "viewing_time": 115698}, {"page_index": 2, "viewing_time": 27323}, {"page_index": 3, "viewing_time": 57820}], "rt": 389835, "trial_id": "mouselab_instructions_1_misaligned", "trial_type": "instructions", "trial_index": 3, "time_elapsed": 423846, "internal_node_id": "0.0-2.0-1.0"}}, {"uniqueid": "w43384380:a40451577", "current_trial": 4, "dateTime": 1691071655363, "trialdata": {"revealed_states": [], "clicked_states": ["12", "13", "14", "19", "21", "23", "24", "26", "27", "32", "9", "8", "10", "3"], "num_clicks_accrued": [0, 0, 0, 0, 0, 0, 0, 0, 0, 0, 0, 0, 0], "stateRewards": ["", -10, 10, -10, 10, -10, -10, -10, 10, 10, 10, 10, -10, -10, 10, -10, -10, -10, -10, -10, 10, 10, 10, -10, -10, 10, 10, 10, 10, 10, -10, -10, 10, 10], "withholdReward": false, "trial_id": "practice_1", "block": "test", "trialIndex": 0, "score": 6.5, "costs": -7, "simulationMode": [null, null, null, null, null], "rewards": [-10, 10, -10, 10, 10], "path": ["0", "0", "1", "2", "3", "8", "9"], "rt": [69781, 1640, 537, 601, 1160], "actions": ["up", "up", "up", "left", "up"], "actionTimes": [75175, 77312, 78356, 79463, 81122], "queries": {"click": {"state": {"target": ["12", "13", "14", "19", "21", "23", "24", "26", "27", "32", "9", "8", "10", "3"], "time": [9682, 12776, 14137, 18510, 20542, 25543, 26577, 30004, 35941, 39183, 43289, 44586, 46184, 50114]}, "edge": {"target": [], "time": []}}, "mouseover": {"state": {"target": ["1", "0", "12", "13", "14", "13", "14", "19", "21", "19", "14", "13", "12", "23", "24", "25", "26", "25", "25", "26", "27", "26", "25", "30", "32", "4", "9", "8", "10", "7", "2", "3", "12", "0"], "time": [8061, 8270, 8693, 11378, 11826, 12410, 13698, 17777, 19932, 24019, 24087, 24741, 25031, 25108, 26169, 27306, 28667, 34324, 34971, 35353, 35467, 37167, 37899, 38599, 38770, 39975, 40780, 44151, 45569, 47933, 48176, 48575, 68064, 70732]}, "edge": {"target": [], "time": []}}, "mouseout": {"state": {"target": ["0", "1", "0", "12", "13", "14", "13", "14", "19", "21", "19", "14", "13", "12", "23", "24", "25", "26", "26", "25", "25", "26", "27", "27", "26", "25", "30", "32", "4", "9", "8", "8", "10", "7", "2", "3", "12"], "time": [4584, 8077, 8459, 11327, 11687, 12324, 13596, 17714, 19437, 20724, 24055, 24121, 24764, 25069, 26070, 27222, 28553, 33043, 34298, 34526, 35315, 35388, 36075, 37034, 37865, 38017, 38716, 39870, 39991, 44086, 44765, 45369, 47274, 48079, 48459, 50936, 70633]}, "edge": {"target": [], "time": []}}}, "displayed_time": "81.65", "trialTime": 100253, "trial_type": "mouselab-mdp", "trial_index": 4, "time_elapsed": 525844, "internal_node_id": "0.0-2.0-2.0-0.0"}}], "questiondata": {"params": {"CODE": "C6DMOQA6", "MIN_TIME": 14, "inspectCost": 1, "startTime": "Thu Aug 03 2023 15:58:47 GMT+0200 (South Africa Standard Time)", "bonusRate": 0.002, "variance": "1_2_4_8_44", "branching": "31123"}}, "eventdata": [{"eventtype": "initialized", "value": null, "timestamp": 1691071127149, "interval": 0}, {"eventtype": "window_resize", "value": [1024, 650], "timestamp": 1691071127150, "interval": 1}, {"eventtype": "window_resize", "value": [1024, 650], "timestamp": 1691071127696, "interval": 546}, {"eventtype": "window_resize", "value": [1366, 768], "timestamp": 1691071134639, "interval": 6943}], "useragent": "Mozilla/5.0 (Windows NT 10.0; Win64; x64) AppleWebKit/537.36 (KHTML, like Gecko) Chrome/114.0.0.0 Safari/537.36 Edg/114.0.1823.82", "mode": "live", "id": "w43384380:a40451577", "status": "user data saved", "Beginhit": "2023-08-03 13:58:31.660146", "Beginexp": "2023-08-03 13:58:43.602691", "Endhit": null, "psiturkStatus": 2, "browser": "<redacted>", "platform": "windows", "language": "en-US", "excludeReason": "quizfail"}