{"condition": 1, "counterbalance": 0, "assignmentId": "a45044413", "workerId": "w41211370", "hitId": "h75198844", "currenttrial": 55, "bonus": 0, "data": [{"uniqueid": "w41211370:a45044413", "current_trial": 0, "dateTime": 1693564917866, "trialdata": {"success": true, "trial_type": "fullscreen", "trial_index": 0, "time_elapsed": 6393, "internal_node_id": "0.0-0.0"}}, {"uniqueid": "w41211370:a45044413", "current_trial": 1, "dateTime": 1693564939464, "trialdata": {"view_history": [{"page_index": 0, "viewing_time": 21581}], "rt": 21582, "trial_id": "exp_instructions_misaligned", "trial_type": "instructions", "trial_index": 1, "time_elapsed": 27993, "internal_node_id": "0.0-1.0"}}, {"uniqueid": "w41211370:a45044413", "current_trial": 2, "dateTime": 1693565245366, "trialdata": {"view_history": [{"page_index": 0, "viewing_time": 111654}, {"page_index": 1, "viewing_time": 112837}, {"page_index": 2, "viewing_time": 35694}, {"page_index": 3, "viewing_time": 45712}], "rt": 305898, "trial_id": "mouselab_instructions_1_misaligned", "trial_type": "instructions", "trial_index": 2, "time_elapsed": 333895, "internal_node_id": "0.0-2.0-1.0"}}, {"uniqueid": "w41211370:a45044413", "current_trial": 3, "dateTime": 1693565308392, "trialdata": {"revealed_states": [], "clicked_states": ["8"], "num_clicks_accrued": [0, 0, 0, 0, 0, 0, 0, 0, 0, 0, 0, 0, 0], "stateRewards": ["", -10, -10, 10, 10, -10, -10, 10, -10, 10, -10, 10, -10, -10, -10, 10, -10, -10, -10, 10, 10, 10, 10, 10, 10, -10, 10, 10, -10, -10, -10, 10, 10, -10], "withholdReward": false, "trial_id": "practice_1", "block": "test", "trialIndex": 0, "score": -7, "costs": -0.5, "simulationMode": [null, null, null, null, null], "rewards": [-10, -10, 10, 10, -10], "path": ["0", "0", "1", "2", "3", "4", "6"], "rt": [4903, 303, 284, 353, 27], "actions": ["up", "up", "up", "right", "right"], "actionTimes": [11138, 11942, 12731, 13581, 14148], "queries": {"click": {"state": {"target": ["8"], "time": [8285]}, "edge": {"target": [], "time": []}}, "mouseover": {"state": {"target": ["1", "8"], "time": [6992, 7390]}, "edge": {"target": [], "time": []}}, "mouseout": {"state": {"target": ["0", "1", "8", "3", "4", "1", "0", "7", "6"], "time": [6956, 7055, 21790, 21857, 22241, 22374, 26828, 26905, 58385]}, "edge": {"target": [], "time": []}}}, "displayed_time": "14.66", "trialTime": 62017, "trial_type": "mouselab-mdp", "trial_index": 3, "time_elapsed": 396919, "internal_node_id": "0.0-2.0-2.0-0.0"}}, {"uniqueid": "w41211370:a45044413", "current_trial": 4, "dateTime": 1693565336867, "trialdata": {"revealed_states": [], "clicked_states": ["15"], "num_clicks_accrued": [0, 0, 0, 0, 0, 0, 0, 0, 0, 0, 0, 0, 0], "stateRewards": ["", 10, 10, -10, -10, 10, 10, -10, -10, 10, -10, -10, -10, -10, 10, 10, 10, -10, 10, 10, -10, -10, 10, 10, -10, -10, 10, 10, 10, -10, -10, -10, 10, 10], "withholdReward": false, "trial_id": "practice_2", "block": "test", "trialIndex": 1, "score": -7, "costs": -0.5, "simulationMode": [null, null, null, null, null], "rewards": [10, -10, -10, 10, -10], "path": ["0", "0", "23", "24", "25", "26", "29"], "rt": [4553, 144, 268, 423, 734], "actions": ["left", "left", "left", "up", "left"], "actionTimes": [11049, 11691, 12470, 13386, 14619], "queries": {"click": {"state": {"target": ["15"], "time": [8841]}, "edge": {"target": [], "time": []}}, "mouseover": {"state": {"target": ["15"], "time": [7239]}, "edge": {"target": [], "time": []}}, "mouseout": {"state": {"target": ["6", "7", "0", "15"], "time": [1897, 1947, 7036, 27594]}, "edge": {"target": [], "time": []}}}, "displayed_time": "15.11", "trialTime": 28203, "trial_type": "mouselab-mdp", "trial_index": 4, "time_elapsed": 425394, "internal_node_id": "0.0-2.0-2.0-1.0"}}, {"uniqueid": "w41211370:a45044413", "current_trial": 5, "dateTime": 1693565401113, "trialdata": {"view_history": [{"page_index": 0, "viewing_time": 48455}, {"page_index": 1, "viewing_time": 15780}], "rt": 64237, "trial_id": "mouselab_instructions_2_misaligned", "trial_type": "instructions", "trial_index": 5, "time_elapsed": 489642, "internal_node_id": "0.0-2.0-3.0"}}, {"uniqueid": "w41211370:a45044413", "current_trial": 6, "dateTime": 1693565465382, "trialdata": {"rt": 64256, "response": {"Q0": "The cost for clicking on nodes may vary between nodes.", "Q1": "The better I perform the higher my bonus will be.", "Q2": "No, the amount of cash at each node of the web may be different each time.", "Q3": "To get the highest total score.", "Q4": "Only before moving the spider.", "Q5": "3 seconds"}, "question_order": [0, 1, 2, 3, 4, 5], "correct": {"Q0": "The cost for clicking on nodes may vary between nodes.", "Q1": "The better I perform the higher my bonus will be.", "Q2": "No, the amount of cash at each node of the web may be different each time.", "Q3": "To get the highest total score.", "Q4": "Only before moving the spider.", "Q5": "3 seconds"}, "trial_id": "mouselab_quiz_misaligned", "trial_type": "survey-multi-choice", "trial_index": 6, "time_elapsed": 553910, "internal_node_id": "0.0-2.0-4.0"}}, {"uniqueid": "w41211370:a45044413", "current_trial": 7, "dateTime": 1693565478433, "trialdata": {"rt": 13028, "response": {"Q0": "No"}, "question_order": [0], "trial_id": "repeat_check", "trial_type": "survey-multi-choice", "trial_index": 7, "time_elapsed": 566961, "internal_node_id": "0.0-4.0-0.0"}}, {"uniqueid": "w41211370:a45044413", "current_trial": 8, "dateTime": 1693565499587, "trialdata": {"rt": 21136, "stimulus": "\n<h1> Get ready to start the game! </h1>\n\nThank you for reading the instructions. Get ready start with the 40 rounds of this game.\n<br><br>\nIf you need to take a break, feel free to take one after the end of a round, before continuing to the next one.\n<br><br>\nRemember, the more money the spider gets, the bigger your bonus will be!\n<br><br>\n<div style='text-align: center;'>Press <code>space</code> to begin.</div>\n\n<br><br>\n(If, at any point, the <code>space</code> key does not take you to the next page, click once on the text and try again.)", "response": " ", "trial_id": "mdp_ready", "trial_type": "html-keyboard-response", "trial_index": 8, "time_elapsed": 588116, "internal_node_id": "0.0-6.0-0.0"}}, {"uniqueid": "w41211370:a45044413", "current_trial": 9, "dateTime": 1693565528010, "trialdata": {"revealed_states": [], "clicked_states": ["25"], "num_clicks_accrued": [0, 0, 0, 0, 0, 0, 0, 0, 0, 0, 0, 0, 0], "stateRewards": ["", 1, 1, 1, 15, -76, 52, -32, 14, -57, 37, 49, 1, -4, -3, 6, 83, -76, 25, 9, 36, -1, -17, -1, 4, 4, -2, -22, -21, 58, -15, -57, 49, -24], "withholdReward": false, "trial_id": "mdp_trial_1", "block": "test", "trialIndex": 2, "score": 1.0499999999999998, "costs": -0.95, "simulationMode": [null, null, null, null, null], "rewards": [1, -4, -3, 9, -1], "path": ["0", "0", "12", "13", "14", "19", "21"], "rt": [3303, 332, 3744, 458, 102], "actions": ["right", "right", "right", "down", "down"], "actionTimes": [7432, 8268, 12530, 13511, 14123], "queries": {"click": {"state": {"target": ["25"], "time": [5697]}, "edge": {"target": [], "time": []}}, "mouseover": {"state": {"target": ["23", "24", "25"], "time": [4938, 5051, 5184]}, "edge": {"target": [], "time": []}}, "mouseout": {"state": {"target": ["0", "0", "23", "24", "25"], "time": [1501, 4920, 4984, 5135, 10176]}, "edge": {"target": [], "time": []}}}, "displayed_time": "18.13", "trialTime": 28127, "trial_type": "mouselab-mdp", "trial_index": 9, "time_elapsed": 616537, "internal_node_id": "0.0-6.0-1.0-0.0"}}, {"uniqueid": "w41211370:a45044413", "current_trial": 10, "dateTime": 1693565553768, "trialdata": {"revealed_states": [], "clicked_states": ["3", "8", "14"], "num_clicks_accrued": [0, 0, 0, 0, 0, 0, 0, 0, 0, 0, 0, 0, 0], "stateRewards": ["", 1, -1, 8, -3, 38, 85, -20, -4, 8, 23, 73, 2, -4, 6, -13, 44, 7, -28, -11, -77, 45, -69, 1, -1, -7, -11, 75, -51, -87, 7, 36, -53, -26], "withholdReward": false, "trial_id": "mdp_trial_2", "block": "test", "trialIndex": 3, "score": 32.55, "costs": -3.45, "simulationMode": [null, null, null, null, null], "rewards": [1, -1, -7, 7, 36], "path": ["0", "0", "23", "24", "25", "30", "31"], "rt": [8743, 329, 641, 716, 681], "actions": ["left", "left", "left", "down", "right"], "actionTimes": [12283, 13117, 14261, 15520, 16704], "queries": {"click": {"state": {"target": ["3", "8", "14"], "time": [5510, 8426, 10592]}, "edge": {"target": [], "time": []}}, "mouseover": {"state": {"target": ["1", "2", "3", "8", "10", "23", "0", "12", "13", "14"], "time": [4470, 4618, 4785, 6036, 9703, 9801, 9868, 9919, 9968, 10107]}, "edge": {"target": [], "time": []}}, "mouseout": {"state": {"target": ["19", "0", "0", "1", "2", "3", "8", "10", "23", "0", "12", "13", "14"], "time": [2408, 2553, 4420, 4570, 4701, 5986, 9676, 9718, 9834, 9901, 9952, 10018, 10790]}, "edge": {"target": [], "time": []}}}, "displayed_time": "17.54", "trialTime": 25456, "trial_type": "mouselab-mdp", "trial_index": 10, "time_elapsed": 642296, "internal_node_id": "0.0-6.0-1.0-1.0"}}, {"uniqueid": "w41211370:a45044413", "current_trial": 11, "dateTime": 1693565575513, "trialdata": {"revealed_states": [], "clicked_states": ["6"], "num_clicks_accrued": [0, 0, 0, 0, 0, 0, 0, 0, 0, 0, 0, 0, 0], "stateRewards": ["", -1, -3, -5, -14, -13, -47, 79, 8, -60, -64, 41, -1, 2, 3, 13, -46, 61, -79, -11, -64, -65, 23, 1, -2, 6, -14, 46, 32, 21, 7, 75, -66, 15], "withholdReward": false, "trial_id": "mdp_trial_3", "block": "test", "trialIndex": 4, "score": -67.15, "costs": -2.15, "simulationMode": [null, null, null, null, null], "rewards": [-1, -3, -5, 8, -64], "path": ["0", "0", "1", "2", "3", "8", "10"], "rt": [6000, 1565, 511, 642, 298], "actions": ["up", "up", "up", "left", "down"], "actionTimes": [8151, 10215, 11231, 12397, 13197], "queries": {"click": {"state": {"target": ["6"], "time": [4040]}, "edge": {"target": [], "time": []}}, "mouseover": {"state": {"target": ["7", "6", "6", "4", "3", "8", "11"], "time": [2987, 3014, 3386, 4737, 4768, 4783, 4848]}, "edge": {"target": [], "time": []}}, "mouseout": {"state": {"target": ["14", "13", "12", "0", "7", "6", "6", "4", "3", "8"], "time": [1053, 1099, 1251, 1466, 3003, 3047, 4734, 4764, 4781, 4815]}, "edge": {"target": [], "time": []}}}, "displayed_time": "16.15", "trialTime": 21398, "trial_type": "mouselab-mdp", "trial_index": 11, "time_elapsed": 664041, "internal_node_id": "0.0-6.0-1.0-2.0"}}, {"uniqueid": "w41211370:a45044413", "current_trial": 12, "dateTime": 1693565599088, "trialdata": {"revealed_states": [], "clicked_states": ["32"], "num_clicks_accrued": [0, 0, 0, 0, 0, 0, 0, 0, 0, 0, 0, 0, 0], "stateRewards": ["", -1, -1, 7, -15, -43, -21, -84, -9, -45, -66, 2, 1, -2, 2, 8, -27, 44, -52, -5, -84, 11, 53, 1, 4, -4, 16, 83, -82, -15, -16, 68, -43, 81], "withholdReward": false, "trial_id": "mdp_trial_4", "block": "test", "trialIndex": 5, "score": -90.15, "costs": -2.15, "simulationMode": [null, null, null, null, null], "rewards": [1, -2, 2, -5, -84], "path": ["0", "0", "12", "13", "14", "19", "20"], "rt": [6749, 317, 553, 301, 294], "actions": ["right", "right", "right", "down", "right"], "actionTimes": [9096, 9917, 10969, 11776, 12572], "queries": {"click": {"state": {"target": ["32"], "time": [4977]}, "edge": {"target": [], "time": []}}, "mouseover": {"state": {"target": ["22", "32", "30", "25", "27", "27"], "time": [3441, 4476, 6057, 6107, 6424, 6574]}, "edge": {"target": [], "time": []}}, "mouseout": {"state": {"target": ["11", "0", "22", "32", "30", "25", "27", "27"], "time": [1163, 3392, 3491, 6023, 6073, 6157, 6474, 7707]}, "edge": {"target": [], "time": []}}}, "displayed_time": "16.35", "trialTime": 23249, "trial_type": "mouselab-mdp", "trial_index": 12, "time_elapsed": 687616, "internal_node_id": "0.0-6.0-1.0-3.0"}}, {"uniqueid": "w41211370:a45044413", "current_trial": 13, "dateTime": 1693565617836, "trialdata": {"revealed_states": [], "clicked_states": [], "num_clicks_accrued": [0, 0, 0, 0, 0, 0, 0, 0, 0, 0, 0, 0, 0], "stateRewards": ["", 1, -4, 6, -3, 40, 76, -51, 5, -24, -63, 44, -2, -2, 8, 1, 76, -85, -58, 10, 59, 20, 11, -2, 3, -3, 3, -82, -10, 54, -7, -57, -6, -32], "withholdReward": false, "trial_id": "mdp_trial_5", "block": "test", "trialIndex": 6, "score": -80, "costs": 0, "simulationMode": [null, null, null, null, null], "rewards": [-2, -2, 8, 1, -85], "path": ["0", "0", "12", "13", "14", "15", "17"], "rt": [6385, 191, 359, 1031, 158], "actions": ["right", "right", "right", "up", "right"], "actionTimes": [8858, 9555, 10437, 11978, 12637], "queries": {"click": {"state": {"target": [], "time": []}, "edge": {"target": [], "time": []}}, "mouseover": {"state": {"target": ["12", "13", "20", "19", "21"], "time": [4939, 4965, 5126, 5377, 5994]}, "edge": {"target": [], "time": []}}, "mouseout": {"state": {"target": ["0", "0", "12", "13", "20", "19", "21"], "time": [1248, 4924, 4950, 4976, 5280, 5929, 7829]}, "edge": {"target": [], "time": []}}}, "displayed_time": "16.47", "trialTime": 18401, "trial_type": "mouselab-mdp", "trial_index": 13, "time_elapsed": 706363, "internal_node_id": "0.0-6.0-1.0-4.0"}}, {"uniqueid": "w41211370:a45044413", "current_trial": 14, "dateTime": 1693565641016, "trialdata": {"revealed_states": [], "clicked_states": ["8"], "num_clicks_accrued": [0, 0, 0, 0, 0, 0, 0, 0, 0, 0, 0, 0, 0], "stateRewards": ["", -2, -3, -7, 7, -54, -69, -4, -14, -77, 22, 40, -2, -1, 5, 6, -35, 50, -60, 10, -28, 75, 57, 1, -4, -2, 2, 68, 34, -18, 12, 3, -21, -43], "withholdReward": false, "trial_id": "mdp_trial_6", "block": "test", "trialIndex": 7, "score": -10.55, "costs": -1.55, "simulationMode": [null, null, null, null, null], "rewards": [-2, -3, -7, 7, -4], "path": ["0", "0", "1", "2", "3", "4", "7"], "rt": [3452, 426, 340, 423, 272], "actions": ["up", "up", "up", "right", "down"], "actionTimes": [8407, 9355, 10220, 11150, 11953], "queries": {"click": {"state": {"target": ["8"], "time": [6812]}, "edge": {"target": [], "time": []}}, "mouseover": {"state": {"target": ["1", "10", "8"], "time": [5808, 5991, 6089]}, "edge": {"target": [], "time": []}}, "mouseout": {"state": {"target": ["0", "0", "1", "10", "8", "10", "24", "31"], "time": [3240, 5748, 5825, 6006, 20565, 20593, 20724, 21025]}, "edge": {"target": [], "time": []}}}, "displayed_time": "18.96", "trialTime": 22796, "trial_type": "mouselab-mdp", "trial_index": 14, "time_elapsed": 729544, "internal_node_id": "0.0-6.0-1.0-5.0"}}, {"uniqueid": "w41211370:a45044413", "current_trial": 15, "dateTime": 1693565661439, "trialdata": {"revealed_states": [], "clicked_states": ["33"], "num_clicks_accrued": [0, 0, 0, 0, 0, 0, 0, 0, 0, 0, 0, 0, 0], "stateRewards": ["", -1, 1, 3, -8, -23, -15, -14, -11, -23, 58, 68, 1, 3, 5, 12, -17, -41, -7, -10, -4, 82, 10, 1, 4, -4, 11, 73, 55, -55, -1, -86, -86, 54], "withholdReward": false, "trial_id": "mdp_trial_7", "block": "test", "trialIndex": 8, "score": -88.15, "costs": -2.15, "simulationMode": [null, null, null, null, null], "rewards": [1, 4, -4, -1, -86], "path": ["0", "0", "23", "24", "25", "30", "31"], "rt": [5397, 234, 348, 312, 426], "actions": ["left", "left", "left", "down", "right"], "actionTimes": [7498, 8236, 9094, 9913, 10839], "queries": {"click": {"state": {"target": ["33"], "time": [3456]}, "edge": {"target": [], "time": []}}, "mouseover": {"state": {"target": ["31", "30", "33", "30", "31", "31"], "time": [2712, 2763, 3011, 4680, 4713, 5044]}, "edge": {"target": [], "time": []}}, "mouseout": {"state": {"target": ["0", "31", "30", "33", "30", "31", "31"], "time": [2605, 2730, 2812, 3657, 4698, 4827, 13165]}, "edge": {"target": [], "time": []}}}, "displayed_time": "16.10", "trialTime": 20075, "trial_type": "mouselab-mdp", "trial_index": 15, "time_elapsed": 749967, "internal_node_id": "0.0-6.0-1.0-6.0"}}, {"uniqueid": "w41211370:a45044413", "current_trial": 16, "dateTime": 1693565684564, "trialdata": {"revealed_states": [], "clicked_states": ["11"], "num_clicks_accrued": [0, 0, 0, 0, 0, 0, 0, 0, 0, 0, 0, 0, 0], "stateRewards": ["", -1, 2, -7, -12, -62, 12, -13, 5, 77, -71, 83, 1, -4, 7, 15, -42, -87, -4, 5, -25, 44, 88, -1, 4, -5, -8, 14, 51, 8, -5, 83, -24, -19], "withholdReward": false, "trial_id": "mdp_trial_8", "block": "test", "trialIndex": 9, "score": 1.8499999999999996, "costs": -2.15, "simulationMode": [null, null, null, null, null], "rewards": [-1, 4, -5, -8, 14], "path": ["0", "0", "23", "24", "25", "26", "27"], "rt": [4781, 352, 336, 465, 1001], "actions": ["left", "left", "left", "up", "up"], "actionTimes": [6434, 7280, 8113, 9071, 10597], "queries": {"click": {"state": {"target": ["11"], "time": [2925]}, "edge": {"target": [], "time": []}}, "mouseover": {"state": {"target": ["10", "11", "9"], "time": [2272, 2509, 3487]}, "edge": {"target": [], "time": []}}, "mouseout": {"state": {"target": ["31", "23", "0", "10", "11", "9", "10", "23"], "time": [830, 872, 2200, 2323, 3360, 22380, 22420, 22453]}, "edge": {"target": [], "time": []}}}, "displayed_time": "15.65", "trialTime": 22795, "trial_type": "mouselab-mdp", "trial_index": 16, "time_elapsed": 773092, "internal_node_id": "0.0-6.0-1.0-7.0"}}, {"uniqueid": "w41211370:a45044413", "current_trial": 17, "dateTime": 1693565705690, "trialdata": {"revealed_states": [], "clicked_states": ["16"], "num_clicks_accrued": [0, 0, 0, 0, 0, 0, 0, 0, 0, 0, 0, 0, 0], "stateRewards": ["", -1, 1, -6, -1, 80, 23, 2, -11, 73, -81, 59, 1, 3, 5, -1, -26, 28, -3, 16, -59, -13, -50, -2, -2, 2, 15, -50, 86, 17, -4, 37, 35, 44], "withholdReward": false, "trial_id": "mdp_trial_9", "block": "test", "trialIndex": 10, "score": -39.15, "costs": -2.15, "simulationMode": [null, null, null, null, null, null], "rewards": [-2, -2, 2, 15, -50], "path": ["0", "0", "23", "24", "25", "26", "27"], "rt": [2921, 1448, 230, 316, 1038, 1005], "actions": ["left", "left", "left", "left", "up", "up"], "actionTimes": [4689, 6141, 6884, 7698, 9253, 10770], "queries": {"click": {"state": {"target": ["16"], "time": [3044]}, "edge": {"target": [], "time": []}}, "mouseover": {"state": {"target": ["16"], "time": [2614]}, "edge": {"target": [], "time": []}}, "mouseout": {"state": {"target": ["22", "12", "16", "18"], "time": [832, 933, 12019, 12195]}, "edge": {"target": [], "time": []}}}, "displayed_time": "15.77", "trialTime": 20779, "trial_type": "mouselab-mdp", "trial_index": 17, "time_elapsed": 794217, "internal_node_id": "0.0-6.0-1.0-8.0"}}, {"uniqueid": "w41211370:a45044413", "current_trial": 18, "dateTime": 1693565725328, "trialdata": {"revealed_states": [], "clicked_states": ["21"], "num_clicks_accrued": [0, 0, 0, 0, 0, 0, 0, 0, 0, 0, 0, 0, 0], "stateRewards": ["", -2, -3, 7, -13, 60, 9, 37, -6, 37, 20, 1, 2, -2, -8, 6, -80, -31, -10, -7, 70, -65, -44, -1, 1, 7, 6, -11, 73, -85, 16, -21, 47, 34], "withholdReward": false, "trial_id": "mdp_trial_10", "block": "test", "trialIndex": 11, "score": 23.85, "costs": -2.15, "simulationMode": [null, null, null, null, null], "rewards": [-2, -3, 7, -13, 37], "path": ["0", "0", "1", "2", "3", "4", "7"], "rt": [4498, 94, 586, 580, 426], "actions": ["up", "up", "up", "right", "down"], "actionTimes": [6110, 6729, 7819, 8915, 9841], "queries": {"click": {"state": {"target": ["21"], "time": [3288]}, "edge": {"target": [], "time": []}}, "mouseover": {"state": {"target": ["12", "19", "21"], "time": [2448, 2531, 2830]}, "edge": {"target": [], "time": []}}, "mouseout": {"state": {"target": ["0", "12", "19", "21"], "time": [2424, 2462, 2647, 16733]}, "edge": {"target": [], "time": []}}}, "displayed_time": "15.62", "trialTime": 19302, "trial_type": "mouselab-mdp", "trial_index": 18, "time_elapsed": 813855, "internal_node_id": "0.0-6.0-1.0-9.0"}}, {"uniqueid": "w41211370:a45044413", "current_trial": 19, "dateTime": 1693565753122, "trialdata": {"revealed_states": [], "clicked_states": ["11"], "num_clicks_accrued": [0, 0, 0, 0, 0, 0, 0, 0, 0, 0, 0, 0, 0], "stateRewards": ["", -1, 1, 8, -8, -49, 62, -78, 16, 28, -81, 78, -2, -3, -1, -4, 67, 49, -2, -13, -16, -39, 83, 1, -4, 4, -5, -20, 7, 84, 7, -32, -59, 19], "withholdReward": false, "trial_id": "mdp_trial_11", "block": "test", "trialIndex": 12, "score": 99.85, "costs": -2.15, "simulationMode": [null, null, null, null, null], "rewards": [-1, 1, 8, 16, 78], "path": ["0", "0", "1", "2", "3", "8", "11"], "rt": [5067, 129, 340, 355, 120], "actions": ["up", "up", "up", "left", "left"], "actionTimes": [6895, 7542, 8381, 9278, 9894], "queries": {"click": {"state": {"target": ["11"], "time": [2778]}, "edge": {"target": [], "time": []}}, "mouseover": {"state": {"target": ["11"], "time": [2274]}, "edge": {"target": [], "time": []}}, "mouseout": {"state": {"target": ["0", "11", "23", "0", "22"], "time": [2166, 25177, 25355, 25455, 26399]}, "edge": {"target": [], "time": []}}}, "displayed_time": "15.83", "trialTime": 27408, "trial_type": "mouselab-mdp", "trial_index": 19, "time_elapsed": 841650, "internal_node_id": "0.0-6.0-1.0-10.0"}}, {"uniqueid": "w41211370:a45044413", "current_trial": 20, "dateTime": 1693565777680, "trialdata": {"revealed_states": [], "clicked_states": ["17"], "num_clicks_accrued": [0, 0, 0, 0, 0, 0, 0, 0, 0, 0, 0, 0, 0], "stateRewards": ["", 1, 1, 1, -3, -7, -1, -41, -10, 20, -72, -63, 1, -4, -2, 2, -66, 30, -84, -2, 49, 23, 71, -1, -4, 4, -12, 67, 5, 18, -16, 88, 56, -5], "withholdReward": false, "trial_id": "mdp_trial_12", "block": "test", "trialIndex": 13, "score": 24.85, "costs": -2.15, "simulationMode": [null, null, null, null, null], "rewards": [1, -4, -2, 2, 30], "path": ["0", "0", "12", "13", "14", "15", "17"], "rt": [5709, 39, 127, 106, 31], "actions": ["right", "right", "right", "up", "right"], "actionTimes": [7345, 7878, 8500, 9131, 9671], "queries": {"click": {"state": {"target": ["17"], "time": [2883]}, "edge": {"target": [], "time": []}}, "mouseover": {"state": {"target": ["18", "15", "17"], "time": [2204, 2239, 2468]}, "edge": {"target": [], "time": []}}, "mouseout": {"state": {"target": ["0", "18", "15", "17", "14", "31"], "time": [1003, 2222, 2252, 4052, 19287, 22313]}, "edge": {"target": [], "time": []}}}, "displayed_time": "15.64", "trialTime": 24178, "trial_type": "mouselab-mdp", "trial_index": 20, "time_elapsed": 866208, "internal_node_id": "0.0-6.0-1.0-11.0"}}, {"uniqueid": "w41211370:a45044413", "current_trial": 21, "dateTime": 1693565799432, "trialdata": {"revealed_states": [], "clicked_states": ["6"], "num_clicks_accrued": [0, 0, 0, 0, 0, 0, 0, 0, 0, 0, 0, 0, 0], "stateRewards": ["", 1, -1, 1, -14, -10, 67, -28, -11, 72, 40, -65, -1, 1, 1, -2, 8, -55, 34, -10, 61, 33, -15, 2, -4, 7, 4, -75, 63, -21, -16, 61, 19, 21], "withholdReward": false, "trial_id": "mdp_trial_13", "block": "test", "trialIndex": 14, "score": 51.85, "costs": -2.15, "simulationMode": [null, null, null, null, null], "rewards": [1, -1, 1, -14, 67], "path": ["0", "0", "1", "2", "3", "4", "6"], "rt": [5262, 11, 60, 375, 37], "actions": ["up", "up", "up", "right", "right"], "actionTimes": [6698, 7227, 7792, 8692, 9252], "queries": {"click": {"state": {"target": ["6"], "time": [2866]}, "edge": {"target": [], "time": []}}, "mouseover": {"state": {"target": ["7", "6", "6", "7"], "time": [2232, 2296, 2462, 4297]}, "edge": {"target": [], "time": []}}, "mouseout": {"state": {"target": ["0", "7", "6", "6", "7", "28", "26", "26", "24"], "time": [765, 2246, 2346, 4130, 19915, 20062, 20195, 20245, 20328]}, "edge": {"target": [], "time": []}}}, "displayed_time": "15.44", "trialTime": 21375, "trial_type": "mouselab-mdp", "trial_index": 21, "time_elapsed": 887960, "internal_node_id": "0.0-6.0-1.0-12.0"}}, {"uniqueid": "w41211370:a45044413", "current_trial": 22, "dateTime": 1693565818215, "trialdata": {"revealed_states": [], "clicked_states": ["29"], "num_clicks_accrued": [0, 0, 0, 0, 0, 0, 0, 0, 0, 0, 0, 0, 0], "stateRewards": ["", -1, -3, -7, -7, -76, 30, -49, 11, -70, 56, 2, 1, 4, -3, -14, -59, -83, -25, -9, -21, -67, -73, -2, 4, 4, -9, -11, -32, 60, 9, -87, 22, -64], "withholdReward": false, "trial_id": "mdp_trial_14", "block": "test", "trialIndex": 15, "score": 54.85, "costs": -2.15, "simulationMode": [null, null, null, null, null], "rewards": [-2, 4, 4, -9, 60], "path": ["0", "0", "23", "24", "25", "26", "29"], "rt": [5152, 617, 124, 357, 421], "actions": ["left", "left", "left", "up", "left"], "actionTimes": [6831, 7959, 8604, 9471, 10398], "queries": {"click": {"state": {"target": ["29"], "time": [3084]}, "edge": {"target": [], "time": []}}, "mouseover": {"state": {"target": ["23", "28", "26", "29"], "time": [2175, 2240, 2356, 2523]}, "edge": {"target": [], "time": []}}, "mouseout": {"state": {"target": ["0", "23", "28", "26", "29"], "time": [1075, 2192, 2290, 2475, 4075]}, "edge": {"target": [], "time": []}}}, "displayed_time": "15.68", "trialTime": 18420, "trial_type": "mouselab-mdp", "trial_index": 22, "time_elapsed": 906742, "internal_node_id": "0.0-6.0-1.0-13.0"}}, {"uniqueid": "w41211370:a45044413", "current_trial": 23, "dateTime": 1693565840414, "trialdata": {"revealed_states": [], "clicked_states": ["9"], "num_clicks_accrued": [0, 0, 0, 0, 0, 0, 0, 0, 0, 0, 0, 0, 0], "stateRewards": ["", -2, -3, 1, -7, 39, -67, 16, 5, -20, 73, 66, -1, 4, 5, -3, 23, -68, -87, -8, 3, -3, 17, 1, -4, -2, -13, -32, 34, 61, -5, -11, -18, 12], "withholdReward": false, "trial_id": "mdp_trial_15", "block": "test", "trialIndex": 16, "score": 25.85, "costs": -2.15, "simulationMode": [null, null, null, null, null], "rewards": [-1, 4, 5, -3, 23], "path": ["0", "0", "12", "13", "14", "15", "16"], "rt": [6874, 528, 407, 382, 164], "actions": ["right", "right", "right", "up", "up"], "actionTimes": [8777, 9813, 10737, 11620, 12283], "queries": {"click": {"state": {"target": ["9"], "time": [3578]}, "edge": {"target": [], "time": []}}, "mouseover": {"state": {"target": ["1", "2", "8", "9", "8", "2", "1"], "time": [2650, 2679, 2828, 3061, 4862, 7563, 7613]}, "edge": {"target": [], "time": []}}, "mouseout": {"state": {"target": ["12", "1", "2", "8", "9", "8", "2", "1"], "time": [1082, 2666, 2695, 2861, 3898, 7534, 7596, 7628]}, "edge": {"target": [], "time": []}}}, "displayed_time": "15.90", "trialTime": 21808, "trial_type": "mouselab-mdp", "trial_index": 23, "time_elapsed": 928941, "internal_node_id": "0.0-6.0-1.0-14.0"}}, {"uniqueid": "w41211370:a45044413", "current_trial": 24, "dateTime": 1693565859102, "trialdata": {"revealed_states": [], "clicked_states": [], "num_clicks_accrued": [0, 0, 0, 0, 0, 0, 0, 0, 0, 0, 0, 0, 0], "stateRewards": ["", 2, 3, 8, 11, 25, -80, 6, -4, -56, 84, -23, -2, -4, -3, 4, -51, -9, -61, -15, -64, 67, -35, 1, -1, -7, -6, 83, 59, -15, 12, -79, 56, 41], "withholdReward": false, "trial_id": "mdp_trial_16", "block": "test", "trialIndex": 17, "score": 46, "costs": 0, "simulationMode": [null, null, null, null, null], "rewards": [1, -1, -7, -6, 59], "path": ["0", "0", "23", "24", "25", "26", "28"], "rt": [4969, 69, 116, 267, 52], "actions": ["left", "left", "left", "up", "right"], "actionTimes": [6747, 7309, 7955, 8723, 9275], "queries": {"click": {"state": {"target": [], "time": []}, "edge": {"target": [], "time": []}}, "mouseover": {"state": {"target": ["23", "23", "23", "24", "25", "26", "28"], "time": [3273, 4124, 4338, 4454, 4741, 4937, 5187]}, "edge": {"target": [], "time": []}}, "mouseout": {"state": {"target": ["23", "23", "23", "24", "25", "26", "28"], "time": [3303, 4187, 4404, 4724, 4903, 5154, 14937]}, "edge": {"target": [], "time": []}}}, "displayed_time": "15.78", "trialTime": 18307, "trial_type": "mouselab-mdp", "trial_index": 24, "time_elapsed": 947630, "internal_node_id": "0.0-6.0-1.0-15.0"}}, {"uniqueid": "w41211370:a45044413", "current_trial": 25, "dateTime": 1693565883675, "trialdata": {"revealed_states": [], "clicked_states": ["21"], "num_clicks_accrued": [0, 0, 0, 0, 0, 0, 0, 0, 0, 0, 0, 0, 0], "stateRewards": ["", 1, 1, -7, -9, -44, 24, -83, -15, 44, -24, 72, -2, -3, 4, -5, 57, 55, 29, -11, 22, 12, -25, -1, 2, 7, 12, 33, -8, 47, -4, 8, 50, -4], "withholdReward": false, "trial_id": "mdp_trial_17", "block": "test", "trialIndex": 18, "score": -2.1500000000000004, "costs": -2.15, "simulationMode": [null, null, null, null, null], "rewards": [-2, -3, 4, -11, 12], "path": ["0", "0", "12", "13", "14", "19", "21"], "rt": [5060, 280, 211, 628, 180], "actions": ["right", "right", "right", "down", "down"], "actionTimes": [6828, 7608, 8342, 9488, 10179], "queries": {"click": {"state": {"target": ["21"], "time": [3046]}, "edge": {"target": [], "time": []}}, "mouseover": {"state": {"target": ["12", "22", "19", "21"], "time": [2337, 2376, 2408, 2716]}, "edge": {"target": [], "time": []}}, "mouseout": {"state": {"target": ["28", "12", "22", "19", "21"], "time": [748, 2350, 2391, 2441, 3254]}, "edge": {"target": [], "time": []}}}, "displayed_time": "15.77", "trialTime": 24184, "trial_type": "mouselab-mdp", "trial_index": 25, "time_elapsed": 972203, "internal_node_id": "0.0-6.0-1.0-16.0"}}, {"uniqueid": "w41211370:a45044413", "current_trial": 26, "dateTime": 1693565910282, "trialdata": {"revealed_states": [], "clicked_states": ["29"], "num_clicks_accrued": [0, 0, 0, 0, 0, 0, 0, 0, 0, 0, 0, 0, 0], "stateRewards": ["", -2, -1, -3, -1, -78, -6, 2, -1, 22, -88, 32, 2, 2, -7, -8, -51, -17, 54, 2, -44, 54, 75, 2, -2, -8, -15, -29, 12, -67, 15, -1, -47, -47], "withholdReward": false, "trial_id": "mdp_trial_18", "block": "test", "trialIndex": 19, "score": -15.15, "costs": -2.15, "simulationMode": [null, null, null, null, null], "rewards": [-2, -1, -3, -1, -6], "path": ["0", "0", "1", "2", "3", "4", "6"], "rt": [6828, 121, 342, 431, 159], "actions": ["up", "up", "up", "right", "right"], "actionTimes": [12914, 13551, 14422, 15356, 16019], "queries": {"click": {"state": {"target": ["29"], "time": [8089]}, "edge": {"target": [], "time": []}}, "mouseover": {"state": {"target": ["23", "24", "26", "29", "25", "31"], "time": [7125, 7155, 7220, 7723, 9121, 9205]}, "edge": {"target": [], "time": []}}, "mouseout": {"state": {"target": ["23", "24", "26", "29", "25", "31"], "time": [7140, 7171, 7287, 9091, 9155, 25253]}, "edge": {"target": [], "time": []}}}, "displayed_time": "20.09", "trialTime": 26223, "trial_type": "mouselab-mdp", "trial_index": 26, "time_elapsed": 998809, "internal_node_id": "0.0-6.0-1.0-17.0"}}, {"uniqueid": "w41211370:a45044413", "current_trial": 27, "dateTime": 1693565932871, "trialdata": {"revealed_states": [], "clicked_states": ["15"], "num_clicks_accrued": [0, 0, 0, 0, 0, 0, 0, 0, 0, 0, 0, 0, 0], "stateRewards": ["", -2, 3, 3, -14, 62, 36, 49, 16, 11, 17, -84, 2, -1, 6, 2, -82, -73, 49, -6, -87, 48, 50, -1, -2, -1, -16, -11, 37, -44, 4, 55, 73, -10], "withholdReward": false, "trial_id": "mdp_trial_19", "block": "test", "trialIndex": 20, "score": 47.45, "costs": -1.55, "simulationMode": [null, null, null, null, null], "rewards": [2, -1, 6, -6, 48], "path": ["0", "0", "12", "13", "14", "19", "21"], "rt": [5074, 111, 110, 162, 303], "actions": ["right", "right", "right", "down", "down"], "actionTimes": [6678, 7303, 7937, 8607, 9411], "queries": {"click": {"state": {"target": ["15"], "time": [3198]}, "edge": {"target": [], "time": []}}, "mouseover": {"state": {"target": ["15", "17", "15", "14"], "time": [2157, 2240, 2491, 4557]}, "edge": {"target": [], "time": []}}, "mouseout": {"state": {"target": ["0", "15", "17", "15", "14", "22"], "time": [2100, 2174, 2354, 4493, 4623, 21817]}, "edge": {"target": [], "time": []}}}, "displayed_time": "15.61", "trialTime": 22147, "trial_type": "mouselab-mdp", "trial_index": 27, "time_elapsed": 1021398, "internal_node_id": "0.0-6.0-1.0-18.0"}}, {"uniqueid": "w41211370:a45044413", "current_trial": 28, "dateTime": 1693565952975, "trialdata": {"revealed_states": [], "clicked_states": [], "num_clicks_accrued": [0, 0, 0, 0, 0, 0, 0, 0, 0, 0, 0, 0, 0], "stateRewards": ["", -2, 2, 2, -6, 9, 37, 50, -13, -7, -18, -75, -2, -4, 4, 7, 23, -57, -66, -7, -81, -48, -76, 1, 1, -8, 1, 51, -2, 70, 14, 59, 71, -37], "withholdReward": false, "trial_id": "mdp_trial_20", "block": "test", "trialIndex": 21, "score": 67, "costs": 0, "simulationMode": [null, null, null, null, null], "rewards": [1, 1, -8, 14, 59], "path": ["0", "0", "23", "24", "25", "30", "31"], "rt": [4909, 128, 258, 450, 360], "actions": ["left", "left", "left", "down", "right"], "actionTimes": [6535, 7163, 7926, 8868, 9745], "queries": {"click": {"state": {"target": [], "time": []}, "edge": {"target": [], "time": []}}, "mouseover": {"state": {"target": ["23", "24", "25", "25", "24", "23", "24", "25", "30"], "time": [2673, 2703, 2732, 3352, 3399, 3566, 4001, 4434, 4619]}, "edge": {"target": [], "time": []}}, "mouseout": {"state": {"target": ["30", "23", "0", "23", "24", "25", "25", "24", "23", "24", "25", "30"], "time": [558, 619, 2659, 2700, 2716, 2749, 3372, 3449, 3885, 4235, 4601, 18503]}, "edge": {"target": [], "time": []}}}, "displayed_time": "15.63", "trialTime": 19712, "trial_type": "mouselab-mdp", "trial_index": 28, "time_elapsed": 1041503, "internal_node_id": "0.0-6.0-1.0-19.0"}}, {"uniqueid": "w41211370:a45044413", "current_trial": 29, "dateTime": 1693565973179, "trialdata": {"revealed_states": [], "clicked_states": ["16"], "num_clicks_accrued": [0, 0, 0, 0, 0, 0, 0, 0, 0, 0, 0, 0, 0], "stateRewards": ["", -2, -3, -6, -7, 9, 16, 65, 5, -41, 20, -25, -1, -4, 1, -11, -49, -4, 71, 1, 39, -62, 52, -2, -3, 7, -9, -28, -70, 84, 8, 24, -58, 82], "withholdReward": false, "trial_id": "mdp_trial_21", "block": "test", "trialIndex": 22, "score": -67.15, "costs": -2.15, "simulationMode": [null, null, null, null, null], "rewards": [-1, -4, 1, 1, -62], "path": ["0", "0", "12", "13", "14", "19", "21"], "rt": [6322, 96, 133, 312, 226], "actions": ["right", "right", "right", "down", "down"], "actionTimes": [8134, 8736, 9376, 10209, 10938], "queries": {"click": {"state": {"target": ["16"], "time": [3877]}, "edge": {"target": [], "time": []}}, "mouseover": {"state": {"target": ["12", "13", "15", "16", "16"], "time": [2691, 2775, 3090, 3221, 3372]}, "edge": {"target": [], "time": []}}, "mouseout": {"state": {"target": ["30", "12", "13", "15", "16", "16", "18"], "time": [803, 2741, 2838, 3205, 3238, 5405, 18190]}, "edge": {"target": [], "time": []}}}, "displayed_time": "15.81", "trialTime": 19773, "trial_type": "mouselab-mdp", "trial_index": 29, "time_elapsed": 1061706, "internal_node_id": "0.0-6.0-1.0-20.0"}}, {"uniqueid": "w41211370:a45044413", "current_trial": 30, "dateTime": 1693565998229, "trialdata": {"revealed_states": [], "clicked_states": [], "num_clicks_accrued": [0, 0, 0, 0, 0, 0, 0, 0, 0, 0, 0, 0, 0], "stateRewards": ["", -2, -1, -1, 5, -54, -87, 35, 2, -8, 20, -22, 1, 3, 6, 13, -75, -32, -55, -3, 56, 62, -22, -1, -4, -1, -7, -51, 84, 70, 7, -15, 5, 55], "withholdReward": false, "trial_id": "mdp_trial_22", "block": "test", "trialIndex": 23, "score": -32, "costs": 0, "simulationMode": [null, null, null, null, null], "rewards": [1, 3, 6, 13, -55], "path": ["0", "0", "12", "13", "14", "15", "18"], "rt": [5100, 543, 288, 765, 359], "actions": ["right", "right", "right", "up", "left"], "actionTimes": [10996, 12039, 12851, 14108, 14972], "queries": {"click": {"state": {"target": [], "time": []}, "edge": {"target": [], "time": []}}, "mouseover": {"state": {"target": ["1", "7", "2", "24", "25", "30", "31", "23"], "time": [6410, 6510, 7016, 7358, 7607, 8029, 9995, 10107]}, "edge": {"target": [], "time": []}}, "mouseout": {"state": {"target": ["1", "7", "2", "24", "25", "30", "31", "23"], "time": [6444, 6828, 7177, 7507, 7981, 8192, 10027, 10125]}, "edge": {"target": [], "time": []}}}, "displayed_time": "19.90", "trialTime": 24629, "trial_type": "mouselab-mdp", "trial_index": 30, "time_elapsed": 1086757, "internal_node_id": "0.0-6.0-1.0-21.0"}}, {"uniqueid": "w41211370:a45044413", "current_trial": 31, "dateTime": 1693566017780, "trialdata": {"revealed_states": [], "clicked_states": ["16"], "num_clicks_accrued": [0, 0, 0, 0, 0, 0, 0, 0, 0, 0, 0, 0, 0], "stateRewards": ["", -2, 2, -2, -7, -50, -62, -45, 7, 36, -24, -72, -1, -1, 8, -1, -67, 20, -52, 2, 35, -50, 80, -1, 1, 6, -6, -70, 6, 88, 8, -47, 74, -19], "withholdReward": false, "trial_id": "mdp_trial_23", "block": "test", "trialIndex": 24, "score": 85.85, "costs": -2.15, "simulationMode": [null, null, null, null, null], "rewards": [-1, 1, 6, -6, 88], "path": ["0", "0", "23", "24", "25", "26", "29"], "rt": [5841, 146, 208, 333, 377], "actions": ["left", "left", "left", "up", "left"], "actionTimes": [7390, 8037, 8750, 9591, 10500], "queries": {"click": {"state": {"target": ["16"], "time": [3063]}, "edge": {"target": [], "time": []}}, "mouseover": {"state": {"target": ["18", "16"], "time": [2295, 2576]}, "edge": {"target": [], "time": []}}, "mouseout": {"state": {"target": ["18", "16"], "time": [2314, 18039]}, "edge": {"target": [], "time": []}}}, "displayed_time": "15.55", "trialTime": 19094, "trial_type": "mouselab-mdp", "trial_index": 31, "time_elapsed": 1106308, "internal_node_id": "0.0-6.0-1.0-22.0"}}, {"uniqueid": "w41211370:a45044413", "current_trial": 32, "dateTime": 1693566037458, "trialdata": {"revealed_states": [], "clicked_states": ["16"], "num_clicks_accrued": [0, 0, 0, 0, 0, 0, 0, 0, 0, 0, 0, 0, 0], "stateRewards": ["", -2, -2, -7, -13, -10, 49, -68, -1, 84, 70, 88, 1, 4, 4, 12, -57, 25, 30, 8, -1, -77, 57, 2, 3, 2, 3, -18, -80, 23, -15, -41, 70, 11], "withholdReward": false, "trial_id": "mdp_trial_24", "block": "test", "trialIndex": 25, "score": 30.85, "costs": -2.15, "simulationMode": [null, null, null, null, null], "rewards": [2, 3, 2, 3, 23], "path": ["0", "0", "23", "24", "25", "26", "29"], "rt": [5652, 168, 85, 222, 48], "actions": ["left", "left", "left", "up", "left"], "actionTimes": [7270, 7941, 8541, 9259, 9818], "queries": {"click": {"state": {"target": ["16"], "time": [3055]}, "edge": {"target": [], "time": []}}, "mouseover": {"state": {"target": ["18", "16", "17", "13", "12", "13", "15", "15"], "time": [2388, 2555, 4536, 4585, 4635, 4918, 5352, 6673]}, "edge": {"target": [], "time": []}}, "mouseout": {"state": {"target": ["16", "18", "18", "16", "16", "17", "13", "12", "13", "15", "16", "16", "15", "13"], "time": [585, 618, 2455, 3264, 4036, 4552, 4602, 4885, 5235, 5385, 5468, 6037, 6705, 17455]}, "edge": {"target": [], "time": []}}}, "displayed_time": "15.62", "trialTime": 19203, "trial_type": "mouselab-mdp", "trial_index": 32, "time_elapsed": 1125985, "internal_node_id": "0.0-6.0-1.0-23.0"}}, {"uniqueid": "w41211370:a45044413", "current_trial": 33, "dateTime": 1693566059668, "trialdata": {"revealed_states": [], "clicked_states": ["11"], "num_clicks_accrued": [0, 0, 0, 0, 0, 0, 0, 0, 0, 0, 0, 0, 0], "stateRewards": ["", 1, 1, -5, 10, -31, 73, 14, -8, -23, 63, -70, -1, 2, 8, 7, 25, -59, 27, -10, -40, -71, -15, -2, 3, -8, -5, -19, 77, -34, 7, 67, 63, 19], "withholdReward": false, "trial_id": "mdp_trial_25", "block": "test", "trialIndex": 26, "score": -43.15, "costs": -2.15, "simulationMode": [null, null, null, null, null], "rewards": [-1, 2, 8, -10, -40], "path": ["0", "0", "12", "13", "14", "19", "20"], "rt": [7213, 120, 210, 295, 171], "actions": ["right", "right", "right", "down", "right"], "actionTimes": [8691, 9324, 10032, 10850, 11526], "queries": {"click": {"state": {"target": ["11"], "time": [3746]}, "edge": {"target": [], "time": []}}, "mouseover": {"state": {"target": ["1", "2", "2", "3", "8", "11", "28"], "time": [2284, 2468, 2972, 3051, 3238, 3434, 5452]}, "edge": {"target": [], "time": []}}, "mouseout": {"state": {"target": ["0", "1", "2", "2", "3", "8", "11", "11", "28", "25"], "time": [2044, 2302, 2607, 3022, 3084, 3321, 3957, 5387, 5536, 20568]}, "edge": {"target": [], "time": []}}}, "displayed_time": "15.48", "trialTime": 21779, "trial_type": "mouselab-mdp", "trial_index": 33, "time_elapsed": 1148195, "internal_node_id": "0.0-6.0-1.0-24.0"}}, {"uniqueid": "w41211370:a45044413", "current_trial": 34, "dateTime": 1693566081360, "trialdata": {"revealed_states": [], "clicked_states": ["6"], "num_clicks_accrued": [0, 0, 0, 0, 0, 0, 0, 0, 0, 0, 0, 0, 0], "stateRewards": ["", -2, 2, 3, -7, -31, -33, 29, -8, -57, 50, -83, -1, -1, 5, 13, -23, -62, 25, 5, -66, -85, 14, 1, -2, -1, 16, 71, 33, -19, -14, 5, -43, 79], "withholdReward": false, "trial_id": "mdp_trial_26", "block": "test", "trialIndex": 27, "score": -7.15, "costs": -2.15, "simulationMode": [null, null, null, null, null], "rewards": [1, -2, -1, 16, -19], "path": ["0", "0", "23", "24", "25", "26", "29"], "rt": [7371, 125, 318, 403, 147], "actions": ["left", "left", "left", "up", "left"], "actionTimes": [8986, 9651, 10481, 11378, 12021], "queries": {"click": {"state": {"target": ["6"], "time": [3106]}, "edge": {"target": [], "time": []}}, "mouseover": {"state": {"target": ["7", "6", "1", "23"], "time": [1958, 2328, 7427, 7524]}, "edge": {"target": [], "time": []}}, "mouseout": {"state": {"target": ["24", "23", "1", "7", "6", "1", "23"], "time": [510, 526, 607, 1977, 4006, 7458, 8144]}, "edge": {"target": [], "time": []}}}, "displayed_time": "15.62", "trialTime": 21211, "trial_type": "mouselab-mdp", "trial_index": 34, "time_elapsed": 1169888, "internal_node_id": "0.0-6.0-1.0-25.0"}}, {"uniqueid": "w41211370:a45044413", "current_trial": 35, "dateTime": 1693566102430, "trialdata": {"revealed_states": [], "clicked_states": ["11"], "num_clicks_accrued": [0, 0, 0, 0, 0, 0, 0, 0, 0, 0, 0, 0, 0], "stateRewards": ["", -1, 2, -2, 13, -56, -28, 10, 14, 53, -80, -29, 1, -3, -3, -14, 14, 9, -40, -9, 18, 18, 48, 1, 1, 1, -9, 64, -39, -9, 7, -52, -78, 7], "withholdReward": false, "trial_id": "mdp_trial_27", "block": "test", "trialIndex": 28, "score": -61.15, "costs": -2.15, "simulationMode": [null, null, null, null, null], "rewards": [1, -3, -3, -14, -40], "path": ["0", "0", "12", "13", "14", "15", "18"], "rt": [5491, 28, 90, 278, 288], "actions": ["right", "right", "right", "up", "left"], "actionTimes": [7094, 7626, 8235, 9023, 9820], "queries": {"click": {"state": {"target": ["11"], "time": [2820]}, "edge": {"target": [], "time": []}}, "mouseover": {"state": {"target": ["1", "8", "11", "23"], "time": [2064, 2176, 2360, 3710]}, "edge": {"target": [], "time": []}}, "mouseout": {"state": {"target": ["0", "1", "8", "11", "23"], "time": [911, 2093, 2293, 3647, 3726]}, "edge": {"target": [], "time": []}}}, "displayed_time": "15.61", "trialTime": 20618, "trial_type": "mouselab-mdp", "trial_index": 35, "time_elapsed": 1190957, "internal_node_id": "0.0-6.0-1.0-26.0"}}, {"uniqueid": "w41211370:a45044413", "current_trial": 36, "dateTime": 1693566123300, "trialdata": {"revealed_states": [], "clicked_states": ["18"], "num_clicks_accrued": [0, 0, 0, 0, 0, 0, 0, 0, 0, 0, 0, 0, 0], "stateRewards": ["", 1, -2, -8, -3, 31, -84, -55, -14, 15, -58, 17, -2, -3, 7, 7, -12, 48, 67, 4, -44, -68, 46, 2, 3, -5, -7, 76, 27, 5, 11, 57, 52, 59], "withholdReward": false, "trial_id": "mdp_trial_28", "block": "test", "trialIndex": 29, "score": 73.85, "costs": -2.15, "simulationMode": [null, null, null, null, null], "rewards": [-2, -3, 7, 7, 67], "path": ["0", "0", "12", "13", "14", "15", "18"], "rt": [4954, 751, 27, 381, 184], "actions": ["right", "right", "right", "up", "left"], "actionTimes": [6950, 8241, 8765, 9651, 10335], "queries": {"click": {"state": {"target": ["18"], "time": [3158]}, "edge": {"target": [], "time": []}}, "mouseover": {"state": {"target": ["12", "18", "18", "12", "1"], "time": [2369, 2432, 2753, 4201, 4483]}, "edge": {"target": [], "time": []}}, "mouseout": {"state": {"target": ["0", "12", "18", "18", "12", "1"], "time": [1204, 2388, 2450, 4184, 4233, 4500]}, "edge": {"target": [], "time": []}}}, "displayed_time": "16.00", "trialTime": 20446, "trial_type": "mouselab-mdp", "trial_index": 36, "time_elapsed": 1211827, "internal_node_id": "0.0-6.0-1.0-27.0"}}, {"uniqueid": "w41211370:a45044413", "current_trial": 37, "dateTime": 1693566144493, "trialdata": {"revealed_states": [], "clicked_states": ["18"], "num_clicks_accrued": [0, 0, 0, 0, 0, 0, 0, 0, 0, 0, 0, 0, 0], "stateRewards": ["", 2, 3, -2, -8, -8, -41, 74, 15, -23, -80, 1, 1, 3, 3, -15, -63, -78, 67, 13, 75, -41, 86, 2, -2, 6, -3, -8, -49, 50, -6, 83, 74, 80], "withholdReward": false, "trial_id": "mdp_trial_29", "block": "test", "trialIndex": 30, "score": 56.85, "costs": -2.15, "simulationMode": [null, null, null, null, null], "rewards": [1, 3, 3, -15, 67], "path": ["0", "0", "12", "13", "14", "15", "18"], "rt": [5043, 24, 286, 203, 349], "actions": ["right", "right", "right", "up", "left"], "actionTimes": [6446, 6970, 7766, 8485, 9327], "queries": {"click": {"state": {"target": ["18"], "time": [2530]}, "edge": {"target": [], "time": []}}, "mouseover": {"state": {"target": ["18", "18"], "time": [1848, 2061]}, "edge": {"target": [], "time": []}}, "mouseout": {"state": {"target": ["0", "18", "18", "18"], "time": [847, 1881, 2732, 3596]}, "edge": {"target": [], "time": []}}}, "displayed_time": "15.40", "trialTime": 20784, "trial_type": "mouselab-mdp", "trial_index": 37, "time_elapsed": 1233020, "internal_node_id": "0.0-6.0-1.0-28.0"}}, {"uniqueid": "w41211370:a45044413", "current_trial": 38, "dateTime": 1693566164010, "trialdata": {"revealed_states": [], "clicked_states": ["18"], "num_clicks_accrued": [0, 0, 0, 0, 0, 0, 0, 0, 0, 0, 0, 0, 0], "stateRewards": ["", 2, -1, 3, -12, -83, 6, -33, 9, 28, 24, -50, -2, -1, -2, -5, -87, 37, 82, 12, 80, -5, 10, -2, -3, -6, 9, 22, -1, 16, 9, 77, -62, 58], "withholdReward": false, "trial_id": "mdp_trial_30", "block": "test", "trialIndex": 31, "score": 69.85, "costs": -2.15, "simulationMode": [null, null, null, null, null], "rewards": [-2, -1, -2, -5, 82], "path": ["0", "0", "12", "13", "14", "15", "18"], "rt": [4904, 68, 176, 271, 208], "actions": ["right", "right", "right", "up", "left"], "actionTimes": [6359, 6924, 7633, 8410, 9114], "queries": {"click": {"state": {"target": ["18"], "time": [2407]}, "edge": {"target": [], "time": []}}, "mouseover": {"state": {"target": ["18"], "time": [1856]}, "edge": {"target": [], "time": []}}, "mouseout": {"state": {"target": ["0", "18"], "time": [910, 3522]}, "edge": {"target": [], "time": []}}}, "displayed_time": "15.46", "trialTime": 19079, "trial_type": "mouselab-mdp", "trial_index": 38, "time_elapsed": 1252537, "internal_node_id": "0.0-6.0-1.0-29.0"}}, {"uniqueid": "w41211370:a45044413", "current_trial": 39, "dateTime": 1693566183254, "trialdata": {"revealed_states": [], "clicked_states": ["18"], "num_clicks_accrued": [0, 0, 0, 0, 0, 0, 0, 0, 0, 0, 0, 0, 0], "stateRewards": ["", -1, 1, 6, -6, 70, 66, 67, -16, -75, -35, 37, -1, 4, 4, -6, 47, -9, 63, 15, 21, -63, 13, 1, 3, -6, 10, 79, -29, 18, -15, 9, -67, -19], "withholdReward": false, "trial_id": "mdp_trial_31", "block": "test", "trialIndex": 32, "score": 61.85, "costs": -2.15, "simulationMode": [null, null, null, null, null], "rewards": [-1, 4, 4, -6, 63], "path": ["0", "0", "12", "13", "14", "15", "18"], "rt": [4939, 40, 45, 316, 139], "actions": ["right", "right", "right", "up", "left"], "actionTimes": [6289, 6840, 7395, 8215, 8877], "queries": {"click": {"state": {"target": ["18"], "time": [2259]}, "edge": {"target": [], "time": []}}, "mouseover": {"state": {"target": ["18"], "time": [1751]}, "edge": {"target": [], "time": []}}, "mouseout": {"state": {"target": ["18"], "time": [3249]}, "edge": {"target": [], "time": []}}}, "displayed_time": "15.35", "trialTime": 18801, "trial_type": "mouselab-mdp", "trial_index": 39, "time_elapsed": 1271781, "internal_node_id": "0.0-6.0-1.0-30.0"}}, {"uniqueid": "w41211370:a45044413", "current_trial": 40, "dateTime": 1693566205669, "trialdata": {"revealed_states": [], "clicked_states": ["18"], "num_clicks_accrued": [0, 0, 0, 0, 0, 0, 0, 0, 0, 0, 0, 0, 0], "stateRewards": ["", -2, 1, -8, 12, -65, -79, 16, 7, -80, -17, -45, -2, 2, -5, -2, -85, 23, -4, -7, 48, 27, -76, 2, 3, 5, 2, 43, 71, -13, 7, -49, 59, -31], "withholdReward": false, "trial_id": "mdp_trial_32", "block": "test", "trialIndex": 33, "score": 13.85, "costs": -2.15, "simulationMode": [null, null, null, null, null], "rewards": [-2, 2, -5, -2, 23], "path": ["0", "0", "12", "13", "14", "15", "17"], "rt": [5923, 104, 129, 202, 347], "actions": ["right", "right", "right", "up", "right"], "actionTimes": [7517, 8124, 8764, 9472, 10331], "queries": {"click": {"state": {"target": ["18"], "time": [2807]}, "edge": {"target": [], "time": []}}, "mouseover": {"state": {"target": ["18", "18", "23", "24"], "time": [2102, 2385, 6669, 6702]}, "edge": {"target": [], "time": []}}, "mouseout": {"state": {"target": ["0", "18", "18", "23", "24", "25", "33", "32"], "time": [1066, 2132, 3008, 6687, 19781, 19832, 19865, 20082]}, "edge": {"target": [], "time": []}}}, "displayed_time": "15.60", "trialTime": 21987, "trial_type": "mouselab-mdp", "trial_index": 40, "time_elapsed": 1294197, "internal_node_id": "0.0-6.0-1.0-31.0"}}, {"uniqueid": "w41211370:a45044413", "current_trial": 41, "dateTime": 1693566226075, "trialdata": {"revealed_states": [], "clicked_states": ["18"], "num_clicks_accrued": [0, 0, 0, 0, 0, 0, 0, 0, 0, 0, 0, 0, 0], "stateRewards": ["", 1, 4, 7, -16, -84, -6, -46, -12, -7, -49, -26, -1, 2, -4, 2, 22, 37, -64, 1, 88, -13, -10, 1, -4, -2, 5, 2, -10, -34, 9, 66, 55, 38], "withholdReward": false, "trial_id": "mdp_trial_33", "block": "test", "trialIndex": 34, "score": 33.85, "costs": -2.15, "simulationMode": [null, null, null, null, null], "rewards": [-1, 2, -4, 2, 37], "path": ["0", "0", "12", "13", "14", "15", "17"], "rt": [5922, 582, 140, 280, 96], "actions": ["right", "right", "right", "up", "right"], "actionTimes": [7460, 8560, 9200, 10000, 10590], "queries": {"click": {"state": {"target": ["18"], "time": [2455]}, "edge": {"target": [], "time": []}}, "mouseover": {"state": {"target": ["18"], "time": [1912]}, "edge": {"target": [], "time": []}}, "mouseout": {"state": {"target": ["0", "18"], "time": [650, 3458]}, "edge": {"target": [], "time": []}}}, "displayed_time": "15.55", "trialTime": 19951, "trial_type": "mouselab-mdp", "trial_index": 41, "time_elapsed": 1314603, "internal_node_id": "0.0-6.0-1.0-32.0"}}, {"uniqueid": "w41211370:a45044413", "current_trial": 42, "dateTime": 1693566247095, "trialdata": {"revealed_states": [], "clicked_states": ["18"], "num_clicks_accrued": [0, 0, 0, 0, 0, 0, 0, 0, 0, 0, 0, 0, 0], "stateRewards": ["", -2, -4, 6, 14, -34, 49, 36, -8, -3, 32, -4, 1, -2, 1, -8, -20, -71, -57, -7, -86, -62, -16, -2, -3, -5, 11, 23, -21, 53, 5, -5, 85, 73], "withholdReward": false, "trial_id": "mdp_trial_34", "block": "test", "trialIndex": 35, "score": -81.15, "costs": -2.15, "simulationMode": [null, null, null, null, null], "rewards": [1, -2, 1, -8, -71], "path": ["0", "0", "12", "13", "14", "15", "17"], "rt": [5611, 46, 51, 368, 82], "actions": ["right", "right", "right", "up", "right"], "actionTimes": [7193, 7739, 8329, 9215, 9791], "queries": {"click": {"state": {"target": ["18"], "time": [2910]}, "edge": {"target": [], "time": []}}, "mouseover": {"state": {"target": ["12", "18"], "time": [2058, 2107]}, "edge": {"target": [], "time": []}}, "mouseout": {"state": {"target": ["0", "12", "18", "0", "23"], "time": [2039, 2075, 3908, 18474, 19101]}, "edge": {"target": [], "time": []}}}, "displayed_time": "15.59", "trialTime": 20588, "trial_type": "mouselab-mdp", "trial_index": 42, "time_elapsed": 1335623, "internal_node_id": "0.0-6.0-1.0-33.0"}}, {"uniqueid": "w41211370:a45044413", "current_trial": 43, "dateTime": 1693566264676, "trialdata": {"revealed_states": [], "clicked_states": ["17"], "num_clicks_accrued": [0, 0, 0, 0, 0, 0, 0, 0, 0, 0, 0, 0, 0], "stateRewards": ["", 2, -3, -5, 5, 11, -9, -33, 6, 67, 6, -30, -1, -2, -6, 13, 55, 13, 72, -14, 75, 21, -66, -2, -4, 6, 15, -1, -35, 60, 2, 51, -73, 12], "withholdReward": false, "trial_id": "mdp_trial_35", "block": "test", "trialIndex": 36, "score": 14.85, "costs": -2.15, "simulationMode": [null, null, null, null, null], "rewards": [-1, -2, -6, 13, 13], "path": ["0", "0", "12", "13", "14", "15", "17"], "rt": [5667, 430, 61, 584, 186], "actions": ["right", "right", "right", "up", "right"], "actionTimes": [7193, 8123, 8703, 9795, 10480], "queries": {"click": {"state": {"target": ["17"], "time": [2639]}, "edge": {"target": [], "time": []}}, "mouseover": {"state": {"target": ["12", "15", "17"], "time": [1843, 1942, 2216]}, "edge": {"target": [], "time": []}}, "mouseout": {"state": {"target": ["0", "12", "15", "17", "22"], "time": [1826, 1875, 1975, 3558, 16376]}, "edge": {"target": [], "time": []}}}, "displayed_time": "15.53", "trialTime": 17137, "trial_type": "mouselab-mdp", "trial_index": 43, "time_elapsed": 1353203, "internal_node_id": "0.0-6.0-1.0-34.0"}}, {"uniqueid": "w41211370:a45044413", "current_trial": 44, "dateTime": 1693566312228, "trialdata": {"revealed_states": [], "clicked_states": ["32"], "num_clicks_accrued": [0, 0, 0, 0, 0, 0, 0, 0, 0, 0, 0, 0, 0], "stateRewards": ["", 1, 2, -5, 14, 54, -14, -25, 16, -5, -87, 78, -1, 1, 3, -3, 52, 53, 53, -10, 73, -69, -48, 2, 3, 1, 8, -62, -7, 85, 7, 82, 52, -28], "withholdReward": false, "trial_id": "mdp_trial_36", "block": "test", "trialIndex": 37, "score": 62.85, "costs": -2.15, "simulationMode": [null, null, null, null, null], "rewards": [2, 3, 1, 7, 52], "path": ["0", "0", "23", "24", "25", "30", "32"], "rt": [6095, 116, 247, 303, 232], "actions": ["left", "left", "left", "down", "down"], "actionTimes": [7596, 8220, 8967, 9773, 10502], "queries": {"click": {"state": {"target": ["32"], "time": [3626]}, "edge": {"target": [], "time": []}}, "mouseover": {"state": {"target": ["23", "30", "32"], "time": [2042, 2939, 3051]}, "edge": {"target": [], "time": []}}, "mouseout": {"state": {"target": ["0", "23", "30", "32"], "time": [2028, 2058, 2957, 3834]}, "edge": {"target": [], "time": []}}}, "displayed_time": "15.50", "trialTime": 47100, "trial_type": "mouselab-mdp", "trial_index": 44, "time_elapsed": 1400755, "internal_node_id": "0.0-6.0-1.0-35.0"}}, {"uniqueid": "w41211370:a45044413", "current_trial": 45, "dateTime": 1693566330262, "trialdata": {"revealed_states": [], "clicked_states": ["32"], "num_clicks_accrued": [0, 0, 0, 0, 0, 0, 0, 0, 0, 0, 0, 0, 0], "stateRewards": ["", 1, 2, 8, -2, 23, -69, -18, -16, 54, -21, 71, -1, -4, 7, 11, 43, -6, 88, 6, -55, 72, 43, 1, -3, -2, -1, 68, -31, -54, 4, -8, 25, -2], "withholdReward": false, "trial_id": "mdp_trial_37", "block": "test", "trialIndex": 38, "score": 22.85, "costs": -2.15, "simulationMode": [null, null, null, null, null], "rewards": [1, -3, -2, 4, 25], "path": ["0", "0", "23", "24", "25", "30", "32"], "rt": [5702, 53, 113, 268, 150], "actions": ["left", "left", "left", "down", "down"], "actionTimes": [7327, 7906, 8528, 9316, 9982], "queries": {"click": {"state": {"target": ["32"], "time": [3412]}, "edge": {"target": [], "time": []}}, "mouseover": {"state": {"target": ["31", "32"], "time": [2732, 2886]}, "edge": {"target": [], "time": []}}, "mouseout": {"state": {"target": ["0", "31", "32"], "time": [2516, 2780, 16277]}, "edge": {"target": [], "time": []}}}, "displayed_time": "15.63", "trialTime": 17582, "trial_type": "mouselab-mdp", "trial_index": 45, "time_elapsed": 1418789, "internal_node_id": "0.0-6.0-1.0-36.0"}}, {"uniqueid": "w41211370:a45044413", "current_trial": 46, "dateTime": 1693566348139, "trialdata": {"revealed_states": [], "clicked_states": ["32"], "num_clicks_accrued": [0, 0, 0, 0, 0, 0, 0, 0, 0, 0, 0, 0, 0], "stateRewards": ["", 2, 4, 4, 9, -88, -10, 44, 16, -54, 64, 78, 1, 2, 5, 16, 80, 36, 7, -4, 9, -47, -70, -1, -3, 6, -16, 11, 80, 28, 8, -1, 34, -17], "withholdReward": false, "trial_id": "mdp_trial_38", "block": "test", "trialIndex": 39, "score": 41.85, "costs": -2.15, "simulationMode": [null, null, null, null, null], "rewards": [-1, -3, 6, 8, 34], "path": ["0", "0", "23", "24", "25", "30", "32"], "rt": [5075, 54, 33, 140, 146], "actions": ["left", "left", "left", "down", "down"], "actionTimes": [6867, 7435, 7996, 8653, 9292], "queries": {"click": {"state": {"target": ["32"], "time": [3022]}, "edge": {"target": [], "time": []}}, "mouseover": {"state": {"target": ["31", "32"], "time": [2281, 2567]}, "edge": {"target": [], "time": []}}, "mouseout": {"state": {"target": ["0", "31", "32"], "time": [962, 2399, 3218]}, "edge": {"target": [], "time": []}}}, "displayed_time": "15.79", "trialTime": 17424, "trial_type": "mouselab-mdp", "trial_index": 46, "time_elapsed": 1436667, "internal_node_id": "0.0-6.0-1.0-37.0"}}, {"uniqueid": "w41211370:a45044413", "current_trial": 47, "dateTime": 1693566366948, "trialdata": {"revealed_states": [], "clicked_states": ["17"], "num_clicks_accrued": [0, 0, 0, 0, 0, 0, 0, 0, 0, 0, 0, 0, 0], "stateRewards": ["", 1, 4, -8, -5, -15, -7, 21, 13, -30, 40, -65, 1, 1, 5, -14, 35, 27, -38, -11, 36, -58, -47, -2, 4, -3, 13, -16, -49, 22, 15, -56, -44, -10], "withholdReward": false, "trial_id": "mdp_trial_39", "block": "test", "trialIndex": 40, "score": 17.85, "costs": -2.15, "simulationMode": [null, null, null, null, null], "rewards": [1, 1, 5, -14, 27], "path": ["0", "0", "12", "13", "14", "15", "17"], "rt": [5659, 52, 3, 456, 178], "actions": ["right", "right", "right", "up", "right"], "actionTimes": [7283, 7833, 8368, 9336, 10014], "queries": {"click": {"state": {"target": ["17"], "time": [3256]}, "edge": {"target": [], "time": []}}, "mouseover": {"state": {"target": ["15", "17", "13", "12", "13", "14", "15"], "time": [2777, 2846, 4130, 4196, 4445, 4563, 4846]}, "edge": {"target": [], "time": []}}, "mouseout": {"state": {"target": ["0", "15", "17", "13", "12", "13", "14", "15", "17", "13"], "time": [2773, 2812, 4063, 4163, 4424, 4501, 4763, 5013, 16865, 16949]}, "edge": {"target": [], "time": []}}}, "displayed_time": "15.63", "trialTime": 18386, "trial_type": "mouselab-mdp", "trial_index": 47, "time_elapsed": 1455476, "internal_node_id": "0.0-6.0-1.0-38.0"}}, {"uniqueid": "w41211370:a45044413", "current_trial": 48, "dateTime": 1693566403675, "trialdata": {"revealed_states": [], "clicked_states": ["32"], "num_clicks_accrued": [0, 0, 0, 0, 0, 0, 0, 0, 0, 0, 0, 0, 0], "stateRewards": ["", 1, -2, -2, 10, -31, -77, 35, 9, -47, 8, 48, -2, 1, -4, -3, -26, -50, 43, -11, 76, -38, 17, 1, -1, 6, 10, 15, -9, 12, -8, 85, 11, -55], "withholdReward": false, "trial_id": "mdp_trial_40", "block": "test", "trialIndex": 41, "score": 6.85, "costs": -2.15, "simulationMode": [null, null, null, null, null], "rewards": [1, -1, 6, -8, 11], "path": ["0", "0", "23", "24", "25", "30", "32"], "rt": [5925, 156, 78, 170, 73], "actions": ["left", "left", "left", "down", "down"], "actionTimes": [7515, 8181, 8770, 9464, 10048], "queries": {"click": {"state": {"target": ["32"], "time": [3606]}, "edge": {"target": [], "time": []}}, "mouseover": {"state": {"target": ["23", "24", "32"], "time": [2262, 2355, 3225]}, "edge": {"target": [], "time": []}}, "mouseout": {"state": {"target": ["0", "23", "24", "32"], "time": [2243, 2322, 2508, 3826]}, "edge": {"target": [], "time": []}}}, "displayed_time": "15.59", "trialTime": 36277, "trial_type": "mouselab-mdp", "trial_index": 48, "time_elapsed": 1492203, "internal_node_id": "0.0-6.0-1.0-39.0"}}, {"uniqueid": "w41211370:a45044413", "current_trial": 49, "dateTime": 1693566502313, "trialdata": {"rt": 98628, "response": {"Q0": "$-2 to $2", "Q1": "$-16 to $16", "Q2": "$-88 to $88", "Q3": "The cost for clicking on nodes varied between nodes.", "Q4": "Very motivated"}, "question_order": [0, 1, 2, 3, 4], "trial_id": "final_quiz_control", "trial_type": "survey-multi-choice", "trial_index": 49, "time_elapsed": 1590840, "internal_node_id": "0.0-6.0-2.0"}}, {"uniqueid": "w41211370:a45044413", "current_trial": 50, "dateTime": 1693566741021, "trialdata": {"rt": 238673, "response": {"Q0": "I could not find a pattern, I just clicked on nodes that seemed to give positive values repeatedly.", "Q1": "After I got the hang of it, I started losing less money and it was mostly due to the inspector. I also avoided the top section because I kept losing there.", "Q2": "Very difficult, I couldn't find a pattern or consistently positive nodes."}, "trial_id": "self_report_control", "trial_type": "survey-text", "trial_index": 50, "time_elapsed": 1829550, "internal_node_id": "0.0-6.0-3.0"}}, {"uniqueid": "w41211370:a45044413", "current_trial": 51, "dateTime": 1693566938483, "trialdata": {"rt": 197457, "response": {"Q0": "Disagree", "Q1": "Disagree", "Q2": "Disagree", "Q3": "Disagree", "Q4": "Disagree", "Q5": "Disagree", "Q6": "Disagree"}, "question_order": [0, 1, 2, 3, 4, 5, 6], "trial_id": "self_report_2", "trial_type": "survey-multi-choice", "trial_index": 51, "time_elapsed": 2027012, "internal_node_id": "0.0-6.0-4.0"}}, {"uniqueid": "w41211370:a45044413", "current_trial": 52, "dateTime": 1693566994444, "trialdata": {"rt": 55948, "response": {"gender": "female", "age": "22", "colorblind": "0", "effort": "0"}, "trial_type": "survey-html-form", "trial_index": 52, "time_elapsed": 2082972, "internal_node_id": "0.0-6.0-5.0"}}, {"uniqueid": "w41211370:a45044413", "current_trial": 53, "dateTime": 1693567120407, "trialdata": {"rt": 125934, "response": {"Q0": "I assumed that the last move was the most important so I didnt bother to check the steps before. I definitely misunderstood a lot of things but I got the hang of it later .", "Q1": "no", "Q2": ""}, "trial_type": "survey-text", "trial_index": 53, "time_elapsed": 2208936, "internal_node_id": "0.0-6.0-6.0"}}, {"uniqueid": "w41211370:a45044413", "current_trial": 54, "dateTime": 1693567185585, "trialdata": {"rt": 65157, "stimulus": "<h1>Completion Code Instructions (1/2)</h1>\n<br><br><br><br>\nYou have reached the end of the experiment! The completion code consists of two parts: (1) a code with 2 characters (2) a code with 6 characters. On this page, you will receive the second part of the code. The first part of the completion code will be on the next page.\n<br><br>\nThe second part of your completion code is: <b>EWEK22</b>\n<br><br>\nPlease note this down. Then, press 'Finish HIT' in order to find the first part of your completion code. Once the data has been saved, you will receive this code either in this window or in the original browser window where you started the experiment.\n", "response": 0, "trial_type": "html-button-response", "trial_index": 54, "time_elapsed": 2274114, "internal_node_id": "0.0-6.0-7.0"}}], "questiondata": {"params": {"CODE": "C6DMOQA6", "MIN_TIME": 14, "inspectCost": 1, "startTime": "Fri Sep 01 2023 12:41:50 GMT+0200 (South Africa Standard Time)", "bonusRate": 0.002, "variance": "1_2_4_8_44", "branching": "31123"}}, "eventdata": [{"eventtype": "initialized", "value": null, "timestamp": 1693564909615, "interval": 0}, {"eventtype": "window_resize", "value": [1024, 650], "timestamp": 1693564909615, "interval": 0}, {"eventtype": "window_resize", "value": [1024, 650], "timestamp": 1693564910036, "interval": 421}, {"eventtype": "window_resize", "value": [1366, 768], "timestamp": 1693564917112, "interval": 7076}, {"eventtype": "focus", "value": "off", "timestamp": 1693566673525, "interval": 1756413}, {"eventtype": "window_resize", "value": [1366, 767], "timestamp": 1693566673748, "interval": 223}, {"eventtype": "window_resize", "value": [1366, 768], "timestamp": 1693566674068, "interval": 320}, {"eventtype": "focus", "value": "on", "timestamp": 1693566675428, "interval": 1360}, {"eventtype": "focus", "value": "off", "timestamp": 1693566676975, "interval": 1547}, {"eventtype": "window_resize", "value": [1366, 767], "timestamp": 1693566677209, "interval": 234}, {"eventtype": "focus", "value": "on", "timestamp": 1693566677278, "interval": 69}, {"eventtype": "window_resize", "value": [1366, 768], "timestamp": 1693566677486, "interval": 208}, {"eventtype": "focus", "value": "off", "timestamp": 1693566685404, "interval": 7918}, {"eventtype": "window_resize", "value": [1366, 767], "timestamp": 1693566685630, "interval": 226}, {"eventtype": "focus", "value": "on", "timestamp": 1693566685730, "interval": 100}, {"eventtype": "window_resize", "value": [1366, 768], "timestamp": 1693566685947, "interval": 217}], "useragent": "Mozilla/5.0 (Windows NT 10.0; Win64; x64) AppleWebKit/537.36 (KHTML, like Gecko) Chrome/115.0.0.0 Safari/537.36 Edg/115.0.1901.200", "mode": "live", "id": "w41211370:a45044413", "status": "user data saved", "Beginhit": "2023-09-01 10:41:45.991169", "Beginexp": "2023-09-01 10:41:57.308003", "Endhit": "2023-09-01 11:19:47.215701", "psiturkStatus": 3, "browser": "<redacted>", "platform": "windows", "language": "en-US"}