{"condition": 1, "counterbalance": 0, "assignmentId": "a22499241", "workerId": "w69049002", "hitId": "h10363654", "currenttrial": 56, "bonus": 0, "data": [{"uniqueid": "w69049002:a22499241", "current_trial": 0, "dateTime": 1691159841167, "trialdata": {"success": true, "trial_type": "fullscreen", "trial_index": 0, "time_elapsed": 11459, "internal_node_id": "0.0-0.0"}}, {"uniqueid": "w69049002:a22499241", "current_trial": 1, "dateTime": 1691159876333, "trialdata": {"view_history": [{"page_index": 0, "viewing_time": 35136}], "rt": 35137, "trial_id": "exp_instructions_misaligned", "trial_type": "instructions", "trial_index": 1, "time_elapsed": 46626, "internal_node_id": "0.0-1.0"}}, {"uniqueid": "w69049002:a22499241", "current_trial": 2, "dateTime": 1691159882792, "trialdata": {"success": true, "trial_type": "fullscreen", "trial_index": 2, "time_elapsed": 53085, "internal_node_id": "0.0-2.0-0.0"}}, {"uniqueid": "w69049002:a22499241", "current_trial": 3, "dateTime": 1691160454891, "trialdata": {"view_history": [{"page_index": 0, "viewing_time": 198400}, {"page_index": 1, "viewing_time": 167866}, {"page_index": 2, "viewing_time": 107929}, {"page_index": 3, "viewing_time": 97884}], "rt": 572082, "trial_id": "mouselab_instructions_1_misaligned", "trial_type": "instructions", "trial_index": 3, "time_elapsed": 625184, "internal_node_id": "0.0-2.0-1.0"}}, {"uniqueid": "w69049002:a22499241", "current_trial": 4, "dateTime": 1691160503244, "trialdata": {"revealed_states": [], "clicked_states": ["1", "23", "12"], "num_clicks_accrued": [0, 0, 0, 0, 0, 0, 0, 0, 0, 0, 0, 0, 0], "stateRewards": ["", -10, -10, -10, -10, -10, -10, -10, -10, 10, 10, 10, -10, 10, 10, -10, 10, 10, 10, -10, 10, 10, -10, -10, -10, 10, 10, -10, 10, 10, 10, -10, 10, 10], "withholdReward": false, "trial_id": "practice_1", "block": "test", "trialIndex": 0, "score": -28, "costs": -1.5, "simulationMode": [null, null, null, null, null], "rewards": [-10, -10, -10, -10, 10], "path": ["0", "0", "1", "2", "3", "8", "11"], "rt": [14651, 6205, 1003, 696, 355], "actions": ["up", "up", "up", "left", "left"], "actionTimes": [24419, 31172, 32717, 33948, 34841], "queries": {"click": {"state": {"target": ["1", "23", "12"], "time": [16469, 18662, 22513]}, "edge": {"target": [], "time": []}}, "mouseover": {"state": {"target": ["0", "23", "24", "1", "1", "23", "12", "13", "12", "12"], "time": [10957, 14411, 14896, 15433, 15968, 17864, 20678, 21049, 21199, 21948]}, "edge": {"target": [], "time": []}}, "mouseout": {"state": {"target": ["24", "28", "2", "1", "23", "0", "0", "23", "24", "1", "1", "23", "12", "13", "12", "12", "2", "10"], "time": [4768, 4841, 5025, 5408, 5507, 10375, 11004, 14485, 15037, 15502, 16672, 20577, 20738, 21088, 21351, 26637, 37144, 37207]}, "edge": {"target": [], "time": []}}}, "displayed_time": "35.38", "trialTime": 46251, "trial_type": "mouselab-mdp", "trial_index": 4, "time_elapsed": 673534, "internal_node_id": "0.0-2.0-2.0-0.0"}}, {"uniqueid": "w69049002:a22499241", "current_trial": 5, "dateTime": 1691160532236, "trialdata": {"revealed_states": [], "clicked_states": ["12", "23", "1"], "num_clicks_accrued": [0, 0, 0, 0, 0, 0, 0, 0, 0, 0, 0, 0, 0], "stateRewards": ["", 10, -10, -10, 10, -10, 10, 10, 10, -10, 10, 10, -10, -10, 10, 10, 10, 10, -10, 10, -10, -10, -10, 10, -10, 10, -10, 10, 10, -10, -10, -10, -10, -10], "withholdReward": false, "trial_id": "practice_2", "block": "test", "trialIndex": 1, "score": -8, "costs": -1.5, "simulationMode": [null, null, null, null, null], "rewards": [10, -10, 10, -10, -10], "path": ["0", "0", "23", "24", "25", "30", "33"], "rt": [7163, 1283, 1134, 656, 271], "actions": ["left", "left", "left", "down", "left"], "actionTimes": [15308, 17153, 18830, 20034, 20838], "queries": {"click": {"state": {"target": ["12", "23", "1"], "time": [10684, 12233, 13539]}, "edge": {"target": [], "time": []}}, "mouseover": {"state": {"target": ["12", "23", "1"], "time": [9976, 11852, 12914]}, "edge": {"target": [], "time": []}}, "mouseout": {"state": {"target": ["11", "2", "1", "0", "12", "23", "1", "1"], "time": [5895, 6116, 6256, 9924, 11184, 12431, 13748, 14353]}, "edge": {"target": [], "time": []}}}, "displayed_time": "21.39", "trialTime": 27447, "trial_type": "mouselab-mdp", "trial_index": 5, "time_elapsed": 702525, "internal_node_id": "0.0-2.0-2.0-1.0"}}, {"uniqueid": "w69049002:a22499241", "current_trial": 6, "dateTime": 1691160648707, "trialdata": {"view_history": [{"page_index": 0, "viewing_time": 88488}, {"page_index": 1, "viewing_time": 27960}], "rt": 116450, "trial_id": "mouselab_instructions_2_misaligned", "trial_type": "instructions", "trial_index": 6, "time_elapsed": 818999, "internal_node_id": "0.0-2.0-3.0"}}, {"uniqueid": "w69049002:a22499241", "current_trial": 7, "dateTime": 1691160743224, "trialdata": {"rt": 94491, "response": {"Q0": "The cost for clicking on nodes may vary between nodes.", "Q1": "The better I perform the higher my bonus will be.", "Q2": "No, the amount of cash at each node of the web may be different each time.", "Q3": "To get the highest total score.", "Q4": "Only before moving the spider.", "Q5": "3 seconds"}, "question_order": [0, 1, 2, 3, 4, 5], "correct": {"Q0": "The cost for clicking on nodes may vary between nodes.", "Q1": "The better I perform the higher my bonus will be.", "Q2": "No, the amount of cash at each node of the web may be different each time.", "Q3": "To get the highest total score.", "Q4": "Only before moving the spider.", "Q5": "3 seconds"}, "trial_id": "mouselab_quiz_misaligned", "trial_type": "survey-multi-choice", "trial_index": 7, "time_elapsed": 913517, "internal_node_id": "0.0-2.0-4.0"}}, {"uniqueid": "w69049002:a22499241", "current_trial": 8, "dateTime": 1691160783500, "trialdata": {"rt": 40243, "stimulus": "\n<h1> Get ready to start the game! </h1>\n\nThank you for reading the instructions. Get ready start with the 40 rounds of this game.\n<br><br>\nIf you need to take a break, feel free to take one after the end of a round, before continuing to the next one.\n<br><br>\nRemember, the more money the spider gets, the bigger your bonus will be!\n<br><br>\n<div style='text-align: center;'>Press <code>space</code> to begin.</div>\n\n<br><br>\n(If, at any point, the <code>space</code> key does not take you to the next page, click once on the text and try again.)", "response": " ", "trial_id": "mdp_ready", "trial_type": "html-keyboard-response", "trial_index": 8, "time_elapsed": 953793, "internal_node_id": "0.0-4.0-0.0"}}, {"uniqueid": "w69049002:a22499241", "current_trial": 9, "dateTime": 1691160807601, "trialdata": {"revealed_states": [], "clicked_states": [], "num_clicks_accrued": [0, 0, 0, 0, 0, 0, 0, 0, 0, 0, 0, 0, 0], "stateRewards": ["", -1, -2, -1, -10, -57, 73, -72, -16, 75, -14, -46, -2, -3, -7, -1, -61, -60, 76, -4, 50, 4, 14, 2, 2, -7, 12, -65, -32, 15, -8, -76, -25, -61], "withholdReward": false, "trial_id": "mdp_trial_1", "block": "test", "trialIndex": 2, "score": 59, "costs": 0, "simulationMode": [null, null, null, null, null], "rewards": [-1, -2, -1, -10, 73], "path": ["0", "0", "1", "2", "3", "4", "6"], "rt": [5351, 464, 1241, 1323, 162], "actions": ["up", "up", "up", "right", "right"], "actionTimes": [10553, 11569, 13382, 15267, 15999], "queries": {"click": {"state": {"target": [], "time": []}, "edge": {"target": [], "time": []}}, "mouseover": {"state": {"target": ["0", "1"], "time": [5724, 6927]}, "edge": {"target": [], "time": []}}, "mouseout": {"state": {"target": ["0", "0", "0", "0", "1"], "time": [2203, 2901, 5370, 5878, 9709]}, "edge": {"target": [], "time": []}}}, "displayed_time": "19.21", "trialTime": 22552, "trial_type": "mouselab-mdp", "trial_index": 9, "time_elapsed": 977892, "internal_node_id": "0.0-4.0-1.0-0.0"}}, {"uniqueid": "w69049002:a22499241", "current_trial": 10, "dateTime": 1691160831115, "trialdata": {"revealed_states": [], "clicked_states": ["23"], "num_clicks_accrued": [0, 0, 0, 0, 0, 0, 0, 0, 0, 0, 0, 0, 0], "stateRewards": ["", 2, -3, -8, 14, -7, -51, 73, 2, 36, 36, -43, -1, 3, -4, 1, 6, 87, -65, 15, 61, -42, -83, -1, 3, -2, -7, 30, -48, 35, 13, 26, 60, 78], "withholdReward": false, "trial_id": "mdp_trial_2", "block": "test", "trialIndex": 3, "score": 74.25, "costs": 0.25, "simulationMode": [null, null, null, null, null], "rewards": [-1, 3, -4, 15, 61], "path": ["0", "0", "12", "13", "14", "19", "20"], "rt": [4186, 781, 407, 694, 1205], "actions": ["right", "right", "right", "down", "right"], "actionTimes": [8424, 9751, 10680, 11909, 13652], "queries": {"click": {"state": {"target": ["23"], "time": [6354]}, "edge": {"target": [], "time": []}}, "mouseover": {"state": {"target": ["23"], "time": [5686]}, "edge": {"target": [], "time": []}}, "mouseout": {"state": {"target": ["1", "0"], "time": [2266, 5487]}, "edge": {"target": [], "time": []}}}, "displayed_time": "18.24", "trialTime": 21927, "trial_type": "mouselab-mdp", "trial_index": 10, "time_elapsed": 1001404, "internal_node_id": "0.0-4.0-1.0-1.0"}}, {"uniqueid": "w69049002:a22499241", "current_trial": 11, "dateTime": 1691160853019, "trialdata": {"revealed_states": [], "clicked_states": [], "num_clicks_accrued": [0, 0, 0, 0, 0, 0, 0, 0, 0, 0, 0, 0, 0], "stateRewards": ["", -2, -4, 2, 10, -17, 18, 73, 11, -32, 23, -13, -2, -4, 7, 12, -25, 66, -23, 15, 40, -76, -9, 1, 2, -7, -5, -20, 24, 3, -5, 16, -73, 70], "withholdReward": false, "trial_id": "mdp_trial_3", "block": "test", "trialIndex": 4, "score": -25, "costs": 0, "simulationMode": [null, null, null, null, null], "rewards": [-2, -4, 2, 11, -32], "path": ["0", "0", "1", "2", "3", "8", "9"], "rt": [4597, 516, 938, 1458, 266], "actions": ["up", "up", "up", "left", "up"], "actionTimes": [8853, 9912, 11369, 13386, 14189], "queries": {"click": {"state": {"target": [], "time": []}, "edge": {"target": [], "time": []}}, "mouseover": {"state": {"target": ["31"], "time": [5599]}, "edge": {"target": [], "time": []}}, "mouseout": {"state": {"target": ["23", "12", "0"], "time": [1604, 1973, 5585]}, "edge": {"target": [], "time": []}}}, "displayed_time": "18.26", "trialTime": 20360, "trial_type": "mouselab-mdp", "trial_index": 11, "time_elapsed": 1023307, "internal_node_id": "0.0-4.0-1.0-2.0"}}, {"uniqueid": "w69049002:a22499241", "current_trial": 12, "dateTime": 1691160875216, "trialdata": {"revealed_states": [], "clicked_states": [], "num_clicks_accrued": [0, 0, 0, 0, 0, 0, 0, 0, 0, 0, 0, 0, 0], "stateRewards": ["", 2, 3, 8, 11, 25, -80, 6, -4, -56, 84, -23, -2, -4, -3, 4, -51, -9, -61, -15, -64, 67, -35, 1, -1, -7, -6, 83, 59, -15, 12, -79, 56, 41], "withholdReward": false, "trial_id": "mdp_trial_4", "block": "test", "trialIndex": 5, "score": -66, "costs": 0, "simulationMode": [null, null, null, null, null], "rewards": [-2, -4, -3, 4, -61], "path": ["0", "0", "12", "13", "14", "15", "18"], "rt": [6919, 135, 441, 1140, 62], "actions": ["right", "right", "right", "up", "left"], "actionTimes": [10969, 11735, 12720, 14404, 15097], "queries": {"click": {"state": {"target": [], "time": []}, "edge": {"target": [], "time": []}}, "mouseover": {"state": {"target": ["12", "1", "0"], "time": [8150, 9596, 10240]}, "edge": {"target": [], "time": []}}, "mouseout": {"state": {"target": ["31", "0", "0", "12", "1", "0"], "time": [1539, 2009, 4097, 9219, 10197, 10291]}, "edge": {"target": [], "time": []}}}, "displayed_time": "18.05", "trialTime": 20339, "trial_type": "mouselab-mdp", "trial_index": 12, "time_elapsed": 1045508, "internal_node_id": "0.0-4.0-1.0-3.0"}}, {"uniqueid": "w69049002:a22499241", "current_trial": 13, "dateTime": 1691160899043, "trialdata": {"revealed_states": [], "clicked_states": ["1", "23", "12"], "num_clicks_accrued": [0, 0, 0, 0, 0, 0, 0, 0, 0, 0, 0, 0, 0], "stateRewards": ["", 1, 2, -3, -5, 66, -50, -47, -5, 1, 28, -27, 1, 1, -1, -6, 37, -25, 56, 1, -82, -66, -40, -1, -4, -7, 15, -61, -23, 26, 10, 14, -56, 29], "withholdReward": false, "trial_id": "mdp_trial_5", "block": "test", "trialIndex": 6, "score": 61.75, "costs": 0.75, "simulationMode": [null, null, null, null, null], "rewards": [1, 2, -3, -5, 66], "path": ["0", "0", "1", "2", "3", "4", "5"], "rt": [6775, 1302, 842, 451, 97], "actions": ["up", "up", "up", "right", "up"], "actionTimes": [10356, 12229, 13651, 14659, 15287], "queries": {"click": {"state": {"target": ["1", "23", "12"], "time": [5112, 7304, 8622]}, "edge": {"target": [], "time": []}}, "mouseover": {"state": {"target": ["0", "1", "1", "23", "12", "12"], "time": [3812, 4178, 4725, 6915, 7700, 8054]}, "edge": {"target": [], "time": []}}, "mouseout": {"state": {"target": ["0", "0", "1", "1", "23", "12", "12"], "time": [3654, 4092, 4264, 5347, 7584, 7756, 9300]}, "edge": {"target": [], "time": []}}}, "displayed_time": "17.60", "trialTime": 21399, "trial_type": "mouselab-mdp", "trial_index": 13, "time_elapsed": 1069333, "internal_node_id": "0.0-4.0-1.0-4.0"}}, {"uniqueid": "w69049002:a22499241", "current_trial": 14, "dateTime": 1691160920905, "trialdata": {"revealed_states": [], "clicked_states": ["1", "23", "12"], "num_clicks_accrued": [0, 0, 0, 0, 0, 0, 0, 0, 0, 0, 0, 0, 0], "stateRewards": ["", -1, -3, 3, 5, 56, 39, 50, -1, -80, 33, -46, 1, -2, -6, -8, 87, 48, 54, -11, -20, -64, -54, -2, 3, -7, -3, 12, 88, 35, -16, -46, -70, -3], "withholdReward": false, "trial_id": "mdp_trial_6", "block": "test", "trialIndex": 7, "score": 72.75, "costs": 0.75, "simulationMode": [null, null, null, null, null], "rewards": [1, -2, -6, -8, 87], "path": ["0", "0", "12", "13", "14", "15", "16"], "rt": [5519, 282, 316, 362, 798], "actions": ["right", "right", "right", "up", "up"], "actionTimes": [9673, 10573, 11421, 12329, 13659], "queries": {"click": {"state": {"target": ["1", "23", "12"], "time": [5605, 6974, 8267]}, "edge": {"target": [], "time": []}}, "mouseover": {"state": {"target": ["1", "1", "23", "23", "23", "0", "12", "12"], "time": [4853, 5204, 5926, 6175, 6553, 7298, 7414, 7743]}, "edge": {"target": [], "time": []}}, "mouseout": {"state": {"target": ["12", "1", "1", "23", "23", "23", "0", "12", "12", "12"], "time": [1706, 4900, 5912, 5989, 6236, 7282, 7356, 7478, 8482, 8746]}, "edge": {"target": [], "time": []}}}, "displayed_time": "18.16", "trialTime": 19835, "trial_type": "mouselab-mdp", "trial_index": 14, "time_elapsed": 1091195, "internal_node_id": "0.0-4.0-1.0-5.0"}}, {"uniqueid": "w69049002:a22499241", "current_trial": 15, "dateTime": 1691160948650, "trialdata": {"revealed_states": [], "clicked_states": ["23", "1", "12"], "num_clicks_accrued": [0, 0, 0, 0, 0, 0, 0, 0, 0, 0, 0, 0, 0], "stateRewards": ["", -1, -3, -3, 1, -38, 2, -53, -2, -1, -81, 70, -1, 1, -5, -9, 46, 15, 35, -1, -22, 38, 59, -2, 4, -8, 13, 1, -83, -43, 4, 76, 13, 48], "withholdReward": false, "trial_id": "mdp_trial_7", "block": "test", "trialIndex": 8, "score": -58.25, "costs": 0.75, "simulationMode": [null, null, null, null, null], "rewards": [-1, -3, -3, 1, -53], "path": ["0", "0", "1", "2", "3", "4", "7"], "rt": [4999, 257, 205, 65, 194], "actions": ["up", "up", "up", "right", "down"], "actionTimes": [12808, 13617, 14375, 14995, 15744], "queries": {"click": {"state": {"target": ["23", "1", "12"], "time": [8839, 9972, 11164]}, "edge": {"target": [], "time": []}}, "mouseover": {"state": {"target": ["23", "1", "1", "12", "12"], "time": [8342, 9111, 9527, 10461, 10764]}, "edge": {"target": [], "time": []}}, "mouseout": {"state": {"target": ["0", "23", "0", "0", "23", "1", "1", "12", "12", "12"], "time": [2402, 3918, 5518, 7859, 9058, 9167, 10194, 10527, 11382, 11747]}, "edge": {"target": [], "time": []}}}, "displayed_time": "21.81", "trialTime": 25680, "trial_type": "mouselab-mdp", "trial_index": 15, "time_elapsed": 1118941, "internal_node_id": "0.0-4.0-1.0-6.0"}}, {"uniqueid": "w69049002:a22499241", "current_trial": 16, "dateTime": 1691160972805, "trialdata": {"revealed_states": [], "clicked_states": ["23", "1", "12"], "num_clicks_accrued": [0, 0, 0, 0, 0, 0, 0, 0, 0, 0, 0, 0, 0], "stateRewards": ["", -1, 1, -2, 5, 73, 15, 61, 8, 7, 38, 76, 2, 2, -4, -6, -6, -26, 43, -5, -45, -85, -35, -2, 1, -4, 15, -10, 69, 72, -11, 84, -49, -38], "withholdReward": false, "trial_id": "mdp_trial_8", "block": "test", "trialIndex": 9, "score": -39.25, "costs": 0.75, "simulationMode": [null, null, null, null, null], "rewards": [2, 2, -4, -5, -35], "path": ["0", "0", "12", "13", "14", "19", "22"], "rt": [5086, 423, 347, 334, 535], "actions": ["right", "right", "right", "down", "left"], "actionTimes": [9437, 10419, 11301, 12188, 13269], "queries": {"click": {"state": {"target": ["23", "1", "12"], "time": [5367, 6517, 7623]}, "edge": {"target": [], "time": []}}, "mouseover": {"state": {"target": ["23", "23", "1", "12"], "time": [4446, 4855, 5777, 7057]}, "edge": {"target": [], "time": []}}, "mouseout": {"state": {"target": ["0", "23", "23", "1", "12"], "time": [4433, 4743, 5682, 6976, 8662]}, "edge": {"target": [], "time": []}}}, "displayed_time": "18.35", "trialTime": 22073, "trial_type": "mouselab-mdp", "trial_index": 16, "time_elapsed": 1143097, "internal_node_id": "0.0-4.0-1.0-7.0"}}, {"uniqueid": "w69049002:a22499241", "current_trial": 17, "dateTime": 1691160995490, "trialdata": {"revealed_states": [], "clicked_states": ["23", "1", "12"], "num_clicks_accrued": [0, 0, 0, 0, 0, 0, 0, 0, 0, 0, 0, 0, 0], "stateRewards": ["", -1, -4, -1, -5, -28, -23, -15, -15, -38, 59, -87, 2, 2, -5, 9, -55, -39, -71, -6, 85, -85, -11, -1, -2, 5, -10, 1, 25, 41, -4, 69, -35, 86], "withholdReward": false, "trial_id": "mdp_trial_9", "block": "test", "trialIndex": 10, "score": 17.75, "costs": 0.75, "simulationMode": [null, null, null, null, null], "rewards": [-1, -2, 5, -10, 25], "path": ["0", "0", "23", "24", "25", "26", "28"], "rt": [4861, 288, 1173, 491, 272], "actions": ["left", "left", "left", "up", "right"], "actionTimes": [7937, 8791, 10497, 11555, 12399], "queries": {"click": {"state": {"target": ["23", "1", "12"], "time": [4425, 5426, 6551]}, "edge": {"target": [], "time": []}}, "mouseover": {"state": {"target": ["0", "23", "1", "12", "0"], "time": [3356, 3921, 4821, 6134, 7105]}, "edge": {"target": [], "time": []}}, "mouseout": {"state": {"target": ["0", "0", "23", "1", "12", "0"], "time": [3163, 3395, 4757, 5850, 6784, 7164]}, "edge": {"target": [], "time": []}}}, "displayed_time": "17.08", "trialTime": 20522, "trial_type": "mouselab-mdp", "trial_index": 17, "time_elapsed": 1165780, "internal_node_id": "0.0-4.0-1.0-8.0"}}, {"uniqueid": "w69049002:a22499241", "current_trial": 18, "dateTime": 1691161016974, "trialdata": {"revealed_states": [], "clicked_states": ["1", "2", "7"], "num_clicks_accrued": [0, 0, 0, 0, 0, 0, 0, 0, 0, 0, 0, 0, 0], "stateRewards": ["", 2, -1, 3, -12, -83, 6, -33, 9, 28, 24, -50, -2, -1, -2, -5, -87, 37, 82, 12, 80, -5, 10, -2, -3, -6, 9, 22, -1, 16, 9, 77, -62, 58], "withholdReward": false, "trial_id": "mdp_trial_10", "block": "test", "trialIndex": 11, "score": 38.75, "costs": -2.25, "simulationMode": [null, null, null, null, null], "rewards": [2, -1, 3, 9, 28], "path": ["0", "0", "1", "2", "3", "8", "9"], "rt": [5957, 258, 320, 419, 209], "actions": ["up", "up", "up", "left", "up"], "actionTimes": [9179, 10019, 10862, 11833, 12578], "queries": {"click": {"state": {"target": ["1", "2", "7"], "time": [4542, 5336, 6339]}, "edge": {"target": [], "time": []}}, "mouseover": {"state": {"target": ["0", "1", "1", "2", "7"], "time": [3293, 3871, 4119, 4919, 5943]}, "edge": {"target": [], "time": []}}, "mouseout": {"state": {"target": ["0", "0", "1", "1", "2", "7", "0"], "time": [1133, 3785, 3936, 4862, 5844, 7789, 18720]}, "edge": {"target": [], "time": []}}}, "displayed_time": "17.23", "trialTime": 19263, "trial_type": "mouselab-mdp", "trial_index": 18, "time_elapsed": 1187264, "internal_node_id": "0.0-4.0-1.0-9.0"}}, {"uniqueid": "w69049002:a22499241", "current_trial": 19, "dateTime": 1691161049243, "trialdata": {"revealed_states": [], "clicked_states": ["13", "24", "2"], "num_clicks_accrued": [0, 0, 0, 0, 0, 0, 0, 0, 0, 0, 0, 0, 0], "stateRewards": ["", 2, -1, 8, -2, -16, 69, -39, -7, -13, -27, -86, 2, -2, 2, 13, -34, -16, -20, -5, 19, 81, 32, -2, -1, 2, -14, 20, 80, 58, 4, 70, 12, 73], "withholdReward": false, "trial_id": "mdp_trial_11", "block": "test", "trialIndex": 12, "score": -2.0500000000000007, "costs": -1.0499999999999998, "simulationMode": [null, null, null, null, null], "rewards": [2, -2, 2, 13, -16], "path": ["0", "0", "12", "13", "14", "15", "17"], "rt": [6547, 515, 236, 311, 115], "actions": ["right", "right", "right", "up", "right"], "actionTimes": [9930, 10981, 11756, 12590, 13236], "queries": {"click": {"state": {"target": ["13", "24", "2"], "time": [4799, 5883, 7273]}, "edge": {"target": [], "time": []}}, "mouseover": {"state": {"target": ["0", "12", "13", "13", "12", "24", "1", "2", "1"], "time": [3444, 3999, 4110, 4368, 5110, 5456, 6295, 6916, 8134]}, "edge": {"target": [], "time": []}}, "mouseout": {"state": {"target": ["0", "0", "12", "13", "13", "12", "24", "1", "2", "2", "1", "0"], "time": [1098, 3959, 4055, 4245, 5083, 5214, 6057, 6359, 7501, 8001, 8214, 27878]}, "edge": {"target": [], "time": []}}}, "displayed_time": "17.39", "trialTime": 30021, "trial_type": "mouselab-mdp", "trial_index": 19, "time_elapsed": 1219533, "internal_node_id": "0.0-4.0-1.0-10.0"}}, {"uniqueid": "w69049002:a22499241", "current_trial": 20, "dateTime": 1691161077781, "trialdata": {"revealed_states": [], "clicked_states": ["5", "6"], "num_clicks_accrued": [0, 0, 0, 0, 0, 0, 0, 0, 0, 0, 0, 0, 0], "stateRewards": ["", -1, 1, -1, 2, 19, 85, -18, 2, -3, -26, 36, 2, 4, 7, -9, -18, 70, 72, -5, 35, -20, -28, 1, -2, -4, -3, -59, -11, -63, -2, -72, 59, -69], "withholdReward": false, "trial_id": "mdp_trial_12", "block": "test", "trialIndex": 13, "score": 32.7, "costs": -4.3, "simulationMode": [null, null, null, null, null], "rewards": [-1, 1, -1, 2, 36], "path": ["0", "0", "1", "2", "3", "8", "11"], "rt": [7654, 201, 359, 48, 200], "actions": ["up", "up", "up", "left", "left"], "actionTimes": [10610, 11373, 12292, 12884, 13685], "queries": {"click": {"state": {"target": ["5", "6"], "time": [4023, 7520]}, "edge": {"target": [], "time": []}}, "mouseover": {"state": {"target": ["4", "5", "4", "7", "6", "7"], "time": [3019, 3601, 4392, 4973, 6385, 8067]}, "edge": {"target": [], "time": []}}, "mouseout": {"state": {"target": ["0", "4", "5", "4", "7", "6"], "time": [147, 3121, 4333, 4637, 5712, 7960]}, "edge": {"target": [], "time": []}}}, "displayed_time": "16.96", "trialTime": 25677, "trial_type": "mouselab-mdp", "trial_index": 20, "time_elapsed": 1248073, "internal_node_id": "0.0-4.0-1.0-11.0"}}, {"uniqueid": "w69049002:a22499241", "current_trial": 21, "dateTime": 1691161113914, "trialdata": {"revealed_states": [], "clicked_states": ["13", "17", "20"], "num_clicks_accrued": [0, 0, 0, 0, 0, 0, 0, 0, 0, 0, 0, 0, 0], "stateRewards": ["", -1, 3, 8, 10, -86, 61, -36, 10, 17, -60, 24, -1, -3, 3, 11, 50, 60, 33, -3, -20, 58, -6, 1, -4, -4, 13, -70, -71, 43, 14, 52, 82, -11], "withholdReward": false, "trial_id": "mdp_trial_13", "block": "test", "trialIndex": 14, "score": 65.35, "costs": -4.65, "simulationMode": [null, null, null, null, null], "rewards": [-1, -3, 3, 11, 60], "path": ["0", "0", "12", "13", "14", "15", "17"], "rt": [11738, 110, 206, 145, 465], "actions": ["right", "right", "right", "up", "right"], "actionTimes": [19568, 20214, 20946, 21640, 22661], "queries": {"click": {"state": {"target": ["13", "17", "20"], "time": [9485, 10765, 15059]}, "edge": {"target": [], "time": []}}, "mouseover": {"state": {"target": ["13", "13", "15", "17", "20"], "time": [8651, 9049, 10031, 10364, 11726]}, "edge": {"target": [], "time": []}}, "mouseout": {"state": {"target": ["7", "0", "0", "13", "13", "15", "17", "20"], "time": [2826, 4309, 7940, 8695, 9708, 10091, 11495, 15529]}, "edge": {"target": [], "time": []}}}, "displayed_time": "23.21", "trialTime": 33907, "trial_type": "mouselab-mdp", "trial_index": 21, "time_elapsed": 1284204, "internal_node_id": "0.0-4.0-1.0-12.0"}}, {"uniqueid": "w69049002:a22499241", "current_trial": 22, "dateTime": 1691161150340, "trialdata": {"revealed_states": [], "clicked_states": ["9", "11"], "num_clicks_accrued": [0, 0, 0, 0, 0, 0, 0, 0, 0, 0, 0, 0, 0], "stateRewards": ["", 2, 4, -6, -13, -75, -81, 30, 7, 5, 59, -65, -1, -1, 7, 14, -38, 36, -41, 1, -54, -5, 64, 2, -1, 5, 6, -19, 79, 11, 16, -33, -50, 58], "withholdReward": false, "trial_id": "mdp_trial_14", "block": "test", "trialIndex": 15, "score": 7.7, "costs": -4.3, "simulationMode": [null, null, null, null, null], "rewards": [2, 4, -6, 7, 5], "path": ["0", "0", "1", "2", "3", "8", "9"], "rt": [15081, 161, 206, 1925, 180], "actions": ["up", "up", "up", "left", "up"], "actionTimes": [23830, 24522, 25259, 27721, 28435], "queries": {"click": {"state": {"target": ["9", "11"], "time": [10885, 15644]}, "edge": {"target": [], "time": []}}, "mouseover": {"state": {"target": ["1", "2", "9", "9", "8", "11", "10", "11", "10", "0"], "time": [9017, 9440, 9648, 10491, 11262, 11613, 12583, 14330, 16163, 19826]}, "edge": {"target": [], "time": []}}, "mouseout": {"state": {"target": ["0", "1", "2", "1", "0", "1", "2", "9", "9", "8", "11", "10", "11", "10", "0"], "time": [2945, 3713, 4711, 5028, 8897, 9134, 9567, 9792, 11206, 11338, 12445, 14070, 16104, 19258, 20079]}, "edge": {"target": [], "time": []}}}, "displayed_time": "28.98", "trialTime": 34036, "trial_type": "mouselab-mdp", "trial_index": 22, "time_elapsed": 1320630, "internal_node_id": "0.0-4.0-1.0-13.0"}}, {"uniqueid": "w69049002:a22499241", "current_trial": 23, "dateTime": 1691161174823, "trialdata": {"revealed_states": [], "clicked_states": ["29", "27"], "num_clicks_accrued": [0, 0, 0, 0, 0, 0, 0, 0, 0, 0, 0, 0, 0], "stateRewards": ["", 1, 4, 5, 8, -55, -11, 8, 16, -37, 77, -22, -2, 3, -8, -10, 45, 87, -67, 4, 17, -33, -22, -1, -3, 7, 6, -39, -85, 75, -1, 7, -48, 45], "withholdReward": false, "trial_id": "mdp_trial_15", "block": "test", "trialIndex": 16, "score": 79.7, "costs": -4.3, "simulationMode": [null, null, null, null, null], "rewards": [-1, -3, 7, 6, 75], "path": ["0", "0", "23", "24", "25", "26", "29"], "rt": [8998, 218, 317, 186, 68], "actions": ["left", "left", "left", "up", "left"], "actionTimes": [13566, 14329, 15190, 15902, 16515], "queries": {"click": {"state": {"target": ["29", "27"], "time": [5872, 9461]}, "edge": {"target": [], "time": []}}, "mouseover": {"state": {"target": ["23", "29", "25", "33", "26", "27"], "time": [4824, 5372, 6503, 6935, 8250, 8582]}, "edge": {"target": [], "time": []}}, "mouseout": {"state": {"target": ["0", "0", "23", "29", "25", "33", "26"], "time": [2314, 4635, 4991, 6333, 6787, 7951, 8311]}, "edge": {"target": [], "time": []}}}, "displayed_time": "18.57", "trialTime": 22070, "trial_type": "mouselab-mdp", "trial_index": 23, "time_elapsed": 1345111, "internal_node_id": "0.0-4.0-1.0-14.0"}}, {"uniqueid": "w69049002:a22499241", "current_trial": 24, "dateTime": 1691161203496, "trialdata": {"revealed_states": [], "clicked_states": ["6", "5", "7"], "num_clicks_accrued": [0, 0, 0, 0, 0, 0, 0, 0, 0, 0, 0, 0, 0], "stateRewards": ["", -1, 3, -5, -2, -13, -9, -34, -7, -81, 32, 35, -2, -2, 1, -14, -32, 81, 7, 4, 82, 56, -8, -1, 3, -8, 6, -24, -24, -53, 2, 38, 61, 54], "withholdReward": false, "trial_id": "mdp_trial_16", "block": "test", "trialIndex": 17, "score": -97.45, "costs": -6.449999999999999, "simulationMode": [null, null, null, null, null], "rewards": [-1, 3, -5, -7, -81], "path": ["0", "0", "1", "2", "3", "8", "9"], "rt": [12629, 299, 144, 726, 806], "actions": ["up", "up", "up", "left", "up"], "actionTimes": [16314, 17158, 17867, 19118, 20487], "queries": {"click": {"state": {"target": ["6", "5", "7"], "time": [5552, 8906, 11919]}, "edge": {"target": [], "time": []}}, "mouseover": {"state": {"target": ["7", "6", "7", "4", "5", "4", "7", "1", "23", "24", "25", "30", "31"], "time": [4874, 4996, 6039, 7014, 7228, 9511, 9832, 12438, 12558, 12804, 12929, 13092, 13443]}, "edge": {"target": [], "time": []}}, "mouseout": {"state": {"target": ["27", "23", "0", "7", "6", "7", "4", "5", "4", "7", "1", "23", "24", "25", "30", "31"], "time": [811, 958, 4786, 4927, 5908, 6997, 7117, 9496, 9577, 12168, 12496, 12723, 12900, 13076, 13309, 13547]}, "edge": {"target": [], "time": []}}}, "displayed_time": "21.03", "trialTime": 26243, "trial_type": "mouselab-mdp", "trial_index": 24, "time_elapsed": 1373786, "internal_node_id": "0.0-4.0-1.0-15.0"}}, {"uniqueid": "w69049002:a22499241", "current_trial": 25, "dateTime": 1691161229655, "trialdata": {"revealed_states": [], "clicked_states": ["17", "21", "20"], "num_clicks_accrued": [0, 0, 0, 0, 0, 0, 0, 0, 0, 0, 0, 0, 0], "stateRewards": ["", -2, 3, 8, -9, 59, 41, -50, -1, 82, 66, 33, 2, -2, 7, 8, 1, -38, 12, -16, 24, -37, 67, 1, 4, -2, 5, 35, -83, 28, 8, -27, 69, -64], "withholdReward": false, "trial_id": "mdp_trial_17", "block": "test", "trialIndex": 18, "score": 8.55, "costs": -6.449999999999999, "simulationMode": [null, null, null, null, null], "rewards": [2, -2, 7, -16, 24], "path": ["0", "0", "12", "13", "14", "19", "20"], "rt": [12545, 253, 225, 253, 209], "actions": ["right", "right", "right", "down", "right"], "actionTimes": [16076, 16883, 17635, 18413, 19149], "queries": {"click": {"state": {"target": ["17", "21", "20"], "time": [4926, 8013, 11445]}, "edge": {"target": [], "time": []}}, "mouseover": {"state": {"target": ["12", "13", "14", "17", "20", "21", "20"], "time": [4021, 4112, 4187, 4348, 5727, 7225, 9038]}, "edge": {"target": [], "time": []}}, "mouseout": {"state": {"target": ["0", "12", "13", "14", "17", "20", "21"], "time": [3970, 4067, 4164, 4234, 5339, 6797, 8585]}, "edge": {"target": [], "time": []}}}, "displayed_time": "19.68", "trialTime": 23691, "trial_type": "mouselab-mdp", "trial_index": 25, "time_elapsed": 1399945, "internal_node_id": "0.0-4.0-1.0-16.0"}}, {"uniqueid": "w69049002:a22499241", "current_trial": 26, "dateTime": 1691161253479, "trialdata": {"revealed_states": [], "clicked_states": ["29", "28", "27"], "num_clicks_accrued": [0, 0, 0, 0, 0, 0, 0, 0, 0, 0, 0, 0, 0], "stateRewards": ["", 1, 2, -3, 6, -88, 74, -45, 7, -46, 40, -77, 1, -4, 4, 3, 22, -25, -59, 8, -83, 19, -60, -1, -1, -1, -8, 26, -29, 64, -7, -88, -51, -55], "withholdReward": false, "trial_id": "mdp_trial_18", "block": "test", "trialIndex": 19, "score": 46.55, "costs": -6.449999999999999, "simulationMode": [null, null, null, null, null], "rewards": [-1, -1, -1, -8, 64], "path": ["0", "0", "23", "24", "25", "26", "29"], "rt": [11048, 9, 10, 189, 621], "actions": ["left", "left", "left", "up", "left"], "actionTimes": [14480, 15036, 15602, 16347, 17499], "queries": {"click": {"state": {"target": ["29", "28", "27"], "time": [5059, 8249, 11128]}, "edge": {"target": [], "time": []}}, "mouseover": {"state": {"target": ["28", "29", "27", "24", "28", "27"], "time": [3758, 4623, 5468, 7522, 7731, 8866]}, "edge": {"target": [], "time": []}}, "mouseout": {"state": {"target": ["20", "17", "15", "18", "12", "0", "28", "29", "27", "24", "28"], "time": [217, 529, 609, 677, 862, 3624, 3875, 5402, 7448, 7669, 8470]}, "edge": {"target": [], "time": []}}}, "displayed_time": "18.05", "trialTime": 21353, "trial_type": "mouselab-mdp", "trial_index": 26, "time_elapsed": 1423768, "internal_node_id": "0.0-4.0-1.0-17.0"}}, {"uniqueid": "w69049002:a22499241", "current_trial": 27, "dateTime": 1691161277468, "trialdata": {"revealed_states": [], "clicked_states": ["33", "32", "31"], "num_clicks_accrued": [0, 0, 0, 0, 0, 0, 0, 0, 0, 0, 0, 0, 0], "stateRewards": ["", 2, -3, -4, -1, 25, -16, 16, 10, -71, -20, -55, 1, 3, -4, -9, 1, 32, 11, -6, 32, -50, -41, -1, 4, 4, -8, 7, -81, 70, 2, -52, 45, -10], "withholdReward": false, "trial_id": "mdp_trial_19", "block": "test", "trialIndex": 20, "score": 47.55, "costs": -6.449999999999999, "simulationMode": [null, null, null, null, null], "rewards": [-1, 4, 4, 2, 45], "path": ["0", "0", "23", "24", "25", "30", "32"], "rt": [11643, 207, 456, 275, 130], "actions": ["left", "left", "left", "down", "down"], "actionTimes": [14774, 15524, 16526, 17341, 18015], "queries": {"click": {"state": {"target": ["33", "32", "31"], "time": [5221, 8444, 11614]}, "edge": {"target": [], "time": []}}, "mouseover": {"state": {"target": ["23", "30", "33", "32", "31"], "time": [4283, 4433, 4767, 5627, 9060]}, "edge": {"target": [], "time": []}}, "mouseout": {"state": {"target": ["10", "1", "23", "30", "33", "32"], "time": [109, 945, 4335, 4475, 5573, 8943]}, "edge": {"target": [], "time": []}}}, "displayed_time": "18.54", "trialTime": 21479, "trial_type": "mouselab-mdp", "trial_index": 27, "time_elapsed": 1447759, "internal_node_id": "0.0-4.0-1.0-18.0"}}, {"uniqueid": "w69049002:a22499241", "current_trial": 28, "dateTime": 1691161303782, "trialdata": {"revealed_states": [], "clicked_states": ["5", "6", "7"], "num_clicks_accrued": [0, 0, 0, 0, 0, 0, 0, 0, 0, 0, 0, 0, 0], "stateRewards": ["", -1, -4, -6, -15, 21, -67, -63, 9, 51, 69, -14, -1, 3, 8, -8, 39, 72, 63, 15, 19, 47, 15, 1, 4, 5, 16, -18, 34, 35, -14, -80, 40, 1], "withholdReward": false, "trial_id": "mdp_trial_20", "block": "test", "trialIndex": 21, "score": -11.450000000000003, "costs": -6.449999999999999, "simulationMode": [null, null, null, null, null], "rewards": [-1, -4, -6, -15, 21], "path": ["0", "0", "1", "2", "3", "4", "5"], "rt": [11621, 189, 269, 429, 90], "actions": ["up", "up", "up", "right", "up"], "actionTimes": [14295, 15041, 15860, 16818, 17449], "queries": {"click": {"state": {"target": ["5", "6", "7"], "time": [4053, 7305, 10575]}, "edge": {"target": [], "time": []}}, "mouseover": {"state": {"target": ["7", "5", "6", "7"], "time": [3192, 3695, 4781, 7836]}, "edge": {"target": [], "time": []}}, "mouseout": {"state": {"target": ["31", "0", "12", "12", "0", "7", "5", "6", "7"], "time": [412, 493, 537, 845, 2743, 3281, 4593, 7743, 21160]}, "edge": {"target": [], "time": []}}}, "displayed_time": "18.02", "trialTime": 23633, "trial_type": "mouselab-mdp", "trial_index": 28, "time_elapsed": 1474073, "internal_node_id": "0.0-4.0-1.0-19.0"}}, {"uniqueid": "w69049002:a22499241", "current_trial": 29, "dateTime": 1691161330915, "trialdata": {"revealed_states": [], "clicked_states": ["17", "18", "16"], "num_clicks_accrued": [0, 0, 0, 0, 0, 0, 0, 0, 0, 0, 0, 0, 0], "stateRewards": ["", -1, -3, 1, 13, -64, -29, 12, -4, -33, 50, 56, 2, -3, 4, 11, -64, -58, -55, 12, 47, 38, -25, -2, 2, 5, -15, 85, 7, 84, 10, 8, 57, 26], "withholdReward": false, "trial_id": "mdp_trial_21", "block": "test", "trialIndex": 22, "score": 55.55, "costs": -6.449999999999999, "simulationMode": [null, null, null, null, null], "rewards": [2, -3, 4, 12, 47], "path": ["0", "0", "12", "13", "14", "19", "20"], "rt": [14006, 211, 146, 780, 175], "actions": ["right", "right", "right", "down", "right"], "actionTimes": [17022, 17811, 18489, 19808, 20539], "queries": {"click": {"state": {"target": ["17", "18", "16"], "time": [4710, 8148, 11669]}, "edge": {"target": [], "time": []}}, "mouseover": {"state": {"target": ["12", "17", "15", "16", "18", "15", "16"], "time": [3752, 4229, 5257, 5339, 6810, 9495, 10318]}, "edge": {"target": [], "time": []}}, "mouseout": {"state": {"target": ["12", "0", "12", "17", "15", "16", "18", "15"], "time": [445, 3672, 3819, 5148, 5321, 6172, 9460, 10157]}, "edge": {"target": [], "time": []}}}, "displayed_time": "21.07", "trialTime": 24624, "trial_type": "mouselab-mdp", "trial_index": 29, "time_elapsed": 1501206, "internal_node_id": "0.0-4.0-1.0-20.0"}}, {"uniqueid": "w69049002:a22499241", "current_trial": 30, "dateTime": 1691161357697, "trialdata": {"revealed_states": [], "clicked_states": ["27", "29", "24"], "num_clicks_accrued": [0, 0, 0, 0, 0, 0, 0, 0, 0, 0, 0, 0, 0], "stateRewards": ["", 1, -4, -6, 11, -20, 8, -30, 1, -38, 88, 42, 2, 3, 5, -12, -8, -74, 30, -8, 67, -19, 42, 2, -1, 4, 13, 50, -68, 2, -8, -15, 87, -46], "withholdReward": false, "trial_id": "mdp_trial_22", "block": "test", "trialIndex": 23, "score": 63.35, "costs": -4.6499999999999995, "simulationMode": [null, null, null, null, null], "rewards": [2, -1, 4, 13, 50], "path": ["0", "0", "23", "24", "25", "26", "27"], "rt": [11537, 670, 177, 316, 34], "actions": ["left", "left", "left", "up", "up"], "actionTimes": [14822, 16072, 16803, 17655, 18240], "queries": {"click": {"state": {"target": ["27", "29", "24"], "time": [4883, 8191, 12587]}, "edge": {"target": [], "time": []}}, "mouseover": {"state": {"target": ["28", "26", "27", "29", "24"], "time": [4141, 4251, 4428, 5553, 11244]}, "edge": {"target": [], "time": []}}, "mouseout": {"state": {"target": ["16", "0", "28", "26", "27", "27", "29"], "time": [1016, 4054, 4186, 4331, 5096, 5426, 10866]}, "edge": {"target": [], "time": []}}}, "displayed_time": "18.77", "trialTime": 24361, "trial_type": "mouselab-mdp", "trial_index": 30, "time_elapsed": 1527988, "internal_node_id": "0.0-4.0-1.0-21.0"}}, {"uniqueid": "w69049002:a22499241", "current_trial": 31, "dateTime": 1691161385755, "trialdata": {"revealed_states": [], "clicked_states": ["33", "32", "31"], "num_clicks_accrued": [0, 0, 0, 0, 0, 0, 0, 0, 0, 0, 0, 0, 0], "stateRewards": ["", -1, -4, 8, 8, -68, 47, 24, -7, -61, 49, -69, -1, -1, 8, -7, 42, 1, -45, -11, 10, -63, -6, 1, 4, 6, -16, 79, -37, -58, -12, 81, 18, -53], "withholdReward": false, "trial_id": "mdp_trial_23", "block": "test", "trialIndex": 24, "score": 73.55, "costs": -6.449999999999999, "simulationMode": [null, null, null, null, null], "rewards": [1, 4, 6, -12, 81], "path": ["0", "0", "23", "24", "25", "30", "31"], "rt": [13012, 227, 339, 280, 344], "actions": ["left", "left", "left", "down", "right"], "actionTimes": [17942, 18714, 19626, 20489, 21423], "queries": {"click": {"state": {"target": ["33", "32", "31"], "time": [6932, 10237, 14663]}, "edge": {"target": [], "time": []}}, "mouseover": {"state": {"target": ["25", "33", "32", "31"], "time": [6186, 6394, 7602, 13815]}, "edge": {"target": [], "time": []}}, "mouseout": {"state": {"target": ["24", "23", "0", "0", "25", "33", "32"], "time": [1999, 2131, 2271, 5939, 6306, 7132, 13699]}, "edge": {"target": [], "time": []}}}, "displayed_time": "21.99", "trialTime": 25311, "trial_type": "mouselab-mdp", "trial_index": 31, "time_elapsed": 1556045, "internal_node_id": "0.0-4.0-1.0-22.0"}}, {"uniqueid": "w69049002:a22499241", "current_trial": 32, "dateTime": 1691161416031, "trialdata": {"revealed_states": [], "clicked_states": ["9", "11", "10"], "num_clicks_accrued": [0, 0, 0, 0, 0, 0, 0, 0, 0, 0, 0, 0, 0], "stateRewards": ["", -1, -3, -7, -4, -85, -70, 79, 8, 84, -66, 42, 2, -2, -3, -16, -54, -66, 68, -3, 21, -14, 7, -2, -1, -3, -8, 75, 80, 86, -7, -84, 73, -16], "withholdReward": false, "trial_id": "mdp_trial_24", "block": "test", "trialIndex": 25, "score": 74.55, "costs": -6.449999999999999, "simulationMode": [null, null, null, null, null], "rewards": [-1, -3, -7, 8, 84], "path": ["0", "0", "1", "2", "3", "8", "9"], "rt": [12203, 172, 310, 276, 137], "actions": ["up", "up", "up", "left", "up"], "actionTimes": [19622, 20366, 21211, 22043, 22729], "queries": {"click": {"state": {"target": ["9", "11", "10"], "time": [8862, 12156, 15939]}, "edge": {"target": [], "time": []}}, "mouseover": {"state": {"target": ["2", "9", "11", "11", "10"], "time": [8078, 8274, 9331, 9707, 15120]}, "edge": {"target": [], "time": []}}, "mouseout": {"state": {"target": ["31", "0", "0", "2", "9", "11", "11"], "time": [4070, 4762, 8030, 8134, 9267, 9392, 14881]}, "edge": {"target": [], "time": []}}}, "displayed_time": "23.26", "trialTime": 27741, "trial_type": "mouselab-mdp", "trial_index": 32, "time_elapsed": 1586321, "internal_node_id": "0.0-4.0-1.0-23.0"}}, {"uniqueid": "w69049002:a22499241", "current_trial": 33, "dateTime": 1691161446878, "trialdata": {"revealed_states": [], "clicked_states": ["6", "7", "5"], "num_clicks_accrued": [0, 0, 0, 0, 0, 0, 0, 0, 0, 0, 0, 0, 0], "stateRewards": ["", 2, -1, 4, -9, -43, 7, 54, -13, 38, -40, -83, -1, 2, -8, -10, 34, -33, 11, -14, -79, 65, 26, 1, 2, 4, 10, 21, 1, 86, 4, -53, 28, -29], "withholdReward": false, "trial_id": "mdp_trial_25", "block": "test", "trialIndex": 26, "score": 43.55, "costs": -6.449999999999999, "simulationMode": [null, null, null, null, null], "rewards": [2, -1, 4, -9, 54], "path": ["0", "0", "1", "2", "3", "4", "7"], "rt": [12219, 1211, 253, 485, 427], "actions": ["up", "up", "up", "right", "down"], "actionTimes": [17521, 19934, 20736, 21826, 22782], "queries": {"click": {"state": {"target": ["6", "7", "5"], "time": [6920, 10174, 13652]}, "edge": {"target": [], "time": []}}, "mouseover": {"state": {"target": ["6", "7", "4", "5"], "time": [6293, 7909, 12474, 12861]}, "edge": {"target": [], "time": []}}, "mouseout": {"state": {"target": ["10", "18", "14", "0", "6", "7", "4"], "time": [2213, 2270, 2433, 6069, 7555, 12312, 12688]}, "edge": {"target": [], "time": []}}}, "displayed_time": "23.38", "trialTime": 28131, "trial_type": "mouselab-mdp", "trial_index": 33, "time_elapsed": 1617168, "internal_node_id": "0.0-4.0-1.0-24.0"}}, {"uniqueid": "w69049002:a22499241", "current_trial": 34, "dateTime": 1691161474290, "trialdata": {"revealed_states": [], "clicked_states": ["28", "29", "27"], "num_clicks_accrued": [0, 0, 0, 0, 0, 0, 0, 0, 0, 0, 0, 0, 0], "stateRewards": ["", 1, 4, -8, -5, -15, -7, 21, 13, -30, 40, -65, 1, 1, 5, -14, 35, 27, -38, -11, 36, -58, -47, -2, 4, -3, 13, -16, -49, 22, 15, -56, -44, -10], "withholdReward": false, "trial_id": "mdp_trial_26", "block": "test", "trialIndex": 27, "score": 27.55, "costs": -6.449999999999999, "simulationMode": [null, null, null, null, null], "rewards": [-2, 4, -3, 13, 22], "path": ["0", "0", "23", "24", "25", "26", "29"], "rt": [12897, 1052, 566, 343, 296], "actions": ["left", "left", "left", "up", "left"], "actionTimes": [17453, 19047, 20187, 21099, 21959], "queries": {"click": {"state": {"target": ["28", "29", "27"], "time": [6807, 10133, 13619]}, "edge": {"target": [], "time": []}}, "mouseover": {"state": {"target": ["10", "23", "24", "28", "26", "29", "27"], "time": [5790, 5977, 6103, 6406, 7404, 7811, 12805]}, "edge": {"target": [], "time": []}}, "mouseout": {"state": {"target": ["5", "1", "0", "10", "23", "24", "28", "26", "29"], "time": [803, 1203, 5249, 5839, 6044, 6306, 7387, 7467, 12585]}, "edge": {"target": [], "time": []}}}, "displayed_time": "22.49", "trialTime": 24614, "trial_type": "mouselab-mdp", "trial_index": 34, "time_elapsed": 1644580, "internal_node_id": "0.0-4.0-1.0-25.0"}}, {"uniqueid": "w69049002:a22499241", "current_trial": 35, "dateTime": 1691161512674, "trialdata": {"revealed_states": [], "clicked_states": ["17", "16", "18"], "num_clicks_accrued": [0, 0, 0, 0, 0, 0, 0, 0, 0, 0, 0, 0, 0], "stateRewards": ["", -2, 2, 3, -7, 76, 63, 21, 15, 35, -8, -44, 1, 1, -2, -12, 23, 24, 76, -9, 46, 66, -49, -2, -1, 7, 12, 40, -71, -45, -6, 38, -49, 46], "withholdReward": false, "trial_id": "mdp_trial_27", "block": "test", "trialIndex": 28, "score": 57.55, "costs": -6.449999999999999, "simulationMode": [null, null, null, null, null], "rewards": [1, 1, -2, -12, 76], "path": ["0", "0", "12", "13", "14", "15", "18"], "rt": [14519, 377, 272, 235, 278], "actions": ["right", "right", "right", "up", "left"], "actionTimes": [29461, 30407, 31219, 32016, 32823], "queries": {"click": {"state": {"target": ["17", "16", "18"], "time": [17373, 20725, 24135]}, "edge": {"target": [], "time": []}}, "mouseover": {"state": {"target": ["15", "17", "16", "18"], "time": [16449, 16792, 18142, 21804]}, "edge": {"target": [], "time": []}}, "mouseout": {"state": {"target": ["27", "28", "23", "0", "15", "17", "16", "16", "18"], "time": [12021, 12270, 12486, 16170, 16542, 17871, 20904, 21393, 28015]}, "edge": {"target": [], "time": []}}}, "displayed_time": "33.38", "trialTime": 35788, "trial_type": "mouselab-mdp", "trial_index": 35, "time_elapsed": 1682966, "internal_node_id": "0.0-4.0-1.0-26.0"}}, {"uniqueid": "w69049002:a22499241", "current_trial": 36, "dateTime": 1691161538485, "trialdata": {"revealed_states": [], "clicked_states": ["20", "21", "22"], "num_clicks_accrued": [0, 0, 0, 0, 0, 0, 0, 0, 0, 0, 0, 0, 0], "stateRewards": ["", 2, 3, -3, 12, -43, 81, -82, -15, 58, -7, -75, -1, -1, 3, -5, 50, -25, -8, 4, 66, 65, -66, 2, -4, 2, -1, -10, 10, 37, 11, 88, -37, 8], "withholdReward": false, "trial_id": "mdp_trial_28", "block": "test", "trialIndex": 29, "score": 64.55, "costs": -6.449999999999999, "simulationMode": [null, null, null, null, null], "rewards": [-1, -1, 3, 4, 66], "path": ["0", "0", "12", "13", "14", "19", "20"], "rt": [12754, 128, 615, 307, 221], "actions": ["right", "right", "right", "down", "right"], "actionTimes": [16724, 17413, 18578, 19477, 20222], "queries": {"click": {"state": {"target": ["20", "21", "22"], "time": [6084, 9413, 12904]}, "edge": {"target": [], "time": []}}, "mouseover": {"state": {"target": ["12", "14", "20", "21", "22"], "time": [4956, 5072, 5264, 7222, 12027]}, "edge": {"target": [], "time": []}}, "mouseout": {"state": {"target": ["0", "12", "14", "20", "21"], "time": [4905, 5008, 5182, 6737, 11707]}, "edge": {"target": [], "time": []}}}, "displayed_time": "20.79", "trialTime": 22872, "trial_type": "mouselab-mdp", "trial_index": 36, "time_elapsed": 1708777, "internal_node_id": "0.0-4.0-1.0-27.0"}}, {"uniqueid": "w69049002:a22499241", "current_trial": 37, "dateTime": 1691161566663, "trialdata": {"revealed_states": [], "clicked_states": ["27", "28", "29"], "num_clicks_accrued": [0, 0, 0, 0, 0, 0, 0, 0, 0, 0, 0, 0, 0], "stateRewards": ["", -1, 1, 6, -6, 70, 66, 67, -16, -75, -35, 37, -1, 4, 4, -6, 47, -9, 63, 15, 21, -63, 13, 1, 3, -6, 10, 79, -29, 18, -15, 9, -67, -19], "withholdReward": false, "trial_id": "mdp_trial_29", "block": "test", "trialIndex": 30, "score": 80.55, "costs": -6.449999999999999, "simulationMode": [null, null, null, null, null], "rewards": [1, 3, -6, 10, 79], "path": ["0", "0", "23", "24", "25", "26", "27"], "rt": [13539, 547, 159, 437, 259], "actions": ["left", "left", "left", "up", "up"], "actionTimes": [17874, 19070, 19759, 20726, 21514], "queries": {"click": {"state": {"target": ["27", "28", "29"], "time": [5953, 10227, 14601]}, "edge": {"target": [], "time": []}}, "mouseover": {"state": {"target": ["27", "28", "29", "29"], "time": [5332, 9278, 13558, 14064]}, "edge": {"target": [], "time": []}}, "mouseout": {"state": {"target": ["22", "0", "27", "28", "29"], "time": [1584, 5021, 7681, 11837, 13659]}, "edge": {"target": [], "time": []}}}, "displayed_time": "22.12", "trialTime": 25395, "trial_type": "mouselab-mdp", "trial_index": 37, "time_elapsed": 1736953, "internal_node_id": "0.0-4.0-1.0-28.0"}}, {"uniqueid": "w69049002:a22499241", "current_trial": 38, "dateTime": 1691161592544, "trialdata": {"revealed_states": [], "clicked_states": ["9", "11", "10"], "num_clicks_accrued": [0, 0, 0, 0, 0, 0, 0, 0, 0, 0, 0, 0, 0], "stateRewards": ["", -2, -3, -7, 7, -54, -69, -4, -14, -77, 22, 40, -2, -1, 5, 6, -35, 50, -60, 10, -28, 75, 57, 1, -4, -2, 2, 68, 34, -18, 12, 3, -21, -43], "withholdReward": false, "trial_id": "mdp_trial_30", "block": "test", "trialIndex": 31, "score": 7.549999999999997, "costs": -6.449999999999999, "simulationMode": [null, null, null, null, null], "rewards": [-2, -3, -7, -14, 40], "path": ["0", "0", "1", "2", "3", "8", "11"], "rt": [12952, 325, 124, 378, 133], "actions": ["up", "up", "up", "left", "left"], "actionTimes": [17304, 18218, 18863, 19802, 20498], "queries": {"click": {"state": {"target": ["9", "11", "10"], "time": [5978, 9362, 13479]}, "edge": {"target": [], "time": []}}, "mouseover": {"state": {"target": ["1", "9", "11", "10"], "time": [5127, 5368, 7180, 12949]}, "edge": {"target": [], "time": []}}, "mouseout": {"state": {"target": ["29", "28", "1", "0", "1", "9", "9", "11", "10"], "time": [1274, 1323, 1626, 5057, 5174, 6190, 6793, 12619, 15573]}, "edge": {"target": [], "time": []}}}, "displayed_time": "21.05", "trialTime": 23082, "trial_type": "mouselab-mdp", "trial_index": 38, "time_elapsed": 1762833, "internal_node_id": "0.0-4.0-1.0-29.0"}}, {"uniqueid": "w69049002:a22499241", "current_trial": 39, "dateTime": 1691161620141, "trialdata": {"revealed_states": [], "clicked_states": ["27", "28", "17"], "num_clicks_accrued": [0, 0, 0, 0, 0, 0, 0, 0, 0, 0, 0, 0, 0], "stateRewards": ["", -2, 3, -1, 2, -72, 63, 20, -1, 62, -66, 39, -2, 3, -6, 14, 22, 47, 1, 8, -49, -1, -41, 2, 2, -6, -16, -64, -60, -34, 16, 54, 22, -7], "withholdReward": false, "trial_id": "mdp_trial_31", "block": "test", "trialIndex": 32, "score": 49.55, "costs": -6.449999999999999, "simulationMode": [null, null, null, null, null], "rewards": [-2, 3, -6, 14, 47], "path": ["0", "0", "12", "13", "14", "15", "17"], "rt": [14027, 14, 1241, 214, 385], "actions": ["right", "right", "right", "up", "right"], "actionTimes": [17995, 18549, 20361, 21127, 22046], "queries": {"click": {"state": {"target": ["27", "28", "17"], "time": [5657, 9004, 13567]}, "edge": {"target": [], "time": []}}, "mouseover": {"state": {"target": ["28", "27", "28", "2", "16", "17"], "time": [4980, 5180, 6889, 12546, 12683, 13195]}, "edge": {"target": [], "time": []}}, "mouseout": {"state": {"target": ["23", "0", "28", "27", "28", "2", "16"], "time": [1685, 4782, 5084, 6606, 12475, 12596, 12746]}, "edge": {"target": [], "time": []}}}, "displayed_time": "22.58", "trialTime": 24922, "trial_type": "mouselab-mdp", "trial_index": 39, "time_elapsed": 1790432, "internal_node_id": "0.0-4.0-1.0-30.0"}}, {"uniqueid": "w69049002:a22499241", "current_trial": 40, "dateTime": 1691161650611, "trialdata": {"revealed_states": [], "clicked_states": ["5", "6", "7"], "num_clicks_accrued": [0, 0, 0, 0, 0, 0, 0, 0, 0, 0, 0, 0, 0], "stateRewards": ["", -1, 2, -6, 6, -82, -19, -39, -16, -83, 11, -33, -2, -2, 4, -6, -82, -1, -19, -6, -10, -67, -41, -2, 1, -7, 16, -23, -78, -52, 14, 31, -71, 74], "withholdReward": false, "trial_id": "mdp_trial_32", "block": "test", "trialIndex": 33, "score": -16.45, "costs": -6.449999999999999, "simulationMode": [null, null, null, null, null], "rewards": [-1, 2, -6, -16, 11], "path": ["0", "0", "1", "2", "3", "8", "10"], "rt": [15414, 4, 48, 431, 659], "actions": ["up", "up", "up", "left", "down"], "actionTimes": [19103, 19665, 20274, 21296, 22501], "queries": {"click": {"state": {"target": ["5", "6", "7"], "time": [6542, 9921, 13744]}, "edge": {"target": [], "time": []}}, "mouseover": {"state": {"target": ["1", "2", "3", "5", "6", "7"], "time": [4965, 5091, 5303, 6180, 7282, 13136]}, "edge": {"target": [], "time": []}}, "mouseout": {"state": {"target": ["17", "14", "12", "0", "1", "2", "3", "5", "6", "7"], "time": [989, 1156, 1524, 1690, 5037, 5168, 5409, 7159, 12971, 16316]}, "edge": {"target": [], "time": []}}}, "displayed_time": "23.04", "trialTime": 27439, "trial_type": "mouselab-mdp", "trial_index": 40, "time_elapsed": 1820903, "internal_node_id": "0.0-4.0-1.0-31.0"}}, {"uniqueid": "w69049002:a22499241", "current_trial": 41, "dateTime": 1691161685413, "trialdata": {"revealed_states": [], "clicked_states": ["28", "27", "29"], "num_clicks_accrued": [0, 0, 0, 0, 0, 0, 0, 0, 0, 0, 0, 0, 0], "stateRewards": ["", 2, 4, -3, 16, -58, 30, -35, 11, -60, 47, 27, -2, -1, -7, -16, 23, -70, 68, -10, -65, -43, -34, -2, 1, 7, 9, -63, 34, -31, -8, -12, -86, 59], "withholdReward": false, "trial_id": "mdp_trial_33", "block": "test", "trialIndex": 34, "score": 42.55, "costs": -6.449999999999999, "simulationMode": [null, null, null, null, null], "rewards": [-2, 1, 7, 9, 34], "path": ["0", "0", "23", "24", "25", "26", "28"], "rt": [14422, 24, 13, 393, 967], "actions": ["left", "left", "left", "up", "right"], "actionTimes": [23163, 23765, 24330, 25390, 26890], "queries": {"click": {"state": {"target": ["28", "27", "29"], "time": [11599, 15121, 19091]}, "edge": {"target": [], "time": []}}, "mouseover": {"state": {"target": ["23", "26", "28", "27", "29"], "time": [9878, 10097, 10399, 12459, 18464]}, "edge": {"target": [], "time": []}}, "mouseout": {"state": {"target": ["0", "23", "26", "28", "27", "29"], "time": [9808, 9936, 10385, 12289, 18283, 21841]}, "edge": {"target": [], "time": []}}}, "displayed_time": "27.44", "trialTime": 31788, "trial_type": "mouselab-mdp", "trial_index": 41, "time_elapsed": 1855703, "internal_node_id": "0.0-4.0-1.0-32.0"}}, {"uniqueid": "w69049002:a22499241", "current_trial": 42, "dateTime": 1691161715608, "trialdata": {"revealed_states": [], "clicked_states": ["16", "17", "18"], "num_clicks_accrued": [0, 0, 0, 0, 0, 0, 0, 0, 0, 0, 0, 0, 0], "stateRewards": ["", 2, 3, -1, 16, -78, -11, 46, 2, -20, 79, -67, 2, 3, 2, 11, -83, -42, -58, -11, -67, -22, 55, 2, -1, -1, -16, -83, -82, 23, -11, -29, 13, 13], "withholdReward": false, "trial_id": "mdp_trial_34", "block": "test", "trialIndex": 35, "score": -32.45, "costs": -6.449999999999999, "simulationMode": [null, null, null, null, null], "rewards": [2, 3, 2, -11, -22], "path": ["0", "0", "12", "13", "14", "19", "21"], "rt": [14472, 506, 295, 1242, 242], "actions": ["right", "right", "right", "down", "down"], "actionTimes": [20212, 21251, 22107, 23892, 24689], "queries": {"click": {"state": {"target": ["16", "17", "18"], "time": [8109, 11384, 15369]}, "edge": {"target": [], "time": []}}, "mouseover": {"state": {"target": ["22", "17", "16", "17", "15", "18"], "time": [7110, 7436, 7671, 8827, 12597, 12741]}, "edge": {"target": [], "time": []}}, "mouseout": {"state": {"target": ["30", "12", "0", "22", "17", "16", "17", "15"], "time": [2607, 2896, 6980, 7163, 7587, 8674, 12428, 12679]}, "edge": {"target": [], "time": []}}}, "displayed_time": "25.28", "trialTime": 27354, "trial_type": "mouselab-mdp", "trial_index": 42, "time_elapsed": 1885898, "internal_node_id": "0.0-4.0-1.0-33.0"}}, {"uniqueid": "w69049002:a22499241", "current_trial": 43, "dateTime": 1691161743163, "trialdata": {"revealed_states": [], "clicked_states": ["5", "7"], "num_clicks_accrued": [0, 0, 0, 0, 0, 0, 0, 0, 0, 0, 0, 0, 0], "stateRewards": ["", 2, 4, 4, 9, -88, -10, 44, 16, -54, 64, 78, 1, 2, 5, 16, 80, 36, 7, -4, 9, -47, -70, -1, -3, 6, -16, 11, 80, 28, 8, -1, 34, -17], "withholdReward": false, "trial_id": "mdp_trial_35", "block": "test", "trialIndex": 36, "score": 58.7, "costs": -4.3, "simulationMode": [null, null, null, null, null], "rewards": [2, 4, 4, 9, 44], "path": ["0", "0", "1", "2", "3", "4", "7"], "rt": [16215, 170, 124, 220, 121], "actions": ["up", "up", "up", "right", "down"], "actionTimes": [20033, 20792, 21498, 22347, 23011], "queries": {"click": {"state": {"target": ["5", "7"], "time": [6089, 10220]}, "edge": {"target": [], "time": []}}, "mouseover": {"state": {"target": ["5", "7", "6"], "time": [5392, 10181, 15718]}, "edge": {"target": [], "time": []}}, "mouseout": {"state": {"target": ["18", "0", "0", "5", "7", "6"], "time": [829, 1204, 5381, 10161, 14610, 18874]}, "edge": {"target": [], "time": []}}}, "displayed_time": "23.56", "trialTime": 24395, "trial_type": "mouselab-mdp", "trial_index": 43, "time_elapsed": 1913453, "internal_node_id": "0.0-4.0-1.0-34.0"}}, {"uniqueid": "w69049002:a22499241", "current_trial": 44, "dateTime": 1691161772421, "trialdata": {"revealed_states": [], "clicked_states": ["27", "28", "29"], "num_clicks_accrued": [0, 0, 0, 0, 0, 0, 0, 0, 0, 0, 0, 0, 0], "stateRewards": ["", -1, 1, 8, -8, -49, 62, -78, 16, 28, -81, 78, -2, -3, -1, -4, 67, 49, -2, -13, -16, -39, 83, 1, -4, 4, -5, -20, 7, 84, 7, -32, -59, 19], "withholdReward": false, "trial_id": "mdp_trial_36", "block": "test", "trialIndex": 37, "score": 73.55, "costs": -6.449999999999999, "simulationMode": [null, null, null, null, null], "rewards": [1, -4, 4, -5, 84], "path": ["0", "0", "23", "24", "25", "26", "29"], "rt": [12867, 351, 388, 382, 465], "actions": ["left", "left", "left", "up", "left"], "actionTimes": [19881, 20925, 21850, 22767, 23805], "queries": {"click": {"state": {"target": ["27", "28", "29"], "time": [8562, 11922, 15751]}, "edge": {"target": [], "time": []}}, "mouseover": {"state": {"target": ["28", "26", "27", "28", "26", "29"], "time": [7774, 7926, 8240, 9513, 14492, 14882]}, "edge": {"target": [], "time": []}}, "mouseout": {"state": {"target": ["0", "28", "26", "27", "27", "28", "26"], "time": [7679, 7877, 8067, 8782, 9379, 14415, 14698]}, "edge": {"target": [], "time": []}}}, "displayed_time": "24.35", "trialTime": 26044, "trial_type": "mouselab-mdp", "trial_index": 44, "time_elapsed": 1942710, "internal_node_id": "0.0-4.0-1.0-35.0"}}, {"uniqueid": "w69049002:a22499241", "current_trial": 45, "dateTime": 1691161809816, "trialdata": {"revealed_states": [], "clicked_states": ["31", "32", "33"], "num_clicks_accrued": [0, 0, 0, 0, 0, 0, 0, 0, 0, 0, 0, 0, 0], "stateRewards": ["", 2, 3, -3, 4, 72, -28, 34, -12, 57, -64, -15, 2, 1, -4, -15, 2, 49, 31, -1, -42, -58, 31, -2, 1, -2, -13, -75, -19, -22, -6, 61, 10, -56], "withholdReward": false, "trial_id": "mdp_trial_37", "block": "test", "trialIndex": 38, "score": 45.55, "costs": -6.449999999999999, "simulationMode": [null, null, null, null, null], "rewards": [-2, 1, -2, -6, 61], "path": ["0", "0", "23", "24", "25", "30", "31"], "rt": [12985, 271, 92, 260, 44], "actions": ["left", "left", "left", "down", "right"], "actionTimes": [29067, 29871, 30520, 31303, 31886], "queries": {"click": {"state": {"target": ["31", "32", "33"], "time": [18367, 21738, 25398]}, "edge": {"target": [], "time": []}}, "mouseover": {"state": {"target": ["31", "32", "33"], "time": [17623, 19668, 24254]}, "edge": {"target": [], "time": []}}, "mouseout": {"state": {"target": ["29", "0", "31", "32", "33"], "time": [13163, 17511, 19402, 23837, 26448]}, "edge": {"target": [], "time": []}}}, "displayed_time": "32.44", "trialTime": 34208, "trial_type": "mouselab-mdp", "trial_index": 45, "time_elapsed": 1980104, "internal_node_id": "0.0-4.0-1.0-36.0"}}, {"uniqueid": "w69049002:a22499241", "current_trial": 46, "dateTime": 1691161836687, "trialdata": {"revealed_states": [], "clicked_states": ["5", "6", "7"], "num_clicks_accrued": [0, 0, 0, 0, 0, 0, 0, 0, 0, 0, 0, 0, 0], "stateRewards": ["", 2, -2, -8, 9, -20, 55, -58, 14, 42, 2, 36, 1, -3, -5, 5, -58, 57, 60, 16, 57, 30, -70, -2, 1, 3, 10, 59, 23, 77, -13, -26, 88, -72], "withholdReward": false, "trial_id": "mdp_trial_38", "block": "test", "trialIndex": 39, "score": 49.55, "costs": -6.449999999999999, "simulationMode": [null, null, null, null, null], "rewards": [2, -2, -8, 9, 55], "path": ["0", "0", "1", "2", "3", "4", "6"], "rt": [12291, 359, 129, 474, 273], "actions": ["up", "up", "up", "right", "right"], "actionTimes": [18209, 19120, 19782, 20830, 21651], "queries": {"click": {"state": {"target": ["5", "6", "7"], "time": [7714, 10981, 14409]}, "edge": {"target": [], "time": []}}, "mouseover": {"state": {"target": ["7", "4", "5", "6", "7"], "time": [6860, 6930, 7315, 8739, 13239]}, "edge": {"target": [], "time": []}}, "mouseout": {"state": {"target": ["32", "0", "7", "4", "5", "6"], "time": [3060, 6803, 6915, 7147, 8460, 12912]}, "edge": {"target": [], "time": []}}}, "displayed_time": "22.20", "trialTime": 24012, "trial_type": "mouselab-mdp", "trial_index": 46, "time_elapsed": 2006977, "internal_node_id": "0.0-4.0-1.0-37.0"}}, {"uniqueid": "w69049002:a22499241", "current_trial": 47, "dateTime": 1691161865085, "trialdata": {"revealed_states": [], "clicked_states": ["9", "11", "10"], "num_clicks_accrued": [0, 0, 0, 0, 0, 0, 0, 0, 0, 0, 0, 0, 0], "stateRewards": ["", -2, -4, -6, 12, -58, -70, -80, 2, 16, -88, -62, 1, 2, -5, 11, 77, -35, -44, -5, 18, -83, 87, 1, -3, -5, 13, -44, -21, -86, 10, -52, 8, 29], "withholdReward": false, "trial_id": "mdp_trial_39", "block": "test", "trialIndex": 40, "score": -0.4499999999999993, "costs": -6.449999999999999, "simulationMode": [null, null, null, null, null], "rewards": [-2, -4, -6, 2, 16], "path": ["0", "0", "1", "2", "3", "8", "9"], "rt": [12257, 387, 165, 381, 205], "actions": ["up", "up", "up", "left", "up"], "actionTimes": [17481, 18402, 19143, 20060, 20841], "queries": {"click": {"state": {"target": ["9", "11", "10"], "time": [6913, 10265, 13646]}, "edge": {"target": [], "time": []}}, "mouseover": {"state": {"target": ["1", "8", "9", "11", "10"], "time": [6103, 6351, 6517, 8000, 11959]}, "edge": {"target": [], "time": []}}, "mouseout": {"state": {"target": ["7", "1", "0", "1", "8", "9", "11", "10"], "time": [1691, 1794, 6047, 6195, 6430, 7877, 11743, 14988]}, "edge": {"target": [], "time": []}}}, "displayed_time": "21.40", "trialTime": 25514, "trial_type": "mouselab-mdp", "trial_index": 47, "time_elapsed": 2035375, "internal_node_id": "0.0-4.0-1.0-38.0"}}, {"uniqueid": "w69049002:a22499241", "current_trial": 48, "dateTime": 1691161902190, "trialdata": {"revealed_states": [], "clicked_states": ["16", "18", "17"], "num_clicks_accrued": [0, 0, 0, 0, 0, 0, 0, 0, 0, 0, 0, 0, 0], "stateRewards": ["", -2, -3, 1, -14, 48, -49, 67, -1, -35, -48, 3, -2, 1, -4, -5, 86, -84, 39, 1, 48, 41, -42, -1, -4, 2, -7, 18, -86, 17, 7, -9, 57, -69], "withholdReward": false, "trial_id": "mdp_trial_40", "block": "test", "trialIndex": 41, "score": 69.55, "costs": -6.449999999999999, "simulationMode": [null, null, null, null, null], "rewards": [-2, 1, -4, -5, 86], "path": ["0", "0", "12", "13", "14", "15", "16"], "rt": [11515, 188, 205, 355, 6237], "actions": ["right", "right", "right", "up", "up"], "actionTimes": [16380, 17124, 17881, 18779, 25560], "queries": {"click": {"state": {"target": ["16", "18", "17"], "time": [6482, 9809, 13228]}, "edge": {"target": [], "time": []}}, "mouseover": {"state": {"target": ["13", "15", "16", "18", "15", "17"], "time": [5574, 5696, 5945, 7756, 11066, 11320]}, "edge": {"target": [], "time": []}}, "mouseout": {"state": {"target": ["1", "12", "23", "0", "13", "15", "16", "18", "15", "17", "17", "16"], "time": [1691, 1800, 2114, 5512, 5635, 5751, 7473, 11039, 11147, 25601, 26402, 26619]}, "edge": {"target": [], "time": []}}}, "displayed_time": "26.19", "trialTime": 33879, "trial_type": "mouselab-mdp", "trial_index": 48, "time_elapsed": 2072480, "internal_node_id": "0.0-4.0-1.0-39.0"}}, {"uniqueid": "w69049002:a22499241", "current_trial": 49, "dateTime": 1691162015777, "trialdata": {"rt": 112525, "response": {"Q0": "$-2 to $2", "Q1": "$-32 to $32", "Q2": "$-88 to $88", "Q3": "The cost for clicking on nodes varied between nodes.", "Q4": "Very motivated"}, "question_order": [0, 1, 2, 3, 4], "trial_id": "final_quiz_control", "trial_type": "survey-multi-choice", "trial_index": 49, "time_elapsed": 2186068, "internal_node_id": "0.0-4.0-2.0"}}, {"uniqueid": "w69049002:a22499241", "current_trial": 50, "dateTime": 1691162485275, "trialdata": {"rt": 467910, "response": {"Q0": "i first viewed the last 3 nodes and went to the direction if the highest amount.\nif all 3 were very low, on the minus side, then i either took a risk to go to an unexplored route or to go to the one with lesser loss.", "Q1": "yes. at first i revealed the nodes of my first step which would still end in loss if i landed at a very low number.\n\ni changed to revealing the further nodes and in yielded better results.", "Q2": "it was neither difficult nor easy considering that it was very unpredictable and even with the opportunity to see some of the nodes prices before staring, what the nodes on the path yielded was unknown and other times knowing the last 3 was of no help if all 3 were of very low amounts which would most probably results in a negative amount."}, "trial_id": "self_report_control", "trial_type": "survey-text", "trial_index": 50, "time_elapsed": 2655566, "internal_node_id": "0.0-4.0-3.0"}}, {"uniqueid": "w69049002:a22499241", "current_trial": 51, "dateTime": 1691162566867, "trialdata": {"rt": 81549, "response": {"Q0": "Disagree", "Q1": "Strongly disagree", "Q2": "Strongly disagree", "Q3": "Strongly agree", "Q4": "Strongly disagree", "Q5": "Strongly agree", "Q6": "Strongly disagree"}, "question_order": [0, 1, 2, 3, 4, 5, 6], "trial_id": "self_report_2", "trial_type": "survey-multi-choice", "trial_index": 51, "time_elapsed": 2737159, "internal_node_id": "0.0-4.0-4.0"}}, {"uniqueid": "w69049002:a22499241", "current_trial": 52, "dateTime": 1691162644797, "trialdata": {"rt": 77811, "response": {"gender": "female", "age": "24", "colorblind": "0", "effort": "0"}, "trial_type": "survey-html-form", "trial_index": 52, "time_elapsed": 2815090, "internal_node_id": "0.0-4.0-5.0"}}, {"uniqueid": "w69049002:a22499241", "current_trial": 53, "dateTime": 1691162799082, "trialdata": {"rt": 154243, "response": {"Q0": "no", "Q1": "no", "Q2": "i was fun to play the game. it was a bit challenging at first but after a few rounds it became enjoyable and very engaging, considering that i had to be fast and pay attention. "}, "trial_type": "survey-text", "trial_index": 53, "time_elapsed": 2969374, "internal_node_id": "0.0-4.0-6.0"}}, {"uniqueid": "w69049002:a22499241", "current_trial": 54, "dateTime": 1691162813002, "trialdata": {"rt": 13828, "stimulus": "Press 'Finish HIT' in order to reach the completion code. Once the data has been saved, you will receive the code either in this window or in the original browser window where you started the experiment.\n", "response": 0, "trial_type": "html-button-response", "trial_index": 54, "time_elapsed": 2983295, "internal_node_id": "0.0-5.0"}}, {"uniqueid": "w69049002:a22499241", "current_trial": 55, "dateTime": 1691162814173, "trialdata": {"success": true, "trial_type": "fullscreen", "trial_index": 55, "time_elapsed": 2984466, "internal_node_id": "0.0-6.0"}}], "questiondata": {"params": {"CODE": "C6DMOQA6", "MIN_TIME": 14, "inspectCost": 1, "startTime": "Fri Aug 04 2023 16:37:06 GMT+0200 (South Africa Standard Time)", "bonusRate": 0.002, "variance": "1_2_4_8_44", "branching": "31123"}, "final_score": 1200.85}, "eventdata": [{"eventtype": "initialized", "value": null, "timestamp": 1691159825025, "interval": 0}, {"eventtype": "window_resize", "value": [1024, 660], "timestamp": 1691159825025, "interval": 0}, {"eventtype": "window_resize", "value": [1024, 660], "timestamp": 1691159825893, "interval": 868}, {"eventtype": "window_resize", "value": [1366, 768], "timestamp": 1691159840430, "interval": 14537}], "useragent": "Mozilla/5.0 (Windows NT 10.0; Win64; x64) AppleWebKit/537.36 (KHTML, like Gecko) Chrome/114.0.0.0 Safari/537.36", "mode": "live", "id": "w69049002:a22499241", "status": "user data saved", "Beginhit": "2023-08-04 14:36:57.078694", "Beginexp": "2023-08-04 14:37:21.670008", "Endhit": "2023-08-04 15:26:58.185312", "psiturkStatus": 3, "browser": "<redacted>", "platform": "windows", "language": "en-US"}