{"condition": 1, "counterbalance": 0, "assignmentId": "a67934812", "workerId": "w69892126", "hitId": "h38212587", "currenttrial": 15, "bonus": 0, "data": [{"uniqueid": "w69892126:a67934812", "current_trial": 0, "dateTime": 1691142388206, "trialdata": {"success": true, "trial_type": "fullscreen", "trial_index": 0, "time_elapsed": 27596, "internal_node_id": "0.0-0.0"}}, {"uniqueid": "w69892126:a67934812", "current_trial": 1, "dateTime": 1691142416090, "trialdata": {"view_history": [{"page_index": 0, "viewing_time": 27866}], "rt": 27867, "trial_id": "exp_instructions_misaligned", "trial_type": "instructions", "trial_index": 1, "time_elapsed": 55481, "internal_node_id": "0.0-1.0"}}, {"uniqueid": "w69892126:a67934812", "current_trial": 2, "dateTime": 1691142420205, "trialdata": {"success": true, "trial_type": "fullscreen", "trial_index": 2, "time_elapsed": 59595, "internal_node_id": "0.0-2.0-0.0"}}, {"uniqueid": "w69892126:a67934812", "current_trial": 3, "dateTime": 1691142732576, "trialdata": {"view_history": [{"page_index": 0, "viewing_time": 118880}, {"page_index": 1, "viewing_time": 110702}, {"page_index": 2, "viewing_time": 41841}, {"page_index": 3, "viewing_time": 40942}], "rt": 312366, "trial_id": "mouselab_instructions_1_misaligned", "trial_type": "instructions", "trial_index": 3, "time_elapsed": 371966, "internal_node_id": "0.0-2.0-1.0"}}, {"uniqueid": "w69892126:a67934812", "current_trial": 4, "dateTime": 1691142759847, "trialdata": {"revealed_states": [], "clicked_states": ["23"], "num_clicks_accrued": [0, 0, 0, 0, 0, 0, 0, 0, 0, 0, 0, 0, 0], "stateRewards": ["", 10, 10, -10, -10, -10, 10, -10, 10, -10, -10, 10, 10, -10, 10, -10, 10, 10, -10, 10, -10, -10, 10, 10, 10, 10, 10, -10, 10, 10, -10, 10, 10, 10], "withholdReward": false, "trial_id": "practice_1", "block": "test", "trialIndex": 0, "score": 33, "costs": -0.5, "simulationMode": [null, null, null, null, null], "rewards": [10, 10, 10, -10, 10], "path": ["0", "0", "23", "24", "25", "30", "33"], "rt": [8780, 1757, 456, 322, 565], "actions": ["left", "left", "left", "down", "left"], "actionTimes": [11768, 14064, 15054, 15912, 16998], "queries": {"click": {"state": {"target": ["23"], "time": [4977]}, "edge": {"target": [], "time": []}}, "mouseover": {"state": {"target": ["23", "24", "1", "24"], "time": [4410, 5822, 7072, 8123]}, "edge": {"target": [], "time": []}}, "mouseout": {"state": {"target": ["0", "23", "24", "1", "24", "23", "23", "18", "15"], "time": [2010, 5166, 6762, 7904, 8228, 13243, 22832, 22875, 22898]}, "edge": {"target": [], "time": []}}}, "displayed_time": "17.53", "trialTime": 25450, "trial_type": "mouselab-mdp", "trial_index": 4, "time_elapsed": 399237, "internal_node_id": "0.0-2.0-2.0-0.0"}}, {"uniqueid": "w69892126:a67934812", "current_trial": 5, "dateTime": 1691142787215, "trialdata": {"revealed_states": [], "clicked_states": ["1", "2", "3"], "num_clicks_accrued": [0, 0, 0, 0, 0, 0, 0, 0, 0, 0, 0, 0, 0], "stateRewards": ["", 10, 10, -10, 10, -10, 10, 10, -10, 10, -10, 10, 10, 10, -10, -10, 10, -10, 10, -10, 10, -10, 10, -10, 10, -10, -10, 10, 10, 10, -10, -10, -10, -10], "withholdReward": false, "trial_id": "practice_2", "block": "test", "trialIndex": 1, "score": 12, "costs": -1.5, "simulationMode": [null, null, null, null, null], "rewards": [10, 10, -10, -10, 10], "path": ["0", "0", "12", "13", "14", "19", "20"], "rt": [10436, 702, 776, 1715, 359], "actions": ["right", "right", "right", "down", "right"], "actionTimes": [14135, 15370, 16707, 18981, 19879], "queries": {"click": {"state": {"target": ["1", "2", "3"], "time": [4964, 7809, 10005]}, "edge": {"target": [], "time": []}}, "mouseover": {"state": {"target": ["1", "12", "2", "2", "3", "2", "1", "12"], "time": [4348, 6656, 7105, 7222, 9487, 13099, 13172, 13659]}, "edge": {"target": [], "time": []}}, "mouseout": {"state": {"target": ["20", "12", "23", "1", "12", "2", "2", "3", "3", "2", "1"], "time": [1297, 1360, 1910, 5956, 6894, 7139, 8018, 10204, 13065, 13140, 13214]}, "edge": {"target": [], "time": []}}}, "displayed_time": "20.42", "trialTime": 26328, "trial_type": "mouselab-mdp", "trial_index": 5, "time_elapsed": 426604, "internal_node_id": "0.0-2.0-2.0-1.0"}}, {"uniqueid": "w69892126:a67934812", "current_trial": 6, "dateTime": 1691142842077, "trialdata": {"view_history": [{"page_index": 0, "viewing_time": 41230}, {"page_index": 1, "viewing_time": 13617}], "rt": 54849, "trial_id": "mouselab_instructions_2_misaligned", "trial_type": "instructions", "trial_index": 6, "time_elapsed": 481468, "internal_node_id": "0.0-2.0-3.0"}}, {"uniqueid": "w69892126:a67934812", "current_trial": 7, "dateTime": 1691142905334, "trialdata": {"rt": 63240, "response": {"Q0": "The cost for clicking on nodes may vary between nodes.", "Q1": "The better I perform the higher my bonus will be.", "Q2": "No, the amount of cash at each node of the web may be different each time.", "Q3": "To get the highest total score.", "Q4": "Only before moving the spider.", "Q5": "3 seconds"}, "question_order": [0, 1, 2, 3, 4, 5], "correct": {"Q0": "The cost for clicking on nodes may vary between nodes.", "Q1": "The better I perform the higher my bonus will be.", "Q2": "No, the amount of cash at each node of the web may be different each time.", "Q3": "To get the highest total score.", "Q4": "Only before moving the spider.", "Q5": "3 seconds"}, "trial_id": "mouselab_quiz_misaligned", "trial_type": "survey-multi-choice", "trial_index": 7, "time_elapsed": 544725, "internal_node_id": "0.0-2.0-4.0"}}, {"uniqueid": "w69892126:a67934812", "current_trial": 8, "dateTime": 1691143050013, "trialdata": {"rt": 144663, "stimulus": "\n<h1> Get ready to start the game! </h1>\n\nThank you for reading the instructions. Get ready start with the 40 rounds of this game.\n<br><br>\nIf you need to take a break, feel free to take one after the end of a round, before continuing to the next one.\n<br><br>\nRemember, the more money the spider gets, the bigger your bonus will be!\n<br><br>\n<div style='text-align: center;'>Press <code>space</code> to begin.</div>\n\n<br><br>\n(If, at any point, the <code>space</code> key does not take you to the next page, click once on the text and try again.)", "response": " ", "trial_id": "mdp_ready", "trial_type": "html-keyboard-response", "trial_index": 8, "time_elapsed": 689403, "internal_node_id": "0.0-4.0-0.0"}}, {"uniqueid": "w69892126:a67934812", "current_trial": 9, "dateTime": 1691143073232, "trialdata": {"revealed_states": [], "clicked_states": ["23", "1", "12"], "num_clicks_accrued": [0, 0, 0, 0, 0, 0, 0, 0, 0, 0, 0, 0, 0], "stateRewards": ["", -2, -1, -5, 10, -36, -70, 68, -9, 86, 71, -10, 2, -4, 7, -7, 66, 44, -66, -13, -69, 43, 15, -2, 2, 6, -13, 62, 57, 50, -10, -69, 42, -72], "withholdReward": false, "trial_id": "mdp_trial_1", "block": "test", "trialIndex": 2, "score": 64.75, "costs": 0.75, "simulationMode": [null, null, null, null, null], "rewards": [2, -4, 7, -7, 66], "path": ["0", "0", "12", "13", "14", "15", "16"], "rt": [5675, 425, 432, 701, 326], "actions": ["right", "right", "right", "up", "up"], "actionTimes": [8125, 9087, 10064, 11288, 12146], "queries": {"click": {"state": {"target": ["23", "1", "12"], "time": [3620, 5145, 6594]}, "edge": {"target": [], "time": []}}, "mouseover": {"state": {"target": ["23", "1", "12"], "time": [3064, 4533, 5858]}, "edge": {"target": [], "time": []}}, "mouseout": {"state": {"target": ["7", "1", "0", "23", "1", "12", "14"], "time": [1101, 1150, 2989, 4181, 5753, 16430, 16484]}, "edge": {"target": [], "time": []}}}, "displayed_time": "16.45", "trialTime": 22102, "trial_type": "mouselab-mdp", "trial_index": 9, "time_elapsed": 712621, "internal_node_id": "0.0-4.0-1.0-0.0"}}, {"uniqueid": "w69892126:a67934812", "current_trial": 10, "dateTime": 1691143120370, "trialdata": {"revealed_states": [], "clicked_states": [], "num_clicks_accrued": [0, 0, 0, 0, 0, 0, 0, 0, 0, 0, 0, 0, 0], "stateRewards": ["", -2, 4, 3, 5, -61, 4, 30, 1, -47, 83, 10, 1, 4, 7, -14, 19, -74, -83, 6, -2, -2, -65, -1, -2, 4, -11, 12, -1, -68, 11, -38, -28, 66], "withholdReward": false, "trial_id": "mdp_trial_2", "block": "test", "trialIndex": 3, "score": -51, "costs": 0, "simulationMode": [null, null, null, null, null], "rewards": [-2, 4, 3, 5, -61], "path": ["0", "0", "1", "2", "3", "4", "5"], "rt": [6612, 548, 1879, 455, 431], "actions": ["up", "up", "up", "right", "up"], "actionTimes": [29355, 30432, 32847, 33833, 34803], "queries": {"click": {"state": {"target": [], "time": []}, "edge": {"target": [], "time": []}}, "mouseover": {"state": {"target": ["23", "0", "12", "0"], "time": [25024, 27720, 27838, 28081]}, "edge": {"target": [], "time": []}}, "mouseout": {"state": {"target": ["21", "14", "13", "12", "0", "23", "0", "12", "0", "0", "15"], "time": [15224, 20420, 20526, 20661, 21276, 27702, 27789, 28060, 28264, 42870, 42939]}, "edge": {"target": [], "time": []}}}, "displayed_time": "36.74", "trialTime": 46045, "trial_type": "mouselab-mdp", "trial_index": 10, "time_elapsed": 759760, "internal_node_id": "0.0-4.0-1.0-1.0"}}, {"uniqueid": "w69892126:a67934812", "current_trial": 11, "dateTime": 1691143142063, "trialdata": {"revealed_states": [], "clicked_states": ["23", "1", "12"], "num_clicks_accrued": [0, 0, 0, 0, 0, 0, 0, 0, 0, 0, 0, 0, 0], "stateRewards": ["", -2, -2, -3, -6, -15, -11, 41, -12, -63, -76, 2, -2, -3, 8, 9, -36, -2, -18, -16, -32, -85, -17, -2, 1, 5, -16, 82, 35, -88, -1, 80, -82, -20], "withholdReward": false, "trial_id": "mdp_trial_3", "block": "test", "trialIndex": 4, "score": -97.25, "costs": 0.75, "simulationMode": [null, null, null, null, null], "rewards": [-2, -3, 8, -16, -85], "path": ["0", "0", "12", "13", "14", "19", "21"], "rt": [4013, 188, 244, 234, 119], "actions": ["right", "right", "right", "down", "down"], "actionTimes": [6710, 7417, 8204, 8980, 9626], "queries": {"click": {"state": {"target": ["23", "1", "12"], "time": [3475, 4359, 5484]}, "edge": {"target": [], "time": []}}, "mouseover": {"state": {"target": ["23", "1", "12"], "time": [2963, 3870, 4776]}, "edge": {"target": [], "time": []}}, "mouseout": {"state": {"target": ["0", "0", "23", "1", "1", "12", "15"], "time": [1097, 2920, 3845, 4556, 4692, 5704, 17019]}, "edge": {"target": [], "time": []}}}, "displayed_time": "16.70", "trialTime": 20601, "trial_type": "mouselab-mdp", "trial_index": 11, "time_elapsed": 781453, "internal_node_id": "0.0-4.0-1.0-2.0"}}, {"uniqueid": "w69892126:a67934812", "current_trial": 12, "dateTime": 1691143166093, "trialdata": {"revealed_states": [], "clicked_states": ["23", "1", "12"], "num_clicks_accrued": [0, 0, 0, 0, 0, 0, 0, 0, 0, 0, 0, 0, 0], "stateRewards": ["", 1, 1, 7, -11, 80, -20, -53, -14, 3, 31, 27, 2, -1, -8, -10, 33, 41, 86, 9, 78, -37, -13, -1, -2, -6, -8, -80, 75, 4, -16, -49, -74, 24], "withholdReward": false, "trial_id": "mdp_trial_4", "block": "test", "trialIndex": 5, "score": 24.75, "costs": 0.75, "simulationMode": [null, null, null, null, null], "rewards": [2, -1, -8, -10, 41], "path": ["0", "0", "12", "13", "14", "15", "17"], "rt": [4653, 103, 315, 429, 139], "actions": ["right", "right", "right", "up", "right"], "actionTimes": [9721, 10361, 11209, 12182, 12853], "queries": {"click": {"state": {"target": ["23", "1", "12"], "time": [5894, 7360, 8462]}, "edge": {"target": [], "time": []}}, "mouseover": {"state": {"target": ["23", "1", "12"], "time": [5108, 6984, 7824]}, "edge": {"target": [], "time": []}}, "mouseout": {"state": {"target": ["14", "13", "12", "0", "23", "1", "12"], "time": [857, 1005, 1120, 5102, 6261, 7562, 20186]}, "edge": {"target": [], "time": []}}}, "displayed_time": "19.07", "trialTime": 22828, "trial_type": "mouselab-mdp", "trial_index": 12, "time_elapsed": 805483, "internal_node_id": "0.0-4.0-1.0-3.0"}}, {"uniqueid": "w69892126:a67934812", "current_trial": 13, "dateTime": 1691143185840, "trialdata": {"revealed_states": [], "clicked_states": ["23", "1", "12", "24"], "num_clicks_accrued": [0, 0, 0, 0, 0, 0, 0, 0, 0, 0, 0, 0, 0], "stateRewards": ["", -2, -3, 8, -4, -30, 31, 69, 9, 66, 87, 64, -2, 2, 8, 5, 47, 16, -39, -8, -54, 51, -19, 1, -2, -2, -11, -25, -26, 43, -9, 19, -84, 86], "withholdReward": false, "trial_id": "mdp_trial_5", "block": "test", "trialIndex": 6, "score": -18.6, "costs": 0.4, "simulationMode": [null, null, null, null, null], "rewards": [-2, 2, 8, -8, -19], "path": ["0", "0", "12", "13", "14", "19", "22"], "rt": [5940, 658, 417, 67, 202], "actions": ["right", "right", "right", "down", "left"], "actionTimes": [7902, 9090, 10065, 10686, 11418], "queries": {"click": {"state": {"target": ["23", "1", "12", "24"], "time": [2660, 3713, 4710, 6067]}, "edge": {"target": [], "time": []}}, "mouseover": {"state": {"target": ["23", "1", "1", "12", "0", "24"], "time": [1989, 3027, 3297, 4148, 5323, 5721]}, "edge": {"target": [], "time": []}}, "mouseout": {"state": {"target": ["23", "1", "1", "1", "12", "0", "23"], "time": [2993, 3086, 3939, 4064, 5294, 5373, 5646]}, "edge": {"target": [], "time": []}}}, "displayed_time": "15.97", "trialTime": 18254, "trial_type": "mouselab-mdp", "trial_index": 13, "time_elapsed": 825230, "internal_node_id": "0.0-4.0-1.0-4.0"}}, {"uniqueid": "w69892126:a67934812", "current_trial": 14, "dateTime": 1691143206471, "trialdata": {"revealed_states": [], "clicked_states": ["23", "24", "25"], "num_clicks_accrued": [0, 0, 0, 0, 0, 0, 0, 0, 0, 0, 0, 0, 0], "stateRewards": ["", 1, 3, 1, -13, 52, -28, 67, -14, 3, 63, -70, -1, -4, 7, -11, -10, 47, -18, 6, 69, -9, -61, 2, 3, -6, 10, 63, -34, 40, -6, -79, -35, -32], "withholdReward": false, "trial_id": "mdp_trial_6", "block": "test", "trialIndex": 7, "score": -87.05, "costs": -1.0499999999999998, "simulationMode": [null, null, null, null, null], "rewards": [2, 3, -6, -6, -79], "path": ["0", "0", "23", "24", "25", "30", "31"], "rt": [4598, 128, 168, 214, 366], "actions": ["left", "left", "left", "down", "right"], "actionTimes": [7458, 8114, 8853, 9652, 10560], "queries": {"click": {"state": {"target": ["23", "24", "25"], "time": [3722, 4837, 6062]}, "edge": {"target": [], "time": []}}, "mouseover": {"state": {"target": ["23", "24", "25"], "time": [3090, 4375, 5690]}, "edge": {"target": [], "time": []}}, "mouseout": {"state": {"target": ["24", "23", "23", "24"], "time": [1230, 1390, 4343, 5392]}, "edge": {"target": [], "time": []}}}, "displayed_time": "16.86", "trialTime": 19185, "trial_type": "mouselab-mdp", "trial_index": 14, "time_elapsed": 845861, "internal_node_id": "0.0-4.0-1.0-5.0"}}], "questiondata": {"params": {"CODE": "C6DMOQA6", "MIN_TIME": 14, "inspectCost": 1, "startTime": "Fri Aug 04 2023 11:45:57 GMT+0200 (South Africa Standard Time)", "bonusRate": 0.002, "variance": "1_2_4_8_44", "branching": "31123"}}, "eventdata": [{"eventtype": "initialized", "value": null, "timestamp": 1691142357174, "interval": 0}, {"eventtype": "window_resize", "value": [1024, 654], "timestamp": 1691142357174, "interval": 0}, {"eventtype": "window_resize", "value": [1024, 654], "timestamp": 1691142357782, "interval": 608}, {"eventtype": "focus", "value": "off", "timestamp": 1691142374749, "interval": 16967}, {"eventtype": "focus", "value": "on", "timestamp": 1691142387070, "interval": 12321}, {"eventtype": "window_resize", "value": [1366, 768], "timestamp": 1691142387583, "interval": 513}, {"eventtype": "focus", "value": "off", "timestamp": 1691143027943, "interval": 640360}, {"eventtype": "focus", "value": "on", "timestamp": 1691143048763, "interval": 20820}], "useragent": "Mozilla/5.0 (Windows NT 10.0; Win64; x64) AppleWebKit/537.36 (KHTML, like Gecko) Chrome/115.0.0.0 Safari/537.36", "mode": "live", "id": "w69892126:a67934812", "status": "user data saved", "Beginhit": "2023-08-04 09:45:55.672573", "Beginexp": "2023-08-04 09:46:31.345379", "Endhit": null, "psiturkStatus": 2, "browser": "<redacted>", "platform": "windows", "language": "en-US", "excludeReason": "dataincomplete"}