{"condition": 0, "counterbalance": 0, "assignmentId": "a77350315", "workerId": "w63645500", "hitId": "h33078844", "currenttrial": 61, "bonus": 0, "data": [{"uniqueid": "w63645500:a77350315", "current_trial": 0, "dateTime": 1691159918865, "trialdata": {"success": true, "trial_type": "fullscreen", "trial_index": 0, "time_elapsed": 5744, "internal_node_id": "0.0-0.0"}}, {"uniqueid": "w63645500:a77350315", "current_trial": 1, "dateTime": 1691159944061, "trialdata": {"view_history": [{"page_index": 0, "viewing_time": 25169}], "rt": 25171, "trial_id": "exp_instructions_control", "trial_type": "instructions", "trial_index": 1, "time_elapsed": 30941, "internal_node_id": "0.0-1.0"}}, {"uniqueid": "w63645500:a77350315", "current_trial": 2, "dateTime": 1691159950045, "trialdata": {"success": true, "trial_type": "fullscreen", "trial_index": 2, "time_elapsed": 36924, "internal_node_id": "0.0-2.0-0.0"}}, {"uniqueid": "w63645500:a77350315", "current_trial": 3, "dateTime": 1691160266880, "trialdata": {"view_history": [{"page_index": 0, "viewing_time": 92687}, {"page_index": 1, "viewing_time": 110573}, {"page_index": 2, "viewing_time": 46733}, {"page_index": 3, "viewing_time": 66835}], "rt": 316828, "trial_id": "mouselab_instructions_1_control", "trial_type": "instructions", "trial_index": 3, "time_elapsed": 353760, "internal_node_id": "0.0-2.0-1.0"}}, {"uniqueid": "w63645500:a77350315", "current_trial": 4, "dateTime": 1691160384258, "trialdata": {"revealed_states": [], "clicked_states": ["14", "13", "12", "23", "24", "25", "26", "30", "32", "2", "1", "3", "4", "6", "5", "7", "8", "9", "11"], "num_clicks_accrued": [0, 0, 0, 0, 0, 0, 0, 0, 0, 0, 0, 0, 0], "stateRewards": ["", 10, 10, 10, 10, -10, -10, -10, 10, -10, -10, 10, 10, 10, -10, -10, 10, 10, -10, 10, -10, 10, -10, -10, 10, -10, 10, -10, 10, -10, 10, -10, -10, 10], "withholdReward": false, "trial_id": "practice_1", "block": "test", "trialIndex": 0, "score": 44, "costs": -9.5, "simulationMode": [null, null, null, null, null], "rewards": [10, 10, 10, 10, 10], "path": ["0", "0", "1", "2", "3", "8", "11"], "rt": [90642, 373, 907, 325, 895], "actions": ["up", "up", "up", "left", "left"], "actionTimes": [97844, 98759, 100197, 101054, 102517], "queries": {"click": {"state": {"target": ["14", "13", "12", "23", "24", "25", "26", "30", "32", "2", "1", "3", "4", "6", "5", "7", "8", "9", "11"], "time": [9130, 10384, 13088, 14736, 16542, 22246, 23610, 24853, 26315, 30913, 32103, 34863, 36622, 39094, 42865, 44782, 50455, 52459, 54675]}, "edge": {"target": [], "time": []}}, "mouseover": {"state": {"target": ["0", "12", "13", "14", "13", "12", "0", "12", "0", "23", "24", "12", "25", "26", "30", "32", "31", "31", "31", "2", "1", "3", "4", "6", "4", "5", "4", "7", "1", "1", "2", "8", "9", "11", "10", "2", "1", "1", "1", "1", "1", "1", "0", "1", "1", "1", "1"], "time": [7934, 8106, 8175, 8525, 9972, 12182, 12278, 12657, 14073, 14258, 15727, 17781, 21823, 23102, 24486, 25609, 27317, 28072, 28363, 29772, 31631, 34363, 36172, 38573, 41872, 42445, 43724, 44405, 47721, 48505, 49820, 50122, 52105, 54262, 55879, 57141, 57403, 65087, 70005, 71489, 72639, 74640, 82822, 83071, 83920, 86036, 88071]}, "edge": {"target": [], "time": []}}, "mouseout": {"state": {"target": ["0", "0", "0", "12", "13", "14", "14", "13", "12", "0", "12", "0", "23", "24", "23", "12", "23", "24", "25", "26", "25", "30", "30", "32", "31", "31", "31", "2", "1", "2", "3", "4", "6", "4", "5", "5", "4", "7", "7", "1", "1", "2", "8", "9", "8", "11", "10", "2", "1", "1", "1", "1", "1", "1", "0", "1", "1", "1", "1"], "time": [1783, 7282, 8007, 8148, 8378, 9328, 9888, 11181, 12208, 12591, 13821, 14202, 15446, 17306, 17608, 18273, 18923, 21550, 22996, 24204, 24280, 25065, 25557, 27216, 27494, 28240, 28621, 31589, 32789, 33289, 35690, 37570, 40723, 42037, 43086, 43558, 43857, 45067, 47464, 47805, 49754, 49849, 51294, 53363, 54172, 55250, 56671, 57169, 57621, 66904, 70087, 71587, 72668, 81387, 82849, 83203, 85670, 86069, 89597]}, "edge": {"target": [], "time": []}}}, "displayed_time": "103.06", "trialTime": 112621, "trial_type": "mouselab-mdp", "trial_index": 4, "time_elapsed": 471136, "internal_node_id": "0.0-2.0-2.0-0.0"}}, {"uniqueid": "w63645500:a77350315", "current_trial": 5, "dateTime": 1691160425345, "trialdata": {"revealed_states": [], "clicked_states": ["23", "12", "13", "14", "19", "21", "15", "17"], "num_clicks_accrued": [0, 0, 0, 0, 0, 0, 0, 0, 0, 0, 0, 0, 0], "stateRewards": ["", -10, -10, -10, -10, 10, -10, 10, 10, -10, 10, 10, 10, 10, 10, 10, -10, 10, -10, -10, -10, -10, 10, -10, -10, 10, -10, 10, -10, 10, 10, 10, -10, 10], "withholdReward": false, "trial_id": "practice_2", "block": "test", "trialIndex": 1, "score": 49.5, "costs": -4, "simulationMode": [null, null, null, null, null], "rewards": [10, 10, 10, 10, 10], "path": ["0", "0", "12", "13", "14", "15", "17"], "rt": [24291, 1383, 101, 654, 1035], "actions": ["right", "right", "right", "up", "right"], "actionTimes": [28977, 31011, 31677, 32981, 34558], "queries": {"click": {"state": {"target": ["23", "12", "13", "14", "19", "21", "15", "17"], "time": [6850, 10803, 13340, 14716, 16346, 19133, 21199, 23228]}, "edge": {"target": [], "time": []}}, "mouseover": {"state": {"target": ["1", "2", "1", "23", "24", "24", "0", "12", "13", "14", "19", "20", "21", "14", "15", "17", "13", "0", "0"], "time": [5533, 5590, 5882, 6406, 7376, 9954, 10212, 10268, 12989, 14264, 15864, 17553, 18283, 20098, 20899, 22783, 24718, 25098, 25581]}, "edge": {"target": [], "time": []}}, "mouseout": {"state": {"target": ["16", "18", "12", "1", "2", "1", "23", "24", "24", "23", "0", "12", "13", "14", "19", "19", "20", "21", "19", "14", "15", "17", "13", "0", "0"], "time": [2197, 2255, 2348, 5561, 5782, 6281, 7256, 9182, 10050, 10167, 10257, 11819, 14236, 15690, 16566, 17308, 18103, 19361, 20020, 20358, 22682, 24080, 24745, 25364, 25614]}, "edge": {"target": [], "time": []}}}, "displayed_time": "35.10", "trialTime": 38331, "trial_type": "mouselab-mdp", "trial_index": 5, "time_elapsed": 512223, "internal_node_id": "0.0-2.0-2.0-1.0"}}, {"uniqueid": "w63645500:a77350315", "current_trial": 6, "dateTime": 1691160520784, "trialdata": {"view_history": [{"page_index": 0, "viewing_time": 79994}, {"page_index": 1, "viewing_time": 15427}], "rt": 95423, "trial_id": "mouselab_instructions_2_control", "trial_type": "instructions", "trial_index": 6, "time_elapsed": 607664, "internal_node_id": "0.0-2.0-3.0"}}, {"uniqueid": "w63645500:a77350315", "current_trial": 7, "dateTime": 1691160595063, "trialdata": {"rt": 74262, "response": {"Q0": "The cost for clicking on nodes may vary between nodes.", "Q1": "The better I perform the higher my bonus will be.", "Q2": "No, the amount of cash at each node of the web may be different each time.", "Q3": "To get the highest total score.", "Q4": "Any time during the round.", "Q5": "3 seconds"}, "question_order": [0, 1, 2, 3, 4, 5], "correct": {"Q0": "The cost for clicking on nodes may vary between nodes.", "Q1": "The better I perform the higher my bonus will be.", "Q2": "No, the amount of cash at each node of the web may be different each time.", "Q3": "To get the highest total score.", "Q4": "Only before moving the spider.", "Q5": "3 seconds"}, "trial_id": "mouselab_quiz_control", "trial_type": "survey-multi-choice", "trial_index": 7, "time_elapsed": 681943, "internal_node_id": "0.0-2.0-4.0"}}, {"uniqueid": "w63645500:a77350315", "current_trial": 8, "dateTime": 1691160606709, "trialdata": {"success": true, "trial_type": "fullscreen", "trial_index": 8, "time_elapsed": 693589, "internal_node_id": "0.0-2.1-0.1"}}, {"uniqueid": "w63645500:a77350315", "current_trial": 9, "dateTime": 1691160689694, "trialdata": {"view_history": [{"page_index": 0, "viewing_time": 33894}, {"page_index": 1, "viewing_time": 42605}, {"page_index": 2, "viewing_time": 4144}, {"page_index": 3, "viewing_time": 2331}], "rt": 82976, "trial_id": "mouselab_instructions_1_control", "trial_type": "instructions", "trial_index": 9, "time_elapsed": 776574, "internal_node_id": "0.0-2.1-1.1"}}, {"uniqueid": "w63645500:a77350315", "current_trial": 10, "dateTime": 1691160723447, "trialdata": {"revealed_states": [], "clicked_states": ["1", "2", "3", "4", "5", "7", "6"], "num_clicks_accrued": [0, 0, 0, 0, 0, 0, 0, 0, 0, 0, 0, 0, 0], "stateRewards": ["", 10, 10, 10, 10, -10, -10, -10, 10, -10, -10, 10, 10, 10, -10, -10, 10, 10, -10, 10, -10, 10, -10, -10, 10, -10, 10, -10, 10, -10, 10, -10, -10, 10], "withholdReward": false, "trial_id": "practice_1", "block": "test", "trialIndex": 2, "score": 50, "costs": -3.5, "simulationMode": [null, null, null, null, null], "rewards": [10, 10, 10, 10, 10], "path": ["0", "0", "1", "2", "3", "8", "11"], "rt": [17109, 130, 375, 1027, 13], "actions": ["up", "up", "up", "left", "left"], "actionTimes": [22258, 22930, 23872, 25436, 26006], "queries": {"click": {"state": {"target": ["1", "2", "3", "4", "5", "7", "6"], "time": [6437, 7782, 9473, 11245, 13704, 15265, 17148]}, "edge": {"target": [], "time": []}}, "mouseover": {"state": {"target": ["1", "2", "3", "4", "5", "7", "6", "2", "8", "1", "0", "0", "1"], "time": [6058, 7267, 8587, 10674, 13256, 14654, 16656, 18840, 19430, 19991, 20092, 20366, 20976]}, "edge": {"target": [], "time": []}}, "mouseout": {"state": {"target": ["0", "1", "2", "3", "4", "5", "4", "7", "6", "6", "7", "2", "8", "1", "0", "0", "1", "0"], "time": [1955, 6900, 8544, 10553, 12840, 14423, 14575, 16540, 17388, 17830, 18202, 18924, 19706, 20020, 20122, 20536, 29576, 29655]}, "edge": {"target": [], "time": []}}}, "displayed_time": "26.55", "trialTime": 30998, "trial_type": "mouselab-mdp", "trial_index": 10, "time_elapsed": 810325, "internal_node_id": "0.0-2.1-2.1-0.1"}}, {"uniqueid": "w63645500:a77350315", "current_trial": 11, "dateTime": 1691160751583, "trialdata": {"revealed_states": [], "clicked_states": ["23", "12", "13", "14"], "num_clicks_accrued": [0, 0, 0, 0, 0, 0, 0, 0, 0, 0, 0, 0, 0], "stateRewards": ["", -10, -10, -10, -10, 10, -10, 10, 10, -10, 10, 10, 10, 10, 10, 10, -10, 10, -10, -10, -10, -10, 10, -10, -10, 10, -10, 10, -10, 10, 10, 10, -10, 10], "withholdReward": false, "trial_id": "practice_2", "block": "test", "trialIndex": 3, "score": 51.5, "costs": -2, "simulationMode": [null, null, null, null, null], "rewards": [10, 10, 10, 10, 10], "path": ["0", "0", "12", "13", "14", "15", "17"], "rt": [11869, 253, 182, 530, 229], "actions": ["right", "right", "right", "up", "right"], "actionTimes": [16778, 17573, 18307, 19374, 20136], "queries": {"click": {"state": {"target": ["23", "12", "13", "14"], "time": [7064, 8966, 10850, 12217]}, "edge": {"target": [], "time": []}}, "mouseover": {"state": {"target": ["0", "12", "24", "23", "24", "12", "13", "13", "13", "14", "19", "15"], "time": [5848, 6012, 6250, 6763, 7759, 8329, 9549, 9823, 10385, 11562, 12886, 14095]}, "edge": {"target": [], "time": []}}, "mouseout": {"state": {"target": ["0", "0", "12", "24", "23", "24", "12", "13", "13", "13", "14", "19", "14", "15", "13"], "time": [1205, 5888, 6157, 6597, 7644, 8195, 9197, 9716, 10064, 11416, 12702, 13761, 13789, 14679, 14713]}, "edge": {"target": [], "time": []}}}, "displayed_time": "20.69", "trialTime": 25124, "trial_type": "mouselab-mdp", "trial_index": 11, "time_elapsed": 838461, "internal_node_id": "0.0-2.1-2.1-1.1"}}, {"uniqueid": "w63645500:a77350315", "current_trial": 12, "dateTime": 1691160761691, "trialdata": {"view_history": [{"page_index": 0, "viewing_time": 4937}, {"page_index": 1, "viewing_time": 5160}], "rt": 10099, "trial_id": "mouselab_instructions_2_control", "trial_type": "instructions", "trial_index": 12, "time_elapsed": 848571, "internal_node_id": "0.0-2.1-3.1"}}, {"uniqueid": "w63645500:a77350315", "current_trial": 13, "dateTime": 1691160787009, "trialdata": {"rt": 25304, "response": {"Q0": "The cost for clicking on nodes may vary between nodes.", "Q1": "The better I perform the higher my bonus will be.", "Q2": "No, the amount of cash at each node of the web may be different each time.", "Q3": "To get the highest total score.", "Q4": "Only before moving the spider.", "Q5": "3 seconds"}, "question_order": [0, 1, 2, 3, 4, 5], "correct": {"Q0": "The cost for clicking on nodes may vary between nodes.", "Q1": "The better I perform the higher my bonus will be.", "Q2": "No, the amount of cash at each node of the web may be different each time.", "Q3": "To get the highest total score.", "Q4": "Only before moving the spider.", "Q5": "3 seconds"}, "trial_id": "mouselab_quiz_control", "trial_type": "survey-multi-choice", "trial_index": 13, "time_elapsed": 873889, "internal_node_id": "0.0-2.1-4.1"}}, {"uniqueid": "w63645500:a77350315", "current_trial": 14, "dateTime": 1691160811121, "trialdata": {"rt": 24080, "stimulus": "\n<h1> Get ready to start the game! </h1>\n\nThank you for reading the instructions. Get ready start with the 40 rounds of this game.\n<br><br>\nIf you need to take a break, feel free to take one after the end of a round, before continuing to the next one.\n<br><br>\nRemember, the more money the spider gets, the bigger your bonus will be!\n<br><br>\n<div style='text-align: center;'>Press <code>space</code> to begin.</div>\n\n<br><br>\n(If, at any point, the <code>space</code> key does not take you to the next page, click once on the text and try again.)", "response": " ", "trial_id": "mdp_ready", "trial_type": "html-keyboard-response", "trial_index": 14, "time_elapsed": 898001, "internal_node_id": "0.0-4.0-0.0"}}, {"uniqueid": "w63645500:a77350315", "current_trial": 15, "dateTime": 1691160861167, "trialdata": {"revealed_states": [], "clicked_states": ["12", "13", "1", "23", "24", "2", "25", "30", "32"], "num_clicks_accrued": [0, 0, 0, 0, 0, 0, 0, 0, 0, 0, 0, 0, 0], "stateRewards": ["", 2, -4, 7, 3, 23, -42, 4, 7, -81, -33, 7, -2, -4, 5, -1, 50, -57, -14, -13, -14, 44, 55, -2, -2, 5, -2, 33, 1, 57, -13, -7, 58, 87], "withholdReward": false, "trial_id": "mdp_trial_1", "block": "test", "trialIndex": 4, "score": 33.4, "costs": -12.600000000000001, "simulationMode": [null, null, null, null, null], "rewards": [-2, -2, 5, -13, 58], "path": ["0", "0", "23", "24", "25", "30", "32"], "rt": [36053, 107, 253, 764, 222], "actions": ["left", "left", "left", "down", "down"], "actionTimes": [39915, 40544, 41343, 42651, 43419], "queries": {"click": {"state": {"target": ["12", "13", "1", "23", "24", "2", "25", "30", "32"], "time": [5421, 7830, 9906, 12595, 15067, 18293, 22209, 25270, 28871]}, "edge": {"target": [], "time": []}}, "mouseover": {"state": {"target": ["0", "12", "13", "1", "23", "24", "1", "2", "3", "24", "25", "30", "32", "31", "23", "31", "26", "31", "0", "23"], "time": [4445, 4928, 6728, 9308, 12113, 13923, 17396, 17723, 19516, 21362, 21577, 24266, 28044, 30695, 31628, 32332, 33098, 33824, 37093, 38595]}, "edge": {"target": [], "time": []}}, "mouseout": {"state": {"target": ["0", "0", "12", "13", "12", "1", "23", "23", "24", "1", "2", "3", "2", "24", "25", "30", "32", "31", "23", "31", "26", "31", "0"], "time": [1786, 4544, 6431, 8302, 8353, 10729, 12805, 13398, 16630, 17438, 19126, 21078, 21128, 21479, 23654, 27895, 29075, 30811, 32261, 32664, 33508, 36511, 37395]}, "edge": {"target": [], "time": []}}}, "displayed_time": "43.95", "trialTime": 47145, "trial_type": "mouselab-mdp", "trial_index": 15, "time_elapsed": 948045, "internal_node_id": "0.0-4.0-1.0-0.0"}}, {"uniqueid": "w63645500:a77350315", "current_trial": 16, "dateTime": 1691160933017, "trialdata": {"revealed_states": [], "clicked_states": ["21", "20", "17", "16", "5", "6", "7", "32", "33", "27", "29", "23", "24", "25", "30", "19", "14", "12"], "num_clicks_accrued": [0, 0, 0, 0, 0, 0, 0, 0, 0, 0, 0, 0, 0], "stateRewards": ["", -1, -4, -1, -5, -28, -23, -15, -15, -38, 59, -87, 2, 2, -5, 9, -55, -39, -71, -6, 85, -85, -11, -1, -2, 5, -10, 1, 25, 41, -4, 69, -35, 86], "withholdReward": false, "trial_id": "mdp_trial_2", "block": "test", "trialIndex": 5, "score": 58.80000000000001, "costs": -25.199999999999992, "simulationMode": [null, null, null, null, null], "rewards": [-1, -2, 5, -4, 86], "path": ["0", "0", "23", "24", "25", "30", "33"], "rt": [52051, 1166, 752, 662, 1548], "actions": ["left", "left", "left", "down", "left"], "actionTimes": [59329, 61213, 62486, 63760, 65832], "queries": {"click": {"state": {"target": ["21", "20", "17", "16", "5", "6", "7", "32", "33", "27", "29", "23", "24", "25", "30", "19", "14", "12"], "time": [9107, 11938, 13966, 16446, 19479, 21490, 23527, 26516, 28530, 31489, 33805, 38275, 41396, 43519, 45362, 48828, 50991, 55249]}, "edge": {"target": [], "time": []}}, "mouseover": {"state": {"target": ["0", "21", "21", "20", "17", "16", "6", "5", "6", "7", "2", "9", "24", "32", "32", "30", "33", "29", "27", "29", "25", "24", "23", "24", "25", "30", "31", "22", "19", "14", "12", "24"], "time": [7880, 8400, 8651, 9515, 12560, 15680, 18540, 18714, 20415, 22250, 24148, 24400, 25546, 25629, 25926, 27425, 27706, 29746, 31083, 32763, 36067, 37324, 37595, 38909, 42136, 44220, 47742, 48129, 48429, 50098, 54820, 57642]}, "edge": {"target": [], "time": []}}, "mouseout": {"state": {"target": ["23", "12", "0", "0", "21", "21", "20", "17", "16", "6", "5", "6", "6", "7", "2", "9", "24", "32", "32", "30", "33", "29", "27", "29", "25", "24", "23", "24", "25", "30", "31", "22", "19", "14", "12", "24"], "time": [3879, 4942, 7679, 7910, 8547, 9474, 12447, 14944, 17374, 18574, 20200, 21736, 22073, 24109, 24196, 25467, 25598, 25794, 27022, 27597, 29383, 30933, 32217, 35083, 36245, 37448, 38867, 41940, 44128, 47731, 47775, 48221, 49930, 54339, 56259, 57688]}, "edge": {"target": [], "time": []}}}, "displayed_time": "66.36", "trialTime": 68966, "trial_type": "mouselab-mdp", "trial_index": 16, "time_elapsed": 1019896, "internal_node_id": "0.0-4.0-1.0-1.0"}}, {"uniqueid": "w63645500:a77350315", "current_trial": 17, "dateTime": 1691161000549, "trialdata": {"revealed_states": [], "clicked_states": ["12", "1", "23", "9", "10", "11", "6", "5", "7", "16", "17", "20", "21", "32", "33", "27", "28"], "num_clicks_accrued": [0, 0, 0, 0, 0, 0, 0, 0, 0, 0, 0, 0, 0], "stateRewards": ["", -1, 1, -2, 5, 73, 15, 61, 8, 7, 38, 76, 2, 2, -4, -6, -6, -26, 43, -5, -45, -85, -35, -2, 1, -4, 15, -10, 69, 72, -11, 84, -49, -38], "withholdReward": false, "trial_id": "mdp_trial_3", "block": "test", "trialIndex": 6, "score": 58.2, "costs": -23.799999999999994, "simulationMode": [null, null, null, null, null], "rewards": [-1, 1, -2, 8, 76], "path": ["0", "0", "1", "2", "3", "8", "11"], "rt": [47800, 604, 871, 1587, 155], "actions": ["up", "up", "up", "left", "left"], "actionTimes": [56972, 58137, 59594, 61757, 62513], "queries": {"click": {"state": {"target": ["12", "1", "23", "9", "10", "11", "6", "5", "7", "16", "17", "20", "21", "32", "33", "27", "28"], "time": [10448, 13292, 15796, 18156, 19863, 22743, 25608, 27924, 30063, 33121, 35340, 37370, 39386, 41785, 44682, 46856, 49886]}, "edge": {"target": [], "time": []}}, "mouseover": {"state": {"target": ["12", "1", "23", "30", "8", "9", "8", "10", "11", "8", "4", "6", "4", "5", "4", "7", "16", "17", "20", "21", "25", "25", "30", "32", "30", "25", "33", "26", "27", "26", "28", "23", "10", "1", "1", "1", "2", "2", "1", "0"], "time": [9249, 11405, 14318, 17014, 17420, 17537, 18929, 19129, 20788, 23398, 23499, 23748, 26160, 26962, 28623, 28916, 32501, 34154, 36434, 38255, 40698, 40865, 41035, 41251, 43037, 43789, 44201, 45544, 45705, 49161, 49401, 51125, 51604, 53487, 54791, 55151, 55234, 55514, 55601, 56006]}, "edge": {"target": [], "time": []}}, "mouseout": {"state": {"target": ["22", "13", "14", "19", "21", "20", "19", "23", "12", "1", "23", "30", "8", "9", "8", "10", "11", "8", "4", "6", "4", "5", "4", "7", "16", "17", "20", "21", "21", "25", "25", "30", "32", "30", "25", "33", "26", "27", "26", "28", "23", "10", "1", "1", "1", "2", "2", "1", "0"], "time": [1285, 3934, 4038, 4923, 5385, 6302, 6435, 6889, 10819, 13932, 16333, 17068, 17487, 18708, 18988, 20518, 23388, 23452, 23617, 26142, 26677, 28513, 28801, 32117, 33627, 35953, 37965, 39603, 39982, 40716, 40882, 41129, 42617, 43320, 43880, 45248, 45589, 48977, 49278, 51074, 51314, 51688, 53686, 54884, 55182, 55484, 55549, 55632, 56185]}, "edge": {"target": [], "time": []}}}, "displayed_time": "63.08", "trialTime": 64709, "trial_type": "mouselab-mdp", "trial_index": 17, "time_elapsed": 1087428, "internal_node_id": "0.0-4.0-1.0-2.0"}}, {"uniqueid": "w63645500:a77350315", "current_trial": 18, "dateTime": 1691161051957, "trialdata": {"revealed_states": [], "clicked_states": ["21", "22", "20", "17", "16", "18", "32", "33", "27"], "num_clicks_accrued": [0, 0, 0, 0, 0, 0, 0, 0, 0, 0, 0, 0, 0], "stateRewards": ["", -2, -3, -5, 8, 27, 11, 43, -6, -24, -87, 69, -2, 1, 1, 9, 19, 48, -37, 9, -14, 45, 62, 1, 2, 1, 16, -81, -41, 22, 4, -6, -63, 47], "withholdReward": false, "trial_id": "mdp_trial_4", "block": "test", "trialIndex": 7, "score": 42.4, "costs": -12.600000000000001, "simulationMode": [null, null, null, null, null], "rewards": [1, 2, 1, 4, 47], "path": ["0", "0", "23", "24", "25", "30", "33"], "rt": [34245, 1270, 195, 873, 1336], "actions": ["left", "left", "left", "down", "left"], "actionTimes": [37315, 39120, 39882, 41306, 43189], "queries": {"click": {"state": {"target": ["21", "22", "20", "17", "16", "18", "32", "33", "27"], "time": [5519, 8497, 10963, 13992, 16986, 19357, 22290, 24789, 27851]}, "edge": {"target": [], "time": []}}, "mouseover": {"state": {"target": ["22", "19", "21", "21", "22", "19", "20", "17", "17", "16", "18", "32", "33", "26", "27", "31", "24", "28", "23", "24", "23", "24", "30", "31"], "time": [4095, 4177, 4526, 4892, 8076, 9585, 9936, 13034, 13377, 15423, 18740, 21775, 23951, 26943, 27355, 28602, 30053, 30342, 33686, 34910, 35012, 35250, 35335, 35624]}, "edge": {"target": [], "time": []}}, "mouseout": {"state": {"target": ["0", "22", "19", "21", "21", "22", "19", "20", "17", "17", "16", "18", "32", "33", "26", "27", "31", "24", "28", "23", "24", "23", "24", "30", "31"], "time": [4061, 4145, 4208, 4663, 5737, 9504, 9627, 11195, 13084, 15073, 17950, 20757, 22511, 26625, 27059, 28204, 29959, 30175, 33642, 33807, 34977, 35044, 35292, 35592, 35686]}, "edge": {"target": [], "time": []}}}, "displayed_time": "43.94", "trialTime": 48341, "trial_type": "mouselab-mdp", "trial_index": 18, "time_elapsed": 1138835, "internal_node_id": "0.0-4.0-1.0-3.0"}}, {"uniqueid": "w63645500:a77350315", "current_trial": 19, "dateTime": 1691161098364, "trialdata": {"revealed_states": [], "clicked_states": ["9", "5", "6", "11", "17", "20", "16", "21", "32", "27", "31", "33"], "num_clicks_accrued": [0, 0, 0, 0, 0, 0, 0, 0, 0, 0, 0, 0, 0], "stateRewards": ["", -2, -3, 4, 1, 33, -53, 15, 9, -12, 61, -6, -2, 4, 6, -11, 47, -43, -7, -11, 46, 23, -28, -1, -1, 3, -10, 11, 76, -76, 10, 18, -38, 87], "withholdReward": false, "trial_id": "mdp_trial_5", "block": "test", "trialIndex": 8, "score": 81.2, "costs": -16.8, "simulationMode": [null, null, null, null, null], "rewards": [-1, -1, 3, 10, 87], "path": ["0", "0", "23", "24", "25", "30", "33"], "rt": [32339, 144, 189, 595, 800], "actions": ["left", "left", "left", "down", "left"], "actionTimes": [36633, 37307, 38027, 39193, 40508], "queries": {"click": {"state": {"target": ["9", "5", "6", "11", "17", "20", "16", "21", "32", "27", "31", "33"], "time": [5571, 7670, 10401, 12397, 15545, 18645, 20335, 22155, 25118, 26864, 30757, 32367]}, "edge": {"target": [], "time": []}}, "mouseover": {"state": {"target": ["1", "10", "8", "9", "5", "21", "18", "6", "8", "11", "7", "16", "16", "17", "20", "20", "19", "19", "16", "14", "21", "21", "32", "30", "25", "26", "27", "27", "26", "31", "30", "30", "31", "31", "30", "33", "29", "30"], "time": [4918, 4976, 5024, 5065, 6164, 9150, 9625, 9997, 11157, 11434, 12885, 12983, 13513, 14739, 16387, 18189, 19185, 19287, 19714, 21004, 21259, 21472, 24572, 25518, 25614, 25711, 25770, 26222, 27405, 27823, 29105, 29606, 29764, 30288, 31285, 31515, 33520, 35529]}, "edge": {"target": [], "time": []}}, "mouseout": {"state": {"target": ["1", "10", "8", "9", "5", "21", "18", "6", "8", "11", "7", "16", "16", "17", "20", "20", "19", "19", "16", "14", "21", "21", "32", "30", "25", "26", "27", "27", "26", "31", "30", "30", "31", "31", "30", "33", "29", "30"], "time": [4947, 5016, 5056, 6077, 9142, 9525, 9670, 10989, 11304, 12822, 12934, 13031, 14522, 15976, 17872, 19136, 19233, 19332, 20913, 21188, 21388, 23273, 25479, 25566, 25665, 25759, 25865, 27395, 27475, 28979, 29472, 29712, 29939, 31274, 31333, 33183, 35076, 35634]}, "edge": {"target": [], "time": []}}}, "displayed_time": "41.04", "trialTime": 43130, "trial_type": "mouselab-mdp", "trial_index": 19, "time_elapsed": 1185242, "internal_node_id": "0.0-4.0-1.0-4.0"}}, {"uniqueid": "w63645500:a77350315", "current_trial": 20, "dateTime": 1691161149442, "trialdata": {"revealed_states": [], "clicked_states": ["29", "33", "20", "17", "21", "22", "16", "18", "32", "9", "5", "27"], "num_clicks_accrued": [0, 0, 0, 0, 0, 0, 0, 0, 0, 0, 0, 0, 0], "stateRewards": ["", 1, 1, 6, -14, -40, 37, 16, -13, 33, -68, 49, 2, 4, 3, 6, 55, 27, 32, 10, -65, 20, -87, 2, 1, -6, -5, -42, 12, 29, -8, 16, 76, -33], "withholdReward": false, "trial_id": "mdp_trial_6", "block": "test", "trialIndex": 9, "score": 48.2, "costs": -16.8, "simulationMode": [null, null, null, null, null], "rewards": [2, 1, -6, -8, 76], "path": ["0", "0", "23", "24", "25", "30", "32"], "rt": [37314, 42, 290, 882, 534], "actions": ["left", "left", "left", "down", "down"], "actionTimes": [41030, 41635, 42491, 43958, 45037], "queries": {"click": {"state": {"target": ["29", "33", "20", "17", "21", "22", "16", "18", "32", "9", "5", "27"], "time": [6022, 8996, 11814, 14566, 16951, 19144, 21475, 24516, 28241, 31870, 34761, 38320]}, "edge": {"target": [], "time": []}}, "mouseover": {"state": {"target": ["23", "24", "29", "33", "30", "20", "17", "15", "21", "22", "16", "18", "23", "24", "30", "32", "31", "31", "25", "9", "5", "2", "28", "27", "27", "28"], "time": [4669, 4711, 5085, 8490, 9630, 11109, 13657, 15787, 16334, 18195, 20089, 23968, 26800, 27132, 27285, 27735, 29281, 29935, 30785, 31375, 32870, 35920, 36638, 37237, 37851, 39204]}, "edge": {"target": [], "time": []}}, "mouseout": {"state": {"target": ["0", "23", "24", "29", "33", "30", "20", "17", "15", "21", "22", "16", "18", "23", "24", "30", "32", "31", "31", "25", "9", "5", "2", "28", "27", "27"], "time": [1597, 4700, 4750, 7985, 9517, 9783, 12817, 15711, 16014, 17556, 19679, 23317, 26661, 26835, 27182, 27327, 28589, 29332, 30751, 31035, 32335, 35678, 36012, 36717, 37418, 39154]}, "edge": {"target": [], "time": []}}}, "displayed_time": "45.62", "trialTime": 48090, "trial_type": "mouselab-mdp", "trial_index": 20, "time_elapsed": 1236320, "internal_node_id": "0.0-4.0-1.0-5.0"}}, {"uniqueid": "w63645500:a77350315", "current_trial": 21, "dateTime": 1691161172774, "trialdata": {"revealed_states": [], "clicked_states": [], "num_clicks_accrued": [0, 0, 0, 0, 0, 0, 0, 0, 0, 0, 0, 0, 0], "stateRewards": ["", -2, 3, 8, -9, 59, 41, -50, -1, 82, 66, 33, 2, -2, 7, 8, 1, -38, 12, -16, 24, -37, 67, 1, 4, -2, 5, 35, -83, 28, 8, -27, 69, -64], "withholdReward": false, "trial_id": "mdp_trial_7", "block": "test", "trialIndex": 10, "score": -50, "costs": 0, "simulationMode": [null, null, null, null, null], "rewards": [-2, 3, 8, -9, -50], "path": ["0", "0", "1", "2", "3", "4", "7"], "rt": [9389, 594, 310, 331, 92], "actions": ["up", "up", "up", "right", "down"], "actionTimes": [12413, 13698, 14550, 15484, 16110], "queries": {"click": {"state": {"target": [], "time": []}, "edge": {"target": [], "time": []}}, "mouseover": {"state": {"target": ["25", "26", "25", "29", "24", "31"], "time": [4792, 4834, 5191, 5760, 7475, 8776]}, "edge": {"target": [], "time": []}}, "mouseout": {"state": {"target": ["28", "25", "26", "25", "29", "24", "31"], "time": [1054, 4825, 5107, 5481, 7231, 7519, 10180]}, "edge": {"target": [], "time": []}}}, "displayed_time": "17.02", "trialTime": 20346, "trial_type": "mouselab-mdp", "trial_index": 21, "time_elapsed": 1259652, "internal_node_id": "0.0-4.0-1.0-6.0"}}, {"uniqueid": "w63645500:a77350315", "current_trial": 22, "dateTime": 1691161218657, "trialdata": {"revealed_states": [], "clicked_states": ["9", "5", "16", "17", "20", "21", "22", "32", "33", "31", "29", "27", "28"], "num_clicks_accrued": [0, 0, 0, 0, 0, 0, 0, 0, 0, 0, 0, 0, 0], "stateRewards": ["", -1, -2, 8, -6, -79, -6, 87, 9, -5, -66, -38, 2, 2, 5, -6, -82, 74, 85, -8, 67, -30, -15, 1, -2, -2, -2, 87, 64, 49, 7, 2, -38, -9], "withholdReward": false, "trial_id": "mdp_trial_8", "block": "test", "trialIndex": 11, "score": 63.8, "costs": -18.2, "simulationMode": [null, null, null, null, null], "rewards": [1, -2, -2, -2, 87], "path": ["0", "0", "23", "24", "25", "26", "27"], "rt": [33957, 216, 223, 1020, 46], "actions": ["left", "left", "left", "up", "up"], "actionTimes": [37236, 37997, 38751, 40313, 40890], "queries": {"click": {"state": {"target": ["9", "5", "16", "17", "20", "21", "22", "32", "33", "31", "29", "27", "28"], "time": [4790, 7257, 10135, 12553, 14183, 17364, 20350, 22854, 26197, 28065, 30057, 31779, 33512]}, "edge": {"target": [], "time": []}}, "mouseover": {"state": {"target": ["8", "9", "5", "16", "17", "16", "17", "20", "21", "22", "32", "32", "33", "30", "31", "33", "31", "30", "25", "29", "27", "28", "24"], "time": [4033, 4434, 5440, 7817, 7916, 9516, 10802, 13657, 14853, 18094, 21754, 22360, 23751, 25087, 25452, 25734, 26813, 28780, 28841, 29166, 30639, 32665, 35799]}, "edge": {"target": [], "time": []}}, "mouseout": {"state": {"target": ["0", "8", "9", "5", "16", "17", "16", "17", "20", "20", "21", "22", "32", "32", "33", "30", "31", "33", "31", "31", "30", "25", "29", "27", "28", "24"], "time": [3705, 4196, 5284, 7732, 7870, 9283, 10738, 13142, 14404, 14679, 17969, 20980, 21927, 23515, 25023, 25340, 25589, 26692, 28384, 28730, 28830, 28900, 30594, 32496, 34779, 35997]}, "edge": {"target": [], "time": []}}}, "displayed_time": "41.55", "trialTime": 42889, "trial_type": "mouselab-mdp", "trial_index": 22, "time_elapsed": 1305535, "internal_node_id": "0.0-4.0-1.0-7.0"}}, {"uniqueid": "w63645500:a77350315", "current_trial": 23, "dateTime": 1691161254319, "trialdata": {"revealed_states": [], "clicked_states": ["29", "28", "27", "11"], "num_clicks_accrued": [0, 0, 0, 0, 0, 0, 0, 0, 0, 0, 0, 0, 0], "stateRewards": ["", 1, 4, -8, -13, -13, -87, -77, -10, -44, 54, 42, 2, -3, -4, 12, -9, -80, 52, 9, 84, -2, -65, 1, -4, -5, -6, 8, 80, 32, 13, -59, -5, -13], "withholdReward": false, "trial_id": "mdp_trial_9", "block": "test", "trialIndex": 12, "score": 60.4, "costs": -5.6, "simulationMode": [null, null, null, null, null], "rewards": [1, -4, -5, -6, 80], "path": ["0", "0", "23", "24", "25", "26", "28"], "rt": [16397, 738, 160, 895, 14], "actions": ["left", "left", "left", "up", "right"], "actionTimes": [22784, 24108, 24811, 26277, 26833], "queries": {"click": {"state": {"target": ["29", "28", "27", "11"], "time": [8299, 10903, 13197, 14793]}, "edge": {"target": [], "time": []}}, "mouseover": {"state": {"target": ["30", "33", "29", "27", "28", "27", "27", "8", "11", "10", "8", "9"], "time": [7233, 7448, 7807, 8852, 10323, 11411, 11800, 14163, 14303, 15600, 18355, 18497]}, "edge": {"target": [], "time": []}}, "mouseout": {"state": {"target": ["31", "25", "26", "28", "0", "0", "30", "33", "29", "27", "28", "27", "27", "8", "11", "10", "8"], "time": [3300, 3432, 3920, 3987, 4137, 7197, 7286, 7484, 8727, 10057, 11124, 11572, 13872, 14209, 15471, 18173, 18414]}, "edge": {"target": [], "time": []}}}, "displayed_time": "28.00", "trialTime": 33409, "trial_type": "mouselab-mdp", "trial_index": 23, "time_elapsed": 1341197, "internal_node_id": "0.0-4.0-1.0-8.0"}}, {"uniqueid": "w63645500:a77350315", "current_trial": 24, "dateTime": 1691161293101, "trialdata": {"revealed_states": [], "clicked_states": ["17", "20", "21", "22", "16", "18", "31", "32", "33"], "num_clicks_accrued": [0, 0, 0, 0, 0, 0, 0, 0, 0, 0, 0, 0, 0], "stateRewards": ["", -2, -2, -7, -13, -10, 49, -68, -1, 84, 70, 88, 1, 4, 4, 12, -57, 25, 30, 8, -1, -77, 57, 2, 3, 2, 3, -18, -80, 23, -15, -41, 70, 11], "withholdReward": false, "trial_id": "mdp_trial_10", "block": "test", "trialIndex": 13, "score": 49.4, "costs": -12.600000000000001, "simulationMode": [null, null, null, null, null], "rewards": [2, 3, 2, -15, 70], "path": ["0", "0", "23", "24", "25", "30", "32"], "rt": [25388, 580, 147, 210, 827], "actions": ["left", "left", "left", "down", "down"], "actionTimes": [28941, 30154, 30806, 31784, 33168], "queries": {"click": {"state": {"target": ["17", "20", "21", "22", "16", "18", "31", "32", "33"], "time": [6090, 9045, 11987, 14343, 16373, 18599, 21003, 23782, 26436]}, "edge": {"target": [], "time": []}}, "mouseover": {"state": {"target": ["12", "15", "17", "17", "20", "20", "21", "21", "22", "13", "15", "16", "15", "18", "12", "31", "32", "33"], "time": [4700, 4800, 4834, 6064, 6847, 8554, 9861, 11594, 12840, 15059, 15245, 15547, 17422, 18105, 19413, 20289, 23154, 25788]}, "edge": {"target": [], "time": []}}, "mouseout": {"state": {"target": ["9", "3", "2", "1", "0", "0", "12", "15", "17", "17", "20", "20", "21", "21", "22", "13", "15", "16", "15", "18", "12", "31", "32"], "time": [891, 949, 1019, 1337, 1358, 1871, 4768, 4817, 4852, 6548, 8441, 9722, 11360, 12531, 14553, 15108, 15394, 17346, 17506, 19354, 19467, 23107, 24852]}, "edge": {"target": [], "time": []}}}, "displayed_time": "33.71", "trialTime": 37992, "trial_type": "mouselab-mdp", "trial_index": 24, "time_elapsed": 1379979, "internal_node_id": "0.0-4.0-1.0-9.0"}}, {"uniqueid": "w63645500:a77350315", "current_trial": 25, "dateTime": 1691161332081, "trialdata": {"revealed_states": [], "clicked_states": ["9", "11", "27", "28", "29", "33", "32", "31", "21", "20", "22"], "num_clicks_accrued": [0, 0, 0, 0, 0, 0, 0, 0, 0, 0, 0, 0, 0], "stateRewards": ["", -1, 3, 1, -7, 56, 76, 57, 3, 11, -9, 14, 1, -2, 2, 8, -77, -3, 79, -5, 88, 24, -66, -2, -1, 7, -7, -30, 14, -76, 11, -36, 28, -6], "withholdReward": false, "trial_id": "mdp_trial_11", "block": "test", "trialIndex": 14, "score": 68.6, "costs": -15.400000000000002, "simulationMode": [null, null, null, null, null], "rewards": [1, -2, 2, -5, 88], "path": ["0", "0", "12", "13", "14", "19", "20"], "rt": [26054, 21, 382, 801, 154], "actions": ["right", "right", "right", "down", "right"], "actionTimes": [29880, 30436, 31391, 32772, 33462], "queries": {"click": {"state": {"target": ["9", "11", "27", "28", "29", "33", "32", "31", "21", "20", "22"], "time": [5986, 7908, 10066, 11874, 13681, 15560, 18015, 20392, 22200, 24202, 26451]}, "edge": {"target": [], "time": []}}, "mouseover": {"state": {"target": ["10", "8", "9", "11", "27", "28", "26", "29", "33", "32", "31", "21", "21", "20", "19", "22", "14", "17"], "time": [5107, 5259, 5434, 6782, 8782, 11305, 12643, 12780, 15067, 16435, 18815, 21172, 21611, 23325, 25216, 25516, 27414, 27892]}, "edge": {"target": [], "time": []}}, "mouseout": {"state": {"target": ["33", "31", "0", "10", "8", "9", "11", "11", "27", "28", "26", "29", "33", "33", "32", "31", "21", "21", "20", "19", "22", "14"], "time": [1063, 1144, 1596, 5143, 5347, 6563, 8128, 8543, 10878, 12629, 12693, 14504, 15784, 16155, 18562, 20914, 21481, 23056, 25099, 25352, 27253, 27695]}, "edge": {"target": [], "time": []}}}, "displayed_time": "34.01", "trialTime": 35782, "trial_type": "mouselab-mdp", "trial_index": 25, "time_elapsed": 1418960, "internal_node_id": "0.0-4.0-1.0-10.0"}}, {"uniqueid": "w63645500:a77350315", "current_trial": 26, "dateTime": 1691161386491, "trialdata": {"revealed_states": [], "clicked_states": ["5", "9", "11", "10", "6", "7", "18", "16", "17", "14", "21", "20", "22", "31", "28", "32"], "num_clicks_accrued": [0, 0, 0, 0, 0, 0, 0, 0, 0, 0, 0, 0, 0], "stateRewards": ["", 2, 4, -6, -13, -75, -81, 30, 7, 5, 59, -65, -1, -1, 7, 14, -38, 36, -41, 1, -54, -5, 64, 2, -1, 5, 6, -19, 79, 11, 16, -33, -50, 58], "withholdReward": false, "trial_id": "mdp_trial_12", "block": "test", "trialIndex": 15, "score": 68.60000000000001, "costs": -22.399999999999995, "simulationMode": [null, null, null, null, null], "rewards": [2, -1, 5, 6, 79], "path": ["0", "0", "23", "24", "25", "26", "28"], "rt": [37740, 116, 303, 639, 1209], "actions": ["left", "left", "left", "up", "right"], "actionTimes": [44186, 44824, 45677, 46848, 48749], "queries": {"click": {"state": {"target": ["5", "9", "11", "10", "6", "7", "18", "16", "17", "14", "21", "20", "22", "31", "28", "32"], "time": [8603, 10275, 12138, 14956, 16736, 18658, 20513, 22786, 24445, 26741, 28617, 30657, 32627, 34920, 37489, 39738]}, "edge": {"target": [], "time": []}}, "mouseover": {"state": {"target": ["1", "2", "3", "5", "9", "11", "10", "4", "6", "7", "18", "16", "17", "14", "19", "22", "19", "14", "19", "21", "20", "19", "22", "31", "24", "28", "24", "30", "32", "25"], "time": [7709, 7779, 7909, 8112, 9756, 11590, 13253, 15787, 16109, 17673, 19654, 21315, 23777, 25271, 25539, 25723, 26059, 26209, 27387, 27667, 29414, 31258, 31550, 34441, 35922, 36983, 38494, 38741, 38969, 42024]}, "edge": {"target": [], "time": []}}, "mouseout": {"state": {"target": ["17", "0", "1", "2", "3", "5", "9", "11", "10", "4", "6", "7", "18", "16", "17", "14", "19", "22", "19", "14", "19", "21", "20", "19", "22", "31", "24", "28", "24", "30", "32", "25"], "time": [1790, 7663, 7739, 7816, 8026, 9354, 11306, 12930, 15628, 16002, 17584, 19415, 20737, 23420, 25075, 25482, 25639, 25875, 26125, 27375, 27508, 29315, 31241, 31310, 33739, 35562, 36645, 38452, 38576, 38794, 41628, 42057]}, "edge": {"target": [], "time": []}}}, "displayed_time": "49.33", "trialTime": 52090, "trial_type": "mouselab-mdp", "trial_index": 26, "time_elapsed": 1473369, "internal_node_id": "0.0-4.0-1.0-11.0"}}, {"uniqueid": "w63645500:a77350315", "current_trial": 27, "dateTime": 1691161439241, "trialdata": {"revealed_states": [], "clicked_states": ["33", "32", "31", "27", "29", "28", "11", "10", "9", "5", "7", "6", "18", "17", "20", "21", "22"], "num_clicks_accrued": [0, 0, 0, 0, 0, 0, 0, 0, 0, 0, 0, 0, 0], "stateRewards": ["", 1, 2, -3, -5, 66, -50, -47, -5, 1, 28, -27, 1, 1, -1, -6, 37, -25, 56, 1, -82, -66, -40, -1, -4, -7, 15, -61, -23, 26, 10, 14, -56, 29], "withholdReward": false, "trial_id": "mdp_trial_13", "block": "test", "trialIndex": 16, "score": 37.2, "costs": -23.799999999999994, "simulationMode": [null, null, null, null, null], "rewards": [1, 2, -3, -5, 66], "path": ["0", "0", "1", "2", "3", "4", "5"], "rt": [37751, 117, 326, 2032, 736], "actions": ["up", "up", "up", "right", "up"], "actionTimes": [41068, 41782, 42668, 45289, 46590], "queries": {"click": {"state": {"target": ["33", "32", "31", "27", "29", "28", "11", "10", "9", "5", "7", "6", "18", "17", "20", "21", "22"], "time": [4888, 7215, 8912, 10603, 12223, 14128, 15969, 17761, 20172, 22140, 24269, 25993, 28882, 31486, 33506, 35614, 37414]}, "edge": {"target": [], "time": []}}, "mouseover": {"state": {"target": ["24", "25", "33", "32", "31", "27", "29", "26", "28", "11", "10", "8", "9", "5", "4", "7", "6", "16", "18", "15", "17", "20", "21", "22", "12"], "time": [4017, 4095, 4544, 5545, 7942, 9865, 11590, 12944, 13149, 14933, 17047, 18350, 18542, 20742, 22611, 22752, 25007, 27064, 28296, 29356, 29474, 32594, 34098, 36642, 39447]}, "edge": {"target": [], "time": []}}, "mouseout": {"state": {"target": ["25", "0", "24", "25", "33", "32", "31", "27", "29", "26", "28", "11", "10", "8", "9", "5", "4", "7", "6", "16", "18", "15", "17", "20", "21", "22", "12"], "time": [961, 1627, 4050, 4365, 5412, 7745, 9603, 11453, 12842, 13103, 14845, 16884, 18340, 18396, 20654, 22362, 22658, 24876, 26722, 28162, 29325, 29410, 32201, 34048, 36222, 39116, 39487]}, "edge": {"target": [], "time": []}}}, "displayed_time": "47.15", "trialTime": 49930, "trial_type": "mouselab-mdp", "trial_index": 27, "time_elapsed": 1526120, "internal_node_id": "0.0-4.0-1.0-12.0"}}, {"uniqueid": "w63645500:a77350315", "current_trial": 28, "dateTime": 1691161482203, "trialdata": {"revealed_states": [], "clicked_states": ["33", "32", "31", "21", "20", "17", "22", "16", "18", "6", "5"], "num_clicks_accrued": [0, 0, 0, 0, 0, 0, 0, 0, 0, 0, 0, 0, 0], "stateRewards": ["", 1, -1, -7, -7, -22, 15, -13, 13, 26, -32, 38, -1, 1, -7, -4, 16, -62, 86, 12, -54, 56, 64, -2, -1, 6, 14, -57, 37, 62, -6, -25, 50, -70], "withholdReward": false, "trial_id": "mdp_trial_14", "block": "test", "trialIndex": 17, "score": 59.599999999999994, "costs": -15.400000000000002, "simulationMode": [null, null, null, null, null], "rewards": [-1, 1, -7, -4, 86], "path": ["0", "0", "12", "13", "14", "15", "18"], "rt": [29661, 690, 322, 672, 171], "actions": ["right", "right", "right", "up", "left"], "actionTimes": [32692, 34222, 35106, 36352, 37058], "queries": {"click": {"state": {"target": ["33", "32", "31", "21", "20", "17", "22", "16", "18", "6", "5"], "time": [5026, 7994, 9963, 12358, 14297, 16726, 18802, 21395, 23701, 26079, 28524]}, "edge": {"target": [], "time": []}}, "mouseover": {"state": {"target": ["30", "33", "32", "31", "21", "20", "17", "14", "19", "22", "13", "16", "18", "6", "5"], "time": [4285, 4431, 5829, 8766, 11162, 13199, 16032, 17414, 17518, 17702, 19627, 19908, 22441, 25080, 27206]}, "edge": {"target": [], "time": []}}, "mouseout": {"state": {"target": ["0", "30", "33", "32", "31", "21", "20", "17", "14", "19", "22", "13", "16", "18", "6"], "time": [1414, 4321, 5646, 8550, 10542, 12990, 15316, 17287, 17470, 17652, 19614, 19707, 22041, 24601, 26314]}, "edge": {"target": [], "time": []}}}, "displayed_time": "37.75", "trialTime": 39450, "trial_type": "mouselab-mdp", "trial_index": 28, "time_elapsed": 1569082, "internal_node_id": "0.0-4.0-1.0-13.0"}}, {"uniqueid": "w63645500:a77350315", "current_trial": 29, "dateTime": 1691161535509, "trialdata": {"revealed_states": [], "clicked_states": ["9", "11", "10", "28", "27", "29", "32", "33", "31", "22", "21", "20", "17", "16", "18", "6", "5", "7"], "num_clicks_accrued": [0, 0, 0, 0, 0, 0, 0, 0, 0, 0, 0, 0, 0], "stateRewards": ["", 1, 2, -6, -13, -51, 22, -4, -12, -44, -12, 6, -2, -2, -2, -14, -46, -4, -77, -2, 36, -79, 41, 2, -4, 2, -6, -55, 59, 70, -5, 39, -19, 24], "withholdReward": false, "trial_id": "mdp_trial_15", "block": "test", "trialIndex": 18, "score": 38.80000000000001, "costs": -25.199999999999992, "simulationMode": [null, null, null, null, null], "rewards": [2, -4, 2, -6, 70], "path": ["0", "0", "23", "24", "25", "26", "29"], "rt": [41798, 31, 197, 731, 96], "actions": ["left", "left", "left", "up", "left"], "actionTimes": [45286, 45834, 46595, 47840, 48459], "queries": {"click": {"state": {"target": ["9", "11", "10", "28", "27", "29", "32", "33", "31", "22", "21", "20", "17", "16", "18", "6", "5", "7"], "time": [5395, 7434, 9079, 11355, 13317, 15353, 17223, 19601, 21697, 23671, 25672, 28224, 30353, 32535, 34620, 37577, 39617, 42098]}, "edge": {"target": [], "time": []}}, "mouseover": {"state": {"target": ["8", "9", "11", "10", "28", "27", "29", "32", "33", "30", "31", "22", "21", "20", "17", "16", "18", "6", "5", "5", "4", "7", "3", "10", "28"], "time": [4597, 4895, 6325, 8455, 9862, 12022, 14458, 16335, 18316, 20370, 20650, 22788, 24573, 26306, 29095, 31062, 33229, 37092, 38245, 38607, 40286, 40416, 43028, 43314, 43412]}, "edge": {"target": [], "time": []}}, "mouseout": {"state": {"target": ["5", "0", "8", "9", "9", "11", "10", "28", "27", "29", "29", "32", "33", "30", "31", "22", "21", "20", "17", "16", "18", "6", "5", "5", "4", "7", "3", "10"], "time": [1142, 4389, 4661, 5636, 6114, 8121, 9726, 11880, 14095, 15552, 16030, 18153, 20317, 20425, 22259, 24290, 25887, 28864, 31052, 33173, 35719, 38118, 38344, 40206, 40339, 42785, 43194, 43361]}, "edge": {"target": [], "time": []}}}, "displayed_time": "49.00", "trialTime": 50617, "trial_type": "mouselab-mdp", "trial_index": 29, "time_elapsed": 1622388, "internal_node_id": "0.0-4.0-1.0-14.0"}}, {"uniqueid": "w63645500:a77350315", "current_trial": 30, "dateTime": 1691161569684, "trialdata": {"revealed_states": [], "clicked_states": ["9", "5", "21", "32", "29", "27", "28", "33", "31", "16"], "num_clicks_accrued": [0, 0, 0, 0, 0, 0, 0, 0, 0, 0, 0, 0, 0], "stateRewards": ["", 1, 1, -5, 8, -6, 45, 16, -6, -7, -22, -38, -1, -4, 8, -11, -16, 21, -45, -15, -59, -32, 42, -1, 3, 6, 11, -7, 34, -27, -8, 85, 43, -9], "withholdReward": false, "trial_id": "mdp_trial_16", "block": "test", "trialIndex": 19, "score": 71, "costs": -14.000000000000002, "simulationMode": [null, null, null, null, null], "rewards": [-1, 3, 6, -8, 85], "path": ["0", "0", "23", "24", "25", "30", "31"], "rt": [22322, 798, 177, 860, 54], "actions": ["left", "left", "left", "down", "right"], "actionTimes": [24991, 26350, 27070, 28477, 29255], "queries": {"click": {"state": {"target": ["9", "5", "21", "32", "29", "27", "28", "33", "31", "16"], "time": [4290, 6080, 7881, 9455, 11636, 14143, 16132, 18123, 20241, 22038]}, "edge": {"target": [], "time": []}}, "mouseover": {"state": {"target": ["2", "3", "9", "5", "14", "21", "32", "33", "29", "27", "28", "24", "30", "33", "31", "31", "12", "18", "16", "15", "15"], "time": [3472, 3518, 3790, 5196, 6691, 7070, 8912, 10404, 10908, 12519, 14815, 16752, 16826, 17068, 19225, 19578, 20840, 20949, 21145, 23008, 23393]}, "edge": {"target": [], "time": []}}, "mouseout": {"state": {"target": ["28", "23", "0", "2", "3", "9", "5", "14", "21", "32", "33", "29", "27", "28", "24", "30", "33", "31", "31", "12", "18", "16", "15"], "time": [639, 690, 3428, 3508, 3553, 4944, 6596, 6750, 8382, 10192, 10500, 12219, 14672, 16733, 16811, 16976, 18889, 19274, 20792, 20900, 21101, 23000, 23090]}, "edge": {"target": [], "time": []}}}, "displayed_time": "29.80", "trialTime": 31458, "trial_type": "mouselab-mdp", "trial_index": 30, "time_elapsed": 1656562, "internal_node_id": "0.0-4.0-1.0-15.0"}}, {"uniqueid": "w63645500:a77350315", "current_trial": 31, "dateTime": 1691161600144, "trialdata": {"revealed_states": [], "clicked_states": ["21", "20", "17", "33", "32"], "num_clicks_accrued": [0, 0, 0, 0, 0, 0, 0, 0, 0, 0, 0, 0, 0], "stateRewards": ["", -1, -1, 7, -15, -43, -21, -84, -9, -45, -66, 2, 1, -2, 2, 8, -27, 44, -52, -5, -84, 11, 53, 1, 4, -4, 16, 83, -82, -15, -16, 68, -43, 81], "withholdReward": false, "trial_id": "mdp_trial_17", "block": "test", "trialIndex": 20, "score": 59, "costs": -7, "simulationMode": [null, null, null, null, null], "rewards": [1, 4, -4, -16, 81], "path": ["0", "0", "23", "24", "25", "30", "33"], "rt": [14836, 18, 372, 2334, 631], "actions": ["left", "left", "left", "down", "left"], "actionTimes": [18705, 19260, 20212, 23403, 24585], "queries": {"click": {"state": {"target": ["21", "20", "17", "33", "32"], "time": [5920, 8358, 10796, 13596, 15967]}, "edge": {"target": [], "time": []}}, "mouseover": {"state": {"target": ["22", "21", "20", "17", "33", "32"], "time": [4971, 5189, 6617, 9145, 12469, 14704]}, "edge": {"target": [], "time": []}}, "mouseout": {"state": {"target": ["15", "17", "12", "22", "21", "20", "17", "33"], "time": [1138, 1188, 1722, 5044, 6140, 9004, 11450, 14416]}, "edge": {"target": [], "time": []}}}, "displayed_time": "25.14", "trialTime": 27765, "trial_type": "mouselab-mdp", "trial_index": 31, "time_elapsed": 1687023, "internal_node_id": "0.0-4.0-1.0-16.0"}}, {"uniqueid": "w63645500:a77350315", "current_trial": 32, "dateTime": 1691161624819, "trialdata": {"revealed_states": [], "clicked_states": [], "num_clicks_accrued": [0, 0, 0, 0, 0, 0, 0, 0, 0, 0, 0, 0, 0], "stateRewards": ["", 1, 1, 4, 11, 83, -66, 18, -16, -23, 5, 25, 1, -3, 1, -12, 18, 24, -86, -11, -64, 36, 40, 2, 1, -6, 13, 55, 29, 72, -2, 81, -72, -41], "withholdReward": false, "trial_id": "mdp_trial_18", "block": "test", "trialIndex": 21, "score": -76, "costs": 0, "simulationMode": [null, null, null, null, null], "rewards": [1, -3, 1, -11, -64], "path": ["0", "0", "12", "13", "14", "19", "20"], "rt": [9263, 105, 253, 846, 1428], "actions": ["right", "right", "right", "down", "right"], "actionTimes": [13306, 13967, 14778, 16168, 18136], "queries": {"click": {"state": {"target": [], "time": []}, "edge": {"target": [], "time": []}}, "mouseover": {"state": {"target": ["32", "23", "24", "23", "24", "23"], "time": [7474, 9118, 9474, 10295, 10551, 10827]}, "edge": {"target": [], "time": []}}, "mouseout": {"state": {"target": ["32", "31", "0", "32", "23", "24", "23", "24", "23"], "time": [1069, 1102, 6855, 8862, 9285, 9746, 10351, 10792, 11009]}, "edge": {"target": [], "time": []}}}, "displayed_time": "18.70", "trialTime": 22066, "trial_type": "mouselab-mdp", "trial_index": 32, "time_elapsed": 1711698, "internal_node_id": "0.0-4.0-1.0-17.0"}}, {"uniqueid": "w63645500:a77350315", "current_trial": 33, "dateTime": 1691161647601, "trialdata": {"revealed_states": [], "clicked_states": ["32", "33", "27", "29", "28"], "num_clicks_accrued": [0, 0, 0, 0, 0, 0, 0, 0, 0, 0, 0, 0, 0], "stateRewards": ["", 2, -1, 4, -9, -43, 7, 54, -13, 38, -40, -83, -1, 2, -8, -10, 34, -33, 11, -14, -79, 65, 26, 1, 2, 4, 10, 21, 1, 86, 4, -53, 28, -29], "withholdReward": false, "trial_id": "mdp_trial_19", "block": "test", "trialIndex": 22, "score": 96, "costs": -7, "simulationMode": [null, null, null, null, null], "rewards": [1, 2, 4, 10, 86], "path": ["0", "0", "23", "24", "25", "26", "29"], "rt": [11825, 17, 437, 783, 184], "actions": ["left", "left", "left", "up", "left"], "actionTimes": [14791, 15367, 16549, 17872, 18609], "queries": {"click": {"state": {"target": ["32", "33", "27", "29", "28"], "time": [4598, 6391, 8247, 11070, 13197]}, "edge": {"target": [], "time": []}}, "mouseover": {"state": {"target": ["0", "23", "32", "32", "33", "27", "27", "29", "26", "28"], "time": [3284, 3478, 3558, 3976, 5366, 7142, 7511, 8985, 11757, 12197]}, "edge": {"target": [], "time": []}}, "mouseout": {"state": {"target": ["0", "23", "32", "32", "33", "27", "27", "29", "26"], "time": [3467, 3516, 3603, 5144, 6994, 7275, 8840, 11697, 11849]}, "edge": {"target": [], "time": []}}}, "displayed_time": "19.18", "trialTime": 20621, "trial_type": "mouselab-mdp", "trial_index": 33, "time_elapsed": 1734480, "internal_node_id": "0.0-4.0-1.0-18.0"}}, {"uniqueid": "w63645500:a77350315", "current_trial": 34, "dateTime": 1691161685905, "trialdata": {"revealed_states": [], "clicked_states": ["17", "16", "5", "9", "10", "7", "31", "27", "32"], "num_clicks_accrued": [0, 0, 0, 0, 0, 0, 0, 0, 0, 0, 0, 0, 0], "stateRewards": ["", 1, -1, 8, -3, 38, 85, -20, -4, 8, 23, 73, 2, -4, 6, -13, 44, 7, -28, -11, -77, 45, -69, 1, -1, -7, -11, 75, -51, -87, 7, 36, -53, -26], "withholdReward": false, "trial_id": "mdp_trial_20", "block": "test", "trialIndex": 23, "score": 44.4, "costs": -12.600000000000001, "simulationMode": [null, null, null, null, null], "rewards": [1, -1, -7, -11, 75], "path": ["0", "0", "23", "24", "25", "26", "27"], "rt": [24175, 692, 432, 521, 855], "actions": ["left", "left", "left", "up", "up"], "actionTimes": [26762, 29353, 30352, 31454, 33011], "queries": {"click": {"state": {"target": ["17", "16", "5", "9", "10", "7", "31", "27", "32"], "time": [4506, 6664, 8995, 11102, 12718, 15069, 17274, 19833, 23690]}, "edge": {"target": [], "time": []}}, "mouseover": {"state": {"target": ["12", "18", "15", "17", "15", "16", "4", "5", "5", "9", "8", "10", "2", "7", "23", "31", "28", "27", "30", "32", "25", "26", "25", "30", "32"], "time": [3504, 3594, 3644, 3969, 5691, 6039, 7406, 7469, 7872, 9769, 11703, 11901, 13264, 13408, 15851, 16634, 17841, 18203, 20456, 20943, 21997, 22246, 22827, 22872, 23235]}, "edge": {"target": [], "time": []}}, "mouseout": {"state": {"target": ["28", "23", "0", "12", "18", "15", "17", "15", "16", "4", "5", "5", "9", "8", "10", "2", "7", "23", "31", "28", "27", "30", "32", "25", "26", "25", "30", "32"], "time": [601, 687, 1034, 3539, 3634, 3753, 5568, 5900, 7263, 7455, 7527, 9532, 11647, 11758, 12925, 13354, 15626, 15906, 17493, 17894, 20206, 20504, 21961, 22038, 22769, 22862, 22969, 23906]}, "edge": {"target": [], "time": []}}}, "displayed_time": "33.56", "trialTime": 35147, "trial_type": "mouselab-mdp", "trial_index": 34, "time_elapsed": 1772784, "internal_node_id": "0.0-4.0-1.0-19.0"}}, {"uniqueid": "w63645500:a77350315", "current_trial": 35, "dateTime": 1691161719631, "trialdata": {"revealed_states": [], "clicked_states": ["32", "33", "27", "29", "20"], "num_clicks_accrued": [0, 0, 0, 0, 0, 0, 0, 0, 0, 0, 0, 0, 0], "stateRewards": ["", -1, 3, -5, -2, -13, -9, -34, -7, -81, 32, 35, -2, -2, 1, -14, -32, 81, 7, 4, 82, 56, -8, -1, 3, -8, 6, -24, -24, -53, 2, 38, 61, 54], "withholdReward": false, "trial_id": "mdp_trial_21", "block": "test", "trialIndex": 24, "score": 76, "costs": -7, "simulationMode": [null, null, null, null, null], "rewards": [-2, -2, 1, 4, 82], "path": ["0", "0", "12", "13", "14", "19", "20"], "rt": [16184, 394, 257, 633, 775], "actions": ["right", "right", "right", "down", "right"], "actionTimes": [23358, 24290, 25083, 26352, 27667], "queries": {"click": {"state": {"target": ["32", "33", "27", "29", "20"], "time": [8778, 10781, 13549, 15908, 19541]}, "edge": {"target": [], "time": []}}, "mouseover": {"state": {"target": ["12", "32", "33", "27", "29", "25", "31", "19", "20", "21"], "time": [7798, 8032, 9603, 12665, 15207, 16536, 17101, 18368, 18948, 20802]}, "edge": {"target": [], "time": []}}, "mouseout": {"state": {"target": ["32", "0", "12", "32", "33", "27", "29", "25", "31", "19", "20"], "time": [879, 7541, 7835, 9484, 11893, 14286, 16444, 16591, 18116, 18552, 20552]}, "edge": {"target": [], "time": []}}}, "displayed_time": "28.22", "trialTime": 31085, "trial_type": "mouselab-mdp", "trial_index": 35, "time_elapsed": 1806509, "internal_node_id": "0.0-4.0-1.0-20.0"}}, {"uniqueid": "w63645500:a77350315", "current_trial": 36, "dateTime": 1691161741935, "trialdata": {"revealed_states": [], "clicked_states": ["21", "20"], "num_clicks_accrued": [0, 0, 0, 0, 0, 0, 0, 0, 0, 0, 0, 0, 0], "stateRewards": ["", -2, -1, -6, -14, -55, 78, -13, 11, 14, -71, 59, 2, 2, 6, -6, 9, 38, 14, 7, 85, 11, 68, 1, -4, -1, -3, -63, -85, 9, -2, 63, -86, -10], "withholdReward": false, "trial_id": "mdp_trial_22", "block": "test", "trialIndex": 25, "score": 99.2, "costs": -2.8, "simulationMode": [null, null, null, null, null], "rewards": [2, 2, 6, 7, 85], "path": ["0", "0", "12", "13", "14", "19", "20"], "rt": [8048, 861, 20, 781, 356], "actions": ["right", "right", "right", "down", "right"], "actionTimes": [11030, 12530, 13174, 14503, 15437], "queries": {"click": {"state": {"target": ["21", "20"], "time": [4974, 7228]}, "edge": {"target": [], "time": []}}, "mouseover": {"state": {"target": ["0", "22", "21", "20", "14", "4", "15"], "time": [3914, 4011, 4074, 6142, 8898, 9110, 9447]}, "edge": {"target": [], "time": []}}, "mouseout": {"state": {"target": ["21", "0", "0", "22", "21", "20", "14", "4", "15"], "time": [828, 1363, 3950, 4057, 5799, 8747, 8980, 9157, 9510]}, "edge": {"target": [], "time": []}}}, "displayed_time": "16.98", "trialTime": 19424, "trial_type": "mouselab-mdp", "trial_index": 36, "time_elapsed": 1828814, "internal_node_id": "0.0-4.0-1.0-21.0"}}, {"uniqueid": "w63645500:a77350315", "current_trial": 37, "dateTime": 1691161771356, "trialdata": {"revealed_states": [], "clicked_states": ["9", "10", "33", "32", "21", "20"], "num_clicks_accrued": [0, 0, 0, 0, 0, 0, 0, 0, 0, 0, 0, 0, 0], "stateRewards": ["", -1, 2, -6, 6, -82, -19, -39, -16, -83, 11, -33, -2, -2, 4, -6, -82, -1, -19, -6, -10, -67, -41, -2, 1, -7, 16, -23, -78, -52, 14, 31, -71, 74], "withholdReward": false, "trial_id": "mdp_trial_23", "block": "test", "trialIndex": 26, "score": 71.6, "costs": -8.4, "simulationMode": [null, null, null, null, null], "rewards": [-2, 1, -7, 14, 74], "path": ["0", "0", "23", "24", "25", "30", "33"], "rt": [15964, 134, 665, 906, 278], "actions": ["left", "left", "left", "down", "left"], "actionTimes": [19360, 20068, 21373, 22848, 23694], "queries": {"click": {"state": {"target": ["9", "10", "33", "32", "21", "20"], "time": [5218, 7612, 9633, 11789, 14318, 16612]}, "edge": {"target": [], "time": []}}, "mouseover": {"state": {"target": ["10", "8", "9", "8", "10", "28", "25", "33", "32", "21", "21", "20"], "time": [4258, 4386, 4691, 6011, 6336, 8429, 8620, 8951, 10502, 12760, 13260, 15372]}, "edge": {"target": [], "time": []}}, "mouseout": {"state": {"target": ["5", "0", "10", "8", "9", "8", "10", "28", "25", "33", "32", "21", "21"], "time": [755, 4175, 4324, 4524, 6002, 6069, 8374, 8492, 8683, 10333, 12021, 12835, 15186]}, "edge": {"target": [], "time": []}}}, "displayed_time": "24.22", "trialTime": 26023, "trial_type": "mouselab-mdp", "trial_index": 37, "time_elapsed": 1858234, "internal_node_id": "0.0-4.0-1.0-22.0"}}, {"uniqueid": "w63645500:a77350315", "current_trial": 38, "dateTime": 1691161797159, "trialdata": {"revealed_states": [], "clicked_states": ["32", "27", "9"], "num_clicks_accrued": [0, 0, 0, 0, 0, 0, 0, 0, 0, 0, 0, 0, 0], "stateRewards": ["", -2, 1, -5, 2, -68, 80, 33, 10, 67, -59, 20, -1, -3, 3, 14, 74, -2, 24, -16, 63, 80, 46, -1, 4, 6, 12, 83, -38, -43, -4, 43, 14, -79], "withholdReward": false, "trial_id": "mdp_trial_24", "block": "test", "trialIndex": 27, "score": 99.8, "costs": -4.199999999999999, "simulationMode": [null, null, null, null, null], "rewards": [-1, 4, 6, 12, 83], "path": ["0", "0", "23", "24", "25", "26", "27"], "rt": [9894, 138, 377, 453, 74], "actions": ["left", "left", "left", "up", "up"], "actionTimes": [14693, 15402, 16351, 17340, 17977], "queries": {"click": {"state": {"target": ["32", "27", "9"], "time": [6707, 9358, 10994]}, "edge": {"target": [], "time": []}}, "mouseover": {"state": {"target": ["0", "32", "30", "27", "11", "9"], "time": [5626, 6147, 7412, 7797, 10127, 10195]}, "edge": {"target": [], "time": []}}, "mouseout": {"state": {"target": ["20", "0", "0", "0", "32", "30", "27", "11"], "time": [1104, 1533, 1897, 5662, 7402, 7488, 9994, 10184]}, "edge": {"target": [], "time": []}}}, "displayed_time": "18.86", "trialTime": 20619, "trial_type": "mouselab-mdp", "trial_index": 38, "time_elapsed": 1884038, "internal_node_id": "0.0-4.0-1.0-23.0"}}, {"uniqueid": "w63645500:a77350315", "current_trial": 39, "dateTime": 1691161852381, "trialdata": {"revealed_states": [], "clicked_states": ["17", "21", "16", "9", "5", "33", "32", "31", "27", "29", "28", "11", "10", "7", "6", "18", "22", "20"], "num_clicks_accrued": [0, 0, 0, 0, 0, 0, 0, 0, 0, 0, 0, 0, 0], "stateRewards": ["", 1, -3, -1, 9, -34, -40, 22, -7, 45, 53, -11, 2, 4, 5, 15, 21, 37, -49, -3, 80, -28, -34, 1, -3, 1, 1, -40, -6, -5, -16, -85, -86, 59], "withholdReward": false, "trial_id": "mdp_trial_25", "block": "test", "trialIndex": 28, "score": 62.80000000000001, "costs": -25.199999999999992, "simulationMode": [null, null, null, null, null], "rewards": [2, 4, 5, -3, 80], "path": ["0", "0", "12", "13", "14", "19", "20"], "rt": [41107, 18, 311, 683, 722], "actions": ["right", "right", "right", "down", "right"], "actionTimes": [45191, 45797, 46687, 47927, 49207], "queries": {"click": {"state": {"target": ["17", "21", "16", "9", "5", "33", "32", "31", "27", "29", "28", "11", "10", "7", "6", "18", "22", "20"], "time": [5704, 7387, 9478, 11133, 13489, 15652, 17773, 19860, 22327, 24371, 26445, 28456, 30755, 32812, 34987, 37102, 39019, 41205]}, "edge": {"target": [], "time": []}}, "mouseover": {"state": {"target": ["18", "15", "17", "19", "21", "15", "16", "3", "9", "5", "25", "33", "32", "31", "24", "27", "29", "26", "28", "2", "3", "8", "11", "10", "4", "6", "7", "7", "6", "18", "13", "22", "19", "20", "19"], "time": [4839, 4928, 5136, 6643, 6776, 8230, 9143, 10341, 10465, 12479, 14301, 14901, 16541, 18694, 20698, 21606, 23055, 24896, 25346, 27119, 27352, 27417, 27604, 29173, 31328, 31404, 31869, 32067, 33797, 36010, 37746, 38080, 39897, 40443, 43095]}, "edge": {"target": [], "time": []}}, "mouseout": {"state": {"target": ["9", "2", "1", "18", "15", "17", "19", "21", "15", "16", "3", "9", "5", "25", "33", "33", "32", "31", "24", "27", "29", "26", "28", "2", "3", "8", "11", "10", "4", "6", "7", "7", "6", "18", "13", "22", "19", "20", "19", "22"], "time": [1395, 1459, 1621, 4890, 4998, 5921, 6718, 8048, 8540, 10328, 10457, 12457, 14182, 14364, 15878, 16262, 18019, 20604, 20748, 22877, 24842, 25110, 26943, 27296, 27406, 27509, 28931, 31319, 31385, 31723, 31968, 33400, 35700, 37685, 37870, 39776, 40103, 43027, 43135, 43597]}, "edge": {"target": [], "time": []}}}, "displayed_time": "49.75", "trialTime": 51187, "trial_type": "mouselab-mdp", "trial_index": 39, "time_elapsed": 1939260, "internal_node_id": "0.0-4.0-1.0-24.0"}}, {"uniqueid": "w63645500:a77350315", "current_trial": 40, "dateTime": 1691161875250, "trialdata": {"revealed_states": [], "clicked_states": ["32", "21", "22", "31"], "num_clicks_accrued": [0, 0, 0, 0, 0, 0, 0, 0, 0, 0, 0, 0, 0], "stateRewards": ["", -1, 2, 5, -6, 13, -64, -47, 8, -79, -80, -33, 1, 2, -2, -16, 56, -71, -10, 3, 29, 44, 85, -1, 4, 5, 4, -36, -56, 19, 8, 52, -13, -2], "withholdReward": false, "trial_id": "mdp_trial_26", "block": "test", "trialIndex": 29, "score": 83.4, "costs": -5.6, "simulationMode": [null, null, null, null, null], "rewards": [1, 2, -2, 3, 85], "path": ["0", "0", "12", "13", "14", "19", "22"], "rt": [10802, 207, 222, 719, 144], "actions": ["right", "right", "right", "down", "left"], "actionTimes": [14090, 14957, 15718, 16988, 17681], "queries": {"click": {"state": {"target": ["32", "21", "22", "31"], "time": [4846, 6540, 9189, 11333]}, "edge": {"target": [], "time": []}}, "mouseover": {"state": {"target": ["0", "32", "21", "22", "31"], "time": [3841, 4224, 6019, 7461, 9941]}, "edge": {"target": [], "time": []}}, "mouseout": {"state": {"target": ["0", "0", "32", "21", "22"], "time": [1357, 3959, 5402, 7149, 9675]}, "edge": {"target": [], "time": []}}}, "displayed_time": "18.23", "trialTime": 20088, "trial_type": "mouselab-mdp", "trial_index": 40, "time_elapsed": 1962129, "internal_node_id": "0.0-4.0-1.0-25.0"}}, {"uniqueid": "w63645500:a77350315", "current_trial": 41, "dateTime": 1691161938576, "trialdata": {"revealed_states": [], "clicked_states": ["32", "27", "9", "5", "20"], "num_clicks_accrued": [0, 0, 0, 0, 0, 0, 0, 0, 0, 0, 0, 0, 0], "stateRewards": ["", 1, -3, -4, -11, -56, 61, -47, -16, -28, -9, 69, -2, -3, -4, -8, 40, -86, 59, -4, 80, 27, 54, -1, 3, -1, 8, 67, 23, 50, 6, 83, -43, -29], "withholdReward": false, "trial_id": "mdp_trial_27", "block": "test", "trialIndex": 30, "score": 60, "costs": -7, "simulationMode": [null, null, null, null, null], "rewards": [-2, -3, -4, -4, 80], "path": ["0", "0", "12", "13", "14", "19", "20"], "rt": [15777, 329, 687, 476, 243], "actions": ["right", "right", "right", "down", "right"], "actionTimes": [52183, 53346, 54606, 55619, 56719], "queries": {"click": {"state": {"target": ["32", "27", "9", "5", "20"], "time": [38606, 40756, 43208, 45570, 48406]}, "edge": {"target": [], "time": []}}, "mouseover": {"state": {"target": ["0", "31", "32", "27", "9", "5", "6", "14", "20", "21"], "time": [37523, 37655, 37820, 39569, 41900, 44307, 47300, 47519, 47631, 50293]}, "edge": {"target": [], "time": []}}, "mouseout": {"state": {"target": ["31", "0", "0", "31", "32", "27", "9", "5", "6", "14", "20"], "time": [32984, 36677, 37564, 37698, 39300, 41058, 44050, 47228, 47354, 47574, 49867]}, "edge": {"target": [], "time": []}}}, "displayed_time": "57.27", "trialTime": 59245, "trial_type": "mouselab-mdp", "trial_index": 41, "time_elapsed": 2025455, "internal_node_id": "0.0-4.0-1.0-26.0"}}, {"uniqueid": "w63645500:a77350315", "current_trial": 42, "dateTime": 1691161964361, "trialdata": {"revealed_states": [], "clicked_states": ["32", "27"], "num_clicks_accrued": [0, 0, 0, 0, 0, 0, 0, 0, 0, 0, 0, 0, 0], "stateRewards": ["", 1, 1, -2, 7, -31, -6, 76, 1, -36, -16, -53, 2, 1, 7, 13, -47, -10, 47, -7, 72, 46, -56, -2, -2, -2, 11, -80, 44, 38, 16, 67, 85, -78], "withholdReward": false, "trial_id": "mdp_trial_28", "block": "test", "trialIndex": 31, "score": 92.2, "costs": -2.8, "simulationMode": [null, null, null, null, null], "rewards": [-2, -2, -2, 16, 85], "path": ["0", "0", "23", "24", "25", "30", "32"], "rt": [6874, 272, 272, 319, 219], "actions": ["left", "left", "left", "down", "down"], "actionTimes": [10634, 11467, 12362, 13219, 14011], "queries": {"click": {"state": {"target": ["32", "27"], "time": [6097, 8162]}, "edge": {"target": [], "time": []}}, "mouseover": {"state": {"target": ["23", "31", "32", "32", "25", "26", "27"], "time": [4529, 4587, 4964, 5421, 6786, 6847, 7284]}, "edge": {"target": [], "time": []}}, "mouseout": {"state": {"target": ["21", "0", "23", "31", "32", "32", "25", "26"], "time": [754, 4482, 4573, 4637, 5031, 6682, 6839, 7096]}, "edge": {"target": [], "time": []}}}, "displayed_time": "17.76", "trialTime": 22253, "trial_type": "mouselab-mdp", "trial_index": 42, "time_elapsed": 2051241, "internal_node_id": "0.0-4.0-1.0-27.0"}}, {"uniqueid": "w63645500:a77350315", "current_trial": 43, "dateTime": 1691162017972, "trialdata": {"revealed_states": [], "clicked_states": ["21", "20", "5", "9", "29", "33", "32", "16", "17", "18"], "num_clicks_accrued": [0, 0, 0, 0, 0, 0, 0, 0, 0, 0, 0, 0, 0], "stateRewards": ["", 2, 4, 4, -8, -36, -33, 38, 16, -51, 57, 57, 1, 3, 4, -6, 45, 68, 87, 1, 63, 24, -55, -2, 2, -6, -13, -63, -50, 8, 2, 80, 6, 60], "withholdReward": false, "trial_id": "mdp_trial_29", "block": "test", "trialIndex": 32, "score": 56, "costs": -14.000000000000002, "simulationMode": [null, null, null, null, null], "rewards": [1, 3, 4, -6, 68], "path": ["0", "0", "12", "13", "14", "15", "17"], "rt": [35013, 246, 299, 295, 1017], "actions": ["right", "right", "right", "up", "right"], "actionTimes": [42953, 43708, 44506, 45340, 47061], "queries": {"click": {"state": {"target": ["21", "20", "5", "9", "29", "33", "32", "16", "17", "18"], "time": [9823, 12234, 15214, 17339, 19701, 21351, 23143, 26904, 30208, 32442]}, "edge": {"target": [], "time": []}}, "mouseover": {"state": {"target": ["0", "22", "21", "21", "20", "14", "5", "9", "8", "10", "24", "25", "29", "33", "32", "31", "0", "16", "16", "17", "15", "18", "27", "28"], "time": [8002, 8854, 8980, 9255, 11093, 12951, 14154, 16336, 18143, 18220, 18499, 18642, 18899, 20462, 22693, 25516, 25631, 26063, 26320, 29589, 31269, 31635, 40257, 41981]}, "edge": {"target": [], "time": []}}, "mouseout": {"state": {"target": ["27", "0", "22", "21", "21", "20", "14", "5", "9", "8", "10", "24", "25", "29", "33", "32", "31", "0", "16", "16", "17", "15", "18", "27"], "time": [787, 8645, 8898, 9072, 10668, 12907, 13149, 16001, 18135, 18203, 18276, 18553, 18740, 20241, 21936, 25473, 25582, 25682, 26101, 29322, 31220, 31446, 39225, 41897]}, "edge": {"target": [], "time": []}}}, "displayed_time": "47.59", "trialTime": 49047, "trial_type": "mouselab-mdp", "trial_index": 43, "time_elapsed": 2104850, "internal_node_id": "0.0-4.0-1.0-28.0"}}, {"uniqueid": "w63645500:a77350315", "current_trial": 44, "dateTime": 1691162059711, "trialdata": {"revealed_states": [], "clicked_states": ["25", "32", "33", "27", "9", "11", "6", "15", "17", "20"], "num_clicks_accrued": [0, 0, 0, 0, 0, 0, 0, 0, 0, 0, 0, 0, 0], "stateRewards": ["", 1, 2, 7, 13, 88, -71, 27, 3, 60, 5, -53, -2, 2, -6, -1, -30, 79, 47, -4, -14, 46, 68, 1, 1, 8, 10, -14, 86, 48, -11, -67, -44, 5], "withholdReward": false, "trial_id": "mdp_trial_30", "block": "test", "trialIndex": 33, "score": 58, "costs": -14.000000000000002, "simulationMode": [null, null, null, null, null], "rewards": [-2, 2, -6, -1, 79], "path": ["0", "0", "12", "13", "14", "15", "17"], "rt": [25730, 269, 98, 582, 49], "actions": ["right", "right", "right", "up", "right"], "actionTimes": [33159, 33985, 34641, 35795, 36376], "queries": {"click": {"state": {"target": ["25", "32", "33", "27", "9", "11", "6", "15", "17", "20"], "time": [9493, 11848, 14034, 16519, 18910, 21688, 23780, 25797, 28151, 30819]}, "edge": {"target": [], "time": []}}, "mouseover": {"state": {"target": ["0", "23", "24", "25", "30", "32", "33", "30", "31", "25", "26", "27", "10", "9", "8", "11", "3", "4", "6", "16", "15", "17", "20"], "time": [7510, 8749, 8900, 9066, 10317, 11158, 13251, 14752, 14893, 15526, 15747, 15994, 17785, 18401, 19752, 21116, 22328, 22441, 22919, 24460, 24716, 27037, 30166]}, "edge": {"target": [], "time": []}}, "mouseout": {"state": {"target": ["28", "24", "23", "0", "23", "24", "25", "30", "32", "33", "30", "31", "25", "26", "27", "10", "9", "8", "11", "3", "4", "6", "16", "15", "17", "20"], "time": [879, 968, 1202, 8740, 8785, 8951, 10263, 10537, 12880, 14741, 14841, 15322, 15663, 15796, 17360, 17928, 19460, 20984, 21924, 22380, 22596, 24313, 24609, 26616, 29598, 38150]}, "edge": {"target": [], "time": []}}}, "displayed_time": "36.94", "trialTime": 38700, "trial_type": "mouselab-mdp", "trial_index": 44, "time_elapsed": 2146589, "internal_node_id": "0.0-4.0-1.0-29.0"}}, {"uniqueid": "w63645500:a77350315", "current_trial": 45, "dateTime": 1691162087805, "trialdata": {"revealed_states": [], "clicked_states": ["32", "9", "10", "31", "28", "22"], "num_clicks_accrued": [0, 0, 0, 0, 0, 0, 0, 0, 0, 0, 0, 0, 0], "stateRewards": ["", -1, -3, -5, -14, -13, -47, 79, 8, -60, -64, 41, -1, 2, 3, 13, -46, 61, -79, -11, -64, -65, 23, 1, -2, 6, -14, 46, 32, 21, 7, 75, -66, 15], "withholdReward": false, "trial_id": "mdp_trial_31", "block": "test", "trialIndex": 34, "score": 78.6, "costs": -8.4, "simulationMode": [null, null, null, null, null], "rewards": [1, -2, 6, 7, 75], "path": ["0", "0", "23", "24", "25", "30", "31"], "rt": [16959, 20, 291, 39, 206], "actions": ["left", "left", "left", "down", "right"], "actionTimes": [20664, 21240, 22089, 23085, 23847], "queries": {"click": {"state": {"target": ["32", "9", "10", "31", "28", "22"], "time": [5324, 7039, 9401, 11174, 13415, 16870]}, "edge": {"target": [], "time": []}}, "mouseover": {"state": {"target": ["32", "11", "9", "5", "10", "31", "24", "28", "24", "23", "22", "22", "13", "18"], "time": [4884, 6042, 6518, 8142, 8749, 10111, 12636, 12877, 15142, 15896, 16007, 16377, 19214, 19622]}, "edge": {"target": [], "time": []}}, "mouseout": {"state": {"target": ["0", "32", "11", "9", "5", "10", "31", "31", "24", "28", "24", "23", "22", "22", "13"], "time": [4364, 5957, 6164, 7710, 8420, 9999, 11377, 12614, 12731, 15069, 15280, 15941, 16124, 18972, 19472]}, "edge": {"target": [], "time": []}}}, "displayed_time": "24.39", "trialTime": 25536, "trial_type": "mouselab-mdp", "trial_index": 45, "time_elapsed": 2174684, "internal_node_id": "0.0-4.0-1.0-30.0"}}, {"uniqueid": "w63645500:a77350315", "current_trial": 46, "dateTime": 1691162124326, "trialdata": {"revealed_states": [], "clicked_states": ["31", "21", "16", "20", "9", "11", "10", "29"], "num_clicks_accrued": [0, 0, 0, 0, 0, 0, 0, 0, 0, 0, 0, 0, 0], "stateRewards": ["", 1, 2, 3, 16, 63, -25, 16, -4, -14, 82, -66, -1, -3, -3, -11, -14, 19, 46, 3, -34, -82, 66, -2, -3, 4, -5, -63, 77, -37, -1, -45, -41, 84], "withholdReward": false, "trial_id": "mdp_trial_32", "block": "test", "trialIndex": 35, "score": 72.8, "costs": -11.200000000000001, "simulationMode": [null, null, null, null, null], "rewards": [1, 2, 3, -4, 82], "path": ["0", "0", "1", "2", "3", "8", "10"], "rt": [23228, 324, 131, 1486, 672], "actions": ["up", "up", "up", "left", "down"], "actionTimes": [27031, 27928, 28615, 30637, 31850], "queries": {"click": {"state": {"target": ["31", "21", "16", "20", "9", "11", "10", "29"], "time": [5632, 8279, 10946, 13319, 16046, 18100, 20901, 23439]}, "edge": {"target": [], "time": []}}, "mouseover": {"state": {"target": ["31", "21", "32", "15", "16", "20", "19", "18", "5", "9", "8", "11", "10", "10", "26", "29", "29"], "time": [4832, 7671, 9537, 10130, 10214, 12251, 13955, 14134, 14383, 14932, 16647, 17017, 19001, 20418, 21485, 21694, 22110]}, "edge": {"target": [], "time": []}}, "mouseout": {"state": {"target": ["18", "0", "31", "21", "32", "15", "16", "20", "19", "18", "5", "9", "8", "11", "10", "10", "26", "29"], "time": [1036, 4790, 6400, 8900, 9911, 10204, 11689, 13944, 14021, 14193, 14677, 16629, 16702, 18679, 20074, 21431, 21638, 21855]}, "edge": {"target": [], "time": []}}}, "displayed_time": "32.43", "trialTime": 33453, "trial_type": "mouselab-mdp", "trial_index": 46, "time_elapsed": 2211203, "internal_node_id": "0.0-4.0-1.0-31.0"}}, {"uniqueid": "w63645500:a77350315", "current_trial": 47, "dateTime": 1691162175024, "trialdata": {"revealed_states": [], "clicked_states": ["21", "16", "9", "32", "33"], "num_clicks_accrued": [0, 0, 0, 0, 0, 0, 0, 0, 0, 0, 0, 0, 0], "stateRewards": ["", 1, -4, -6, 11, -20, 8, -30, 1, -38, 88, 42, 2, 3, 5, -12, -8, -74, 30, -8, 67, -19, 42, 2, -1, 4, 13, 50, -68, 2, -8, -15, 87, -46], "withholdReward": false, "trial_id": "mdp_trial_33", "block": "test", "trialIndex": 36, "score": 77, "costs": -7, "simulationMode": [null, null, null, null, null], "rewards": [2, -1, 4, -8, 87], "path": ["0", "0", "23", "24", "25", "30", "32"], "rt": [12034, 555, 290, 418, 212], "actions": ["left", "left", "left", "down", "down"], "actionTimes": [41540, 42654, 43465, 44394, 45138], "queries": {"click": {"state": {"target": ["21", "16", "9", "32", "33"], "time": [31488, 33291, 35327, 37435, 39230]}, "edge": {"target": [], "time": []}}, "mouseover": {"state": {"target": ["0", "22", "21", "19", "14", "15", "16", "2", "8", "9", "28", "30", "32", "33", "29"], "time": [30426, 30550, 30941, 32213, 32286, 32413, 32632, 34068, 34174, 34333, 36117, 36361, 36680, 38680, 40233]}, "edge": {"target": [], "time": []}}, "mouseout": {"state": {"target": ["29", "26", "23", "0", "0", "22", "21", "19", "14", "15", "16", "2", "8", "9", "9", "28", "30", "32", "33", "29"], "time": [25556, 25624, 26173, 26356, 30467, 30742, 31740, 32274, 32405, 32621, 33506, 34118, 34231, 35553, 35951, 36204, 36521, 38526, 40050, 40287]}, "edge": {"target": [], "time": []}}}, "displayed_time": "45.64", "trialTime": 47361, "trial_type": "mouselab-mdp", "trial_index": 47, "time_elapsed": 2261903, "internal_node_id": "0.0-4.0-1.0-32.0"}}, {"uniqueid": "w63645500:a77350315", "current_trial": 48, "dateTime": 1691162228061, "trialdata": {"revealed_states": [], "clicked_states": ["32", "27", "10", "7", "5", "17", "20", "22", "21", "33", "31", "16", "18", "29", "28"], "num_clicks_accrued": [0, 0, 0, 0, 0, 0, 0, 0, 0, 0, 0, 0, 0], "stateRewards": ["", -2, 2, -5, -6, 10, -66, -58, -10, -11, -63, -70, -1, -4, -5, 7, 66, -64, -43, -3, 45, -37, 4, -2, -2, -6, -4, -30, 33, 43, 15, -32, -65, -59], "withholdReward": false, "trial_id": "mdp_trial_34", "block": "test", "trialIndex": 37, "score": 42, "costs": -20.999999999999996, "simulationMode": [null, null, null, null, null], "rewards": [-1, -4, -5, 7, 66], "path": ["0", "0", "12", "13", "14", "15", "16"], "rt": [40177, 56, 412, 510, 40], "actions": ["right", "right", "right", "up", "up"], "actionTimes": [44298, 44910, 45877, 46952, 47551], "queries": {"click": {"state": {"target": ["32", "27", "10", "7", "5", "17", "20", "22", "21", "33", "31", "16", "18", "29", "28"], "time": [5729, 7986, 10981, 13487, 15896, 18786, 20849, 23558, 25669, 28563, 30655, 32830, 35067, 37830, 40016]}, "edge": {"target": [], "time": []}}, "mouseover": {"state": {"target": ["32", "32", "30", "25", "26", "27", "10", "7", "18", "4", "5", "17", "20", "21", "22", "21", "30", "33", "33", "30", "31", "15", "16", "18", "28", "25", "29", "28"], "time": [5052, 5244, 6246, 6320, 6414, 6790, 10185, 12632, 14335, 15229, 15353, 18268, 19970, 22243, 23018, 24933, 27385, 27774, 28137, 29195, 29347, 31605, 32098, 34276, 36200, 36496, 37368, 38652]}, "edge": {"target": [], "time": []}}, "mouseout": {"state": {"target": ["0", "32", "32", "30", "25", "26", "27", "10", "7", "18", "4", "5", "17", "20", "21", "22", "21", "30", "33", "33", "30", "31", "15", "16", "18", "28", "25", "29"], "time": [4907, 5089, 6234, 6312, 6402, 6473, 10007, 11789, 14156, 15159, 15278, 17689, 19397, 21493, 22959, 24338, 25914, 27570, 28034, 29184, 29250, 31533, 31855, 33719, 35309, 36439, 36551, 38395]}, "edge": {"target": [], "time": []}}}, "displayed_time": "48.14", "trialTime": 49243, "trial_type": "mouselab-mdp", "trial_index": 48, "time_elapsed": 2314940, "internal_node_id": "0.0-4.0-1.0-33.0"}}, {"uniqueid": "w63645500:a77350315", "current_trial": 49, "dateTime": 1691162255642, "trialdata": {"revealed_states": [], "clicked_states": ["32", "27"], "num_clicks_accrued": [0, 0, 0, 0, 0, 0, 0, 0, 0, 0, 0, 0, 0], "stateRewards": ["", -1, -3, -6, -2, -7, 80, -45, -3, -38, -72, 76, 2, 1, 7, 4, -62, 14, -74, 14, -87, -21, -88, -2, 1, -7, -10, 66, 56, -76, 10, -29, -72, -70], "withholdReward": false, "trial_id": "mdp_trial_35", "block": "test", "trialIndex": 38, "score": 45.2, "costs": -2.8, "simulationMode": [null, null, null, null, null], "rewards": [-2, 1, -7, -10, 66], "path": ["0", "0", "23", "24", "25", "26", "27"], "rt": [10073, 188, 174, 480, 70], "actions": ["left", "left", "left", "up", "up"], "actionTimes": [13670, 14465, 15182, 16241, 16857], "queries": {"click": {"state": {"target": ["32", "27"], "time": [5178, 7318]}, "edge": {"target": [], "time": []}}, "mouseover": {"state": {"target": ["31", "32", "27", "11"], "time": [4265, 4609, 7287, 12297]}, "edge": {"target": [], "time": []}}, "mouseout": {"state": {"target": ["28", "23", "0", "31", "32", "27", "11"], "time": [893, 1044, 4256, 4357, 5372, 11214, 12354]}, "edge": {"target": [], "time": []}}}, "displayed_time": "20.61", "trialTime": 22105, "trial_type": "mouselab-mdp", "trial_index": 49, "time_elapsed": 2342521, "internal_node_id": "0.0-4.0-1.0-34.0"}}, {"uniqueid": "w63645500:a77350315", "current_trial": 50, "dateTime": 1691162353234, "trialdata": {"revealed_states": [], "clicked_states": ["21", "16", "17", "20", "22", "32", "33", "27", "28", "9", "5", "6", "7", "11", "10", "29", "31", "18"], "num_clicks_accrued": [0, 0, 0, 0, 0, 0, 0, 0, 0, 0, 0, 0, 0], "stateRewards": ["", -1, 4, -5, 9, 29, -75, -42, -16, 24, -28, -41, 2, -3, 1, 10, 60, 47, 55, -1, -53, 22, -40, 2, -3, -6, 4, -26, 44, 54, 15, -76, 42, 14], "withholdReward": false, "trial_id": "mdp_trial_36", "block": "test", "trialIndex": 39, "score": 44.80000000000001, "costs": -25.199999999999992, "simulationMode": [null, null, null, null, null], "rewards": [2, -3, 1, 10, 60], "path": ["0", "0", "12", "13", "14", "15", "16"], "rt": [49187, 980, 150, 452, 53], "actions": ["right", "right", "right", "up", "up"], "actionTimes": [83789, 89492, 90238, 91275, 91868], "queries": {"click": {"state": {"target": ["21", "16", "17", "20", "22", "32", "33", "27", "28", "9", "5", "6", "7", "11", "10", "29", "31", "18"], "time": [36119, 38347, 40666, 43110, 45313, 48164, 50907, 53493, 55686, 57810, 60183, 62214, 66375, 68735, 70886, 73069, 75665, 79116]}, "edge": {"target": [], "time": []}}, "mouseover": {"state": {"target": ["22", "21", "16", "16", "17", "20", "22", "32", "33", "27", "28", "8", "9", "5", "6", "7", "7", "11", "10", "26", "29", "24", "31", "12", "18"], "time": [35241, 35563, 36876, 37202, 39517, 41750, 44586, 47662, 50093, 52966, 54928, 56942, 57171, 58793, 60977, 64243, 65751, 67800, 69635, 72279, 72521, 74494, 75099, 78304, 78581]}, "edge": {"target": [], "time": []}}, "mouseout": {"state": {"target": ["2", "0", "22", "21", "16", "16", "17", "20", "22", "32", "33", "27", "28", "8", "9", "9", "5", "6", "7", "7", "11", "10", "26", "29", "24", "31", "12", "18"], "time": [30265, 35116, 35388, 36774, 36929, 39151, 41449, 43321, 47240, 49226, 52035, 54519, 56469, 56998, 58033, 58565, 60731, 64235, 65510, 67167, 69573, 71799, 72411, 74173, 74988, 76690, 78382, 81605]}, "edge": {"target": [], "time": []}}}, "displayed_time": "92.53", "trialTime": 94750, "trial_type": "mouselab-mdp", "trial_index": 50, "time_elapsed": 2440112, "internal_node_id": "0.0-4.0-1.0-35.0"}}, {"uniqueid": "w63645500:a77350315", "current_trial": 51, "dateTime": 1691162393760, "trialdata": {"revealed_states": [], "clicked_states": ["31", "10", "7", "22", "18", "21", "20", "17", "16", "28"], "num_clicks_accrued": [0, 0, 0, 0, 0, 0, 0, 0, 0, 0, 0, 0, 0], "stateRewards": ["", 2, -1, 5, 8, 75, -35, -77, 1, -9, -81, -58, 1, 2, -7, 5, 77, -16, 19, 16, -10, -18, 40, -2, 3, 7, -5, 64, 1, -62, 10, 27, 10, 65], "withholdReward": false, "trial_id": "mdp_trial_37", "block": "test", "trialIndex": 40, "score": 64, "costs": -14.000000000000002, "simulationMode": [null, null, null, null, null], "rewards": [1, 2, -7, 5, 77], "path": ["0", "0", "12", "13", "14", "15", "16"], "rt": [25053, 654, 236, 2127, 97], "actions": ["right", "right", "right", "up", "up"], "actionTimes": [27774, 29078, 29904, 33282, 33952], "queries": {"click": {"state": {"target": ["31", "10", "7", "22", "18", "21", "20", "17", "16", "28"], "time": [4285, 6200, 8235, 10488, 12511, 15769, 17982, 20698, 22758, 25715]}, "edge": {"target": [], "time": []}}, "mouseover": {"state": {"target": ["0", "31", "23", "10", "3", "7", "18", "13", "13", "22", "13", "18", "15", "20", "21", "20", "17", "16", "12", "24", "28", "28"], "time": [3432, 3746, 4918, 5413, 7037, 7170, 8976, 9091, 9497, 9760, 11151, 11304, 14051, 14412, 15000, 16737, 19232, 21564, 23396, 23922, 24216, 24809]}, "edge": {"target": [], "time": []}}, "mouseout": {"state": {"target": ["12", "0", "31", "23", "10", "3", "7", "18", "13", "13", "22", "13", "18", "15", "20", "21", "20", "17", "16", "12", "24", "28", "28"], "time": [1425, 3460, 4876, 4941, 6728, 7093, 8912, 9081, 9366, 9613, 11067, 11287, 14041, 14295, 14696, 16727, 18593, 21198, 23305, 23456, 24142, 24333, 26274]}, "edge": {"target": [], "time": []}}}, "displayed_time": "34.56", "trialTime": 35944, "trial_type": "mouselab-mdp", "trial_index": 51, "time_elapsed": 2480639, "internal_node_id": "0.0-4.0-1.0-36.0"}}, {"uniqueid": "w63645500:a77350315", "current_trial": 52, "dateTime": 1691162446083, "trialdata": {"revealed_states": [], "clicked_states": ["32", "27", "9", "5", "21", "20", "17", "22", "18", "29", "33", "28", "31"], "num_clicks_accrued": [0, 0, 0, 0, 0, 0, 0, 0, 0, 0, 0, 0, 0], "stateRewards": ["", 1, 1, -5, 10, -31, 73, 14, -8, -23, 63, -70, -1, 2, 8, 7, 25, -59, 27, -10, -40, -71, -15, -2, 3, -8, -5, -19, 77, -34, 7, 67, 63, 19], "withholdReward": false, "trial_id": "mdp_trial_38", "block": "test", "trialIndex": 41, "score": 46.8, "costs": -18.2, "simulationMode": [null, null, null, null, null], "rewards": [-2, 3, -8, -5, 77], "path": ["0", "0", "23", "24", "25", "26", "28"], "rt": [35724, 1378, 1994, 268, 760], "actions": ["left", "left", "left", "up", "right"], "actionTimes": [38786, 40736, 43317, 44145, 45435], "queries": {"click": {"state": {"target": ["32", "27", "9", "5", "21", "20", "17", "22", "18", "29", "33", "28", "31"], "time": [4986, 6838, 8872, 10841, 12913, 15923, 18541, 20619, 22664, 25301, 27961, 30050, 32079]}, "edge": {"target": [], "time": []}}, "mouseover": {"state": {"target": ["0", "31", "32", "30", "26", "27", "11", "9", "5", "21", "21", "20", "22", "30", "17", "13", "22", "13", "18", "16", "16", "1", "28", "26", "29", "33", "25", "26", "28", "31"], "time": [3826, 3938, 4479, 5566, 5697, 5984, 7573, 7948, 9636, 11948, 12364, 13487, 16556, 17122, 17971, 19153, 19450, 21132, 21247, 23302, 23618, 24362, 24456, 24517, 24617, 26100, 28569, 28638, 28888, 30651]}, "edge": {"target": [], "time": []}}, "mouseout": {"state": {"target": ["14", "13", "12", "0", "0", "31", "32", "30", "26", "27", "11", "9", "5", "5", "21", "21", "20", "22", "30", "17", "13", "22", "13", "18", "16", "16", "1", "28", "26", "29", "33", "25", "26", "28"], "time": [896, 946, 1009, 1268, 3868, 4046, 5536, 5625, 5882, 7563, 7636, 9503, 11050, 11488, 12007, 13402, 16489, 16622, 17192, 19135, 19380, 21121, 21191, 22883, 23371, 24282, 24411, 24502, 24559, 25887, 28509, 28623, 28699, 30518]}, "edge": {"target": [], "time": []}}}, "displayed_time": "45.98", "trialTime": 48910, "trial_type": "mouselab-mdp", "trial_index": 52, "time_elapsed": 2532962, "internal_node_id": "0.0-4.0-1.0-37.0"}}, {"uniqueid": "w63645500:a77350315", "current_trial": 53, "dateTime": 1691162493320, "trialdata": {"revealed_states": [], "clicked_states": ["31", "21", "32", "9", "27", "29", "33", "20", "17", "5", "6", "7", "11"], "num_clicks_accrued": [0, 0, 0, 0, 0, 0, 0, 0, 0, 0, 0, 0, 0], "stateRewards": ["", 1, -3, -2, 14, 49, -40, -39, 2, 26, -61, 73, 1, -4, -8, 12, 79, 29, -65, -13, 55, -26, 27, -1, 3, 3, 9, -17, -60, -18, -8, 35, -88, 69], "withholdReward": false, "trial_id": "mdp_trial_39", "block": "test", "trialIndex": 42, "score": 52.8, "costs": -18.2, "simulationMode": [null, null, null, null, null], "rewards": [1, -3, -2, 2, 73], "path": ["0", "0", "1", "2", "3", "8", "11"], "rt": [34101, 52, 138, 1118, 30], "actions": ["up", "up", "up", "left", "left"], "actionTimes": [37484, 38079, 38787, 40473, 41022], "queries": {"click": {"state": {"target": ["31", "21", "32", "9", "27", "29", "33", "20", "17", "5", "6", "7", "11"], "time": [5099, 6771, 8924, 10811, 12864, 15079, 17431, 19986, 22672, 26336, 28804, 31028, 33936]}, "edge": {"target": [], "time": []}}, "mouseover": {"state": {"target": ["31", "21", "32", "9", "27", "29", "33", "22", "20", "17", "16", "5", "5", "6", "7", "2", "8", "11"], "time": [4663, 6052, 8032, 10090, 11750, 14334, 15995, 18438, 19069, 20708, 25390, 25506, 25838, 27515, 29573, 32929, 33107, 33699]}, "edge": {"target": [], "time": []}}, "mouseout": {"state": {"target": ["31", "0", "0", "31", "21", "32", "9", "27", "29", "29", "33", "22", "20", "17", "16", "5", "5", "6", "7", "7", "2", "8"], "time": [786, 1002, 4153, 5312, 7425, 9463, 11384, 13916, 15333, 15607, 18189, 18581, 20602, 25204, 25450, 25558, 27310, 29416, 31275, 32887, 33021, 33695]}, "edge": {"target": [], "time": []}}}, "displayed_time": "41.61", "trialTime": 43249, "trial_type": "mouselab-mdp", "trial_index": 53, "time_elapsed": 2580198, "internal_node_id": "0.0-4.0-1.0-38.0"}}, {"uniqueid": "w63645500:a77350315", "current_trial": 54, "dateTime": 1691162544669, "trialdata": {"revealed_states": [], "clicked_states": ["32", "27", "9", "5", "21", "20", "17", "16", "18", "29", "33", "31", "28", "22"], "num_clicks_accrued": [0, 0, 0, 0, 0, 0, 0, 0, 0, 0, 0, 0, 0], "stateRewards": ["", -2, 1, -7, -8, -37, -76, -87, 11, 30, -63, 80, -1, 4, 2, -1, 42, 17, 52, -3, -75, -80, -68, 2, -3, -5, -15, -48, 82, 24, -7, 5, -22, -71], "withholdReward": false, "trial_id": "mdp_trial_40", "block": "test", "trialIndex": 43, "score": 41.400000000000006, "costs": -19.599999999999998, "simulationMode": [null, null, null, null, null], "rewards": [2, -3, -5, -15, 82], "path": ["0", "0", "23", "24", "25", "26", "28"], "rt": [35607, 252, 131, 825, 134], "actions": ["left", "left", "left", "up", "right"], "actionTimes": [41350, 42237, 42949, 44394, 45086], "queries": {"click": {"state": {"target": ["32", "27", "9", "5", "21", "20", "17", "16", "18", "29", "33", "31", "28", "22"], "time": [7369, 9005, 12208, 13822, 16324, 18328, 20212, 22553, 24789, 27740, 29884, 32421, 34983, 37711]}, "edge": {"target": [], "time": []}}, "mouseover": {"state": {"target": ["0", "32", "30", "27", "9", "9", "9", "5", "5", "4", "7", "18", "14", "19", "21", "20", "17", "16", "18", "23", "24", "25", "29", "33", "30", "31", "28", "22", "13", "18"], "time": [5795, 6680, 7822, 8098, 9642, 10045, 11644, 12826, 13236, 14519, 14647, 14909, 15171, 15480, 15552, 17322, 19376, 20810, 23330, 25587, 25701, 25775, 26826, 29222, 31609, 31811, 34360, 36642, 38374, 38504]}, "edge": {"target": [], "time": []}}, "mouseout": {"state": {"target": ["11", "10", "0", "32", "30", "27", "9", "9", "9", "5", "5", "4", "7", "18", "14", "19", "21", "20", "17", "16", "18", "23", "24", "25", "29", "33", "30", "31", "28", "22", "13", "18"], "time": [958, 1207, 6410, 7811, 7888, 9631, 9798, 11176, 12277, 12908, 14498, 14580, 14704, 14964, 15429, 15542, 16561, 18837, 20742, 23119, 25006, 25642, 25761, 25876, 28612, 31503, 31727, 33960, 35254, 38289, 38427, 38570]}, "edge": {"target": [], "time": []}}}, "displayed_time": "45.65", "trialTime": 47707, "trial_type": "mouselab-mdp", "trial_index": 54, "time_elapsed": 2631548, "internal_node_id": "0.0-4.0-1.0-39.0"}}, {"uniqueid": "w63645500:a77350315", "current_trial": 55, "dateTime": 1691162604754, "trialdata": {"rt": 59399, "response": {"Q0": "$-2 to $2", "Q1": "$-16 to $16", "Q2": "$-88 to $88", "Q3": "The cost was always $1.4.", "Q4": "Very motivated"}, "question_order": [0, 1, 2, 3, 4], "trial_id": "final_quiz_control", "trial_type": "survey-multi-choice", "trial_index": 55, "time_elapsed": 2691633, "internal_node_id": "0.0-4.0-2.0"}}, {"uniqueid": "w63645500:a77350315", "current_trial": 56, "dateTime": 1691162788416, "trialdata": {"rt": 183083, "response": {"Q0": "I clicked the last moves to see the final value after i realised they determine the whole payout", "Q1": "yes, in the first few rounds i viewed from the end till finish", "Q2": "no difficult at all"}, "trial_id": "self_report_control", "trial_type": "survey-text", "trial_index": 56, "time_elapsed": 2875296, "internal_node_id": "0.0-4.0-3.0"}}, {"uniqueid": "w63645500:a77350315", "current_trial": 57, "dateTime": 1691162841050, "trialdata": {"rt": 52554, "response": {"gender": "female", "age": "21", "colorblind": "0", "effort": "1"}, "trial_type": "survey-html-form", "trial_index": 57, "time_elapsed": 2927930, "internal_node_id": "0.0-4.0-4.0"}}, {"uniqueid": "w63645500:a77350315", "current_trial": 58, "dateTime": 1691162878324, "trialdata": {"rt": 37188, "response": {"Q0": "no", "Q1": "no", "Q2": "no comment"}, "trial_type": "survey-text", "trial_index": 58, "time_elapsed": 2965203, "internal_node_id": "0.0-4.0-5.0"}}, {"uniqueid": "w63645500:a77350315", "current_trial": 59, "dateTime": 1691162881752, "trialdata": {"rt": 3351, "stimulus": "Press 'Finish HIT' in order to reach the completion code. Once the data has been saved, you will receive the code either in this window or in the original browser window where you started the experiment.\n", "response": 0, "trial_type": "html-button-response", "trial_index": 59, "time_elapsed": 2968632, "internal_node_id": "0.0-5.0"}}, {"uniqueid": "w63645500:a77350315", "current_trial": 60, "dateTime": 1691162883355, "trialdata": {"success": true, "trial_type": "fullscreen", "trial_index": 60, "time_elapsed": 2970235, "internal_node_id": "0.0-6.0"}}], "questiondata": {"params": {"CODE": "C6DMOQA6", "MIN_TIME": 14, "inspectCost": 1, "startTime": "Fri Aug 04 2023 16:38:25 GMT+0200 (South Africa Standard Time)", "bonusRate": 0.002, "variance": "1_2_4_8_44", "branching": "31123"}, "final_score": 2237.4}, "eventdata": [{"eventtype": "initialized", "value": null, "timestamp": 1691159900848, "interval": 0}, {"eventtype": "window_resize", "value": [1024, 654], "timestamp": 1691159900848, "interval": 0}, {"eventtype": "window_resize", "value": [1024, 654], "timestamp": 1691159902324, "interval": 1476}, {"eventtype": "window_resize", "value": [1366, 670], "timestamp": 1691159912817, "interval": 10493}, {"eventtype": "window_resize", "value": [1366, 768], "timestamp": 1691159918674, "interval": 5857}, {"eventtype": "focus", "value": "off", "timestamp": 1691160602983, "interval": 684309}, {"eventtype": "focus", "value": "on", "timestamp": 1691160602984, "interval": 1}, {"eventtype": "window_resize", "value": [1366, 670], "timestamp": 1691160603227, "interval": 243}, {"eventtype": "window_resize", "value": [1366, 768], "timestamp": 1691160605979, "interval": 2752}], "useragent": "Mozilla/5.0 (Windows NT 10.0; Win64; x64) AppleWebKit/537.36 (KHTML, like Gecko) Chrome/115.0.0.0 Safari/537.36", "mode": "live", "id": "w63645500:a77350315", "status": "user data saved", "Beginhit": "2023-08-04 14:29:26.239841", "Beginexp": "2023-08-04 14:29:51.060646", "Endhit": "2023-08-04 15:19:17.448912", "psiturkStatus": 3, "browser": "<redacted>", "platform": "windows", "language": "en-US"}