{"condition": 0, "counterbalance": 0, "assignmentId": "a10992669", "workerId": "w10978872", "hitId": "h24486881", "currenttrial": 61, "bonus": 0, "data": [{"uniqueid": "w10978872:a10992669", "current_trial": 0, "dateTime": 1691070733135, "trialdata": {"success": true, "trial_type": "fullscreen", "trial_index": 0, "time_elapsed": 4731, "internal_node_id": "0.0-0.0"}}, {"uniqueid": "w10978872:a10992669", "current_trial": 1, "dateTime": 1691070751220, "trialdata": {"view_history": [{"page_index": 0, "viewing_time": 18069}], "rt": 18070, "trial_id": "exp_instructions_control", "trial_type": "instructions", "trial_index": 1, "time_elapsed": 22817, "internal_node_id": "0.0-1.0"}}, {"uniqueid": "w10978872:a10992669", "current_trial": 2, "dateTime": 1691070754804, "trialdata": {"success": true, "trial_type": "fullscreen", "trial_index": 2, "time_elapsed": 26400, "internal_node_id": "0.0-2.0-0.0"}}, {"uniqueid": "w10978872:a10992669", "current_trial": 3, "dateTime": 1691070892482, "trialdata": {"view_history": [{"page_index": 0, "viewing_time": 76561}, {"page_index": 1, "viewing_time": 34744}, {"page_index": 2, "viewing_time": 16120}, {"page_index": 3, "viewing_time": 10248}], "rt": 137673, "trial_id": "mouselab_instructions_1_control", "trial_type": "instructions", "trial_index": 3, "time_elapsed": 164079, "internal_node_id": "0.0-2.0-1.0"}}, {"uniqueid": "w10978872:a10992669", "current_trial": 4, "dateTime": 1691070976861, "trialdata": {"revealed_states": [], "clicked_states": ["3", "15", "13", "19", "25", "26", "28", "27", "30", "31", "2", "8", "4", "9", "21", "23", "14", "29", "20", "6", "10", "1"], "num_clicks_accrued": [0, 0, 0, 0, 0, 0, 0, 0, 0, 0, 0, 0, 0], "stateRewards": ["", 10, 10, -10, -10, 10, -10, -10, 10, -10, 10, -10, -10, 10, 10, -10, 10, -10, 10, -10, -10, 10, -10, 10, 10, -10, 10, -10, -10, -10, 10, 10, -10, -10], "withholdReward": false, "trial_id": "practice_1", "block": "test", "trialIndex": 0, "score": -17.5, "costs": -11, "simulationMode": [null, null, null, null, null], "rewards": [10, 10, -10, -10, -10], "path": ["0", "0", "1", "2", "3", "4", "7"], "rt": [59326, 303, 6440, 1582, 5155], "actions": ["up", "up", "up", "right", "down"], "actionTimes": [64255, 65073, 72027, 74134, 79807], "queries": {"click": {"state": {"target": ["3", "15", "13", "19", "25", "26", "28", "27", "30", "31", "2", "8", "4", "9", "21", "23", "14", "29", "20", "6", "10", "1"], "time": [8576, 10334, 11580, 12648, 17852, 19903, 23665, 24965, 26413, 27698, 29251, 30819, 33086, 37389, 39923, 41174, 42785, 46839, 48211, 49525, 51004, 53419]}, "edge": {"target": [], "time": []}}, "mouseover": {"state": {"target": ["1", "2", "3", "7", "15", "14", "13", "19", "13", "12", "0", "23", "24", "25", "24", "26", "29", "28", "26", "27", "26", "24", "30", "31", "23", "2", "1", "3", "8", "10", "1", "7", "4", "7", "3", "2", "3", "8", "3", "8", "9", "8", "2", "7", "13", "19", "21", "0", "23", "23", "0", "12", "13", "14", "19", "25", "29", "24", "20", "13", "7", "6", "7", "1", "10", "11", "8", "1", "18", "15", "18", "12", "13", "12", "1", "14"], "time": [5619, 5919, 8351, 9449, 10002, 10864, 11365, 12349, 16416, 16479, 16578, 16645, 16728, 16865, 18830, 19331, 20679, 23419, 24427, 24544, 25378, 25744, 26196, 26864, 27912, 28444, 30011, 30437, 30643, 31128, 31393, 32492, 32810, 33360, 34294, 35076, 35404, 35692, 37026, 37064, 37261, 37708, 37774, 38174, 38677, 38842, 39476, 40590, 40740, 40970, 41624, 41724, 42157, 42474, 43522, 45973, 46590, 47188, 47885, 48804, 49071, 49189, 49804, 50105, 50584, 51538, 52304, 53240, 56288, 56955, 57516, 59103, 59421, 59907, 60786, 61754]}, "edge": {"target": [], "time": []}}, "mouseout": {"state": {"target": ["24", "2", "1", "0", "1", "2", "3", "7", "15", "14", "13", "19", "13", "13", "12", "0", "23", "24", "25", "24", "26", "26", "29", "26", "28", "26", "27", "26", "24", "30", "31", "23", "2", "1", "2", "3", "8", "8", "10", "1", "2", "7", "4", "7", "3", "2", "3", "8", "3", "8", "9", "8", "2", "7", "13", "19", "21", "0", "23", "23", "0", "12", "13", "14", "19", "14", "14", "25", "29", "24", "20", "13", "7", "6", "7", "1", "10", "11", "8", "1", "1", "1", "18", "15", "18", "12", "13", "12", "1", "14", "8", "4", "2", "3", "4", "7", "7", "6", "6", "7", "6", "15"], "time": [null, 371, 469, 4284, 5752, 8101, 9215, 9628, 10799, 11332, 12149, 13244, 15515, 16430, 16544, 16626, 16695, 16814, 18364, 19047, 19986, 20380, 21547, 23013, 24144, 24444, 25228, 25596, 25812, 26828, 27829, 27978, 29576, 30077, 30279, 30613, 30913, 31111, 31177, 31527, 32428, 32711, 33326, 33411, 35010, 35348, 35576, 36427, 37052, 37077, 37658, 37724, 38009, 38240, 38701, 39142, 40374, 40690, 40856, 41491, 41656, 42072, 42426, 43273, 44474, 44557, 45491, 46174, 47089, 47256, 48325, 48872, 49121, 49687, 49988, 50540, 51459, 52273, 52333, 53604, 53853, 54899, 56423, 57459, 57604, 59138, 59887, 59926, 60883, 61788, 66320, 69867, 70684, 72500, 75451, 75666, 77480, 77600, 78450, 80525, 80999, 82315]}, "edge": {"target": [], "time": []}}}, "displayed_time": "80.33", "trialTime": 82857, "trial_type": "mouselab-mdp", "trial_index": 4, "time_elapsed": 248457, "internal_node_id": "0.0-2.0-2.0-0.0"}}, {"uniqueid": "w10978872:a10992669", "current_trial": 5, "dateTime": 1691071006938, "trialdata": {"revealed_states": [], "clicked_states": ["13"], "num_clicks_accrued": [0, 0, 0, 0, 0, 0, 0, 0, 0, 0, 0, 0, 0], "stateRewards": ["", -10, -10, -10, 10, -10, -10, -10, 10, -10, -10, 10, 10, 10, 10, -10, 10, -10, -10, -10, -10, 10, -10, 10, -10, 10, 10, -10, 10, 10, 10, 10, -10, 10], "withholdReward": false, "trial_id": "practice_2", "block": "test", "trialIndex": 1, "score": 13, "costs": -0.5, "simulationMode": [null, null, null, null, null], "rewards": [10, 10, 10, -10, -10], "path": ["0", "0", "12", "13", "14", "15", "17"], "rt": [5063, 223, 13947, 1207, 264], "actions": ["right", "right", "right", "up", "right"], "actionTimes": [7391, 8137, 22610, 24333, 25122], "queries": {"click": {"state": {"target": ["13"], "time": [4861]}, "edge": {"target": [], "time": []}}, "mouseover": {"state": {"target": ["1", "2", "2", "2", "13", "18"], "time": [2463, 2530, 3248, 4014, 4433, 5195]}, "edge": {"target": [], "time": []}}, "mouseout": {"state": {"target": ["0", "1", "2", "2", "2", "13", "18", "15", "15", "13", "13", "13", "15", "15", "16", "15", "14", "13", "14", "14", "17", "15", "13"], "time": [1026, 2496, 2963, 3680, 4230, 4935, 5861, 11328, 11778, 14193, 14477, 16626, 16771, 17842, 18376, 19176, 20342, 21139, 22358, 25857, 26124, 27589, 27703]}, "edge": {"target": [], "time": []}}}, "displayed_time": "25.64", "trialTime": 29666, "trial_type": "mouselab-mdp", "trial_index": 5, "time_elapsed": 278533, "internal_node_id": "0.0-2.0-2.0-1.0"}}, {"uniqueid": "w10978872:a10992669", "current_trial": 6, "dateTime": 1691071015290, "trialdata": {"view_history": [{"page_index": 0, "viewing_time": 6757}, {"page_index": 1, "viewing_time": 1584}], "rt": 8341, "trial_id": "mouselab_instructions_2_control", "trial_type": "instructions", "trial_index": 6, "time_elapsed": 286887, "internal_node_id": "0.0-2.0-3.0"}}, {"uniqueid": "w10978872:a10992669", "current_trial": 7, "dateTime": 1691071054946, "trialdata": {"rt": 39652, "response": {"Q0": "The cost for clicking on nodes may vary between nodes.", "Q1": "I will receive a $1 bonus if I perform well, otherwise I will receive no bonus.", "Q2": "No, the structure of the web will be different each time.", "Q3": "To get the highest total score.", "Q4": "Only before moving the spider.", "Q5": "10 seconds"}, "question_order": [0, 1, 2, 3, 4, 5], "correct": {"Q0": "The cost for clicking on nodes may vary between nodes.", "Q1": "The better I perform the higher my bonus will be.", "Q2": "No, the amount of cash at each node of the web may be different each time.", "Q3": "To get the highest total score.", "Q4": "Only before moving the spider.", "Q5": "3 seconds"}, "trial_id": "mouselab_quiz_control", "trial_type": "survey-multi-choice", "trial_index": 7, "time_elapsed": 326543, "internal_node_id": "0.0-2.0-4.0"}}, {"uniqueid": "w10978872:a10992669", "current_trial": 8, "dateTime": 1691071065474, "trialdata": {"success": true, "trial_type": "fullscreen", "trial_index": 8, "time_elapsed": 337071, "internal_node_id": "0.0-2.1-0.1"}}, {"uniqueid": "w10978872:a10992669", "current_trial": 9, "dateTime": 1691071080169, "trialdata": {"view_history": [{"page_index": 0, "viewing_time": 2955}, {"page_index": 1, "viewing_time": 5520}, {"page_index": 2, "viewing_time": 4952}, {"page_index": 3, "viewing_time": 1264}], "rt": 14691, "trial_id": "mouselab_instructions_1_control", "trial_type": "instructions", "trial_index": 9, "time_elapsed": 351766, "internal_node_id": "0.0-2.1-1.1"}}, {"uniqueid": "w10978872:a10992669", "current_trial": 10, "dateTime": 1691071093802, "trialdata": {"revealed_states": [], "clicked_states": ["14"], "num_clicks_accrued": [0, 0, 0, 0, 0, 0, 0, 0, 0, 0, 0, 0, 0], "stateRewards": ["", 10, 10, -10, -10, 10, -10, -10, 10, -10, 10, -10, -10, 10, 10, -10, 10, -10, 10, -10, -10, 10, -10, 10, 10, -10, 10, -10, -10, -10, 10, 10, -10, -10], "withholdReward": false, "trial_id": "practice_1", "block": "test", "trialIndex": 2, "score": 13, "costs": -0.5, "simulationMode": [null, null, null, null, null], "rewards": [-10, 10, 10, -10, 10], "path": ["0", "0", "12", "13", "14", "15", "16"], "rt": [4653, 213, 152, 2524, 260], "actions": ["right", "right", "right", "up", "up"], "actionTimes": [6176, 6910, 7582, 10621, 11407], "queries": {"click": {"state": {"target": ["14"], "time": [2818]}, "edge": {"target": [], "time": []}}, "mouseover": {"state": {"target": ["14", "14", "14", "15"], "time": [2114, 2368, 2647, 3810]}, "edge": {"target": [], "time": []}}, "mouseout": {"state": {"target": ["0", "14", "14", "14", "14", "15", "14", "15", "16", "17", "15", "14", "22"], "time": [1570, 2214, 2410, 2861, 3646, 3965, 8195, 8745, 10228, 11026, 12095, 12395, 12528]}, "edge": {"target": [], "time": []}}}, "displayed_time": "11.93", "trialTime": 13258, "trial_type": "mouselab-mdp", "trial_index": 10, "time_elapsed": 365398, "internal_node_id": "0.0-2.1-2.1-0.1"}}, {"uniqueid": "w10978872:a10992669", "current_trial": 11, "dateTime": 1691071110117, "trialdata": {"revealed_states": [], "clicked_states": ["25"], "num_clicks_accrued": [0, 0, 0, 0, 0, 0, 0, 0, 0, 0, 0, 0, 0], "stateRewards": ["", -10, -10, -10, 10, -10, -10, -10, 10, -10, -10, 10, 10, 10, 10, -10, 10, -10, -10, -10, -10, 10, -10, 10, -10, 10, 10, -10, 10, 10, 10, 10, -10, 10], "withholdReward": false, "trial_id": "practice_2", "block": "test", "trialIndex": 3, "score": 13, "costs": -0.5, "simulationMode": [null, null, null, null, null], "rewards": [10, -10, 10, 10, -10], "path": ["0", "0", "23", "24", "25", "30", "32"], "rt": [7558, 158, 55, 309, 81], "actions": ["left", "left", "left", "down", "down"], "actionTimes": [9967, 10648, 11217, 12054, 12659], "queries": {"click": {"state": {"target": ["25"], "time": [5457]}, "edge": {"target": [], "time": []}}, "mouseover": {"state": {"target": ["12", "13", "13", "25", "26", "24", "23", "0"], "time": [2474, 3464, 3679, 4328, 8910, 9124, 9272, 9728]}, "edge": {"target": [], "time": []}}, "mouseout": {"state": {"target": ["12", "12", "0", "12", "13", "13", "25", "26", "24", "23", "0", "23", "24", "25", "30", "32", "22"], "time": [1444, 1761, 1943, 2523, 3528, 3710, 5583, 9061, 9191, 9662, 10179, 10255, 10322, 11828, 12727, 13440, 14337]}, "edge": {"target": [], "time": []}}}, "displayed_time": "13.19", "trialTime": 15893, "trial_type": "mouselab-mdp", "trial_index": 11, "time_elapsed": 381712, "internal_node_id": "0.0-2.1-2.1-1.1"}}, {"uniqueid": "w10978872:a10992669", "current_trial": 12, "dateTime": 1691071123634, "trialdata": {"view_history": [{"page_index": 0, "viewing_time": 11154}, {"page_index": 1, "viewing_time": 2352}], "rt": 13507, "trial_id": "mouselab_instructions_2_control", "trial_type": "instructions", "trial_index": 12, "time_elapsed": 395230, "internal_node_id": "0.0-2.1-3.1"}}, {"uniqueid": "w10978872:a10992669", "current_trial": 13, "dateTime": 1691071175458, "trialdata": {"rt": 51820, "response": {"Q0": "The cost for clicking on nodes may vary between nodes.", "Q1": "The better I perform the higher my bonus will be.", "Q2": "No, the amount of cash at each node of the web may be different each time.", "Q3": "To get the highest total score.", "Q4": "Only before moving the spider.", "Q5": "3 seconds"}, "question_order": [0, 1, 2, 3, 4, 5], "correct": {"Q0": "The cost for clicking on nodes may vary between nodes.", "Q1": "The better I perform the higher my bonus will be.", "Q2": "No, the amount of cash at each node of the web may be different each time.", "Q3": "To get the highest total score.", "Q4": "Only before moving the spider.", "Q5": "3 seconds"}, "trial_id": "mouselab_quiz_control", "trial_type": "survey-multi-choice", "trial_index": 13, "time_elapsed": 447055, "internal_node_id": "0.0-2.1-4.1"}}, {"uniqueid": "w10978872:a10992669", "current_trial": 14, "dateTime": 1691071178558, "trialdata": {"rt": 3092, "stimulus": "\n<h1> Get ready to start the game! </h1>\n\nThank you for reading the instructions. Get ready start with the 40 rounds of this game.\n<br><br>\nIf you need to take a break, feel free to take one after the end of a round, before continuing to the next one.\n<br><br>\nRemember, the more money the spider gets, the bigger your bonus will be!\n<br><br>\n<div style='text-align: center;'>Press <code>space</code> to begin.</div>\n\n<br><br>\n(If, at any point, the <code>space</code> key does not take you to the next page, click once on the text and try again.)", "response": " ", "trial_id": "mdp_ready", "trial_type": "html-keyboard-response", "trial_index": 14, "time_elapsed": 450155, "internal_node_id": "0.0-4.0-0.0"}}, {"uniqueid": "w10978872:a10992669", "current_trial": 15, "dateTime": 1691071206964, "trialdata": {"revealed_states": [], "clicked_states": ["3"], "num_clicks_accrued": [0, 0, 0, 0, 0, 0, 0, 0, 0, 0, 0, 0, 0], "stateRewards": ["", -1, 1, -5, -6, -78, 47, -13, 12, 48, -88, 20, 2, -3, -2, 13, -20, 37, -57, 14, -38, 30, 31, -2, -2, 8, 2, -23, 78, 28, 12, -74, -88, 8], "withholdReward": false, "trial_id": "mdp_trial_1", "block": "test", "trialIndex": 4, "score": -25.4, "costs": -1.4, "simulationMode": [null, null, null, null, null], "rewards": [-1, 1, -5, -6, -13], "path": ["0", "0", "1", "2", "3", "4", "7"], "rt": [11775, 2019, 959, 91, 5592], "actions": ["up", "up", "up", "right", "down"], "actionTimes": [13446, 15985, 17457, 18071, 24188], "queries": {"click": {"state": {"target": ["3"], "time": [3328]}, "edge": {"target": [], "time": []}}, "mouseover": {"state": {"target": ["1", "2", "3", "4", "7", "2", "8", "10", "2", "1", "13", "13"], "time": [2263, 2564, 2846, 4182, 4649, 4961, 5194, 5429, 6896, 6949, 7216, 7566]}, "edge": {"target": [], "time": []}}, "mouseout": {"state": {"target": ["2", "3", "9", "8", "10", "23", "0", "1", "2", "3", "4", "7", "2", "8", "10", "2", "1", "13", "13", "7", "4", "6", "7", "18"], "time": [166, 229, 280, 699, 735, 861, 1678, 2501, 2711, 3599, 4600, 4702, 5029, 5396, 6851, 6931, 6964, 7236, 18574, 18849, 18893, 19962, 22360, 27745]}, "edge": {"target": [], "time": []}}}, "displayed_time": "24.72", "trialTime": 27966, "trial_type": "mouselab-mdp", "trial_index": 15, "time_elapsed": 478559, "internal_node_id": "0.0-4.0-1.0-0.0"}}, {"uniqueid": "w10978872:a10992669", "current_trial": 16, "dateTime": 1691071230180, "trialdata": {"revealed_states": [], "clicked_states": ["14", "19", "25", "32", "27"], "num_clicks_accrued": [0, 0, 0, 0, 0, 0, 0, 0, 0, 0, 0, 0, 0], "stateRewards": ["", -1, 2, 7, 8, 75, 67, -11, 6, 52, -17, 38, -1, 4, -8, 14, 74, -37, -17, -12, 52, 55, 71, -2, -1, -5, 2, 21, 6, -88, -14, 64, -61, -47], "withholdReward": false, "trial_id": "mdp_trial_2", "block": "test", "trialIndex": 5, "score": 8, "costs": -7, "simulationMode": [null, null, null, null, null], "rewards": [-2, -1, -5, 2, 21], "path": ["0", "0", "23", "24", "25", "26", "27"], "rt": [15445, 251, 443, 130, 49], "actions": ["left", "left", "left", "up", "up"], "actionTimes": [17436, 18201, 19159, 19814, 20383], "queries": {"click": {"state": {"target": ["14", "19", "25", "32", "27"], "time": [3123, 5597, 8123, 10858, 14029]}, "edge": {"target": [], "time": []}}, "mouseover": {"state": {"target": ["12", "13", "14", "19", "22", "24", "25", "24", "30", "32", "30", "30", "25", "26", "27", "26", "26", "28", "23", "0"], "time": [2420, 2486, 2923, 3751, 6084, 7586, 7885, 8703, 9233, 10217, 11516, 12933, 13433, 13583, 13745, 14449, 15850, 16333, 16379, 16443]}, "edge": {"target": [], "time": []}}, "mouseout": {"state": {"target": ["18", "7", "0", "12", "13", "14", "19", "22", "24", "25", "24", "30", "32", "30", "30", "25", "26", "27", "26", "26", "28", "23", "0", "22"], "time": [619, 948, 1584, 2466, 2535, 3652, 5868, 6151, 7633, 8618, 8767, 10118, 10955, 11883, 13117, 13469, 13698, 14332, 15647, 16234, 16351, 16397, 21665, 21798]}, "edge": {"target": [], "time": []}}}, "displayed_time": "20.91", "trialTime": 22760, "trial_type": "mouselab-mdp", "trial_index": 16, "time_elapsed": 501776, "internal_node_id": "0.0-4.0-1.0-1.0"}}, {"uniqueid": "w10978872:a10992669", "current_trial": 17, "dateTime": 1691071248454, "trialdata": {"revealed_states": [], "clicked_states": ["6", "16", "32"], "num_clicks_accrued": [0, 0, 0, 0, 0, 0, 0, 0, 0, 0, 0, 0, 0], "stateRewards": ["", 2, -3, -8, 14, -7, -51, 73, 2, 36, 36, -43, -1, 3, -4, 1, 6, 87, -65, 15, 61, -42, -83, -1, 3, -2, -7, 30, -48, 35, 13, 26, 60, 78], "withholdReward": false, "trial_id": "mdp_trial_3", "block": "test", "trialIndex": 6, "score": 68.8, "costs": -4.199999999999999, "simulationMode": [null, null, null, null, null], "rewards": [-1, 3, -2, 13, 60], "path": ["0", "0", "23", "24", "25", "30", "32"], "rt": [10887, 89, 286, 117, 104], "actions": ["left", "left", "left", "down", "down"], "actionTimes": [12849, 13458, 14272, 14901, 15523], "queries": {"click": {"state": {"target": ["6", "16", "32"], "time": [3460, 5802, 9847]}, "edge": {"target": [], "time": []}}, "mouseover": {"state": {"target": ["12", "13", "15", "15", "4", "6", "6", "15", "15", "16", "15", "14", "19", "30", "32", "30", "25", "26", "26", "31"], "time": [1971, 2034, 2204, 2338, 2704, 2817, 3086, 4535, 5387, 5603, 6126, 7619, 8386, 8902, 9619, 10899, 10968, 11132, 11869, 11946]}, "edge": {"target": [], "time": []}}, "mouseout": {"state": {"target": ["22", "13", "12", "12", "0", "12", "13", "15", "15", "4", "6", "6", "15", "15", "16", "15", "14", "19", "30", "32", "30", "25", "26", "26", "31"], "time": [485, 549, 953, 1265, 1969, 2013, 2081, 2287, 2383, 2753, 2888, 3724, 4636, 5419, 6091, 6166, 8352, 8400, 8930, 10833, 10932, 11032, 11348, 11901, 12201]}, "edge": {"target": [], "time": []}}}, "displayed_time": "16.03", "trialTime": 17823, "trial_type": "mouselab-mdp", "trial_index": 17, "time_elapsed": 520050, "internal_node_id": "0.0-4.0-1.0-2.0"}}, {"uniqueid": "w10978872:a10992669", "current_trial": 18, "dateTime": 1691071266124, "trialdata": {"revealed_states": [], "clicked_states": ["27", "16"], "num_clicks_accrued": [0, 0, 0, 0, 0, 0, 0, 0, 0, 0, 0, 0, 0], "stateRewards": ["", -2, 2, 8, -6, -25, 3, 87, 2, -62, -2, 74, -2, -1, 2, -1, 79, 49, -37, -14, 5, 67, -9, -1, 2, -2, 5, 15, 38, 32, -14, -38, -38, 30], "withholdReward": false, "trial_id": "mdp_trial_4", "block": "test", "trialIndex": 7, "score": 74.2, "costs": -2.8, "simulationMode": [null, null, null, null, null], "rewards": [-2, -1, 2, -1, 79], "path": ["0", "0", "12", "13", "14", "15", "16"], "rt": [6987, 325, 367, 700, 368], "actions": ["right", "right", "right", "up", "up"], "actionTimes": [9218, 10088, 10978, 12195, 13079], "queries": {"click": {"state": {"target": ["27", "16"], "time": [3567, 6133]}, "edge": {"target": [], "time": []}}, "mouseover": {"state": {"target": ["12", "15", "4", "9", "11", "27", "26", "27", "28", "1", "16", "4", "4", "6"], "time": [2242, 2395, 2562, 2729, 3063, 3160, 3206, 3394, 3927, 4360, 4829, 6777, 7963, 8327]}, "edge": {"target": [], "time": []}}, "mouseout": {"state": {"target": ["10", "11", "10", "2", "0", "0", "12", "15", "4", "9", "11", "27", "26", "27", "28", "1", "16", "4", "4", "6", "16", "18"], "time": [492, 778, 842, 875, 1348, 2239, 2283, 2495, 2584, 2830, 3129, 3179, 3307, 3827, 4144, 4393, 6431, 7560, 8194, 8344, 13638, 14042]}, "edge": {"target": [], "time": []}}}, "displayed_time": "16.23", "trialTime": 17240, "trial_type": "mouselab-mdp", "trial_index": 18, "time_elapsed": 537719, "internal_node_id": "0.0-4.0-1.0-3.0"}}, {"uniqueid": "w10978872:a10992669", "current_trial": 19, "dateTime": 1691071289527, "trialdata": {"revealed_states": [], "clicked_states": ["11", "6", "21", "32"], "num_clicks_accrued": [0, 0, 0, 0, 0, 0, 0, 0, 0, 0, 0, 0, 0], "stateRewards": ["", -2, -3, 7, -13, 60, 9, 37, -6, 37, 20, 1, 2, -2, -8, 6, -80, -31, -10, -7, 70, -65, -44, -1, 1, 7, 6, -11, 73, -85, 16, -21, 47, 34], "withholdReward": false, "trial_id": "mdp_trial_5", "block": "test", "trialIndex": 8, "score": 64.4, "costs": -5.6, "simulationMode": [null, null, null, null, null], "rewards": [-1, 1, 7, 16, 47], "path": ["0", "0", "23", "24", "25", "30", "32"], "rt": [13947, 293, 623, 150, 139], "actions": ["left", "left", "left", "down", "down"], "actionTimes": [17243, 18065, 19209, 19870, 20525], "queries": {"click": {"state": {"target": ["11", "6", "21", "32"], "time": [4761, 6902, 8912, 11526]}, "edge": {"target": [], "time": []}}, "mouseover": {"state": {"target": ["10", "8", "11", "10", "2", "7", "6", "18", "20", "21", "22", "31", "32", "30", "24", "25", "29", "27", "26", "24", "31", "29", "26", "24"], "time": [3642, 3873, 4108, 5055, 5305, 5388, 5839, 7521, 8104, 8607, 9257, 9986, 11239, 11990, 13167, 13323, 13870, 14386, 14853, 14885, 15104, 16253, 16781, 16867]}, "edge": {"target": [], "time": []}}, "mouseout": {"state": {"target": ["12", "10", "8", "11", "10", "2", "7", "6", "6", "18", "20", "21", "22", "31", "32", "30", "24", "25", "29", "27", "26", "24", "31", "29", "26", "24"], "time": [334, 3702, 3973, 5005, 5221, 5355, 5455, 6991, 7188, 8004, 8156, 9120, 9290, 10003, 11837, 12070, 13188, 13422, 14303, 14842, 14864, 14900, 15853, 16748, 16815, 21384]}, "edge": {"target": [], "time": []}}}, "displayed_time": "21.04", "trialTime": 22943, "trial_type": "mouselab-mdp", "trial_index": 19, "time_elapsed": 561123, "internal_node_id": "0.0-4.0-1.0-4.0"}}, {"uniqueid": "w10978872:a10992669", "current_trial": 20, "dateTime": 1691071308850, "trialdata": {"revealed_states": [], "clicked_states": ["16", "11", "29"], "num_clicks_accrued": [0, 0, 0, 0, 0, 0, 0, 0, 0, 0, 0, 0, 0], "stateRewards": ["", -2, -3, -7, 7, -54, -69, -4, -14, -77, 22, 40, -2, -1, 5, 6, -35, 50, -60, 10, -28, 75, 57, 1, -4, -2, 2, 68, 34, -18, 12, 3, -21, -43], "withholdReward": false, "trial_id": "mdp_trial_6", "block": "test", "trialIndex": 9, "score": 9.8, "costs": -4.199999999999999, "simulationMode": [null, null, null, null, null], "rewards": [-2, -3, -7, -14, 40], "path": ["0", "0", "1", "2", "3", "8", "11"], "rt": [10828, 244, 619, 44, 325], "actions": ["up", "up", "up", "left", "left"], "actionTimes": [13116, 13878, 15021, 15576, 16442], "queries": {"click": {"state": {"target": ["16", "11", "29"], "time": [3513, 6149, 10040]}, "edge": {"target": [], "time": []}}, "mouseover": {"state": {"target": ["18", "15", "16", "15", "18", "2", "8", "11", "28", "26", "28", "26", "29", "26", "10"], "time": [2740, 2851, 3320, 4133, 4233, 5285, 5600, 5920, 6699, 6950, 7813, 9430, 9668, 10548, 10899]}, "edge": {"target": [], "time": []}}, "mouseout": {"state": {"target": ["0", "0", "18", "15", "16", "16", "15", "18", "2", "8", "11", "28", "26", "28", "26", "29", "26", "10", "18"], "time": [1348, 2296, 2819, 2882, 3591, 3945, 4168, 4583, 5385, 5735, 6417, 6748, 7752, 9352, 9600, 10435, 10667, 12316, 17899]}, "edge": {"target": [], "time": []}}}, "displayed_time": "16.97", "trialTime": 18884, "trial_type": "mouselab-mdp", "trial_index": 20, "time_elapsed": 580446, "internal_node_id": "0.0-4.0-1.0-5.0"}}, {"uniqueid": "w10978872:a10992669", "current_trial": 21, "dateTime": 1691071327947, "trialdata": {"revealed_states": [], "clicked_states": ["16", "19", "24", "29"], "num_clicks_accrued": [0, 0, 0, 0, 0, 0, 0, 0, 0, 0, 0, 0, 0], "stateRewards": ["", -2, 3, -1, 2, -72, 63, 20, -1, 62, -66, 39, -2, 3, -6, 14, 22, 47, 1, 8, -49, -1, -41, 2, 2, -6, -16, -64, -60, -34, 16, 54, 22, -7], "withholdReward": false, "trial_id": "mdp_trial_7", "block": "test", "trialIndex": 10, "score": 25.4, "costs": -5.6, "simulationMode": [null, null, null, null, null], "rewards": [-2, 3, -6, 14, 22], "path": ["0", "0", "12", "13", "14", "15", "16"], "rt": [11948, 2, 338, 616, 26], "actions": ["right", "right", "right", "up", "up"], "actionTimes": [13802, 14340, 15209, 16320, 16861], "queries": {"click": {"state": {"target": ["16", "19", "24", "29"], "time": [2685, 4869, 7851, 10275]}, "edge": {"target": [], "time": []}}, "mouseover": {"state": {"target": ["15", "16", "15", "14", "19", "24", "24", "23", "0", "12", "13", "12", "0", "23", "25", "29", "26", "28", "1", "18", "0", "12"], "time": [1921, 2456, 3005, 3271, 3588, 7390, 7721, 8618, 8668, 8734, 8884, 9318, 9401, 9466, 9771, 10084, 10534, 10584, 10635, 10767, 12822, 12926]}, "edge": {"target": [], "time": []}}, "mouseout": {"state": {"target": ["12", "15", "16", "15", "14", "19", "24", "24", "23", "0", "12", "13", "12", "0", "23", "24", "25", "29", "26", "28", "1", "18", "0", "12", "13", "12"], "time": [834, 2106, 2958, 3121, 3554, 5002, 7421, 8550, 8651, 8701, 8767, 9220, 9370, 9433, 9500, 9707, 10006, 10502, 10567, 10601, 10651, 12605, 12904, 12941, 17670, 17748]}, "edge": {"target": [], "time": []}}}, "displayed_time": "17.39", "trialTime": 18640, "trial_type": "mouselab-mdp", "trial_index": 21, "time_elapsed": 599542, "internal_node_id": "0.0-4.0-1.0-6.0"}}, {"uniqueid": "w10978872:a10992669", "current_trial": 22, "dateTime": 1691071430799, "trialdata": {"revealed_states": [], "clicked_states": ["14", "29", "25", "33", "21", "20", "4", "8", "9", "11", "5", "2", "10"], "num_clicks_accrued": [0, 0, 0, 0, 0, 0, 0, 0, 0, 0, 0, 0, 0], "stateRewards": ["", -2, 1, -7, 9, 8, 25, 61, -7, -17, 69, -81, 1, 4, -4, -11, 16, 67, 44, 3, 6, -45, -54, -2, 3, 6, -11, -15, 32, -47, 3, -39, -6, -88], "withholdReward": false, "trial_id": "mdp_trial_8", "block": "test", "trialIndex": 11, "score": 35.8, "costs": -18.2, "simulationMode": [null, null, null, null, null], "rewards": [-2, 1, -7, -7, 69], "path": ["0", "0", "1", "2", "3", "8", "10"], "rt": [32583, 9, 966, 123, 175], "actions": ["up", "up", "up", "left", "down"], "actionTimes": [96725, 97258, 98772, 99419, 100142], "queries": {"click": {"state": {"target": ["14", "29", "25", "33", "21", "20", "4", "8", "9", "11", "5", "2", "10"], "time": [65548, 67842, 69780, 72562, 74945, 76963, 79778, 82065, 84619, 86579, 88500, 90483, 92434]}, "edge": {"target": [], "time": []}}, "mouseover": {"state": {"target": ["14", "13", "12", "23", "24", "26", "29", "30", "25", "30", "33", "30", "31", "21", "21", "19", "20", "22", "13", "5", "4", "7", "3", "8", "10", "10", "9", "9", "2", "11", "4", "5", "4", "7", "2", "1", "1", "10", "1", "1", "12", "1", "12"], "time": [64989, 65819, 65869, 65969, 66069, 66235, 67290, 68632, 69167, 71608, 72252, 73166, 73333, 73916, 74768, 76586, 76688, 78247, 78414, 79268, 79551, 80064, 81456, 81847, 82347, 83682, 84017, 84402, 84946, 86266, 87162, 87814, 88781, 88813, 89895, 90711, 91496, 91895, 92693, 93542, 93869, 94614, 96274]}, "edge": {"target": [], "time": []}}, "mouseout": {"state": {"target": ["0", "12", "0", "14", "13", "12", "23", "24", "26", "29", "30", "25", "30", "33", "30", "31", "21", "21", "19", "20", "22", "13", "5", "4", "7", "3", "8", "10", "10", "8", "9", "9", "2", "8", "11", "4", "5", "4", "7", "2", "1", "1", "10", "1", "1", "12", "1", "12"], "time": [1037, 1652, 63552, 65769, 65853, 65904, 66020, 66087, 66419, 68147, 69034, 70100, 72053, 72934, 73283, 73400, 74314, 75235, 76652, 77698, 78348, 78601, 79434, 80033, 80081, 81768, 82314, 82364, 83705, 83900, 84116, 84829, 86012, 86135, 86762, 87345, 88745, 88796, 88845, 90678, 90811, 91729, 92644, 92710, 93814, 94530, 95130, 101097]}, "edge": {"target": [], "time": []}}}, "displayed_time": "100.67", "trialTime": 102394, "trial_type": "mouselab-mdp", "trial_index": 22, "time_elapsed": 702394, "internal_node_id": "0.0-4.0-1.0-7.0"}}, {"uniqueid": "w10978872:a10992669", "current_trial": 23, "dateTime": 1691071467561, "trialdata": {"revealed_states": [], "clicked_states": ["26", "25", "15", "6", "11", "3", "5", "9", "21", "19", "30", "33"], "num_clicks_accrued": [0, 0, 0, 0, 0, 0, 0, 0, 0, 0, 0, 0, 0], "stateRewards": ["", 1, -2, -3, 14, -42, -87, -37, -11, -50, 33, -44, -2, 4, -7, 13, 48, -75, -66, 12, 23, -2, 82, 1, -4, 3, 12, 51, -15, -26, -11, -52, -29, 82], "withholdReward": false, "trial_id": "mdp_trial_9", "block": "test", "trialIndex": 12, "score": 54.2, "costs": -16.8, "simulationMode": [null, null, null, null, null], "rewards": [1, -4, 3, -11, 82], "path": ["0", "0", "23", "24", "25", "30", "33"], "rt": [30195, 95, 83, 234, 124], "actions": ["left", "left", "left", "down", "left"], "actionTimes": [31546, 32175, 32787, 33536, 34177], "queries": {"click": {"state": {"target": ["26", "25", "15", "6", "11", "3", "5", "9", "21", "19", "30", "33"], "time": [2590, 5334, 8495, 10886, 13320, 15431, 17335, 19626, 21681, 23681, 25730, 27649]}, "edge": {"target": [], "time": []}}, "mouseover": {"state": {"target": ["26", "26", "25", "1", "18", "15", "18", "23", "24", "25", "30", "31", "14", "15", "16", "4", "6", "4", "3", "8", "9", "11", "10", "2", "2", "3", "2", "1", "7", "4", "5", "4", "1", "8", "9", "8", "2", "12", "19", "21", "22", "19", "22", "31", "30", "31", "31", "33", "31", "31"], "time": [2058, 2397, 2861, 3927, 3994, 4077, 4311, 4528, 4602, 4762, 5576, 5825, 6197, 6610, 9375, 9826, 10743, 11808, 11892, 12241, 12454, 13164, 13559, 13591, 14907, 15259, 15691, 15758, 16457, 16524, 16857, 17555, 18921, 19175, 19457, 19851, 19900, 19965, 20250, 20682, 23066, 23334, 23933, 24417, 24769, 26082, 26799, 27182, 27963, 29200]}, "edge": {"target": [], "time": []}}, "mouseout": {"state": {"target": ["0", "26", "26", "25", "1", "18", "15", "18", "23", "24", "25", "30", "31", "14", "15", "16", "4", "6", "4", "3", "8", "9", "11", "11", "10", "2", "2", "3", "2", "1", "7", "4", "5", "4", "1", "8", "9", "8", "2", "12", "19", "21", "22", "19", "22", "31", "30", "31", "31", "30", "33", "30", "31", "31"], "time": [877, 2212, 2810, 3760, 3941, 4027, 4261, 4380, 4579, 4661, 5543, 5592, 5943, 6526, 9276, 9575, 9859, 11158, 11842, 12191, 12308, 12592, 13363, 13508, 13576, 13608, 14948, 15658, 15741, 16307, 16475, 16657, 17538, 17571, 19049, 19274, 19801, 19867, 19916, 20015, 20468, 21950, 23166, 23917, 23967, 24467, 26016, 26150, 26833, 27067, 27882, 27947, 28015, 30566]}, "edge": {"target": [], "time": []}}}, "displayed_time": "34.70", "trialTime": 36224, "trial_type": "mouselab-mdp", "trial_index": 23, "time_elapsed": 739157, "internal_node_id": "0.0-4.0-1.0-8.0"}}, {"uniqueid": "w10978872:a10992669", "current_trial": 24, "dateTime": 1691071494684, "trialdata": {"revealed_states": [], "clicked_states": ["16", "29", "25", "30", "14", "22", "20", "21", "19"], "num_clicks_accrued": [0, 0, 0, 0, 0, 0, 0, 0, 0, 0, 0, 0, 0], "stateRewards": ["", -1, 1, 3, -8, -23, -15, -14, -11, -23, 58, 68, 1, 3, 5, 12, -17, -41, -7, -10, -4, 82, 10, 1, 4, -4, 11, 73, 55, -55, -1, -86, -86, 54], "withholdReward": false, "trial_id": "mdp_trial_10", "block": "test", "trialIndex": 13, "score": 68.4, "costs": -12.600000000000001, "simulationMode": [null, null, null, null, null], "rewards": [1, 3, 5, -10, 82], "path": ["0", "0", "12", "13", "14", "19", "21"], "rt": [19482, 331, 275, 86, 565], "actions": ["right", "right", "right", "down", "down"], "actionTimes": [21104, 21959, 22756, 23364, 24454], "queries": {"click": {"state": {"target": ["16", "29", "25", "30", "14", "22", "20", "21", "19"], "time": [2397, 4667, 6851, 8804, 11100, 12962, 14828, 16707, 18708]}, "edge": {"target": [], "time": []}}, "mouseover": {"state": {"target": ["16", "15", "13", "26", "29", "24", "24", "25", "31", "30", "32", "22", "14", "22", "19", "20", "21", "19", "19"], "time": [2127, 2747, 3065, 4282, 4346, 5048, 5597, 6698, 7213, 8280, 9279, 9812, 10161, 11779, 14278, 14545, 15812, 17011, 17745]}, "edge": {"target": [], "time": []}}, "mouseout": {"state": {"target": ["0", "16", "16", "15", "13", "26", "29", "24", "24", "25", "31", "30", "32", "22", "14", "22", "19", "20", "21", "21", "19", "19", "20", "19", "22"], "time": [1635, 2444, 2716, 2833, 3368, 4325, 4864, 5247, 6497, 7097, 7264, 9212, 9297, 9928, 11382, 14115, 14480, 15330, 16775, 16910, 17078, 19976, 25510, 25745, 26177]}, "edge": {"target": [], "time": []}}}, "displayed_time": "24.98", "trialTime": 26566, "trial_type": "mouselab-mdp", "trial_index": 24, "time_elapsed": 766280, "internal_node_id": "0.0-4.0-1.0-9.0"}}, {"uniqueid": "w10978872:a10992669", "current_trial": 25, "dateTime": 1691071520795, "trialdata": {"revealed_states": [], "clicked_states": ["2", "16", "11", "26", "29", "30", "32", "33"], "num_clicks_accrued": [0, 0, 0, 0, 0, 0, 0, 0, 0, 0, 0, 0, 0], "stateRewards": ["", 1, -1, 4, 5, -32, 18, 20, 6, -88, -74, 9, -2, 1, -2, -14, 34, -77, -38, -1, 80, -36, 73, 2, 3, -8, 10, -48, -73, -71, -11, -22, 20, 54], "withholdReward": false, "trial_id": "mdp_trial_11", "block": "test", "trialIndex": 14, "score": 28.799999999999997, "costs": -11.200000000000001, "simulationMode": [null, null, null, null, null], "rewards": [2, 3, -8, -11, 54], "path": ["0", "0", "23", "24", "25", "30", "33"], "rt": [18541, 222, 21, 122, 56], "actions": ["left", "left", "left", "down", "left"], "actionTimes": [20928, 21666, 22231, 22882, 23451], "queries": {"click": {"state": {"target": ["2", "16", "11", "26", "29", "30", "32", "33"], "time": [3402, 5579, 7411, 9948, 11866, 13722, 15597, 17445]}, "edge": {"target": [], "time": []}}, "mouseover": {"state": {"target": ["1", "2", "7", "6", "16", "1", "10", "11", "11", "28", "26", "26", "29", "25", "30", "32", "33", "33", "31", "19", "20"], "time": [2585, 3085, 3951, 4928, 5340, 6301, 6417, 6601, 7148, 8301, 8501, 9601, 10730, 12914, 13348, 14780, 15841, 16174, 19341, 19424, 19461]}, "edge": {"target": [], "time": []}}, "mouseout": {"state": {"target": ["23", "1", "1", "0", "1", "2", "7", "6", "16", "1", "10", "11", "11", "28", "26", "26", "26", "29", "25", "30", "32", "33", "33", "30", "31", "19", "20"], "time": [533, 1450, 1800, 2480, 2623, 3817, 4567, 5201, 5900, 6349, 6484, 6785, 7784, 8417, 8962, 10188, 10613, 12121, 13280, 14029, 15791, 15875, 17941, 18557, 19358, 19452, 19577]}, "edge": {"target": [], "time": []}}}, "displayed_time": "23.99", "trialTime": 25620, "trial_type": "mouselab-mdp", "trial_index": 25, "time_elapsed": 792391, "internal_node_id": "0.0-4.0-1.0-10.0"}}, {"uniqueid": "w10978872:a10992669", "current_trial": 26, "dateTime": 1691071538122, "trialdata": {"revealed_states": [], "clicked_states": ["16"], "num_clicks_accrued": [0, 0, 0, 0, 0, 0, 0, 0, 0, 0, 0, 0, 0], "stateRewards": ["", -2, -1, -4, -15, -14, -67, 32, -3, -59, 63, 31, 2, -1, -7, -15, 71, -66, -27, -3, -54, -39, 72, 2, 1, 1, -13, 77, -40, 35, -9, 35, 75, 57], "withholdReward": false, "trial_id": "mdp_trial_12", "block": "test", "trialIndex": 15, "score": 48.6, "costs": -1.4, "simulationMode": [null, null, null, null, null], "rewards": [2, -1, -7, -15, 71], "path": ["0", "0", "12", "13", "14", "15", "16"], "rt": [3803, 340, 318, 237, 316], "actions": ["right", "right", "right", "up", "up"], "actionTimes": [5232, 6087, 6930, 7683, 8525], "queries": {"click": {"state": {"target": ["16"], "time": [2108]}, "edge": {"target": [], "time": []}}, "mouseover": {"state": {"target": ["12", "18", "16", "18", "2", "3", "4", "15", "14"], "time": [1465, 1540, 1962, 2527, 3079, 3445, 4246, 4525, 4592]}, "edge": {"target": [], "time": []}}, "mouseout": {"state": {"target": ["0", "12", "18", "16", "18", "2", "3", "4", "16", "15", "14", "13", "12"], "time": [1439, 1492, 1629, 2186, 2593, 3145, 4224, 4274, 4495, 4564, 9110, 9262, 9446]}, "edge": {"target": [], "time": []}}}, "displayed_time": "15.43", "trialTime": 16769, "trial_type": "mouselab-mdp", "trial_index": 26, "time_elapsed": 809718, "internal_node_id": "0.0-4.0-1.0-11.0"}}, {"uniqueid": "w10978872:a10992669", "current_trial": 27, "dateTime": 1691071595229, "trialdata": {"revealed_states": [], "clicked_states": ["2", "11", "17", "15", "19", "30", "26", "8", "4", "5", "9", "10", "6", "20", "13", "12", "25", "29", "28", "27", "33", "32"], "num_clicks_accrued": [0, 0, 0, 0, 0, 0, 0, 0, 0, 0, 0, 0, 0], "stateRewards": ["", -1, 2, -6, 6, -82, -19, -39, -16, -83, 11, -33, -2, -2, 4, -6, -82, -1, -19, -6, -10, -67, -41, -2, 1, -7, 16, -23, -78, -52, 14, 31, -71, 74], "withholdReward": false, "trial_id": "mdp_trial_13", "block": "test", "trialIndex": 16, "score": 49.20000000000002, "costs": -30.799999999999986, "simulationMode": [null, null, null, null, null], "rewards": [-2, 1, -7, 14, 74], "path": ["0", "0", "23", "24", "25", "30", "33"], "rt": [50317, 170, 303, 217, 68], "actions": ["left", "left", "left", "down", "left"], "actionTimes": [51655, 52380, 53205, 53938, 54518], "queries": {"click": {"state": {"target": ["2", "11", "17", "15", "19", "30", "26", "8", "4", "5", "9", "10", "6", "20", "13", "12", "25", "29", "28", "27", "33", "32"], "time": [2540, 4635, 6531, 8339, 10203, 12252, 14769, 17451, 19459, 21927, 23803, 25700, 30076, 32297, 34178, 36123, 38018, 40441, 42778, 44729, 46619, 48481]}, "edge": {"target": [], "time": []}}, "mouseover": {"state": {"target": ["1", "2", "7", "4", "6", "4", "3", "8", "11", "11", "10", "18", "15", "17", "14", "15", "19", "22", "31", "30", "25", "26", "27", "26", "25", "28", "10", "8", "10", "3", "4", "7", "12", "3", "5", "3", "9", "8", "10", "11", "11", "8", "3", "4", "6", "18", "14", "20", "22", "13", "12", "25", "24", "26", "29", "26", "28", "27", "26", "25", "30", "33", "32"], "time": [1943, 2261, 2949, 3177, 3542, 3928, 3963, 3993, 4025, 4345, 4926, 5064, 5227, 5742, 6810, 7748, 9242, 10773, 11390, 11540, 12640, 13023, 14256, 14505, 15357, 15857, 16023, 16894, 17771, 18704, 19186, 20133, 20613, 21590, 21724, 23221, 23338, 24020, 24154, 26553, 28888, 29331, 29395, 29538, 29889, 30802, 31553, 32038, 33185, 33485, 35598, 37419, 39266, 39667, 40235, 40681, 42168, 43731, 45012, 45246, 45629, 45713, 47846]}, "edge": {"target": [], "time": []}}, "mouseout": {"state": {"target": ["0", "1", "2", "7", "4", "6", "4", "3", "8", "11", "11", "10", "18", "15", "17", "17", "14", "15", "19", "22", "31", "30", "25", "26", "27", "26", "26", "25", "28", "10", "8", "10", "3", "4", "4", "7", "12", "3", "5", "3", "9", "9", "8", "10", "11", "11", "8", "3", "4", "6", "18", "14", "20", "22", "13", "13", "12", "25", "24", "26", "29", "26", "28", "27", "26", "25", "30", "33", "32", "31"], "time": [660, 2045, 2664, 3093, 3228, 3909, 3960, 3977, 4009, 4106, 4877, 4947, 5176, 5693, 6627, 6760, 6925, 8542, 10508, 11125, 11507, 12374, 12894, 13356, 14471, 14848, 15291, 15540, 15892, 16425, 17705, 18405, 19158, 19558, 20017, 20161, 20937, 21651, 22203, 23254, 23875, 23987, 24053, 26086, 28039, 29305, 29362, 29434, 29649, 30437, 30886, 31635, 32472, 33452, 34256, 34428, 36434, 38334, 39516, 39868, 40615, 40747, 43232, 44969, 45063, 45329, 45679, 46889, 48602, 55248]}, "edge": {"target": [], "time": []}}}, "displayed_time": "55.05", "trialTime": 56580, "trial_type": "mouselab-mdp", "trial_index": 27, "time_elapsed": 866825, "internal_node_id": "0.0-4.0-1.0-12.0"}}, {"uniqueid": "w10978872:a10992669", "current_trial": 28, "dateTime": 1691071617665, "trialdata": {"revealed_states": [], "clicked_states": ["17", "10", "26", "25", "33", "20"], "num_clicks_accrued": [0, 0, 0, 0, 0, 0, 0, 0, 0, 0, 0, 0, 0], "stateRewards": ["", 1, -2, -2, 10, -31, -77, 35, 9, -47, 8, 48, -2, 1, -4, -3, -26, -50, 43, -11, 76, -38, 17, 1, -1, 6, 10, 15, -9, 12, -8, 85, 11, -55], "withholdReward": false, "trial_id": "mdp_trial_14", "block": "test", "trialIndex": 17, "score": 51.6, "costs": -8.4, "simulationMode": [null, null, null, null, null], "rewards": [-2, 1, -4, -11, 76], "path": ["0", "0", "12", "13", "14", "19", "20"], "rt": [15646, 258, 73, 110, 99], "actions": ["right", "right", "right", "down", "right"], "actionTimes": [16889, 17707, 18305, 18927, 19556], "queries": {"click": {"state": {"target": ["17", "10", "26", "25", "33", "20"], "time": [2985, 5249, 8010, 10331, 12186, 14154]}, "edge": {"target": [], "time": []}}, "mouseover": {"state": {"target": ["7", "17", "15", "17", "14", "12", "2", "10", "1", "12", "23", "26", "24", "25", "30", "33", "30", "31", "22", "19", "20", "19", "22", "13", "18", "6", "6", "14"], "time": [1786, 2252, 2486, 2821, 3318, 3718, 4451, 4531, 5751, 6083, 7451, 7821, 8333, 9569, 10731, 11473, 12448, 12482, 12829, 13329, 13847, 14482, 15515, 15617, 15672, 15830, 16188, 16348]}, "edge": {"target": [], "time": []}}, "mouseout": {"state": {"target": ["7", "17", "15", "17", "17", "14", "12", "2", "10", "1", "12", "23", "26", "24", "25", "30", "33", "30", "31", "22", "19", "20", "19", "22", "13", "18", "6", "6", "14", "20", "14", "19", "22"], "time": [2036, 2369, 2712, 3185, 3253, 3368, 3968, 4485, 5583, 5809, 7301, 7481, 8266, 8349, 10647, 11370, 12430, 12467, 12498, 13031, 13629, 14449, 14515, 15598, 15670, 15711, 16017, 16217, 16402, 16649, 20914, 21208, 21263]}, "edge": {"target": [], "time": []}}}, "displayed_time": "20.09", "trialTime": 21858, "trial_type": "mouselab-mdp", "trial_index": 28, "time_elapsed": 889261, "internal_node_id": "0.0-4.0-1.0-13.0"}}, {"uniqueid": "w10978872:a10992669", "current_trial": 29, "dateTime": 1691071678542, "trialdata": {"revealed_states": [], "clicked_states": ["7", "11", "16", "17", "21", "22", "20", "19", "14", "12", "13", "23", "1", "25", "29", "27", "26", "28", "32", "33", "31", "30", "6", "4"], "num_clicks_accrued": [0, 0, 0, 0, 0, 0, 0, 0, 0, 0, 0, 0, 0], "stateRewards": ["", 1, 2, -3, 6, -88, 74, -45, 7, -46, 40, -77, 1, -4, 4, 3, 22, -25, -59, 8, -83, 19, -60, -1, -1, -1, -8, 26, -29, 64, -7, -88, -51, -55], "withholdReward": false, "trial_id": "mdp_trial_15", "block": "test", "trialIndex": 18, "score": 46.40000000000001, "costs": -33.59999999999999, "simulationMode": [null, null, null, null, null], "rewards": [1, 2, -3, 6, 74], "path": ["0", "0", "1", "2", "3", "4", "6"], "rt": [51430, 233, 314, 214, 672], "actions": ["up", "up", "up", "right", "right"], "actionTimes": [53161, 53919, 54761, 55505, 56677], "queries": {"click": {"state": {"target": ["7", "11", "16", "17", "21", "22", "20", "19", "14", "12", "13", "23", "1", "25", "29", "27", "26", "28", "32", "33", "31", "30", "6", "4"], "time": [3334, 5252, 7907, 10613, 12420, 14299, 16187, 18003, 20827, 22995, 24875, 26739, 28588, 30462, 32266, 34148, 36293, 38115, 40011, 42028, 43942, 45860, 47710, 49731]}, "edge": {"target": [], "time": []}}, "mouseover": {"state": {"target": ["7", "2", "7", "4", "7", "3", "8", "8", "11", "10", "18", "16", "16", "15", "13", "15", "17", "14", "19", "21", "22", "22", "19", "20", "19", "19", "19", "14", "13", "12", "13", "23", "1", "24", "25", "26", "29", "26", "28", "28", "27", "26", "28", "30", "32", "33", "30", "31", "30", "24", "2", "4", "6", "4", "7"], "time": [2272, 2326, 2568, 2952, 3116, 3638, 3745, 4119, 4783, 5571, 6787, 7087, 7705, 8084, 9352, 9971, 10403, 10850, 10974, 11485, 12741, 13475, 14607, 14908, 16414, 16707, 17218, 18241, 21290, 22609, 23373, 26089, 27205, 29254, 29687, 30749, 31497, 32653, 32703, 33003, 33153, 35102, 36653, 38688, 39600, 40351, 42852, 43184, 44450, 46216, 46416, 46683, 46998, 48384, 52985]}, "edge": {"target": [], "time": []}}, "mouseout": {"state": {"target": ["12", "0", "7", "2", "7", "4", "7", "3", "8", "8", "11", "11", "10", "18", "16", "16", "15", "13", "15", "17", "14", "19", "21", "22", "22", "19", "20", "19", "19", "19", "14", "13", "12", "13", "12", "23", "1", "23", "24", "25", "26", "29", "26", "28", "28", "27", "26", "28", "30", "32", "33", "30", "31", "30", "24", "2", "4", "6", "4", "4", "7", "1", "12"], "time": [736, 1766, 2301, 2534, 2922, 3071, 3412, 3671, 3887, 4186, 5351, 5520, 5587, 6833, 7125, 8068, 8101, 9637, 10304, 10801, 10867, 11384, 12525, 12891, 14541, 14741, 16388, 16459, 16757, 18157, 21190, 21957, 23079, 25139, 25204, 26831, 28971, 29189, 29354, 30660, 31393, 32620, 32686, 32738, 33036, 35054, 36382, 38453, 39351, 40105, 42502, 43034, 44169, 46017, 46249, 46449, 46699, 48016, 50383, 51150, 58000, 58666, 58912]}, "edge": {"target": [], "time": []}}}, "displayed_time": "57.21", "trialTime": 60392, "trial_type": "mouselab-mdp", "trial_index": 29, "time_elapsed": 950138, "internal_node_id": "0.0-4.0-1.0-14.0"}}, {"uniqueid": "w10978872:a10992669", "current_trial": 30, "dateTime": 1691071712747, "trialdata": {"revealed_states": [], "clicked_states": ["15", "21", "30", "20", "19", "22", "13", "12", "25", "32", "33", "31"], "num_clicks_accrued": [0, 0, 0, 0, 0, 0, 0, 0, 0, 0, 0, 0, 0], "stateRewards": ["", -2, -1, -2, -15, 87, 57, 29, -10, 77, -80, -7, 1, -3, 6, 14, -11, 87, -59, 4, -71, 16, -11, 2, 2, -7, 2, -47, 61, 50, 14, -20, 17, 81], "withholdReward": false, "trial_id": "mdp_trial_16", "block": "test", "trialIndex": 19, "score": 75.2, "costs": -16.8, "simulationMode": [null, null, null, null, null], "rewards": [2, 2, -7, 14, 81], "path": ["0", "0", "23", "24", "25", "30", "33"], "rt": [24706, 72, 485, 152, 423], "actions": ["left", "left", "left", "down", "left"], "actionTimes": [27521, 28119, 29133, 29811, 30750], "queries": {"click": {"state": {"target": ["15", "21", "30", "20", "19", "22", "13", "12", "25", "32", "33", "31"], "time": [3767, 5519, 7191, 9015, 10851, 12710, 14566, 16488, 19262, 21094, 22806, 24703]}, "edge": {"target": [], "time": []}}, "mouseover": {"state": {"target": ["18", "15", "13", "19", "21", "22", "30", "31", "22", "19", "20", "19", "22", "22", "13", "12", "23", "24", "25", "25", "32", "33", "30", "31"], "time": [3416, 3471, 4247, 4480, 5247, 6064, 6695, 8129, 8245, 8316, 8631, 9829, 11161, 11613, 13143, 15925, 17274, 17441, 17675, 19078, 20192, 21457, 23370, 23549]}, "edge": {"target": [], "time": []}}, "mouseout": {"state": {"target": ["0", "18", "15", "15", "13", "19", "21", "22", "30", "31", "22", "19", "20", "19", "22", "22", "13", "12", "12", "23", "24", "25", "25", "32", "33", "30", "31"], "time": [2865, 3441, 3858, 4196, 4414, 4648, 5947, 6161, 8096, 8146, 8284, 8377, 9344, 11095, 11311, 13077, 14655, 16584, 16808, 17392, 17492, 17810, 19843, 21183, 23319, 23512, 32075]}, "edge": {"target": [], "time": []}}}, "displayed_time": "31.28", "trialTime": 33666, "trial_type": "mouselab-mdp", "trial_index": 30, "time_elapsed": 984344, "internal_node_id": "0.0-4.0-1.0-15.0"}}, {"uniqueid": "w10978872:a10992669", "current_trial": 31, "dateTime": 1691071747707, "trialdata": {"revealed_states": [], "clicked_states": ["7", "11", "30", "33", "20", "19", "21", "16", "17", "18"], "num_clicks_accrued": [0, 0, 0, 0, 0, 0, 0, 0, 0, 0, 0, 0, 0], "stateRewards": ["", 1, 2, -3, -5, 66, -50, -47, -5, 1, 28, -27, 1, 1, -1, -6, 37, -25, 56, 1, -82, -66, -40, -1, -4, -7, 15, -61, -23, 26, 10, 14, -56, 29], "withholdReward": false, "trial_id": "mdp_trial_17", "block": "test", "trialIndex": 20, "score": 37, "costs": -14.000000000000002, "simulationMode": [null, null, null, null, null], "rewards": [1, 1, -1, -6, 56], "path": ["0", "0", "12", "13", "14", "15", "18"], "rt": [25696, 27, 648, 112, 141], "actions": ["right", "right", "right", "up", "left"], "actionTimes": [27572, 28132, 29311, 29950, 30624], "queries": {"click": {"state": {"target": ["7", "11", "30", "33", "20", "19", "21", "16", "17", "18"], "time": [3244, 4838, 7226, 9642, 12769, 15563, 17637, 19668, 21986, 23901]}, "edge": {"target": [], "time": []}}, "mouseover": {"state": {"target": ["12", "7", "7", "4", "4", "2", "10", "11", "24", "30", "30", "33", "31", "20", "19", "21", "14", "15", "16", "15", "17", "15", "18"], "time": [2123, 2489, 3009, 3779, 4041, 4125, 4173, 4573, 5590, 6074, 7025, 9223, 11718, 12472, 13272, 16487, 18088, 18243, 18737, 20069, 21785, 23019, 23436]}, "edge": {"target": [], "time": []}}, "mouseout": {"state": {"target": ["0", "12", "7", "7", "4", "4", "2", "10", "11", "24", "30", "30", "30", "33", "33", "30", "31", "20", "19", "21", "19", "14", "15", "16", "15", "17", "15", "18", "18", "18", "12"], "time": [2076, 2154, 2707, 3623, 3910, 4056, 4156, 4291, 5074, 5658, 6661, 7332, 8943, 10123, 11608, 11690, 12159, 13089, 15905, 17890, 18004, 18171, 18334, 20003, 21532, 22921, 23152, 24536, 24948, 27354, 33285]}, "edge": {"target": [], "time": []}}}, "displayed_time": "31.14", "trialTime": 34444, "trial_type": "mouselab-mdp", "trial_index": 31, "time_elapsed": 1019303, "internal_node_id": "0.0-4.0-1.0-16.0"}}, {"uniqueid": "w10978872:a10992669", "current_trial": 32, "dateTime": 1691071765659, "trialdata": {"revealed_states": [], "clicked_states": ["11"], "num_clicks_accrued": [0, 0, 0, 0, 0, 0, 0, 0, 0, 0, 0, 0, 0], "stateRewards": ["", 1, -1, 8, -3, 38, 85, -20, -4, 8, 23, 73, 2, -4, 6, -13, 44, 7, -28, -11, -77, 45, -69, 1, -1, -7, -11, 75, -51, -87, 7, 36, -53, -26], "withholdReward": false, "trial_id": "mdp_trial_18", "block": "test", "trialIndex": 21, "score": 75.6, "costs": -1.4, "simulationMode": [null, null, null, null, null], "rewards": [1, -1, 8, -4, 73], "path": ["0", "0", "1", "2", "3", "8", "11"], "rt": [4467, 261, 182, 56, 3], "actions": ["up", "up", "up", "left", "left"], "actionTimes": [6180, 6974, 7707, 8283, 8828], "queries": {"click": {"state": {"target": ["11"], "time": [2772]}, "edge": {"target": [], "time": []}}, "mouseover": {"state": {"target": ["18", "18", "2", "11", "10", "24", "26", "29", "26", "10", "2", "7", "17"], "time": [1729, 1994, 2261, 2588, 3273, 3521, 3907, 4825, 5285, 5363, 5426, 5493, 6162]}, "edge": {"target": [], "time": []}}, "mouseout": {"state": {"target": ["12", "18", "18", "2", "11", "11", "10", "24", "26", "29", "26", "10", "2", "7", "17", "14", "14", "13", "12"], "time": [894, 1740, 2113, 2344, 2907, 3201, 3324, 3624, 4283, 5242, 5315, 5393, 5462, 5538, 6674, 9892, 10174, 10229, 10357]}, "edge": {"target": [], "time": []}}}, "displayed_time": "15.72", "trialTime": 17390, "trial_type": "mouselab-mdp", "trial_index": 32, "time_elapsed": 1037255, "internal_node_id": "0.0-4.0-1.0-17.0"}}, {"uniqueid": "w10978872:a10992669", "current_trial": 33, "dateTime": 1691071784174, "trialdata": {"revealed_states": [], "clicked_states": ["14", "29"], "num_clicks_accrued": [0, 0, 0, 0, 0, 0, 0, 0, 0, 0, 0, 0, 0], "stateRewards": ["", -1, 3, 8, 10, -86, 61, -36, 10, 17, -60, 24, -1, -3, 3, 11, 50, 60, 33, -3, -20, 58, -6, 1, -4, -4, 13, -70, -71, 43, 14, 52, 82, -11], "withholdReward": false, "trial_id": "mdp_trial_19", "block": "test", "trialIndex": 22, "score": 46.2, "costs": -2.8, "simulationMode": [null, null, null, null, null], "rewards": [1, -4, -4, 13, 43], "path": ["0", "0", "23", "24", "25", "26", "29"], "rt": [6250, 155, 585, 183, 62], "actions": ["left", "left", "left", "up", "left"], "actionTimes": [8307, 8990, 10102, 10800, 11377], "queries": {"click": {"state": {"target": ["14", "29"], "time": [2760, 4664]}, "edge": {"target": [], "time": []}}, "mouseover": {"state": {"target": ["12", "13", "14", "13", "12", "28", "26", "29", "26", "28"], "time": [2217, 2366, 2549, 3349, 3515, 3694, 3813, 4505, 5052, 7870]}, "edge": {"target": [], "time": []}}, "mouseout": {"state": {"target": ["18", "15", "14", "13", "0", "12", "13", "14", "13", "12", "28", "26", "29", "26", "28", "1", "0", "12"], "time": [935, 998, 1198, 1250, 1297, 2317, 2501, 3136, 3465, 3529, 3768, 3947, 4998, 7815, 7920, 12015, 12070, 12119]}, "edge": {"target": [], "time": []}}}, "displayed_time": "16.06", "trialTime": 17936, "trial_type": "mouselab-mdp", "trial_index": 33, "time_elapsed": 1055771, "internal_node_id": "0.0-4.0-1.0-18.0"}}, {"uniqueid": "w10978872:a10992669", "current_trial": 34, "dateTime": 1691071811221, "trialdata": {"revealed_states": [], "clicked_states": ["8", "6", "21", "30", "29", "17", "20"], "num_clicks_accrued": [0, 0, 0, 0, 0, 0, 0, 0, 0, 0, 0, 0, 0], "stateRewards": ["", 1, 1, 5, 6, -29, -7, 3, -16, 9, -46, 65, -1, 4, -1, -16, -63, -77, -87, 8, 80, -50, 43, -1, -1, -5, 5, -38, -71, -62, 9, 81, -50, -52], "withholdReward": false, "trial_id": "mdp_trial_20", "block": "test", "trialIndex": 23, "score": 80.2, "costs": -9.8, "simulationMode": [null, null, null, null, null], "rewards": [-1, 4, -1, 8, 80], "path": ["0", "0", "12", "13", "14", "19", "20"], "rt": [19616, 137, 529, 4, 142], "actions": ["right", "right", "right", "down", "right"], "actionTimes": [20996, 21663, 22714, 23237, 23925], "queries": {"click": {"state": {"target": ["8", "6", "21", "30", "29", "17", "20"], "time": [2284, 4171, 6844, 9173, 11604, 14444, 17755]}, "edge": {"target": [], "time": []}}, "mouseover": {"state": {"target": ["23", "10", "8", "10", "3", "4", "6", "7", "15", "14", "19", "21", "19", "31", "30", "24", "25", "29", "25", "24", "18", "15", "17", "15", "15", "15", "14", "19", "20", "19"], "time": [1406, 1654, 2101, 2553, 2937, 3035, 3254, 4703, 6050, 6085, 6347, 6555, 7184, 8374, 8484, 10390, 11186, 11427, 12718, 13164, 13936, 14030, 14219, 15732, 16390, 16718, 17002, 17151, 17422, 18099]}, "edge": {"target": [], "time": []}}, "mouseout": {"state": {"target": ["0", "23", "10", "8", "10", "3", "4", "6", "6", "7", "15", "14", "19", "21", "19", "31", "30", "24", "25", "29", "25", "24", "18", "15", "17", "15", "15", "15", "14", "19", "20", "19", "22"], "time": [166, 1483, 1918, 2503, 2737, 2950, 3187, 4283, 4452, 5971, 6069, 6287, 6455, 6944, 7519, 8431, 9275, 11104, 11303, 12053, 12868, 13686, 13990, 14098, 15133, 15816, 16462, 16970, 17050, 17368, 18065, 25039, 25082]}, "edge": {"target": [], "time": []}}}, "displayed_time": "24.45", "trialTime": 26439, "trial_type": "mouselab-mdp", "trial_index": 34, "time_elapsed": 1082815, "internal_node_id": "0.0-4.0-1.0-19.0"}}, {"uniqueid": "w10978872:a10992669", "current_trial": 35, "dateTime": 1691071830225, "trialdata": {"revealed_states": [], "clicked_states": ["29", "15", "19", "30", "32"], "num_clicks_accrued": [0, 0, 0, 0, 0, 0, 0, 0, 0, 0, 0, 0, 0], "stateRewards": ["", 2, 1, -3, 7, 46, 11, -36, 16, 71, 5, 1, 2, -2, -8, -3, -4, 6, 55, 7, 68, -54, 2, 1, 1, 6, -6, 42, -4, -84, -11, -65, 63, 25], "withholdReward": false, "trial_id": "mdp_trial_21", "block": "test", "trialIndex": 24, "score": 53, "costs": -7, "simulationMode": [null, null, null, null, null], "rewards": [1, 1, 6, -11, 63], "path": ["0", "0", "23", "24", "25", "30", "32"], "rt": [11752, 313, 234, 280, 23], "actions": ["left", "left", "left", "down", "down"], "actionTimes": [13346, 14186, 14959, 15758, 16299], "queries": {"click": {"state": {"target": ["29", "15", "19", "30", "32"], "time": [3018, 4865, 6695, 8609, 10496]}, "edge": {"target": [], "time": []}}, "mouseover": {"state": {"target": ["10", "8", "9", "27", "26", "29", "25", "24", "23", "18", "15", "13", "22", "19", "22", "31", "30", "32", "33"], "time": [1914, 1954, 2032, 2496, 2713, 2864, 3279, 3361, 3426, 3996, 4109, 5178, 5810, 5910, 6944, 7394, 7712, 10262, 10825]}, "edge": {"target": [], "time": []}}, "mouseout": {"state": {"target": ["23", "1", "10", "8", "9", "27", "26", "29", "25", "24", "23", "18", "15", "13", "22", "19", "22", "31", "30", "32", "33", "30", "31"], "time": [629, 1043, 1943, 1995, 2096, 2596, 2772, 3244, 3329, 3412, 3476, 4060, 5094, 5711, 5827, 6928, 6961, 7662, 9144, 10742, 12629, 12828, 17028]}, "edge": {"target": [], "time": []}}}, "displayed_time": "16.83", "trialTime": 18408, "trial_type": "mouselab-mdp", "trial_index": 35, "time_elapsed": 1101820, "internal_node_id": "0.0-4.0-1.0-20.0"}}, {"uniqueid": "w10978872:a10992669", "current_trial": 36, "dateTime": 1691071861970, "trialdata": {"revealed_states": [], "clicked_states": ["5", "11", "29", "17", "21", "32", "33", "25", "2", "7"], "num_clicks_accrued": [0, 0, 0, 0, 0, 0, 0, 0, 0, 0, 0, 0, 0], "stateRewards": ["", -2, 2, -4, -4, -59, 88, 62, -3, 69, -15, -34, 1, -2, -5, 7, -54, -20, 78, -16, -74, -53, -21, 2, -4, 2, 13, -8, -44, 26, 9, 72, 4, 17], "withholdReward": false, "trial_id": "mdp_trial_22", "block": "test", "trialIndex": 25, "score": 40, "costs": -14.000000000000002, "simulationMode": [null, null, null, null, null], "rewards": [-2, 2, -4, -4, 62], "path": ["0", "0", "1", "2", "3", "4", "7"], "rt": [24552, 70, 324, 756, 56], "actions": ["up", "up", "up", "right", "down"], "actionTimes": [25611, 26204, 27067, 28349, 28938], "queries": {"click": {"state": {"target": ["5", "11", "29", "17", "21", "32", "33", "25", "2", "7"], "time": [2607, 4613, 6469, 8733, 10717, 12958, 15064, 17345, 20727, 22655]}, "edge": {"target": [], "time": []}}, "mouseover": {"state": {"target": ["1", "11", "8", "3", "5", "2", "8", "11", "29", "25", "24", "23", "18", "15", "17", "21", "32", "33", "24", "23", "23", "24", "25", "24", "1", "10", "2", "4", "10", "2", "7", "6", "6", "4", "3", "8", "9"], "time": [1097, 1863, 1926, 2179, 2446, 2944, 3345, 3611, 5793, 6776, 6894, 7060, 7328, 7380, 7652, 9810, 12711, 14275, 15344, 15396, 15842, 15924, 16224, 17824, 17991, 18409, 18707, 19009, 20243, 20497, 21341, 23007, 24090, 24180, 24222, 24292, 24542]}, "edge": {"target": [], "time": []}}, "mouseout": {"state": {"target": ["0", "1", "11", "8", "3", "5", "2", "8", "11", "11", "29", "25", "24", "23", "18", "15", "17", "17", "21", "32", "33", "24", "23", "23", "24", "25", "24", "1", "10", "2", "4", "10", "2", "7", "6", "6", "4", "3", "8", "9", "12"], "time": [495, 1125, 1892, 2092, 2225, 2844, 3295, 3396, 4746, 4944, 6727, 6827, 6976, 7110, 7376, 7408, 8858, 8994, 11093, 13308, 15245, 15362, 15462, 15890, 15975, 17774, 17856, 18026, 18624, 18739, 20009, 20460, 21189, 22907, 23073, 24157, 24191, 24253, 24388, 24786, 30490]}, "edge": {"target": [], "time": []}}}, "displayed_time": "29.47", "trialTime": 31159, "trial_type": "mouselab-mdp", "trial_index": 36, "time_elapsed": 1133565, "internal_node_id": "0.0-4.0-1.0-21.0"}}, {"uniqueid": "w10978872:a10992669", "current_trial": 37, "dateTime": 1691071879234, "trialdata": {"revealed_states": [], "clicked_states": ["27"], "num_clicks_accrued": [0, 0, 0, 0, 0, 0, 0, 0, 0, 0, 0, 0, 0], "stateRewards": ["", 1, 1, -3, 2, 22, -25, -11, -5, 50, 49, 3, 1, -1, 8, 14, -85, -30, 57, -6, -39, -16, 59, -2, -1, 5, 5, 59, -16, 8, 4, 67, 56, -9], "withholdReward": false, "trial_id": "mdp_trial_23", "block": "test", "trialIndex": 26, "score": 64.6, "costs": -1.4, "simulationMode": [null, null, null, null, null], "rewards": [-2, -1, 5, 5, 59], "path": ["0", "0", "23", "24", "25", "26", "27"], "rt": [3384, 35, 515, 56, 6], "actions": ["left", "left", "left", "up", "up"], "actionTimes": [5243, 5804, 6835, 7409, 7945], "queries": {"click": {"state": {"target": ["27"], "time": [2526]}, "edge": {"target": [], "time": []}}, "mouseover": {"state": {"target": ["1", "10", "27", "28", "23"], "time": [1872, 1947, 2302, 2768, 2832]}, "edge": {"target": [], "time": []}}, "mouseout": {"state": {"target": ["0", "1", "7", "2", "0", "1", "10", "27", "28", "23"], "time": [451, 633, 1184, 1250, 1870, 1881, 2017, 2717, 2781, 3051]}, "edge": {"target": [], "time": []}}}, "displayed_time": "15.86", "trialTime": 16686, "trial_type": "mouselab-mdp", "trial_index": 37, "time_elapsed": 1150830, "internal_node_id": "0.0-4.0-1.0-22.0"}}, {"uniqueid": "w10978872:a10992669", "current_trial": 38, "dateTime": 1691071896623, "trialdata": {"revealed_states": [], "clicked_states": ["17"], "num_clicks_accrued": [0, 0, 0, 0, 0, 0, 0, 0, 0, 0, 0, 0, 0], "stateRewards": ["", -1, -3, 1, -4, -48, -63, -49, -2, -84, -19, 65, 2, -2, -2, -12, -4, 59, 9, 6, 75, 69, -13, -1, -3, -3, -2, -37, -68, -36, 13, 32, 18, -14], "withholdReward": false, "trial_id": "mdp_trial_24", "block": "test", "trialIndex": 27, "score": 43.6, "costs": -1.4, "simulationMode": [null, null, null, null, null], "rewards": [2, -2, -2, -12, 59], "path": ["0", "0", "12", "13", "14", "15", "17"], "rt": [3791, 10, 110, 239, 764], "actions": ["right", "right", "right", "up", "right"], "actionTimes": [5533, 6066, 6710, 7490, 8768], "queries": {"click": {"state": {"target": ["17"], "time": [2903]}, "edge": {"target": [], "time": []}}, "mouseover": {"state": {"target": ["13", "17", "14", "0", "12", "13", "20"], "time": [1837, 2758, 3220, 3719, 4317, 4350, 4847]}, "edge": {"target": [], "time": []}}, "mouseout": {"state": {"target": ["0", "0", "13", "17", "17", "14", "0", "12", "13", "20", "22"], "time": [835, 1757, 2022, 2973, 3169, 3288, 3768, 4335, 4372, 4972, 9952]}, "edge": {"target": [], "time": []}}}, "displayed_time": "15.75", "trialTime": 16801, "trial_type": "mouselab-mdp", "trial_index": 38, "time_elapsed": 1168219, "internal_node_id": "0.0-4.0-1.0-23.0"}}, {"uniqueid": "w10978872:a10992669", "current_trial": 39, "dateTime": 1691071916193, "trialdata": {"revealed_states": [], "clicked_states": ["29"], "num_clicks_accrued": [0, 0, 0, 0, 0, 0, 0, 0, 0, 0, 0, 0, 0], "stateRewards": ["", -1, -4, -1, -11, 43, 69, 39, 4, 17, -20, -82, -2, -1, 4, 8, -79, 24, -79, 11, 36, 64, 41, 2, 4, -1, 11, -79, -47, 75, -3, 63, -36, -19], "withholdReward": false, "trial_id": "mdp_trial_25", "block": "test", "trialIndex": 28, "score": 89.6, "costs": -1.4, "simulationMode": [null, null, null, null, null], "rewards": [2, 4, -1, 11, 75], "path": ["0", "0", "23", "24", "25", "26", "29"], "rt": [5883, 275, 22, 34, 674], "actions": ["left", "left", "left", "up", "left"], "actionTimes": [7598, 8400, 8946, 9509, 10698], "queries": {"click": {"state": {"target": ["29"], "time": [4738]}, "edge": {"target": [], "time": []}}, "mouseover": {"state": {"target": ["28", "26", "29", "26", "23", "12", "13", "15", "14", "13", "23", "31"], "time": [4392, 4436, 4504, 5043, 5390, 5608, 5863, 6156, 6694, 6801, 7158, 7266]}, "edge": {"target": [], "time": []}}, "mouseout": {"state": {"target": ["25", "24", "0", "28", "26", "29", "26", "23", "12", "13", "15", "14", "13", "23", "31"], "time": [473, 589, 1927, 4422, 4471, 4913, 5077, 5540, 5659, 5929, 6609, 6793, 6834, 7204, 7391]}, "edge": {"target": [], "time": []}}}, "displayed_time": "15.72", "trialTime": 18966, "trial_type": "mouselab-mdp", "trial_index": 39, "time_elapsed": 1187790, "internal_node_id": "0.0-4.0-1.0-24.0"}}, {"uniqueid": "w10978872:a10992669", "current_trial": 40, "dateTime": 1691071933309, "trialdata": {"revealed_states": [], "clicked_states": ["17", "21"], "num_clicks_accrued": [0, 0, 0, 0, 0, 0, 0, 0, 0, 0, 0, 0, 0], "stateRewards": ["", -2, 1, -5, 2, -68, 80, 33, 10, 67, -59, 20, -1, -3, 3, 14, 74, -2, 24, -16, 63, 80, 46, -1, 4, 6, 12, 83, -38, -43, -4, 43, 14, -79], "withholdReward": false, "trial_id": "mdp_trial_26", "block": "test", "trialIndex": 29, "score": 60.2, "costs": -2.8, "simulationMode": [null, null, null, null, null], "rewards": [-1, -3, 3, -16, 80], "path": ["0", "0", "12", "13", "14", "19", "21"], "rt": [6258, 81, 7, 249, 3], "actions": ["right", "right", "right", "down", "down"], "actionTimes": [8090, 8697, 9244, 10031, 10552], "queries": {"click": {"state": {"target": ["17", "21"], "time": [2971, 5276]}, "edge": {"target": [], "time": []}}, "mouseover": {"state": {"target": ["1", "15", "17", "15", "18", "13", "14", "19", "21", "23", "24", "25", "29", "26", "20"], "time": [2382, 2548, 2597, 4128, 4198, 4444, 4630, 4731, 5197, 6096, 6116, 6146, 6800, 7357, 7754]}, "edge": {"target": [], "time": []}}, "mouseout": {"state": {"target": ["0", "1", "15", "17", "17", "15", "18", "13", "14", "19", "21", "23", "24", "25", "29", "26", "20"], "time": [1878, 2412, 2587, 3071, 4096, 4163, 4330, 4542, 4659, 4936, 5414, 6112, 6131, 6694, 7327, 7393, 7786]}, "edge": {"target": [], "time": []}}}, "displayed_time": "15.84", "trialTime": 16442, "trial_type": "mouselab-mdp", "trial_index": 40, "time_elapsed": 1204905, "internal_node_id": "0.0-4.0-1.0-25.0"}}, {"uniqueid": "w10978872:a10992669", "current_trial": 41, "dateTime": 1691071973671, "trialdata": {"revealed_states": [], "clicked_states": ["29"], "num_clicks_accrued": [0, 0, 0, 0, 0, 0, 0, 0, 0, 0, 0, 0, 0], "stateRewards": ["", 1, 2, 7, 13, 88, -71, 27, 3, 60, 5, -53, -2, 2, -6, -1, -30, 79, 47, -4, -14, 46, 68, 1, 1, 8, 10, -14, 86, 48, -11, -67, -44, 5], "withholdReward": false, "trial_id": "mdp_trial_27", "block": "test", "trialIndex": 30, "score": 66.6, "costs": -1.4, "simulationMode": [null, null, null, null, null], "rewards": [1, 1, 8, 10, 48], "path": ["0", "0", "23", "24", "25", "26", "29"], "rt": [3664, 22, 36, 881, 315], "actions": ["left", "left", "left", "up", "left"], "actionTimes": [5753, 6308, 6870, 8285, 9119], "queries": {"click": {"state": {"target": ["29"], "time": [2908]}, "edge": {"target": [], "time": []}}, "mouseover": {"state": {"target": ["24", "26", "29", "25", "31", "31", "30", "32", "31", "0"], "time": [2104, 2182, 2706, 3108, 3188, 3601, 3650, 4417, 5004, 5050]}, "edge": {"target": [], "time": []}}, "mouseout": {"state": {"target": ["0", "24", "26", "29", "25", "31", "31", "30", "32", "31", "0", "19", "22"], "time": [2101, 2120, 2217, 3065, 3125, 3234, 3635, 4052, 4971, 5037, 5081, 39279, 39478]}, "edge": {"target": [], "time": []}}}, "displayed_time": "16.09", "trialTime": 39779, "trial_type": "mouselab-mdp", "trial_index": 41, "time_elapsed": 1245267, "internal_node_id": "0.0-4.0-1.0-26.0"}}, {"uniqueid": "w10978872:a10992669", "current_trial": 42, "dateTime": 1691072034149, "trialdata": {"revealed_states": [], "clicked_states": ["30", "17", "6", "9", "10", "11", "5", "21", "20"], "num_clicks_accrued": [0, 0, 0, 0, 0, 0, 0, 0, 0, 0, 0, 0, 0], "stateRewards": ["", 1, 2, -8, 9, 18, -83, -11, 6, -64, -48, 17, -2, -2, -5, -3, -24, -3, -86, -2, 48, -41, -22, -2, 4, 7, 8, 81, 13, -48, 10, 61, 19, 57], "withholdReward": false, "trial_id": "mdp_trial_28", "block": "test", "trialIndex": 31, "score": 24.4, "costs": -12.600000000000001, "simulationMode": [null, null, null, null, null], "rewards": [-2, -2, -5, -2, 48], "path": ["0", "0", "12", "13", "14", "19", "20"], "rt": [22102, 7, 549, 62, 26], "actions": ["right", "right", "right", "down", "right"], "actionTimes": [23617, 24145, 25254, 25841, 26413], "queries": {"click": {"state": {"target": ["30", "17", "6", "9", "10", "11", "5", "21", "20"], "time": [2544, 4711, 6997, 9064, 11360, 13525, 16590, 18766, 21143]}, "edge": {"target": [], "time": []}}, "mouseover": {"state": {"target": ["30", "13", "14", "17", "13", "18", "7", "4", "6", "2", "10", "8", "9", "8", "10", "8", "10", "11", "8", "3", "4", "5", "4", "13", "21", "20"], "time": [2301, 3086, 3419, 4216, 5169, 5849, 5984, 6168, 6541, 8068, 8152, 8434, 8755, 9317, 9401, 10762, 11209, 13053, 13799, 13836, 13893, 14149, 16899, 17898, 18501, 20868]}, "edge": {"target": [], "time": []}}, "mouseout": {"state": {"target": ["0", "30", "13", "14", "17", "13", "18", "7", "4", "6", "6", "2", "10", "8", "9", "8", "10", "8", "10", "10", "11", "8", "3", "4", "5", "4", "13", "21", "20", "20", "19", "22", "0"], "time": [1103, 2836, 3385, 3718, 4969, 5740, 5903, 6034, 6335, 7089, 7250, 8101, 8203, 8476, 9300, 9367, 10686, 10871, 11427, 12080, 13766, 13832, 13867, 14016, 16879, 16938, 17914, 19114, 21214, 27263, 27315, 27367, 58791]}, "edge": {"target": [], "time": []}}}, "displayed_time": "26.94", "trialTime": 59851, "trial_type": "mouselab-mdp", "trial_index": 42, "time_elapsed": 1305745, "internal_node_id": "0.0-4.0-1.0-27.0"}}, {"uniqueid": "w10978872:a10992669", "current_trial": 43, "dateTime": 1691072067120, "trialdata": {"revealed_states": [], "clicked_states": ["16"], "num_clicks_accrued": [0, 0, 0, 0, 0, 0, 0, 0, 0, 0, 0, 0, 0], "stateRewards": ["", 2, -3, 5, 11, -79, 54, 11, -9, -78, 33, 22, -2, -1, 2, 14, 43, 34, 1, 10, 49, -65, 39, -1, 1, -1, 3, -16, -2, 11, 2, 12, 48, -65], "withholdReward": false, "trial_id": "mdp_trial_29", "block": "test", "trialIndex": 32, "score": 54.6, "costs": -1.4, "simulationMode": [null, null, null, null, null], "rewards": [-2, -1, 2, 14, 43], "path": ["0", "0", "12", "13", "14", "15", "16"], "rt": [3205, 345, 963, 367, 574], "actions": ["right", "right", "right", "up", "up"], "actionTimes": [5420, 6299, 7783, 8684, 9787], "queries": {"click": {"state": {"target": ["16"], "time": [2824]}, "edge": {"target": [], "time": []}}, "mouseover": {"state": {"target": ["16", "16", "15", "13", "23", "24", "25", "33", "30", "15", "17"], "time": [2481, 2679, 3037, 3090, 3366, 3400, 3551, 3983, 4912, 4983, 5032]}, "edge": {"target": [], "time": []}}, "mouseout": {"state": {"target": ["12", "0", "0", "16", "16", "16", "15", "13", "23", "24", "25", "33", "30", "15", "17", "13", "12", "31", "31"], "time": [883, 1209, 1600, 2500, 2971, 3019, 3054, 3108, 3381, 3471, 3600, 4903, 4945, 5020, 5285, 10364, 10381, 10485, 10734]}, "edge": {"target": [], "time": []}}}, "displayed_time": "16.22", "trialTime": 32352, "trial_type": "mouselab-mdp", "trial_index": 43, "time_elapsed": 1338716, "internal_node_id": "0.0-4.0-1.0-28.0"}}, {"uniqueid": "w10978872:a10992669", "current_trial": 44, "dateTime": 1691072098252, "trialdata": {"revealed_states": [], "clicked_states": ["14", "29", "32"], "num_clicks_accrued": [0, 0, 0, 0, 0, 0, 0, 0, 0, 0, 0, 0, 0], "stateRewards": ["", -2, 2, 3, -7, -31, -33, 29, -8, -57, 50, -83, -1, -1, 5, 13, -23, -62, 25, 5, -66, -85, 14, 1, -2, -1, 16, 71, 33, -19, -14, 5, -43, 79], "withholdReward": false, "trial_id": "mdp_trial_30", "block": "test", "trialIndex": 33, "score": 80.8, "costs": -4.199999999999999, "simulationMode": [null, null, null, null, null], "rewards": [1, -2, -1, 16, 71], "path": ["0", "0", "23", "24", "25", "26", "27"], "rt": [11233, 98, 311, 10962, 1762], "actions": ["left", "left", "left", "up", "up"], "actionTimes": [12948, 13582, 14421, 25908, 28198], "queries": {"click": {"state": {"target": ["14", "29", "32"], "time": [2687, 4797, 6702]}, "edge": {"target": [], "time": []}}, "mouseover": {"state": {"target": ["13", "14", "31", "30", "33", "29", "29", "25", "32", "31", "31", "25", "25", "25", "24"], "time": [2349, 2432, 3207, 3254, 3303, 3785, 3998, 5046, 5829, 6995, 10131, 11179, 11939, 12279, 12366]}, "edge": {"target": [], "time": []}}, "mouseout": {"state": {"target": ["0", "13", "14", "31", "30", "33", "29", "29", "25", "32", "31", "31", "25", "25", "25", "24", "19", "19"], "time": [963, 2384, 2979, 3224, 3286, 3548, 3804, 5021, 5066, 6912, 7079, 10964, 11629, 11971, 12333, 15075, 21241, 29583]}, "edge": {"target": [], "time": []}}}, "displayed_time": "28.73", "trialTime": 30509, "trial_type": "mouselab-mdp", "trial_index": 44, "time_elapsed": 1369848, "internal_node_id": "0.0-4.0-1.0-29.0"}}, {"uniqueid": "w10978872:a10992669", "current_trial": 45, "dateTime": 1691072116957, "trialdata": {"revealed_states": [], "clicked_states": ["6", "11"], "num_clicks_accrued": [0, 0, 0, 0, 0, 0, 0, 0, 0, 0, 0, 0, 0], "stateRewards": ["", 1, 4, -8, -13, -13, -87, -77, -10, -44, 54, 42, 2, -3, -4, 12, -9, -80, 52, 9, 84, -2, -65, 1, -4, -5, -6, 8, 80, 32, 13, -59, -5, -13], "withholdReward": false, "trial_id": "mdp_trial_31", "block": "test", "trialIndex": 34, "score": 26.2, "costs": -2.8, "simulationMode": [null, null, null, null, null], "rewards": [1, 4, -8, -10, 42], "path": ["0", "0", "1", "2", "3", "8", "11"], "rt": [6683, 31, 451, 81, 586], "actions": ["up", "up", "up", "left", "left"], "actionTimes": [9828, 10419, 11407, 12002, 13108], "queries": {"click": {"state": {"target": ["6", "11"], "time": [3975, 6230]}, "edge": {"target": [], "time": []}}, "mouseover": {"state": {"target": ["6", "18", "12", "18", "7", "2", "11", "11", "28", "26", "27", "10", "1"], "time": [3792, 4319, 4904, 5340, 5569, 5635, 5785, 6083, 6735, 7019, 7603, 8805, 9620]}, "edge": {"target": [], "time": []}}, "mouseout": {"state": {"target": ["0", "6", "18", "12", "18", "7", "2", "11", "11", "28", "26", "27", "10", "1", "1", "0"], "time": [2736, 4168, 4552, 5170, 5498, 5615, 5666, 5849, 6426, 6951, 7484, 8422, 8857, 10561, 13682, 13732]}, "edge": {"target": [], "time": []}}}, "displayed_time": "17.15", "trialTime": 18062, "trial_type": "mouselab-mdp", "trial_index": 45, "time_elapsed": 1388552, "internal_node_id": "0.0-4.0-1.0-30.0"}}, {"uniqueid": "w10978872:a10992669", "current_trial": 46, "dateTime": 1691072144184, "trialdata": {"revealed_states": [], "clicked_states": ["19", "30", "29", "17", "27", "20"], "num_clicks_accrued": [0, 0, 0, 0, 0, 0, 0, 0, 0, 0, 0, 0, 0], "stateRewards": ["", -1, 3, -4, -14, 78, 67, 2, 13, -32, 28, 39, -2, 1, -4, -4, -4, -42, -86, 11, 64, -29, -32, -1, -4, 2, -7, 5, 68, -61, 2, -21, 85, 50], "withholdReward": false, "trial_id": "mdp_trial_32", "block": "test", "trialIndex": 35, "score": 61.6, "costs": -8.4, "simulationMode": [null, null, null, null, null], "rewards": [-2, 1, -4, 11, 64], "path": ["0", "0", "12", "13", "14", "19", "20"], "rt": [17772, 186, 668, 22, 64], "actions": ["right", "right", "right", "down", "right"], "actionTimes": [20740, 21443, 22648, 23208, 23784], "queries": {"click": {"state": {"target": ["19", "30", "29", "17", "27", "20"], "time": [3806, 5952, 8648, 11447, 15423, 17760]}, "edge": {"target": [], "time": []}}, "mouseover": {"state": {"target": ["19", "31", "30", "31", "25", "25", "29", "25", "24", "23", "0", "12", "13", "14", "15", "17", "14", "13", "12", "10", "11", "27", "28", "12", "13", "22", "20"], "time": [3391, 4889, 5172, 6343, 8073, 8192, 8442, 8893, 8961, 9192, 9390, 10711, 10784, 11039, 11240, 11358, 11804, 12017, 13834, 14238, 14704, 15238, 15712, 16368, 16452, 16688, 17525]}, "edge": {"target": [], "time": []}}, "mouseout": {"state": {"target": ["0", "12", "13", "12", "0", "19", "31", "30", "31", "25", "25", "29", "25", "24", "23", "0", "12", "13", "14", "15", "17", "14", "13", "12", "10", "11", "27", "28", "12", "13", "22", "20", "20", "19", "22"], "time": [815, 1651, 2051, 2098, 2982, 4107, 5071, 6256, 6494, 8107, 8227, 8828, 8912, 9045, 9291, 10678, 10746, 10834, 11073, 11272, 11687, 11937, 13623, 13850, 14295, 14955, 15628, 15729, 16401, 16558, 16756, 18002, 20929, 24586, 24831]}, "edge": {"target": [], "time": []}}}, "displayed_time": "24.33", "trialTime": 26576, "trial_type": "mouselab-mdp", "trial_index": 46, "time_elapsed": 1415780, "internal_node_id": "0.0-4.0-1.0-31.0"}}, {"uniqueid": "w10978872:a10992669", "current_trial": 47, "dateTime": 1691072179673, "trialdata": {"revealed_states": [], "clicked_states": ["30", "17", "16", "11", "5", "7", "9", "10"], "num_clicks_accrued": [0, 0, 0, 0, 0, 0, 0, 0, 0, 0, 0, 0, 0], "stateRewards": ["", -1, -1, 4, -16, -75, 81, -51, -7, -84, 73, -30, -2, 1, -3, -16, -77, 33, 14, 1, 45, 87, -66, 2, 2, -5, -7, -19, -17, 79, -3, 8, 49, 47], "withholdReward": false, "trial_id": "mdp_trial_33", "block": "test", "trialIndex": 36, "score": 56.8, "costs": -11.200000000000001, "simulationMode": [null, null, null, null, null], "rewards": [-1, -1, 4, -7, 73], "path": ["0", "0", "1", "2", "3", "8", "10"], "rt": [20521, 48, 468, 36, 32], "actions": ["up", "up", "up", "left", "down"], "actionTimes": [22119, 22705, 23708, 24263, 24805], "queries": {"click": {"state": {"target": ["30", "17", "16", "11", "5", "7", "9", "10"], "time": [3004, 5457, 7970, 9915, 11963, 14827, 17427, 19579]}, "edge": {"target": [], "time": []}}, "mouseover": {"state": {"target": ["28", "26", "26", "25", "30", "22", "14", "15", "17", "17", "13", "18", "16", "18", "1", "28", "11", "23", "10", "3", "5", "4", "7", "7", "7", "2", "8", "9", "3", "2", "1", "1", "2", "10", "10", "0", "12", "22", "22"], "time": [1611, 1827, 2447, 2561, 2837, 3892, 4309, 4509, 4811, 5286, 5858, 6807, 7108, 8224, 8357, 8497, 8874, 10275, 11208, 11609, 11755, 12198, 12265, 14126, 14406, 16908, 16979, 17230, 17689, 17759, 17813, 18573, 18728, 18815, 19157, 20037, 20123, 20372, 21580]}, "edge": {"target": [], "time": []}}, "mouseout": {"state": {"target": ["0", "28", "26", "26", "25", "30", "22", "14", "15", "17", "17", "13", "18", "16", "18", "1", "28", "11", "23", "10", "3", "5", "4", "7", "7", "7", "2", "8", "9", "3", "2", "1", "1", "2", "10", "10", "0", "12", "22", "22", "0"], "time": [674, 1660, 2311, 2524, 2626, 3278, 3925, 4442, 4761, 4881, 5658, 6491, 6842, 8157, 8308, 8394, 8681, 10172, 11040, 11240, 11688, 12164, 12232, 12282, 14165, 15056, 16945, 17021, 17555, 17740, 17794, 18104, 18660, 18778, 18833, 19789, 20087, 20172, 20558, 25440, 33800]}, "edge": {"target": [], "time": []}}}, "displayed_time": "25.34", "trialTime": 34875, "trial_type": "mouselab-mdp", "trial_index": 47, "time_elapsed": 1451268, "internal_node_id": "0.0-4.0-1.0-32.0"}}, {"uniqueid": "w10978872:a10992669", "current_trial": 48, "dateTime": 1691072231046, "trialdata": {"revealed_states": [], "clicked_states": ["25", "16", "21"], "num_clicks_accrued": [0, 0, 0, 0, 0, 0, 0, 0, 0, 0, 0, 0, 0], "stateRewards": ["", 1, -2, 7, -14, 88, -56, -44, -14, 64, -51, -57, -2, 3, -4, -9, -11, 19, -77, -1, 68, 75, -67, -1, 1, -2, 5, -37, 70, -34, -10, -72, 63, -41], "withholdReward": false, "trial_id": "mdp_trial_34", "block": "test", "trialIndex": 37, "score": 66.8, "costs": -4.199999999999999, "simulationMode": [null, null, null, null, null], "rewards": [-2, 3, -4, -1, 75], "path": ["0", "0", "12", "13", "14", "19", "21"], "rt": [8358, 42, 308, 186, 13], "actions": ["right", "right", "right", "down", "down"], "actionTimes": [9759, 10313, 11162, 11878, 12417], "queries": {"click": {"state": {"target": ["25", "16", "21"], "time": [2098, 4763, 6914]}, "edge": {"target": [], "time": []}}, "mouseover": {"state": {"target": ["24", "24", "25", "30", "31", "0", "17", "15", "16", "15", "19", "21", "19", "13", "12", "13", "19"], "time": [1538, 1890, 1983, 2290, 3403, 3873, 4355, 4448, 4590, 4976, 5503, 6497, 7219, 7326, 7392, 8653, 8969]}, "edge": {"target": [], "time": []}}, "mouseout": {"state": {"target": ["0", "24", "24", "25", "30", "31", "0", "17", "15", "16", "15", "19", "21", "19", "13", "12", "13", "19"], "time": [1413, 1671, 1943, 2272, 2317, 3788, 3909, 4407, 4522, 4942, 5011, 5904, 6991, 7288, 7358, 7426, 8853, 9024]}, "edge": {"target": [], "time": []}}}, "displayed_time": "15.40", "trialTime": 50770, "trial_type": "mouselab-mdp", "trial_index": 48, "time_elapsed": 1502641, "internal_node_id": "0.0-4.0-1.0-33.0"}}, {"uniqueid": "w10978872:a10992669", "current_trial": 49, "dateTime": 1691072252584, "trialdata": {"revealed_states": [], "clicked_states": ["10", "28", "17", "20", "33"], "num_clicks_accrued": [0, 0, 0, 0, 0, 0, 0, 0, 0, 0, 0, 0, 0], "stateRewards": ["", 2, -3, 5, -14, -63, -9, -24, -11, -54, -43, 68, 2, -2, -4, 7, -64, 30, 47, 12, -74, 11, 86, 1, -3, 3, 10, -71, -42, -52, -1, -29, -16, 69], "withholdReward": false, "trial_id": "mdp_trial_35", "block": "test", "trialIndex": 38, "score": 62, "costs": -7, "simulationMode": [null, null, null, null, null], "rewards": [1, -3, 3, -1, 69], "path": ["0", "0", "23", "24", "25", "30", "33"], "rt": [14218, 6, 321, 151, 751], "actions": ["left", "left", "left", "down", "left"], "actionTimes": [15834, 16361, 17209, 17873, 19140], "queries": {"click": {"state": {"target": ["10", "28", "17", "20", "33"], "time": [2613, 5029, 6884, 9079, 11946]}, "edge": {"target": [], "time": []}}, "mouseover": {"state": {"target": ["11", "10", "24", "31", "24", "28", "24", "31", "17", "14", "19", "20", "19", "13", "12", "23", "31", "30", "33", "33", "30", "24", "26", "26", "24"], "time": [1926, 2444, 3486, 3981, 4251, 4707, 5253, 5335, 6270, 7156, 8268, 8785, 9354, 9473, 9558, 9953, 10137, 10634, 11523, 11794, 13741, 14073, 14355, 14871, 14979]}, "edge": {"target": [], "time": []}}, "mouseout": {"state": {"target": ["0", "11", "10", "24", "31", "24", "28", "24", "31", "17", "14", "19", "20", "19", "13", "12", "23", "31", "30", "33", "33", "30", "24", "26", "26", "24"], "time": [1629, 2092, 2786, 3518, 4189, 4639, 5219, 5302, 5736, 7122, 7233, 8469, 9158, 9372, 9522, 9610, 10020, 10338, 10705, 11575, 12309, 13973, 14218, 14672, 14925, 15150]}, "edge": {"target": [], "time": []}}}, "displayed_time": "19.65", "trialTime": 20825, "trial_type": "mouselab-mdp", "trial_index": 49, "time_elapsed": 1524179, "internal_node_id": "0.0-4.0-1.0-34.0"}}, {"uniqueid": "w10978872:a10992669", "current_trial": 50, "dateTime": 1691072279963, "trialdata": {"revealed_states": [], "clicked_states": ["6"], "num_clicks_accrued": [0, 0, 0, 0, 0, 0, 0, 0, 0, 0, 0, 0, 0], "stateRewards": ["", -1, 1, -1, 2, 19, 85, -18, 2, -3, -26, 36, 2, 4, 7, -9, -18, 70, 72, -5, 35, -20, -28, 1, -2, -4, -3, -59, -11, -63, -2, -72, 59, -69], "withholdReward": false, "trial_id": "mdp_trial_36", "block": "test", "trialIndex": 39, "score": 84.6, "costs": -1.4, "simulationMode": [null, null, null, null, null], "rewards": [-1, 1, -1, 2, 85], "path": ["0", "0", "1", "2", "3", "4", "6"], "rt": [3689, 49, 326, 13, 6], "actions": ["up", "up", "up", "right", "right"], "actionTimes": [5389, 5963, 6807, 7344, 7883], "queries": {"click": {"state": {"target": ["6"], "time": [2639]}, "edge": {"target": [], "time": []}}, "mouseover": {"state": {"target": ["26", "28", "2", "6", "6", "18", "16"], "time": [1754, 1876, 1925, 1961, 2480, 2917, 3441]}, "edge": {"target": [], "time": []}}, "mouseout": {"state": {"target": ["12", "12", "26", "28", "2", "6", "6", "18", "16", "18"], "time": [10, 561, 1841, 1897, 1946, 1977, 2833, 3167, 4850, 26226]}, "edge": {"target": [], "time": []}}}, "displayed_time": "15.71", "trialTime": 26731, "trial_type": "mouselab-mdp", "trial_index": 50, "time_elapsed": 1551559, "internal_node_id": "0.0-4.0-1.0-35.0"}}, {"uniqueid": "w10978872:a10992669", "current_trial": 51, "dateTime": 1691072335445, "trialdata": {"revealed_states": [], "clicked_states": ["27", "17", "20", "31", "33", "29", "6", "9", "11", "5", "7", "22", "18", "21", "25", "26", "28", "32"], "num_clicks_accrued": [0, 0, 0, 0, 0, 0, 0, 0, 0, 0, 0, 0, 0], "stateRewards": ["", 1, -2, -8, -13, 4, 34, -84, -4, -49, 88, -70, -1, 3, -4, 10, -77, 13, -34, 15, -21, -16, 27, 1, -2, 8, -8, -6, 38, -26, 6, -15, 66, -3], "withholdReward": false, "trial_id": "mdp_trial_37", "block": "test", "trialIndex": 40, "score": 53.80000000000001, "costs": -25.199999999999992, "simulationMode": [null, null, null, null, null], "rewards": [1, -2, 8, 6, 66], "path": ["0", "0", "23", "24", "25", "30", "32"], "rt": [47507, 173, 533, 29, 48], "actions": ["left", "left", "left", "down", "down"], "actionTimes": [48926, 49618, 50691, 51271, 51823], "queries": {"click": {"state": {"target": ["27", "17", "20", "31", "33", "29", "6", "9", "11", "5", "7", "22", "18", "21", "25", "26", "28", "32"], "time": [2151, 4137, 7039, 10032, 12062, 14448, 16750, 19616, 21950, 24403, 26483, 28719, 31575, 33857, 38240, 40394, 42729, 45776]}, "edge": {"target": [], "time": []}}, "mouseover": {"state": {"target": ["27", "26", "28", "1", "16", "17", "13", "15", "14", "20", "19", "22", "31", "30", "31", "30", "33", "30", "23", "23", "29", "25", "24", "23", "1", "7", "6", "7", "4", "3", "8", "9", "2", "1", "1", "11", "3", "5", "4", "7", "7", "7", "12", "13", "22", "12", "13", "14", "18", "21", "22", "0", "23", "24", "25", "24", "23", "26", "24", "23", "24", "28", "24", "30", "32", "32", "31", "0", "23", "24", "23", "18", "15"], "time": [2020, 2344, 3065, 3120, 3225, 3565, 4744, 6368, 6663, 6822, 7429, 7730, 8821, 9249, 9772, 11425, 11659, 12380, 12645, 13851, 13973, 14745, 14812, 14961, 15344, 15992, 16580, 18498, 18851, 18899, 19032, 19405, 19886, 19947, 20495, 21774, 23914, 24266, 24611, 24693, 25695, 26068, 27627, 27763, 28004, 30612, 30673, 31174, 31527, 33695, 34108, 37424, 37576, 37748, 37921, 38607, 38698, 39576, 40792, 40927, 42359, 42488, 43006, 44078, 44423, 45609, 46083, 46238, 47542, 47655, 48040, 48294, 48346]}, "edge": {"target": [], "time": []}}, "mouseout": {"state": {"target": ["1", "27", "26", "28", "1", "16", "17", "13", "15", "14", "20", "19", "22", "31", "30", "31", "30", "33", "30", "23", "23", "29", "25", "24", "23", "1", "7", "6", "7", "4", "3", "8", "9", "2", "1", "1", "11", "3", "5", "4", "7", "7", "7", "12", "13", "22", "12", "13", "14", "18", "21", "22", "0", "23", "24", "25", "24", "23", "26", "24", "23", "24", "28", "24", "30", "32", "32", "31", "0", "23", "24", "23", "18", "15", "19", "22"], "time": [833, 2310, 2399, 3102, 3139, 3278, 4406, 5940, 6538, 6723, 7413, 7467, 8297, 9099, 9570, 10897, 11511, 12328, 12446, 12813, 13902, 14679, 14762, 14912, 14993, 15399, 16285, 16977, 18615, 18887, 18935, 19364, 19819, 19912, 20161, 21422, 22137, 23983, 24593, 24657, 24754, 25731, 26760, 27727, 27782, 28954, 30649, 30701, 31305, 32042, 34024, 34125, 37518, 37614, 37854, 38574, 38644, 39489, 40740, 40860, 42224, 42453, 42939, 43058, 44153, 45416, 45992, 46101, 46307, 47619, 47693, 48111, 48336, 48385, 54639, 54700]}, "edge": {"target": [], "time": []}}}, "displayed_time": "52.36", "trialTime": 54742, "trial_type": "mouselab-mdp", "trial_index": 51, "time_elapsed": 1607041, "internal_node_id": "0.0-4.0-1.0-36.0"}}, {"uniqueid": "w10978872:a10992669", "current_trial": 52, "dateTime": 1691072356576, "trialdata": {"revealed_states": [], "clicked_states": ["17", "29"], "num_clicks_accrued": [0, 0, 0, 0, 0, 0, 0, 0, 0, 0, 0, 0, 0], "stateRewards": ["", 2, 3, -2, -8, -8, -41, 74, 15, -23, -80, 1, 1, 3, 3, -15, -63, -78, 67, 13, 75, -41, 86, 2, -2, 6, -3, -8, -49, 50, -6, 83, 74, 80], "withholdReward": false, "trial_id": "mdp_trial_38", "block": "test", "trialIndex": 41, "score": 50.2, "costs": -2.8, "simulationMode": [null, null, null, null, null], "rewards": [2, -2, 6, -3, 50], "path": ["0", "0", "23", "24", "25", "26", "29"], "rt": [5754, 85, 484, 118, 47], "actions": ["left", "left", "left", "up", "left"], "actionTimes": [7105, 7731, 8736, 9369, 9932], "queries": {"click": {"state": {"target": ["17", "29"], "time": [2204, 4436]}, "edge": {"target": [], "time": []}}, "mouseover": {"state": {"target": ["16", "17", "15", "14", "13", "12", "0", "23", "26", "29", "25", "24"], "time": [1824, 2062, 2409, 2466, 2574, 2764, 2873, 2931, 3170, 3265, 4737, 4760]}, "edge": {"target": [], "time": []}}, "mouseout": {"state": {"target": ["12", "0", "16", "17", "15", "14", "13", "12", "0", "23", "26", "29", "25", "24", "12", "12", "20", "16", "15", "14"], "time": [714, 1365, 1979, 2355, 2429, 2485, 2694, 2817, 2911, 2950, 3233, 4682, 4755, 4779, 10717, 11717, 18982, 19094, 19265, 19535]}, "edge": {"target": [], "time": []}}}, "displayed_time": "15.36", "trialTime": 20454, "trial_type": "mouselab-mdp", "trial_index": 52, "time_elapsed": 1628172, "internal_node_id": "0.0-4.0-1.0-37.0"}}, {"uniqueid": "w10978872:a10992669", "current_trial": 53, "dateTime": 1691072403671, "trialdata": {"revealed_states": [], "clicked_states": ["16", "20", "33", "31", "29", "28"], "num_clicks_accrued": [0, 0, 0, 0, 0, 0, 0, 0, 0, 0, 0, 0, 0], "stateRewards": ["", -2, -4, 4, -11, -63, -60, -7, 2, -14, 81, -43, -1, -1, -5, 7, 10, 69, 40, 8, -83, 52, 60, 1, 2, 5, -5, 16, 64, 14, -3, 29, 7, -51], "withholdReward": false, "trial_id": "mdp_trial_39", "block": "test", "trialIndex": 42, "score": 58.6, "costs": -8.4, "simulationMode": [null, null, null, null, null], "rewards": [1, 2, 5, -5, 64], "path": ["0", "0", "23", "24", "25", "26", "28"], "rt": [16285, 280, 851, 19, 228], "actions": ["left", "left", "left", "up", "right"], "actionTimes": [17637, 18439, 19812, 20347, 21105], "queries": {"click": {"state": {"target": ["16", "20", "33", "31", "29", "28"], "time": [2007, 4008, 7471, 9912, 12766, 15009]}, "edge": {"target": [], "time": []}}, "mouseover": {"state": {"target": ["16", "15", "13", "19", "20", "19", "22", "31", "30", "33", "33", "31", "31", "14", "14", "13", "12", "1", "29", "12", "12", "28", "24", "23", "23"], "time": [1873, 2186, 2347, 3282, 3370, 4242, 5712, 6143, 6262, 6441, 7032, 9462, 9792, 10771, 11455, 11719, 11810, 12062, 12528, 13376, 13499, 14894, 15274, 17368, 17591]}, "edge": {"target": [], "time": []}}, "mouseout": {"state": {"target": ["16", "15", "13", "19", "20", "19", "22", "31", "30", "33", "33", "31", "31", "14", "14", "13", "12", "1", "29", "29", "12", "12", "28", "24", "23", "23", "26", "0", "0"], "time": [2151, 2203, 2644, 3319, 4204, 4313, 5797, 6218, 6403, 6483, 9407, 9503, 10050, 10793, 11675, 11761, 11852, 12081, 12799, 13142, 13471, 13549, 15208, 17326, 17446, 21896, 45329, 45630, 46134]}, "edge": {"target": [], "time": []}}}, "displayed_time": "21.64", "trialTime": 46482, "trial_type": "mouselab-mdp", "trial_index": 53, "time_elapsed": 1675266, "internal_node_id": "0.0-4.0-1.0-38.0"}}, {"uniqueid": "w10978872:a10992669", "current_trial": 54, "dateTime": 1691072426933, "trialdata": {"revealed_states": [], "clicked_states": ["8", "4", "17", "29", "28", "33"], "num_clicks_accrued": [0, 0, 0, 0, 0, 0, 0, 0, 0, 0, 0, 0, 0], "stateRewards": ["", 2, -4, -4, 13, -80, 62, 13, -11, 57, -13, -44, 1, 4, 3, -4, -29, -88, 15, 16, -58, 68, -45, -1, -3, -1, -9, -44, -86, -19, -7, -36, 59, 66], "withholdReward": false, "trial_id": "mdp_trial_40", "block": "test", "trialIndex": 43, "score": 45.6, "costs": -8.4, "simulationMode": [null, null, null, null, null], "rewards": [-1, -3, -1, -7, 66], "path": ["0", "0", "23", "24", "25", "30", "33"], "rt": [15784, 157, 159, 535, 170], "actions": ["left", "left", "left", "down", "left"], "actionTimes": [16974, 17667, 18355, 19414, 20116], "queries": {"click": {"state": {"target": ["8", "4", "17", "29", "28", "33"], "time": [1977, 4553, 6633, 9649, 11816, 14124]}, "edge": {"target": [], "time": []}}, "mouseover": {"state": {"target": ["10", "8", "11", "3", "4", "4", "7", "13", "14", "15", "17", "13", "12", "23", "23", "23", "24", "29", "25", "24", "28", "30", "33", "30", "24", "23", "1", "0"], "time": [1233, 1354, 2513, 3406, 3548, 4289, 5035, 5334, 5697, 6177, 6299, 6905, 6931, 7464, 8682, 9017, 9066, 9532, 9950, 10089, 11664, 13682, 13919, 14418, 14538, 14594, 15895, 16102]}, "edge": {"target": [], "time": []}}, "mouseout": {"state": {"target": ["0", "10", "8", "11", "8", "3", "4", "4", "7", "13", "14", "15", "17", "17", "13", "12", "23", "23", "23", "24", "29", "29", "25", "24", "28", "28", "30", "33", "30", "24", "23", "1", "0"], "time": [23, 1279, 2401, 3329, 3369, 3504, 3648, 4962, 5089, 5680, 6127, 6198, 6694, 6818, 6923, 7032, 7533, 8772, 9053, 9131, 9757, 9895, 9999, 10998, 11918, 12051, 13872, 14381, 14469, 14574, 14629, 15996, 16148]}, "edge": {"target": [], "time": []}}}, "displayed_time": "20.63", "trialTime": 22529, "trial_type": "mouselab-mdp", "trial_index": 54, "time_elapsed": 1698529, "internal_node_id": "0.0-4.0-1.0-39.0"}}, {"uniqueid": "w10978872:a10992669", "current_trial": 55, "dateTime": 1691072456341, "trialdata": {"rt": 29393, "response": {"Q0": "$-2 to $2", "Q1": "$-16 to $16", "Q2": "$-88 to $88", "Q3": "The cost was always $1.4.", "Q4": "Slightly motivated"}, "question_order": [0, 1, 2, 3, 4], "trial_id": "final_quiz_control", "trial_type": "survey-multi-choice", "trial_index": 55, "time_elapsed": 1727937, "internal_node_id": "0.0-4.0-2.0"}}, {"uniqueid": "w10978872:a10992669", "current_trial": 56, "dateTime": 1691072628081, "trialdata": {"rt": 171726, "response": {"Q0": "The key is to minimize clicking too many webs as to reduce risk. The first number above $40 positive I would aim and go for it fast.", "Q1": "Yes. Initially wanted the highest values (above $80) But iwith time I learnt to manage my risks and make sure I go for a reasonably high value.", "Q2": "Yes I was hard to eventually improve my game plan and performance after a few tries."}, "trial_id": "self_report_control", "trial_type": "survey-text", "trial_index": 56, "time_elapsed": 1899678, "internal_node_id": "0.0-4.0-3.0"}}, {"uniqueid": "w10978872:a10992669", "current_trial": 57, "dateTime": 1691072649969, "trialdata": {"rt": 21884, "response": {"gender": "male", "age": "28", "colorblind": "0", "effort": "0"}, "trial_type": "survey-html-form", "trial_index": 57, "time_elapsed": 1921566, "internal_node_id": "0.0-4.0-4.0"}}, {"uniqueid": "w10978872:a10992669", "current_trial": 58, "dateTime": 1691072759009, "trialdata": {"rt": 109032, "response": {"Q0": "Initailly it was cinfusing as the rules are too many, but by playing and initially making errors, I learnt from my mistakes.", "Q1": "No I did not actually.", "Q2": "This can be a fun non-biased game for companies and games shops. I enjoyed and would not mind playing more often."}, "trial_type": "survey-text", "trial_index": 58, "time_elapsed": 2030605, "internal_node_id": "0.0-4.0-5.0"}}, {"uniqueid": "w10978872:a10992669", "current_trial": 59, "dateTime": 1691072763113, "trialdata": {"rt": 4097, "stimulus": "Press 'Finish HIT' in order to reach the completion code. Once the data has been saved, you will receive the code either in this window or in the original browser window where you started the experiment.\n", "response": 0, "trial_type": "html-button-response", "trial_index": 59, "time_elapsed": 2034710, "internal_node_id": "0.0-5.0"}}, {"uniqueid": "w10978872:a10992669", "current_trial": 60, "dateTime": 1691072764124, "trialdata": {"success": true, "trial_type": "fullscreen", "trial_index": 60, "time_elapsed": 2035721, "internal_node_id": "0.0-6.0"}}], "questiondata": {"params": {"CODE": "C6DMOQA6", "MIN_TIME": 14, "inspectCost": 1, "startTime": "Thu Aug 03 2023 15:52:06 GMT+0200 (South Africa Standard Time)", "bonusRate": 0.002, "variance": "1_2_4_8_44", "branching": "31123"}, "final_score": 2066}, "eventdata": [{"eventtype": "initialized", "value": null, "timestamp": 1691070725589, "interval": 0}, {"eventtype": "window_resize", "value": [1024, 654], "timestamp": 1691070725589, "interval": 0}, {"eventtype": "window_resize", "value": [1024, 654], "timestamp": 1691070726064, "interval": 475}, {"eventtype": "window_resize", "value": [1366, 768], "timestamp": 1691070732392, "interval": 6328}, {"eventtype": "focus", "value": "off", "timestamp": 1691071063244, "interval": 330852}, {"eventtype": "focus", "value": "on", "timestamp": 1691071063244, "interval": 0}, {"eventtype": "window_resize", "value": [1024, 654], "timestamp": 1691071063461, "interval": 217}, {"eventtype": "window_resize", "value": [1366, 768], "timestamp": 1691071064714, "interval": 1253}, {"eventtype": "focus", "value": "off", "timestamp": 1691072585673, "interval": 1520959}, {"eventtype": "window_resize", "value": [1366, 767], "timestamp": 1691072585891, "interval": 218}, {"eventtype": "focus", "value": "on", "timestamp": 1691072589258, "interval": 3367}, {"eventtype": "window_resize", "value": [1366, 768], "timestamp": 1691072589502, "interval": 244}, {"eventtype": "window_resize", "value": [1024, 654], "timestamp": 1691072763392, "interval": 173890}, {"eventtype": "focus", "value": "off", "timestamp": 1691072771547, "interval": 8155}, {"eventtype": "focus", "value": "on", "timestamp": 1691082079284, "interval": 9307737}, {"eventtype": "focus", "value": "off", "timestamp": 1691082125077, "interval": 45793}, {"eventtype": "focus", "value": "on", "timestamp": 1691082324602, "interval": 199525}, {"eventtype": "focus", "value": "off", "timestamp": 1691082324656, "interval": 54}, {"eventtype": "focus", "value": "on", "timestamp": 1691082324691, "interval": 35}, {"eventtype": "focus", "value": "off", "timestamp": 1691082324703, "interval": 12}], "useragent": "Mozilla/5.0 (Windows NT 10.0; Win64; x64) AppleWebKit/537.36 (KHTML, like Gecko) Chrome/115.0.0.0 Safari/537.36", "mode": "live", "id": "w10978872:a10992669", "status": "user data saved", "Beginhit": "2023-08-03 13:52:01.989105", "Beginexp": "2023-08-03 13:52:13.187582", "Endhit": null, "psiturkStatus": 6, "browser": "<redacted>", "platform": "windows", "language": "en-US"}