{"condition": 1, "counterbalance": 0, "assignmentId": "a94680338", "workerId": "w37665807", "hitId": "h92855215", "currenttrial": 56, "bonus": 0, "data": [{"uniqueid": "w37665807:a94680338", "current_trial": 0, "dateTime": 1691142762663, "trialdata": {"success": true, "trial_type": "fullscreen", "trial_index": 0, "time_elapsed": 7379, "internal_node_id": "0.0-0.0"}}, {"uniqueid": "w37665807:a94680338", "current_trial": 1, "dateTime": 1691142790589, "trialdata": {"view_history": [{"page_index": 0, "viewing_time": 27913}], "rt": 27915, "trial_id": "exp_instructions_misaligned", "trial_type": "instructions", "trial_index": 1, "time_elapsed": 35305, "internal_node_id": "0.0-1.0"}}, {"uniqueid": "w37665807:a94680338", "current_trial": 2, "dateTime": 1691142795828, "trialdata": {"success": true, "trial_type": "fullscreen", "trial_index": 2, "time_elapsed": 40544, "internal_node_id": "0.0-2.0-0.0"}}, {"uniqueid": "w37665807:a94680338", "current_trial": 3, "dateTime": 1691143000622, "trialdata": {"view_history": [{"page_index": 0, "viewing_time": 91546}, {"page_index": 1, "viewing_time": 43732}, {"page_index": 2, "viewing_time": 26599}, {"page_index": 3, "viewing_time": 42912}], "rt": 204790, "trial_id": "mouselab_instructions_1_misaligned", "trial_type": "instructions", "trial_index": 3, "time_elapsed": 245338, "internal_node_id": "0.0-2.0-1.0"}}, {"uniqueid": "w37665807:a94680338", "current_trial": 4, "dateTime": 1691143016688, "trialdata": {"revealed_states": [], "clicked_states": [], "num_clicks_accrued": [0, 0, 0, 0, 0, 0, 0, 0, 0, 0, 0, 0, 0], "stateRewards": ["", -10, -10, -10, -10, 10, 10, 10, 10, 10, 10, 10, 10, 10, -10, 10, 10, -10, -10, -10, 10, 10, -10, 10, -10, -10, 10, 10, 10, -10, -10, -10, -10, -10], "withholdReward": false, "trial_id": "practice_1", "block": "test", "trialIndex": 0, "score": 13.5, "costs": 0, "simulationMode": [null, null, null, null, null], "rewards": [10, -10, -10, 10, 10], "path": ["0", "0", "23", "24", "25", "26", "28"], "rt": [1341, 661, 508, 234, 167], "actions": ["left", "left", "left", "up", "right"], "actionTimes": [7268, 8444, 9475, 10233, 10917], "queries": {"click": {"state": {"target": [], "time": []}, "edge": {"target": [], "time": []}}, "mouseover": {"state": {"target": [], "time": []}, "edge": {"target": [], "time": []}}, "mouseout": {"state": {"target": ["0"], "time": [4176]}, "edge": {"target": [], "time": []}}}, "displayed_time": "11.43", "trialTime": 14661, "trial_type": "mouselab-mdp", "trial_index": 4, "time_elapsed": 261404, "internal_node_id": "0.0-2.0-2.0-0.0"}}, {"uniqueid": "w37665807:a94680338", "current_trial": 5, "dateTime": 1691143026356, "trialdata": {"revealed_states": [], "clicked_states": [], "num_clicks_accrued": [0, 0, 0, 0, 0, 0, 0, 0, 0, 0, 0, 0, 0], "stateRewards": ["", -10, -10, -10, 10, -10, -10, 10, 10, -10, -10, -10, 10, -10, 10, -10, -10, 10, -10, -10, 10, -10, -10, 10, -10, -10, 10, 10, -10, 10, 10, -10, 10, 10], "withholdReward": false, "trial_id": "practice_2", "block": "test", "trialIndex": 1, "score": 13.5, "costs": 0, "simulationMode": [null, null, null, null, null], "rewards": [10, -10, -10, 10, 10], "path": ["0", "0", "23", "24", "25", "30", "32"], "rt": [1053, 147, 151, 52, 212], "actions": ["left", "left", "left", "down", "down"], "actionTimes": [3184, 3851, 4521, 5088, 5831], "queries": {"click": {"state": {"target": [], "time": []}, "edge": {"target": [], "time": []}}, "mouseover": {"state": {"target": [], "time": []}, "edge": {"target": [], "time": []}}, "mouseout": {"state": {"target": ["0"], "time": [1697]}, "edge": {"target": [], "time": []}}}, "displayed_time": "6.35", "trialTime": 9134, "trial_type": "mouselab-mdp", "trial_index": 5, "time_elapsed": 271071, "internal_node_id": "0.0-2.0-2.0-1.0"}}, {"uniqueid": "w37665807:a94680338", "current_trial": 6, "dateTime": 1691143070130, "trialdata": {"view_history": [{"page_index": 0, "viewing_time": 32471}, {"page_index": 1, "viewing_time": 11297}], "rt": 43769, "trial_id": "mouselab_instructions_2_misaligned", "trial_type": "instructions", "trial_index": 6, "time_elapsed": 314846, "internal_node_id": "0.0-2.0-3.0"}}, {"uniqueid": "w37665807:a94680338", "current_trial": 7, "dateTime": 1691143129946, "trialdata": {"rt": 59808, "response": {"Q0": "The cost for clicking on nodes may vary between nodes.", "Q1": "The better I perform the higher my bonus will be.", "Q2": "No, the amount of cash at each node of the web may be different each time.", "Q3": "To get the highest total score.", "Q4": "Only before moving the spider.", "Q5": "3 seconds"}, "question_order": [0, 1, 2, 3, 4, 5], "correct": {"Q0": "The cost for clicking on nodes may vary between nodes.", "Q1": "The better I perform the higher my bonus will be.", "Q2": "No, the amount of cash at each node of the web may be different each time.", "Q3": "To get the highest total score.", "Q4": "Only before moving the spider.", "Q5": "3 seconds"}, "trial_id": "mouselab_quiz_misaligned", "trial_type": "survey-multi-choice", "trial_index": 7, "time_elapsed": 374662, "internal_node_id": "0.0-2.0-4.0"}}, {"uniqueid": "w37665807:a94680338", "current_trial": 8, "dateTime": 1691143144399, "trialdata": {"rt": 14440, "stimulus": "\n<h1> Get ready to start the game! </h1>\n\nThank you for reading the instructions. Get ready start with the 40 rounds of this game.\n<br><br>\nIf you need to take a break, feel free to take one after the end of a round, before continuing to the next one.\n<br><br>\nRemember, the more money the spider gets, the bigger your bonus will be!\n<br><br>\n<div style='text-align: center;'>Press <code>space</code> to begin.</div>\n\n<br><br>\n(If, at any point, the <code>space</code> key does not take you to the next page, click once on the text and try again.)", "response": " ", "trial_id": "mdp_ready", "trial_type": "html-keyboard-response", "trial_index": 8, "time_elapsed": 389115, "internal_node_id": "0.0-4.0-0.0"}}, {"uniqueid": "w37665807:a94680338", "current_trial": 9, "dateTime": 1691143168755, "trialdata": {"revealed_states": [], "clicked_states": [], "num_clicks_accrued": [0, 0, 0, 0, 0, 0, 0, 0, 0, 0, 0, 0, 0], "stateRewards": ["", 1, -4, 6, -3, 40, 76, -51, 5, -24, -63, 44, -2, -2, 8, 1, 76, -85, -58, 10, 59, 20, 11, -2, 3, -3, 3, -82, -10, 54, -7, -57, -6, -32], "withholdReward": false, "trial_id": "mdp_trial_1", "block": "test", "trialIndex": 2, "score": -9, "costs": 0, "simulationMode": [null, null, null, null, null], "rewards": [-2, 3, -3, 3, -10], "path": ["0", "0", "23", "24", "25", "26", "28"], "rt": [616, 622, 851, 579, 1019], "actions": ["left", "left", "left", "up", "right"], "actionTimes": [3531, 4669, 6047, 7142, 8685], "queries": {"click": {"state": {"target": [], "time": []}, "edge": {"target": [], "time": []}}, "mouseover": {"state": {"target": [], "time": []}, "edge": {"target": [], "time": []}}, "mouseout": {"state": {"target": ["0"], "time": [19872]}, "edge": {"target": [], "time": []}}}, "displayed_time": "16.92", "trialTime": 23795, "trial_type": "mouselab-mdp", "trial_index": 9, "time_elapsed": 413470, "internal_node_id": "0.0-4.0-1.0-0.0"}}, {"uniqueid": "w37665807:a94680338", "current_trial": 10, "dateTime": 1691143189541, "trialdata": {"revealed_states": [], "clicked_states": [], "num_clicks_accrued": [0, 0, 0, 0, 0, 0, 0, 0, 0, 0, 0, 0, 0], "stateRewards": ["", -1, 4, -5, 9, 29, -75, -42, -16, 24, -28, -41, 2, -3, 1, 10, 60, 47, 55, -1, -53, 22, -40, 2, -3, -6, 4, -26, 44, 54, 15, -76, 42, 14], "withholdReward": false, "trial_id": "mdp_trial_2", "block": "test", "trialIndex": 3, "score": -46, "costs": 0, "simulationMode": [null, null, null, null, null], "rewards": [-1, 4, -5, -16, -28], "path": ["0", "0", "1", "2", "3", "8", "10"], "rt": [1000, 1109, 875, 430, 692], "actions": ["up", "up", "up", "left", "down"], "actionTimes": [3261, 4898, 6295, 7251, 8462], "queries": {"click": {"state": {"target": [], "time": []}, "edge": {"target": [], "time": []}}, "mouseover": {"state": {"target": [], "time": []}, "edge": {"target": [], "time": []}}, "mouseout": {"state": {"target": ["28", "23"], "time": [998, 1047]}, "edge": {"target": [], "time": []}}}, "displayed_time": "16.27", "trialTime": 20208, "trial_type": "mouselab-mdp", "trial_index": 10, "time_elapsed": 434256, "internal_node_id": "0.0-4.0-1.0-1.0"}}, {"uniqueid": "w37665807:a94680338", "current_trial": 11, "dateTime": 1691143208517, "trialdata": {"revealed_states": [], "clicked_states": [], "num_clicks_accrued": [0, 0, 0, 0, 0, 0, 0, 0, 0, 0, 0, 0, 0], "stateRewards": ["", -2, -1, -3, -1, -78, -6, 2, -1, 22, -88, 32, 2, 2, -7, -8, -51, -17, 54, 2, -44, 54, 75, 2, -2, -8, -15, -29, 12, -67, 15, -1, -47, -47], "withholdReward": false, "trial_id": "mdp_trial_3", "block": "test", "trialIndex": 4, "score": 53, "costs": 0, "simulationMode": [null, null, null, null, null], "rewards": [2, 2, -7, 2, 54], "path": ["0", "0", "12", "13", "14", "19", "21"], "rt": [1652, 856, 745, 1119, 439], "actions": ["right", "right", "right", "down", "down"], "actionTimes": [2962, 4344, 5616, 7259, 8228], "queries": {"click": {"state": {"target": [], "time": []}, "edge": {"target": [], "time": []}}, "mouseover": {"state": {"target": [], "time": []}, "edge": {"target": [], "time": []}}, "mouseout": {"state": {"target": [], "time": []}, "edge": {"target": [], "time": []}}}, "displayed_time": "15.32", "trialTime": 18338, "trial_type": "mouselab-mdp", "trial_index": 11, "time_elapsed": 453232, "internal_node_id": "0.0-4.0-1.0-2.0"}}, {"uniqueid": "w37665807:a94680338", "current_trial": 12, "dateTime": 1691143227148, "trialdata": {"revealed_states": [], "clicked_states": [], "num_clicks_accrued": [0, 0, 0, 0, 0, 0, 0, 0, 0, 0, 0, 0, 0], "stateRewards": ["", 2, -3, 5, 11, -79, 54, 11, -9, -78, 33, 22, -2, -1, 2, 14, 43, 34, 1, 10, 49, -65, 39, -1, 1, -1, 3, -16, -2, 11, 2, 12, 48, -65], "withholdReward": false, "trial_id": "mdp_trial_4", "block": "test", "trialIndex": 5, "score": 13, "costs": 0, "simulationMode": [null, null, null, null, null], "rewards": [-1, 1, -1, 3, 11], "path": ["0", "0", "23", "24", "25", "26", "29"], "rt": [642, 430, 455, 376, 553], "actions": ["left", "left", "left", "up", "left"], "actionTimes": [2248, 3197, 4171, 5075, 6151], "queries": {"click": {"state": {"target": [], "time": []}, "edge": {"target": [], "time": []}}, "mouseover": {"state": {"target": [], "time": []}, "edge": {"target": [], "time": []}}, "mouseout": {"state": {"target": [], "time": []}, "edge": {"target": [], "time": []}}}, "displayed_time": "15.61", "trialTime": 17930, "trial_type": "mouselab-mdp", "trial_index": 12, "time_elapsed": 471864, "internal_node_id": "0.0-4.0-1.0-3.0"}}, {"uniqueid": "w37665807:a94680338", "current_trial": 13, "dateTime": 1691143250374, "trialdata": {"revealed_states": [], "clicked_states": [], "num_clicks_accrued": [0, 0, 0, 0, 0, 0, 0, 0, 0, 0, 0, 0, 0], "stateRewards": ["", -1, -4, -1, -5, -28, -23, -15, -15, -38, 59, -87, 2, 2, -5, 9, -55, -39, -71, -6, 85, -85, -11, -1, -2, 5, -10, 1, 25, 41, -4, 69, -35, 86], "withholdReward": false, "trial_id": "mdp_trial_5", "block": "test", "trialIndex": 6, "score": -39, "costs": 0, "simulationMode": [null, null, null, null, null], "rewards": [-1, -4, -1, -5, -28], "path": ["0", "0", "1", "2", "3", "4", "5"], "rt": [1024, 538, 512, 459, 1042], "actions": ["up", "up", "up", "right", "up"], "actionTimes": [6270, 7340, 8381, 9361, 10928], "queries": {"click": {"state": {"target": [], "time": []}, "edge": {"target": [], "time": []}}, "mouseover": {"state": {"target": [], "time": []}, "edge": {"target": [], "time": []}}, "mouseout": {"state": {"target": [], "time": []}, "edge": {"target": [], "time": []}}}, "displayed_time": "19.25", "trialTime": 22425, "trial_type": "mouselab-mdp", "trial_index": 13, "time_elapsed": 495088, "internal_node_id": "0.0-4.0-1.0-4.0"}}, {"uniqueid": "w37665807:a94680338", "current_trial": 14, "dateTime": 1691143268386, "trialdata": {"revealed_states": [], "clicked_states": [], "num_clicks_accrued": [0, 0, 0, 0, 0, 0, 0, 0, 0, 0, 0, 0, 0], "stateRewards": ["", -1, -4, -1, -11, 43, 69, 39, 4, 17, -20, -82, -2, -1, 4, 8, -79, 24, -79, 11, 36, 64, 41, 2, 4, -1, 11, -79, -47, 75, -3, 63, -36, -19], "withholdReward": false, "trial_id": "mdp_trial_6", "block": "test", "trialIndex": 7, "score": 65, "costs": 0, "simulationMode": [null, null, null, null, null], "rewards": [2, 4, -1, -3, 63], "path": ["0", "0", "23", "24", "25", "30", "31"], "rt": [678, 297, 395, 401, 519], "actions": ["left", "left", "left", "down", "right"], "actionTimes": [1925, 2748, 3663, 4587, 5637], "queries": {"click": {"state": {"target": [], "time": []}, "edge": {"target": [], "time": []}}, "mouseover": {"state": {"target": [], "time": []}, "edge": {"target": [], "time": []}}, "mouseout": {"state": {"target": [], "time": []}, "edge": {"target": [], "time": []}}}, "displayed_time": "15.25", "trialTime": 17070, "trial_type": "mouselab-mdp", "trial_index": 14, "time_elapsed": 513102, "internal_node_id": "0.0-4.0-1.0-5.0"}}, {"uniqueid": "w37665807:a94680338", "current_trial": 15, "dateTime": 1691143287636, "trialdata": {"revealed_states": [], "clicked_states": [], "num_clicks_accrued": [0, 0, 0, 0, 0, 0, 0, 0, 0, 0, 0, 0, 0], "stateRewards": ["", -2, 3, 8, -9, 59, 41, -50, -1, 82, 66, 33, 2, -2, 7, 8, 1, -38, 12, -16, 24, -37, 67, 1, 4, -2, 5, 35, -83, 28, 8, -27, 69, -64], "withholdReward": false, "trial_id": "mdp_trial_7", "block": "test", "trialIndex": 8, "score": 74, "costs": 0, "simulationMode": [null, null, null, null, null], "rewards": [-2, 3, 8, -1, 66], "path": ["0", "0", "1", "2", "3", "8", "10"], "rt": [1786, 387, 387, 470, 422], "actions": ["up", "up", "up", "left", "down"], "actionTimes": [3390, 4295, 5239, 6229, 7179], "queries": {"click": {"state": {"target": [], "time": []}, "edge": {"target": [], "time": []}}, "mouseover": {"state": {"target": [], "time": []}, "edge": {"target": [], "time": []}}, "mouseout": {"state": {"target": [], "time": []}, "edge": {"target": [], "time": []}}}, "displayed_time": "15.61", "trialTime": 18293, "trial_type": "mouselab-mdp", "trial_index": 15, "time_elapsed": 532351, "internal_node_id": "0.0-4.0-1.0-6.0"}}, {"uniqueid": "w37665807:a94680338", "current_trial": 16, "dateTime": 1691143313440, "trialdata": {"revealed_states": [], "clicked_states": [], "num_clicks_accrued": [0, 0, 0, 0, 0, 0, 0, 0, 0, 0, 0, 0, 0], "stateRewards": ["", 1, 2, -8, 9, 18, -83, -11, 6, -64, -48, 17, -2, -2, -5, -3, -24, -3, -86, -2, 48, -41, -22, -2, 4, 7, 8, 81, 13, -48, 10, 61, 19, 57], "withholdReward": false, "trial_id": "mdp_trial_8", "block": "test", "trialIndex": 9, "score": -63, "costs": 0, "simulationMode": [null, null, null, null, null], "rewards": [1, 2, -8, 6, -64], "path": ["0", "0", "1", "2", "3", "8", "9"], "rt": [741, 649, 900, 956, 828], "actions": ["up", "up", "up", "left", "up"], "actionTimes": [7359, 8529, 9947, 11419, 12775], "queries": {"click": {"state": {"target": [], "time": []}, "edge": {"target": [], "time": []}}, "mouseover": {"state": {"target": [], "time": []}, "edge": {"target": [], "time": []}}, "mouseout": {"state": {"target": [], "time": []}, "edge": {"target": [], "time": []}}}, "displayed_time": "20.62", "trialTime": 24888, "trial_type": "mouselab-mdp", "trial_index": 16, "time_elapsed": 558155, "internal_node_id": "0.0-4.0-1.0-7.0"}}, {"uniqueid": "w37665807:a94680338", "current_trial": 17, "dateTime": 1691143343325, "trialdata": {"revealed_states": [], "clicked_states": [], "num_clicks_accrued": [0, 0, 0, 0, 0, 0, 0, 0, 0, 0, 0, 0, 0], "stateRewards": ["", -1, -1, 7, -15, -43, -21, -84, -9, -45, -66, 2, 1, -2, 2, 8, -27, 44, -52, -5, -84, 11, 53, 1, 4, -4, 16, 83, -82, -15, -16, 68, -43, 81], "withholdReward": false, "trial_id": "mdp_trial_9", "block": "test", "trialIndex": 10, "score": -65, "costs": 0, "simulationMode": [null, null, null, null, null], "rewards": [1, 4, -4, 16, -82], "path": ["0", "0", "23", "24", "25", "26", "28"], "rt": [1132, 357, 418, 370, 449], "actions": ["left", "left", "left", "up", "right"], "actionTimes": [6370, 7264, 8254, 9153, 10132], "queries": {"click": {"state": {"target": [], "time": []}, "edge": {"target": [], "time": []}}, "mouseover": {"state": {"target": [], "time": []}, "edge": {"target": [], "time": []}}, "mouseout": {"state": {"target": [], "time": []}, "edge": {"target": [], "time": []}}}, "displayed_time": "19.24", "trialTime": 28895, "trial_type": "mouselab-mdp", "trial_index": 17, "time_elapsed": 588040, "internal_node_id": "0.0-4.0-1.0-8.0"}}, {"uniqueid": "w37665807:a94680338", "current_trial": 18, "dateTime": 1691143361180, "trialdata": {"revealed_states": [], "clicked_states": [], "num_clicks_accrued": [0, 0, 0, 0, 0, 0, 0, 0, 0, 0, 0, 0, 0], "stateRewards": ["", -1, -3, 3, 5, 56, 39, 50, -1, -80, 33, -46, 1, -2, -6, -8, 87, 48, 54, -11, -20, -64, -54, -2, 3, -7, -3, 12, 88, 35, -16, -46, -70, -3], "withholdReward": false, "trial_id": "mdp_trial_10", "block": "test", "trialIndex": 11, "score": -25, "costs": 0, "simulationMode": [null, null, null, null, null], "rewards": [-2, 3, -7, -16, -3], "path": ["0", "0", "23", "24", "25", "30", "33"], "rt": [883, 305, 247, 72, 102], "actions": ["left", "left", "left", "down", "left"], "actionTimes": [2667, 3490, 4266, 4858, 5490], "queries": {"click": {"state": {"target": [], "time": []}, "edge": {"target": [], "time": []}}, "mouseover": {"state": {"target": [], "time": []}, "edge": {"target": [], "time": []}}, "mouseout": {"state": {"target": [], "time": []}, "edge": {"target": [], "time": []}}}, "displayed_time": "15.79", "trialTime": 16871, "trial_type": "mouselab-mdp", "trial_index": 18, "time_elapsed": 605896, "internal_node_id": "0.0-4.0-1.0-9.0"}}, {"uniqueid": "w37665807:a94680338", "current_trial": 19, "dateTime": 1691143382483, "trialdata": {"revealed_states": [], "clicked_states": [], "num_clicks_accrued": [0, 0, 0, 0, 0, 0, 0, 0, 0, 0, 0, 0, 0], "stateRewards": ["", -1, 1, 6, -6, 70, 66, 67, -16, -75, -35, 37, -1, 4, 4, -6, 47, -9, 63, 15, 21, -63, 13, 1, 3, -6, 10, 79, -29, 18, -15, 9, -67, -19], "withholdReward": false, "trial_id": "mdp_trial_11", "block": "test", "trialIndex": 12, "score": -8, "costs": 0, "simulationMode": [null, null, null, null, null], "rewards": [-1, 4, 4, -6, -9], "path": ["0", "0", "12", "13", "14", "15", "17"], "rt": [725, 672, 346, 203, 572], "actions": ["right", "right", "right", "up", "right"], "actionTimes": [4771, 5966, 6841, 7563, 8664], "queries": {"click": {"state": {"target": [], "time": []}, "edge": {"target": [], "time": []}}, "mouseover": {"state": {"target": [], "time": []}, "edge": {"target": [], "time": []}}, "mouseout": {"state": {"target": [], "time": []}, "edge": {"target": [], "time": []}}}, "displayed_time": "18.05", "trialTime": 20165, "trial_type": "mouselab-mdp", "trial_index": 19, "time_elapsed": 627198, "internal_node_id": "0.0-4.0-1.0-10.0"}}, {"uniqueid": "w37665807:a94680338", "current_trial": 20, "dateTime": 1691143402014, "trialdata": {"revealed_states": [], "clicked_states": [], "num_clicks_accrued": [0, 0, 0, 0, 0, 0, 0, 0, 0, 0, 0, 0, 0], "stateRewards": ["", 1, -3, 4, 13, -72, 52, 5, 5, -58, 5, 14, 2, 1, 3, -14, -86, -4, 73, 6, -58, -50, 49, 2, -3, -4, 2, 33, -41, 42, -11, 81, 45, 53], "withholdReward": false, "trial_id": "mdp_trial_12", "block": "test", "trialIndex": 13, "score": 20, "costs": 0, "simulationMode": [null, null, null, null, null], "rewards": [1, -3, 4, 13, 5], "path": ["0", "0", "1", "2", "3", "4", "7"], "rt": [1279, 108, 162, 504, 220], "actions": ["up", "up", "up", "right", "down"], "actionTimes": [3083, 3727, 4441, 5506, 6254], "queries": {"click": {"state": {"target": [], "time": []}, "edge": {"target": [], "time": []}}, "mouseover": {"state": {"target": [], "time": []}, "edge": {"target": [], "time": []}}, "mouseout": {"state": {"target": [], "time": []}, "edge": {"target": [], "time": []}}}, "displayed_time": "15.81", "trialTime": 17958, "trial_type": "mouselab-mdp", "trial_index": 20, "time_elapsed": 646730, "internal_node_id": "0.0-4.0-1.0-11.0"}}, {"uniqueid": "w37665807:a94680338", "current_trial": 21, "dateTime": 1691143423835, "trialdata": {"revealed_states": [], "clicked_states": [], "num_clicks_accrued": [0, 0, 0, 0, 0, 0, 0, 0, 0, 0, 0, 0, 0], "stateRewards": ["", 1, -2, -8, -3, 31, -84, -55, -14, 15, -58, 17, -2, -3, 7, 7, -12, 48, 67, 4, -44, -68, 46, 2, 3, -5, -7, 76, 27, 5, 11, 57, 52, 59], "withholdReward": false, "trial_id": "mdp_trial_13", "block": "test", "trialIndex": 14, "score": 70, "costs": 0, "simulationMode": [null, null, null, null, null], "rewards": [2, 3, -5, 11, 59], "path": ["0", "0", "23", "24", "25", "30", "33"], "rt": [538, 1053, 407, 477, 427], "actions": ["left", "left", "left", "down", "left"], "actionTimes": [5456, 7040, 7985, 8991, 9965], "queries": {"click": {"state": {"target": [], "time": []}, "edge": {"target": [], "time": []}}, "mouseover": {"state": {"target": [], "time": []}, "edge": {"target": [], "time": []}}, "mouseout": {"state": {"target": [], "time": []}, "edge": {"target": [], "time": []}}}, "displayed_time": "18.93", "trialTime": 20744, "trial_type": "mouselab-mdp", "trial_index": 21, "time_elapsed": 668550, "internal_node_id": "0.0-4.0-1.0-12.0"}}, {"uniqueid": "w37665807:a94680338", "current_trial": 22, "dateTime": 1691143470592, "trialdata": {"revealed_states": [], "clicked_states": [], "num_clicks_accrued": [0, 0, 0, 0, 0, 0, 0, 0, 0, 0, 0, 0, 0], "stateRewards": ["", -1, 2, -7, -12, -62, 12, -13, 5, 77, -71, 83, 1, -4, 7, 15, -42, -87, -4, 5, -25, 44, 88, -1, 4, -5, -8, 14, 51, 8, -5, 83, -24, -19], "withholdReward": false, "trial_id": "mdp_trial_14", "block": "test", "trialIndex": 15, "score": 4, "costs": 0, "simulationMode": [null, null, null, null, null], "rewards": [-1, 4, -5, -8, 14], "path": ["0", "0", "23", "24", "25", "26", "27"], "rt": [1983, 465, 455, 357, 1203], "actions": ["left", "left", "left", "up", "up"], "actionTimes": [8823, 9807, 10781, 11671, 13422], "queries": {"click": {"state": {"target": [], "time": []}, "edge": {"target": [], "time": []}}, "mouseover": {"state": {"target": [], "time": []}, "edge": {"target": [], "time": []}}, "mouseout": {"state": {"target": [], "time": []}, "edge": {"target": [], "time": []}}}, "displayed_time": "20.87", "trialTime": 44641, "trial_type": "mouselab-mdp", "trial_index": 22, "time_elapsed": 715307, "internal_node_id": "0.0-4.0-1.0-13.0"}}, {"uniqueid": "w37665807:a94680338", "current_trial": 23, "dateTime": 1691143490200, "trialdata": {"revealed_states": [], "clicked_states": [], "num_clicks_accrued": [0, 0, 0, 0, 0, 0, 0, 0, 0, 0, 0, 0, 0], "stateRewards": ["", -2, 3, -1, -9, 44, 48, -37, -3, 71, -39, 87, -1, 3, -4, 4, -21, 59, -15, -8, -1, 28, -38, 2, 4, 4, 8, -85, -72, -63, 14, 58, 63, -46], "withholdReward": false, "trial_id": "mdp_trial_15", "block": "test", "trialIndex": 16, "score": 84, "costs": 0, "simulationMode": [null, null, null, null, null], "rewards": [-2, 3, -1, -3, 87], "path": ["0", "0", "1", "2", "3", "8", "11"], "rt": [1735, 434, 1215, 814, 389], "actions": ["up", "up", "up", "left", "left"], "actionTimes": [3896, 4865, 6673, 8011, 8921], "queries": {"click": {"state": {"target": [], "time": []}, "edge": {"target": [], "time": []}}, "mouseover": {"state": {"target": [], "time": []}, "edge": {"target": [], "time": []}}, "mouseout": {"state": {"target": [], "time": []}, "edge": {"target": [], "time": []}}}, "displayed_time": "16.17", "trialTime": 18590, "trial_type": "mouselab-mdp", "trial_index": 23, "time_elapsed": 734915, "internal_node_id": "0.0-4.0-1.0-14.0"}}, {"uniqueid": "w37665807:a94680338", "current_trial": 24, "dateTime": 1691143509389, "trialdata": {"revealed_states": [], "clicked_states": [], "num_clicks_accrued": [0, 0, 0, 0, 0, 0, 0, 0, 0, 0, 0, 0, 0], "stateRewards": ["", -2, -1, -6, -14, -55, 78, -13, 11, 14, -71, 59, 2, 2, 6, -6, 9, 38, 14, 7, 85, 11, 68, 1, -4, -1, -3, -63, -85, 9, -2, 63, -86, -10], "withholdReward": false, "trial_id": "mdp_trial_16", "block": "test", "trialIndex": 17, "score": 18, "costs": 0, "simulationMode": [null, null, null, null, null], "rewards": [2, 2, 6, -6, 14], "path": ["0", "0", "12", "13", "14", "15", "18"], "rt": [2734, 220, 405, 336, 764], "actions": ["right", "right", "right", "up", "left"], "actionTimes": [4753, 5501, 6435, 7299, 8610], "queries": {"click": {"state": {"target": [], "time": []}, "edge": {"target": [], "time": []}}, "mouseover": {"state": {"target": [], "time": []}, "edge": {"target": [], "time": []}}, "mouseout": {"state": {"target": [], "time": []}, "edge": {"target": [], "time": []}}}, "displayed_time": "16.03", "trialTime": 18110, "trial_type": "mouselab-mdp", "trial_index": 24, "time_elapsed": 754104, "internal_node_id": "0.0-4.0-1.0-15.0"}}, {"uniqueid": "w37665807:a94680338", "current_trial": 25, "dateTime": 1691143528541, "trialdata": {"revealed_states": [], "clicked_states": [], "num_clicks_accrued": [0, 0, 0, 0, 0, 0, 0, 0, 0, 0, 0, 0, 0], "stateRewards": ["", 1, -4, -6, 11, -20, 8, -30, 1, -38, 88, 42, 2, 3, 5, -12, -8, -74, 30, -8, 67, -19, 42, 2, -1, 4, 13, 50, -68, 2, -8, -15, 87, -46], "withholdReward": false, "trial_id": "mdp_trial_17", "block": "test", "trialIndex": 18, "score": 84, "costs": 0, "simulationMode": [null, null, null, null, null], "rewards": [2, -1, 4, -8, 87], "path": ["0", "0", "23", "24", "25", "30", "32"], "rt": [2987, 419, 540, 963, 1384], "actions": ["left", "left", "left", "down", "down"], "actionTimes": [4684, 5634, 6705, 8201, 10115], "queries": {"click": {"state": {"target": [], "time": []}, "edge": {"target": [], "time": []}}, "mouseover": {"state": {"target": [], "time": []}, "edge": {"target": [], "time": []}}, "mouseout": {"state": {"target": [], "time": []}, "edge": {"target": [], "time": []}}}, "displayed_time": "15.70", "trialTime": 18032, "trial_type": "mouselab-mdp", "trial_index": 25, "time_elapsed": 773257, "internal_node_id": "0.0-4.0-1.0-16.0"}}, {"uniqueid": "w37665807:a94680338", "current_trial": 26, "dateTime": 1691143548047, "trialdata": {"revealed_states": [], "clicked_states": [], "num_clicks_accrued": [0, 0, 0, 0, 0, 0, 0, 0, 0, 0, 0, 0, 0], "stateRewards": ["", 1, -2, -3, 14, -42, -87, -37, -11, -50, 33, -44, -2, 4, -7, 13, 48, -75, -66, 12, 23, -2, 82, 1, -4, 3, 12, 51, -15, -26, -11, -52, -29, 82], "withholdReward": false, "trial_id": "mdp_trial_18", "block": "test", "trialIndex": 19, "score": 89, "costs": 0, "simulationMode": [null, null, null, null, null], "rewards": [-2, 4, -7, 12, 82], "path": ["0", "0", "12", "13", "14", "19", "22"], "rt": [2032, 566, 370, 418, 1947], "actions": ["right", "right", "right", "down", "left"], "actionTimes": [4039, 5124, 6013, 7023, 9501], "queries": {"click": {"state": {"target": [], "time": []}, "edge": {"target": [], "time": []}}, "mouseover": {"state": {"target": [], "time": []}, "edge": {"target": [], "time": []}}, "mouseout": {"state": {"target": [], "time": []}, "edge": {"target": [], "time": []}}}, "displayed_time": "16.02", "trialTime": 18398, "trial_type": "mouselab-mdp", "trial_index": 26, "time_elapsed": 792762, "internal_node_id": "0.0-4.0-1.0-17.0"}}, {"uniqueid": "w37665807:a94680338", "current_trial": 27, "dateTime": 1691143566379, "trialdata": {"revealed_states": [], "clicked_states": [], "num_clicks_accrued": [0, 0, 0, 0, 0, 0, 0, 0, 0, 0, 0, 0, 0], "stateRewards": ["", 2, -4, 7, 3, 23, -42, 4, 7, -81, -33, 7, -2, -4, 5, -1, 50, -57, -14, -13, -14, 44, 55, -2, -2, 5, -2, 33, 1, 57, -13, -7, 58, 87], "withholdReward": false, "trial_id": "mdp_trial_19", "block": "test", "trialIndex": 20, "score": -69, "costs": 0, "simulationMode": [null, null, null, null, null], "rewards": [2, -4, 7, 7, -81], "path": ["0", "0", "1", "2", "3", "8", "9"], "rt": [2535, 338, 1053, 343, 1866], "actions": ["up", "up", "up", "left", "up"], "actionTimes": [4176, 5040, 6621, 7495, 9888], "queries": {"click": {"state": {"target": [], "time": []}, "edge": {"target": [], "time": []}}, "mouseover": {"state": {"target": [], "time": []}, "edge": {"target": [], "time": []}}, "mouseout": {"state": {"target": [], "time": []}, "edge": {"target": [], "time": []}}}, "displayed_time": "15.64", "trialTime": 17208, "trial_type": "mouselab-mdp", "trial_index": 27, "time_elapsed": 811094, "internal_node_id": "0.0-4.0-1.0-18.0"}}, {"uniqueid": "w37665807:a94680338", "current_trial": 28, "dateTime": 1691143586492, "trialdata": {"revealed_states": [], "clicked_states": [], "num_clicks_accrued": [0, 0, 0, 0, 0, 0, 0, 0, 0, 0, 0, 0, 0], "stateRewards": ["", 1, 4, -8, -13, -13, -87, -77, -10, -44, 54, 42, 2, -3, -4, 12, -9, -80, 52, 9, 84, -2, -65, 1, -4, -5, -6, 8, 80, 32, 13, -59, -5, -13], "withholdReward": false, "trial_id": "mdp_trial_20", "block": "test", "trialIndex": 21, "score": 66, "costs": 0, "simulationMode": [null, null, null, null, null], "rewards": [1, -4, -5, -6, 80], "path": ["0", "0", "23", "24", "25", "26", "28"], "rt": [985, 829, 261, 63, 766], "actions": ["left", "left", "left", "up", "right"], "actionTimes": [3021, 4369, 5150, 5752, 7059], "queries": {"click": {"state": {"target": [], "time": []}, "edge": {"target": [], "time": []}}, "mouseover": {"state": {"target": [], "time": []}, "edge": {"target": [], "time": []}}, "mouseout": {"state": {"target": [], "time": []}, "edge": {"target": [], "time": []}}}, "displayed_time": "16.04", "trialTime": 19027, "trial_type": "mouselab-mdp", "trial_index": 28, "time_elapsed": 831207, "internal_node_id": "0.0-4.0-1.0-19.0"}}, {"uniqueid": "w37665807:a94680338", "current_trial": 29, "dateTime": 1691143606327, "trialdata": {"revealed_states": [], "clicked_states": [], "num_clicks_accrued": [0, 0, 0, 0, 0, 0, 0, 0, 0, 0, 0, 0, 0], "stateRewards": ["", -2, 2, -1, -6, 22, 6, 6, -5, 70, -42, 65, 1, 3, 5, -6, -67, -9, 3, 14, 7, -62, -13, -2, 4, 1, 16, 42, -21, -52, -8, 32, 53, 81], "withholdReward": false, "trial_id": "mdp_trial_21", "block": "test", "trialIndex": 22, "score": 27, "costs": 0, "simulationMode": [null, null, null, null, null], "rewards": [-2, 4, 1, -8, 32], "path": ["0", "0", "23", "24", "25", "30", "31"], "rt": [1006, 506, 171, 11, 750], "actions": ["left", "left", "left", "down", "right"], "actionTimes": [2907, 3936, 4634, 5197, 6492], "queries": {"click": {"state": {"target": [], "time": []}, "edge": {"target": [], "time": []}}, "mouseover": {"state": {"target": [], "time": []}, "edge": {"target": [], "time": []}}, "mouseout": {"state": {"target": [], "time": []}, "edge": {"target": [], "time": []}}}, "displayed_time": "15.91", "trialTime": 18738, "trial_type": "mouselab-mdp", "trial_index": 29, "time_elapsed": 851043, "internal_node_id": "0.0-4.0-1.0-20.0"}}, {"uniqueid": "w37665807:a94680338", "current_trial": 30, "dateTime": 1691143626965, "trialdata": {"revealed_states": [], "clicked_states": [], "num_clicks_accrued": [0, 0, 0, 0, 0, 0, 0, 0, 0, 0, 0, 0, 0], "stateRewards": ["", -1, -2, 4, 9, 10, -75, 39, 16, -43, 88, -19, -1, 1, 2, 4, -31, 10, 73, 12, 41, -64, -81, -2, 2, -6, 1, -81, -1, -26, 3, -59, -3, -20], "withholdReward": false, "trial_id": "mdp_trial_22", "block": "test", "trialIndex": 23, "score": 55, "costs": 0, "simulationMode": [null, null, null, null, null], "rewards": [-1, 1, 2, 12, 41], "path": ["0", "0", "12", "13", "14", "19", "20"], "rt": [1831, 380, 262, 613, 302], "actions": ["right", "right", "right", "down", "right"], "actionTimes": [4942, 5847, 6632, 7771, 8612], "queries": {"click": {"state": {"target": [], "time": []}, "edge": {"target": [], "time": []}}, "mouseover": {"state": {"target": [], "time": []}, "edge": {"target": [], "time": []}}, "mouseout": {"state": {"target": [], "time": []}, "edge": {"target": [], "time": []}}}, "displayed_time": "17.12", "trialTime": 19429, "trial_type": "mouselab-mdp", "trial_index": 30, "time_elapsed": 871680, "internal_node_id": "0.0-4.0-1.0-21.0"}}, {"uniqueid": "w37665807:a94680338", "current_trial": 31, "dateTime": 1691143646440, "trialdata": {"revealed_states": [], "clicked_states": [], "num_clicks_accrued": [0, 0, 0, 0, 0, 0, 0, 0, 0, 0, 0, 0, 0], "stateRewards": ["", -1, 4, -3, 3, 57, -61, 5, -11, 23, -1, 34, -2, -4, -1, -13, 27, 38, -36, 4, -45, 21, 88, 1, -2, -1, 1, -69, -5, -78, -12, -9, 38, -54], "withholdReward": false, "trial_id": "mdp_trial_23", "block": "test", "trialIndex": 24, "score": 60, "costs": 0, "simulationMode": [null, null, null, null, null], "rewards": [-1, 4, -3, 3, 57], "path": ["0", "0", "1", "2", "3", "4", "5"], "rt": [1741, 295, 620, 347, 349], "actions": ["up", "up", "up", "right", "up"], "actionTimes": [4186, 4997, 6153, 7022, 7921], "queries": {"click": {"state": {"target": [], "time": []}, "edge": {"target": [], "time": []}}, "mouseover": {"state": {"target": [], "time": []}, "edge": {"target": [], "time": []}}, "mouseout": {"state": {"target": [], "time": []}, "edge": {"target": [], "time": []}}}, "displayed_time": "16.45", "trialTime": 18206, "trial_type": "mouselab-mdp", "trial_index": 31, "time_elapsed": 891155, "internal_node_id": "0.0-4.0-1.0-22.0"}}, {"uniqueid": "w37665807:a94680338", "current_trial": 32, "dateTime": 1691143667598, "trialdata": {"revealed_states": [], "clicked_states": [], "num_clicks_accrued": [0, 0, 0, 0, 0, 0, 0, 0, 0, 0, 0, 0, 0], "stateRewards": ["", 2, -1, -3, 16, -3, -16, -62, -1, 13, -26, 43, -1, 4, 3, -9, -54, -37, -3, -12, -71, -68, -57, 1, -3, 2, -9, 2, -2, -9, -11, 84, -52, 55], "withholdReward": false, "trial_id": "mdp_trial_24", "block": "test", "trialIndex": 25, "score": -48, "costs": 0, "simulationMode": [null, null, null, null, null], "rewards": [2, -1, -3, 16, -62], "path": ["0", "0", "1", "2", "3", "4", "7"], "rt": [1145, 584, 525, 861, 482], "actions": ["up", "up", "up", "right", "down"], "actionTimes": [4623, 5733, 6775, 8181, 9186], "queries": {"click": {"state": {"target": [], "time": []}, "edge": {"target": [], "time": []}}, "mouseover": {"state": {"target": [], "time": []}, "edge": {"target": [], "time": []}}, "mouseout": {"state": {"target": [], "time": []}, "edge": {"target": [], "time": []}}}, "displayed_time": "17.49", "trialTime": 19863, "trial_type": "mouselab-mdp", "trial_index": 32, "time_elapsed": 912313, "internal_node_id": "0.0-4.0-1.0-23.0"}}, {"uniqueid": "w37665807:a94680338", "current_trial": 33, "dateTime": 1691143686734, "trialdata": {"revealed_states": [], "clicked_states": [], "num_clicks_accrued": [0, 0, 0, 0, 0, 0, 0, 0, 0, 0, 0, 0, 0], "stateRewards": ["", -2, 2, 3, -7, -31, -33, 29, -8, -57, 50, -83, -1, -1, 5, 13, -23, -62, 25, 5, -66, -85, 14, 1, -2, -1, 16, 71, 33, -19, -14, 5, -43, 79], "withholdReward": false, "trial_id": "mdp_trial_25", "block": "test", "trialIndex": 26, "score": -37, "costs": 0, "simulationMode": [null, null, null, null, null], "rewards": [-2, 2, 3, -7, -33], "path": ["0", "0", "1", "2", "3", "4", "6"], "rt": [617, 1027, 248, 234, 274], "actions": ["up", "up", "up", "right", "right"], "actionTimes": [3108, 4660, 5439, 6297, 7121], "queries": {"click": {"state": {"target": [], "time": []}, "edge": {"target": [], "time": []}}, "mouseover": {"state": {"target": [], "time": []}, "edge": {"target": [], "time": []}}, "mouseout": {"state": {"target": [], "time": []}, "edge": {"target": [], "time": []}}}, "displayed_time": "16.50", "trialTime": 17824, "trial_type": "mouselab-mdp", "trial_index": 33, "time_elapsed": 931449, "internal_node_id": "0.0-4.0-1.0-24.0"}}, {"uniqueid": "w37665807:a94680338", "current_trial": 34, "dateTime": 1691143709468, "trialdata": {"revealed_states": [], "clicked_states": [], "num_clicks_accrued": [0, 0, 0, 0, 0, 0, 0, 0, 0, 0, 0, 0, 0], "stateRewards": ["", -1, -4, -6, -15, 21, -67, -63, 9, 51, 69, -14, -1, 3, 8, -8, 39, 72, 63, 15, 19, 47, 15, 1, 4, 5, 16, -18, 34, 35, -14, -80, 40, 1], "withholdReward": false, "trial_id": "mdp_trial_26", "block": "test", "trialIndex": 27, "score": -84, "costs": 0, "simulationMode": [null, null, null, null, null], "rewards": [1, 4, 5, -14, -80], "path": ["0", "0", "23", "24", "25", "30", "31"], "rt": [1870, 508, 221, 322, 279], "actions": ["left", "left", "left", "down", "right"], "actionTimes": [3561, 4601, 5359, 6217, 7036], "queries": {"click": {"state": {"target": [], "time": []}, "edge": {"target": [], "time": []}}, "mouseover": {"state": {"target": [], "time": []}, "edge": {"target": [], "time": []}}, "mouseout": {"state": {"target": [], "time": []}, "edge": {"target": [], "time": []}}}, "displayed_time": "15.70", "trialTime": 21310, "trial_type": "mouselab-mdp", "trial_index": 34, "time_elapsed": 954183, "internal_node_id": "0.0-4.0-1.0-25.0"}}, {"uniqueid": "w37665807:a94680338", "current_trial": 35, "dateTime": 1691143728086, "trialdata": {"revealed_states": [], "clicked_states": [], "num_clicks_accrued": [0, 0, 0, 0, 0, 0, 0, 0, 0, 0, 0, 0, 0], "stateRewards": ["", 2, 3, -1, 6, 44, -4, -59, -14, -3, 64, 16, 1, -3, 3, 6, 3, 49, 19, 3, -49, -14, -86, 1, 2, -3, -8, -33, 14, 32, -13, -77, -47, -67], "withholdReward": false, "trial_id": "mdp_trial_27", "block": "test", "trialIndex": 28, "score": 24, "costs": 0, "simulationMode": [null, null, null, null, null], "rewards": [1, 2, -3, -8, 32], "path": ["0", "0", "23", "24", "25", "26", "29"], "rt": [1739, 152, 278, 158, 545], "actions": ["left", "left", "left", "up", "left"], "actionTimes": [3579, 4259, 5078, 5780, 6866], "queries": {"click": {"state": {"target": [], "time": []}, "edge": {"target": [], "time": []}}, "mouseover": {"state": {"target": [], "time": []}, "edge": {"target": [], "time": []}}, "mouseout": {"state": {"target": [], "time": []}, "edge": {"target": [], "time": []}}}, "displayed_time": "15.85", "trialTime": 17294, "trial_type": "mouselab-mdp", "trial_index": 35, "time_elapsed": 972801, "internal_node_id": "0.0-4.0-1.0-26.0"}}, {"uniqueid": "w37665807:a94680338", "current_trial": 36, "dateTime": 1691143746806, "trialdata": {"revealed_states": [], "clicked_states": [], "num_clicks_accrued": [0, 0, 0, 0, 0, 0, 0, 0, 0, 0, 0, 0, 0], "stateRewards": ["", 2, -2, -3, 10, -4, -1, -11, -8, -9, -36, -78, 2, 1, 7, -7, 44, -1, -31, -1, 26, 47, 83, 2, -4, -4, -6, -52, -76, -81, -1, -59, 45, 67], "withholdReward": false, "trial_id": "mdp_trial_28", "block": "test", "trialIndex": 29, "score": -47, "costs": 0, "simulationMode": [null, null, null, null, null], "rewards": [2, -2, -3, -8, -36], "path": ["0", "0", "1", "2", "3", "8", "10"], "rt": [2286, 266, 395, 437, 574], "actions": ["up", "up", "up", "left", "down"], "actionTimes": [4613, 5394, 6318, 7308, 8418], "queries": {"click": {"state": {"target": [], "time": []}, "edge": {"target": [], "time": []}}, "mouseover": {"state": {"target": [], "time": []}, "edge": {"target": [], "time": []}}, "mouseout": {"state": {"target": [], "time": []}, "edge": {"target": [], "time": []}}}, "displayed_time": "16.33", "trialTime": 17488, "trial_type": "mouselab-mdp", "trial_index": 36, "time_elapsed": 991521, "internal_node_id": "0.0-4.0-1.0-27.0"}}, {"uniqueid": "w37665807:a94680338", "current_trial": 37, "dateTime": 1691143764984, "trialdata": {"revealed_states": [], "clicked_states": [], "num_clicks_accrued": [0, 0, 0, 0, 0, 0, 0, 0, 0, 0, 0, 0, 0], "stateRewards": ["", -2, 3, 3, -14, 62, 36, 49, 16, 11, 17, -84, 2, -1, 6, 2, -82, -73, 49, -6, -87, 48, 50, -1, -2, -1, -16, -11, 37, -44, 4, 55, 73, -10], "withholdReward": false, "trial_id": "mdp_trial_29", "block": "test", "trialIndex": 30, "score": 52, "costs": 0, "simulationMode": [null, null, null, null, null], "rewards": [-2, 3, 3, -14, 62], "path": ["0", "0", "1", "2", "3", "4", "5"], "rt": [844, 195, 365, 1219, 1692], "actions": ["up", "up", "up", "right", "up"], "actionTimes": [2392, 3120, 4014, 5767, 7993], "queries": {"click": {"state": {"target": [], "time": []}, "edge": {"target": [], "time": []}}, "mouseover": {"state": {"target": [], "time": []}, "edge": {"target": [], "time": []}}, "mouseout": {"state": {"target": [], "time": []}, "edge": {"target": [], "time": []}}}, "displayed_time": "15.55", "trialTime": 16840, "trial_type": "mouselab-mdp", "trial_index": 37, "time_elapsed": 1009699, "internal_node_id": "0.0-4.0-1.0-28.0"}}, {"uniqueid": "w37665807:a94680338", "current_trial": 38, "dateTime": 1691143784271, "trialdata": {"revealed_states": [], "clicked_states": [], "num_clicks_accrued": [0, 0, 0, 0, 0, 0, 0, 0, 0, 0, 0, 0, 0], "stateRewards": ["", 2, -4, -4, 13, -80, 62, 13, -11, 57, -13, -44, 1, 4, 3, -4, -29, -88, 15, 16, -58, 68, -45, -1, -3, -1, -9, -44, -86, -19, -7, -36, 59, 66], "withholdReward": false, "trial_id": "mdp_trial_30", "block": "test", "trialIndex": 31, "score": 19, "costs": 0, "simulationMode": [null, null, null, null, null], "rewards": [1, 4, 3, -4, 15], "path": ["0", "0", "12", "13", "14", "15", "18"], "rt": [471, 720, 228, 164, 186], "actions": ["right", "right", "right", "up", "left"], "actionTimes": [2769, 4040, 4804, 5521, 6246], "queries": {"click": {"state": {"target": [], "time": []}, "edge": {"target": [], "time": []}}, "mouseover": {"state": {"target": [], "time": []}, "edge": {"target": [], "time": []}}, "mouseout": {"state": {"target": [], "time": []}, "edge": {"target": [], "time": []}}}, "displayed_time": "16.30", "trialTime": 17902, "trial_type": "mouselab-mdp", "trial_index": 38, "time_elapsed": 1028986, "internal_node_id": "0.0-4.0-1.0-29.0"}}, {"uniqueid": "w37665807:a94680338", "current_trial": 39, "dateTime": 1691143803585, "trialdata": {"revealed_states": [], "clicked_states": [], "num_clicks_accrued": [0, 0, 0, 0, 0, 0, 0, 0, 0, 0, 0, 0, 0], "stateRewards": ["", 2, -3, 5, -14, -63, -9, -24, -11, -54, -43, 68, 2, -2, -4, 7, -64, 30, 47, 12, -74, 11, 86, 1, -3, 3, 10, -71, -42, -52, -1, -29, -16, 69], "withholdReward": false, "trial_id": "mdp_trial_31", "block": "test", "trialIndex": 32, "score": 69, "costs": 0, "simulationMode": [null, null, null, null, null], "rewards": [1, -3, 3, -1, 69], "path": ["0", "0", "23", "24", "25", "30", "33"], "rt": [1679, 220, 330, 266, 201], "actions": ["left", "left", "left", "down", "left"], "actionTimes": [3691, 4434, 5313, 6118, 6922], "queries": {"click": {"state": {"target": [], "time": []}, "edge": {"target": [], "time": []}}, "mouseover": {"state": {"target": [], "time": []}, "edge": {"target": [], "time": []}}, "mouseout": {"state": {"target": [], "time": []}, "edge": {"target": [], "time": []}}}, "displayed_time": "16.02", "trialTime": 17749, "trial_type": "mouselab-mdp", "trial_index": 39, "time_elapsed": 1048300, "internal_node_id": "0.0-4.0-1.0-30.0"}}, {"uniqueid": "w37665807:a94680338", "current_trial": 40, "dateTime": 1691143822685, "trialdata": {"revealed_states": [], "clicked_states": [], "num_clicks_accrued": [0, 0, 0, 0, 0, 0, 0, 0, 0, 0, 0, 0, 0], "stateRewards": ["", 1, -2, -2, 10, -31, -77, 35, 9, -47, 8, 48, -2, 1, -4, -3, -26, -50, 43, -11, 76, -38, 17, 1, -1, 6, 10, 15, -9, 12, -8, 85, 11, -55], "withholdReward": false, "trial_id": "mdp_trial_32", "block": "test", "trialIndex": 33, "score": 1, "costs": 0, "simulationMode": [null, null, null, null, null], "rewards": [-2, 1, -4, -11, 17], "path": ["0", "0", "12", "13", "14", "19", "22"], "rt": [3123, 421, 325, 205, 549], "actions": ["right", "right", "right", "down", "left"], "actionTimes": [5202, 6139, 7000, 7742, 8828], "queries": {"click": {"state": {"target": [], "time": []}, "edge": {"target": [], "time": []}}, "mouseover": {"state": {"target": [], "time": []}, "edge": {"target": [], "time": []}}, "mouseout": {"state": {"target": [], "time": []}, "edge": {"target": [], "time": []}}}, "displayed_time": "16.08", "trialTime": 17790, "trial_type": "mouselab-mdp", "trial_index": 40, "time_elapsed": 1067400, "internal_node_id": "0.0-4.0-1.0-31.0"}}, {"uniqueid": "w37665807:a94680338", "current_trial": 41, "dateTime": 1691143842232, "trialdata": {"revealed_states": [], "clicked_states": [], "num_clicks_accrued": [0, 0, 0, 0, 0, 0, 0, 0, 0, 0, 0, 0, 0], "stateRewards": ["", -2, 1, -7, -8, -37, -76, -87, 11, 30, -63, 80, -1, 4, 2, -1, 42, 17, 52, -3, -75, -80, -68, 2, -3, -5, -15, -48, 82, 24, -7, 5, -22, -71], "withholdReward": false, "trial_id": "mdp_trial_33", "block": "test", "trialIndex": 34, "score": -69, "costs": 0, "simulationMode": [null, null, null, null, null], "rewards": [2, -3, -5, -15, -48], "path": ["0", "0", "23", "24", "25", "26", "27"], "rt": [2685, 432, 324, 285, 728], "actions": ["left", "left", "left", "up", "up"], "actionTimes": [4365, 5323, 6184, 7008, 8295], "queries": {"click": {"state": {"target": [], "time": []}, "edge": {"target": [], "time": []}}, "mouseover": {"state": {"target": [], "time": []}, "edge": {"target": [], "time": []}}, "mouseout": {"state": {"target": [], "time": []}, "edge": {"target": [], "time": []}}}, "displayed_time": "15.68", "trialTime": 18173, "trial_type": "mouselab-mdp", "trial_index": 41, "time_elapsed": 1086947, "internal_node_id": "0.0-4.0-1.0-32.0"}}, {"uniqueid": "w37665807:a94680338", "current_trial": 42, "dateTime": 1691143861774, "trialdata": {"revealed_states": [], "clicked_states": [], "num_clicks_accrued": [0, 0, 0, 0, 0, 0, 0, 0, 0, 0, 0, 0, 0], "stateRewards": ["", 1, -3, -2, 14, 49, -40, -39, 2, 26, -61, 73, 1, -4, -8, 12, 79, 29, -65, -13, 55, -26, 27, -1, 3, 3, 9, -17, -60, -18, -8, 35, -88, 69], "withholdReward": false, "trial_id": "mdp_trial_34", "block": "test", "trialIndex": 35, "score": 30, "costs": 0, "simulationMode": [null, null, null, null, null], "rewards": [1, -4, -8, 12, 29], "path": ["0", "0", "12", "13", "14", "15", "17"], "rt": [1652, 3682, 897, 748, 1105], "actions": ["right", "right", "right", "up", "right"], "actionTimes": [3858, 8073, 9515, 10790, 12424], "queries": {"click": {"state": {"target": [], "time": []}, "edge": {"target": [], "time": []}}, "mouseover": {"state": {"target": [], "time": []}, "edge": {"target": [], "time": []}}, "mouseout": {"state": {"target": [], "time": []}, "edge": {"target": [], "time": []}}}, "displayed_time": "16.21", "trialTime": 17934, "trial_type": "mouselab-mdp", "trial_index": 42, "time_elapsed": 1106490, "internal_node_id": "0.0-4.0-1.0-33.0"}}, {"uniqueid": "w37665807:a94680338", "current_trial": 43, "dateTime": 1691143880593, "trialdata": {"revealed_states": [], "clicked_states": [], "num_clicks_accrued": [0, 0, 0, 0, 0, 0, 0, 0, 0, 0, 0, 0, 0], "stateRewards": ["", -2, 1, -5, 2, -68, 80, 33, 10, 67, -59, 20, -1, -3, 3, 14, 74, -2, 24, -16, 63, 80, 46, -1, 4, 6, 12, 83, -38, -43, -4, 43, 14, -79], "withholdReward": false, "trial_id": "mdp_trial_35", "block": "test", "trialIndex": 36, "score": -17, "costs": 0, "simulationMode": [null, null, null, null, null], "rewards": [-1, 4, 6, 12, -38], "path": ["0", "0", "23", "24", "25", "26", "28"], "rt": [3346, 523, 1100, 808, 788], "actions": ["left", "left", "left", "up", "right"], "actionTimes": [4904, 5960, 7590, 8932, 10267], "queries": {"click": {"state": {"target": [], "time": []}, "edge": {"target": [], "time": []}}, "mouseover": {"state": {"target": [], "time": []}, "edge": {"target": [], "time": []}}, "mouseout": {"state": {"target": [], "time": []}, "edge": {"target": [], "time": []}}}, "displayed_time": "15.56", "trialTime": 16794, "trial_type": "mouselab-mdp", "trial_index": 43, "time_elapsed": 1125308, "internal_node_id": "0.0-4.0-1.0-34.0"}}, {"uniqueid": "w37665807:a94680338", "current_trial": 44, "dateTime": 1691143899881, "trialdata": {"revealed_states": [], "clicked_states": [], "num_clicks_accrued": [0, 0, 0, 0, 0, 0, 0, 0, 0, 0, 0, 0, 0], "stateRewards": ["", -1, -2, -1, -10, -57, 73, -72, -16, 75, -14, -46, -2, -3, -7, -1, -61, -60, 76, -4, 50, 4, 14, 2, 2, -7, 12, -65, -32, 15, -8, -76, -25, -61], "withholdReward": false, "trial_id": "mdp_trial_36", "block": "test", "trialIndex": 37, "score": -34, "costs": 0, "simulationMode": [null, null, null, null, null], "rewards": [-1, -2, -1, -16, -14], "path": ["0", "0", "1", "2", "3", "8", "10"], "rt": [485, 529, 130, 706, 15], "actions": ["up", "up", "up", "left", "down"], "actionTimes": [2933, 3994, 4672, 5918, 6478], "queries": {"click": {"state": {"target": [], "time": []}, "edge": {"target": [], "time": []}}, "mouseover": {"state": {"target": [], "time": []}, "edge": {"target": [], "time": []}}, "mouseout": {"state": {"target": [], "time": []}, "edge": {"target": [], "time": []}}}, "displayed_time": "16.46", "trialTime": 17577, "trial_type": "mouselab-mdp", "trial_index": 44, "time_elapsed": 1144596, "internal_node_id": "0.0-4.0-1.0-35.0"}}, {"uniqueid": "w37665807:a94680338", "current_trial": 45, "dateTime": 1691143918361, "trialdata": {"revealed_states": [], "clicked_states": [], "num_clicks_accrued": [0, 0, 0, 0, 0, 0, 0, 0, 0, 0, 0, 0, 0], "stateRewards": ["", -1, 4, 3, 12, -27, 34, -33, 3, -63, 1, 6, 2, 2, -6, -11, -77, -85, 68, -6, 51, 81, -60, -2, -2, 1, 15, 20, 15, 68, -10, -14, 6, -4], "withholdReward": false, "trial_id": "mdp_trial_37", "block": "test", "trialIndex": 38, "score": -15, "costs": 0, "simulationMode": [null, null, null, null, null], "rewards": [-1, 4, 3, 12, -33], "path": ["0", "0", "1", "2", "3", "4", "7"], "rt": [476, 537, 127, 70, 93], "actions": ["up", "up", "up", "right", "down"], "actionTimes": [2153, 3248, 3910, 4515, 5137], "queries": {"click": {"state": {"target": [], "time": []}, "edge": {"target": [], "time": []}}, "mouseover": {"state": {"target": [], "time": []}, "edge": {"target": [], "time": []}}, "mouseout": {"state": {"target": [], "time": []}, "edge": {"target": [], "time": []}}}, "displayed_time": "15.68", "trialTime": 16834, "trial_type": "mouselab-mdp", "trial_index": 45, "time_elapsed": 1163076, "internal_node_id": "0.0-4.0-1.0-36.0"}}, {"uniqueid": "w37665807:a94680338", "current_trial": 46, "dateTime": 1691143938038, "trialdata": {"revealed_states": [], "clicked_states": [], "num_clicks_accrued": [0, 0, 0, 0, 0, 0, 0, 0, 0, 0, 0, 0, 0], "stateRewards": ["", -2, 4, -3, -13, 63, -36, 62, 11, 78, 34, -51, 2, -2, 8, -6, -40, -18, 31, 9, 64, 39, 79, 1, 4, -4, 15, -12, 76, 73, -10, -77, 86, -4], "withholdReward": false, "trial_id": "mdp_trial_38", "block": "test", "trialIndex": 39, "score": 81, "costs": 0, "simulationMode": [null, null, null, null, null], "rewards": [2, -2, 8, 9, 64], "path": ["0", "0", "12", "13", "14", "19", "20"], "rt": [861, 224, 271, 41, 336], "actions": ["right", "right", "right", "down", "right"], "actionTimes": [2910, 3663, 4467, 5049, 5931], "queries": {"click": {"state": {"target": [], "time": []}, "edge": {"target": [], "time": []}}, "mouseover": {"state": {"target": [], "time": []}, "edge": {"target": [], "time": []}}, "mouseout": {"state": {"target": [], "time": []}, "edge": {"target": [], "time": []}}}, "displayed_time": "16.05", "trialTime": 17748, "trial_type": "mouselab-mdp", "trial_index": 46, "time_elapsed": 1182754, "internal_node_id": "0.0-4.0-1.0-37.0"}}, {"uniqueid": "w37665807:a94680338", "current_trial": 47, "dateTime": 1691143957657, "trialdata": {"revealed_states": [], "clicked_states": [], "num_clicks_accrued": [0, 0, 0, 0, 0, 0, 0, 0, 0, 0, 0, 0, 0], "stateRewards": ["", -1, 3, 1, -11, -22, -36, 19, -5, -70, -52, 50, -2, -4, 4, -2, -41, -83, 29, -2, 22, 10, -6, -2, 3, -2, 14, 54, 44, 77, -9, -65, -37, -40], "withholdReward": false, "trial_id": "mdp_trial_39", "block": "test", "trialIndex": 40, "score": 90, "costs": 0, "simulationMode": [null, null, null, null, null], "rewards": [-2, 3, -2, 14, 77], "path": ["0", "0", "23", "24", "25", "26", "29"], "rt": [935, 124, 249, 305, 1291], "actions": ["left", "left", "left", "up", "left"], "actionTimes": [3304, 3973, 4746, 5595, 7429], "queries": {"click": {"state": {"target": [], "time": []}, "edge": {"target": [], "time": []}}, "mouseover": {"state": {"target": [], "time": []}, "edge": {"target": [], "time": []}}, "mouseout": {"state": {"target": [], "time": []}, "edge": {"target": [], "time": []}}}, "displayed_time": "16.37", "trialTime": 18190, "trial_type": "mouselab-mdp", "trial_index": 47, "time_elapsed": 1202372, "internal_node_id": "0.0-4.0-1.0-38.0"}}, {"uniqueid": "w37665807:a94680338", "current_trial": 48, "dateTime": 1691143976907, "trialdata": {"revealed_states": [], "clicked_states": [], "num_clicks_accrued": [0, 0, 0, 0, 0, 0, 0, 0, 0, 0, 0, 0, 0], "stateRewards": ["", 1, -3, -4, -11, -56, 61, -47, -16, -28, -9, 69, -2, -3, -4, -8, 40, -86, 59, -4, 80, 27, 54, -1, 3, -1, 8, 67, 23, 50, 6, 83, -43, -29], "withholdReward": false, "trial_id": "mdp_trial_40", "block": "test", "trialIndex": 41, "score": -36, "costs": 0, "simulationMode": [null, null, null, null, null], "rewards": [-1, 3, -1, 6, -43], "path": ["0", "0", "23", "24", "25", "30", "32"], "rt": [1053, 589, 303, 981, 364], "actions": ["left", "left", "left", "down", "down"], "actionTimes": [3129, 4291, 5145, 6693, 7613], "queries": {"click": {"state": {"target": [], "time": []}, "edge": {"target": [], "time": []}}, "mouseover": {"state": {"target": [], "time": []}, "edge": {"target": [], "time": []}}, "mouseout": {"state": {"target": [], "time": []}, "edge": {"target": [], "time": []}}}, "displayed_time": "16.08", "trialTime": 17319, "trial_type": "mouselab-mdp", "trial_index": 48, "time_elapsed": 1221623, "internal_node_id": "0.0-4.0-1.0-39.0"}}, {"uniqueid": "w37665807:a94680338", "current_trial": 49, "dateTime": 1691144076174, "trialdata": {"rt": 99256, "response": {"Q0": "$-2 to $2", "Q1": "$-32 to $32", "Q2": "$-88 to $88", "Q3": "There was no cost for clicking on nodes.", "Q4": "Very motivated"}, "question_order": [0, 1, 2, 3, 4], "trial_id": "final_quiz_control", "trial_type": "survey-multi-choice", "trial_index": 49, "time_elapsed": 1320889, "internal_node_id": "0.0-4.0-2.0"}}, {"uniqueid": "w37665807:a94680338", "current_trial": 50, "dateTime": 1691144289243, "trialdata": {"rt": 213023, "response": {"Q0": "Well, I used the probability strategy, and its based on my ability to anticipate what happens after each move in any game, I was able to used my guess-work mentality to complete the game.", "Q1": "Well, I did it in a way of scoring a higher score than what the developers were expecting, which means next time they will make it a bit more harder.", "Q2": "What made it difficult is the simplicity of it, because each game has its difficult part, and this one was hidden in its simple format."}, "trial_id": "self_report_control", "trial_type": "survey-text", "trial_index": 50, "time_elapsed": 1533959, "internal_node_id": "0.0-4.0-3.0"}}, {"uniqueid": "w37665807:a94680338", "current_trial": 51, "dateTime": 1691144357840, "trialdata": {"rt": 68588, "response": {"Q0": "Disagree", "Q1": "Strongly disagree", "Q2": "Agree", "Q3": "Strongly agree", "Q4": "Neither disagree nor agree", "Q5": "Neither disagree nor agree", "Q6": "Neither disagree nor agree"}, "question_order": [0, 1, 2, 3, 4, 5, 6], "trial_id": "self_report_2", "trial_type": "survey-multi-choice", "trial_index": 51, "time_elapsed": 1602556, "internal_node_id": "0.0-4.0-4.0"}}, {"uniqueid": "w37665807:a94680338", "current_trial": 52, "dateTime": 1691144391207, "trialdata": {"rt": 33314, "response": {"gender": "male", "age": "25", "colorblind": "0", "effort": "0"}, "trial_type": "survey-html-form", "trial_index": 52, "time_elapsed": 1635923, "internal_node_id": "0.0-4.0-5.0"}}, {"uniqueid": "w37665807:a94680338", "current_trial": 53, "dateTime": 1691144451126, "trialdata": {"rt": 59910, "response": {"Q0": "No, everything was straight forwad and pretty easy to comprehend.", "Q1": "No, it was my first time playing.", "Q2": "I was actually enjoying the game. Thank you"}, "trial_type": "survey-text", "trial_index": 53, "time_elapsed": 1695841, "internal_node_id": "0.0-4.0-6.0"}}, {"uniqueid": "w37665807:a94680338", "current_trial": 54, "dateTime": 1691144454989, "trialdata": {"rt": 3856, "stimulus": "Press 'Finish HIT' in order to reach the completion code. Once the data has been saved, you will receive the code either in this window or in the original browser window where you started the experiment.\n", "response": 0, "trial_type": "html-button-response", "trial_index": 54, "time_elapsed": 1699705, "internal_node_id": "0.0-5.0"}}, {"uniqueid": "w37665807:a94680338", "current_trial": 55, "dateTime": 1691144456022, "trialdata": {"success": true, "trial_type": "fullscreen", "trial_index": 55, "time_elapsed": 1700738, "internal_node_id": "0.0-6.0"}}], "questiondata": {"params": {"CODE": "C6DMOQA6", "MIN_TIME": 14, "inspectCost": 1, "startTime": "Fri Aug 04 2023 04:52:29 GMT-0500 (Central Daylight Time)", "bonusRate": 0.002, "variance": "1_2_4_8_44", "branching": "31123"}, "final_score": 437}, "eventdata": [{"eventtype": "initialized", "value": null, "timestamp": 1691142748867, "interval": 0}, {"eventtype": "window_resize", "value": [1024, 703], "timestamp": 1691142748867, "interval": 0}, {"eventtype": "window_resize", "value": [1024, 703], "timestamp": 1691142749387, "interval": 520}, {"eventtype": "window_resize", "value": [1280, 708], "timestamp": 1691142755436, "interval": 6049}, {"eventtype": "window_resize", "value": [1280, 800], "timestamp": 1691142761884, "interval": 6448}, {"eventtype": "window_resize", "value": [1280, 708], "timestamp": 1691144455246, "interval": 1693362}], "useragent": "Mozilla/5.0 (Windows NT 10.0; Win64; x64) AppleWebKit/537.36 (KHTML, like Gecko) Chrome/109.0.0.0 Safari/537.36", "mode": "live", "id": "w37665807:a94680338", "status": "user data saved", "Beginhit": "2023-08-04 09:52:24.695199", "Beginexp": "2023-08-04 09:52:42.91407", "Endhit": "2023-08-04 10:21:14.596811", "psiturkStatus": 3, "browser": "<redacted>", "platform": "windows", "language": "en-US"}