{"condition": 1, "counterbalance": 0, "assignmentId": "a89967272", "workerId": "w49640421", "hitId": "h41148950", "currenttrial": 53, "bonus": 0, "data": [{"uniqueid": "w49640421:a89967272", "current_trial": 0, "dateTime": 1693564293644, "trialdata": {"success": true, "trial_type": "fullscreen", "trial_index": 0, "time_elapsed": 2766, "internal_node_id": "0.0-0.0"}}, {"uniqueid": "w49640421:a89967272", "current_trial": 1, "dateTime": 1693564295322, "trialdata": {"view_history": [{"page_index": 0, "viewing_time": 1656}], "rt": 1657, "trial_id": "exp_instructions_misaligned", "trial_type": "instructions", "trial_index": 1, "time_elapsed": 4444, "internal_node_id": "0.0-1.0"}}, {"uniqueid": "w49640421:a89967272", "current_trial": 2, "dateTime": 1693564300974, "trialdata": {"view_history": [{"page_index": 0, "viewing_time": 1940}, {"page_index": 1, "viewing_time": 1572}, {"page_index": 2, "viewing_time": 1241}, {"page_index": 3, "viewing_time": 897}], "rt": 5650, "trial_id": "mouselab_instructions_1_misaligned", "trial_type": "instructions", "trial_index": 2, "time_elapsed": 10097, "internal_node_id": "0.0-2.0-1.0"}}, {"uniqueid": "w49640421:a89967272", "current_trial": 3, "dateTime": 1693564313261, "trialdata": {"revealed_states": [], "clicked_states": [], "num_clicks_accrued": [0, 0, 0, 0, 0, 0, 0, 0, 0, 0, 0, 0, 0], "stateRewards": ["", -10, -10, 10, 10, -10, 10, -10, 10, -10, 10, -10, 10, 10, 10, -10, -10, 10, -10, -10, -10, -10, -10, 10, 10, 10, -10, -10, -10, 10, -10, -10, 10, 10], "withholdReward": false, "trial_id": "practice_1", "block": "test", "trialIndex": 0, "score": -6.5, "costs": 0, "simulationMode": [null, null, null, null, null], "rewards": [-10, -10, 10, 10, -10], "path": ["0", "0", "1", "2", "3", "8", "9"], "rt": [1620, 176, 503, 59, 224], "actions": ["up", "up", "up", "left", "up"], "actionTimes": [3952, 4622, 5630, 6188, 7032], "queries": {"click": {"state": {"target": [], "time": []}, "edge": {"target": [], "time": []}}, "mouseover": {"state": {"target": [], "time": []}, "edge": {"target": [], "time": []}}, "mouseout": {"state": {"target": ["0", "1"], "time": [9308, 9458]}, "edge": {"target": [], "time": []}}}, "displayed_time": "7.54", "trialTime": 11139, "trial_type": "mouselab-mdp", "trial_index": 3, "time_elapsed": 22384, "internal_node_id": "0.0-2.0-2.0-0.0"}}, {"uniqueid": "w49640421:a89967272", "current_trial": 4, "dateTime": 1693564323776, "trialdata": {"revealed_states": [], "clicked_states": [], "num_clicks_accrued": [0, 0, 0, 0, 0, 0, 0, 0, 0, 0, 0, 0, 0], "stateRewards": ["", -10, 10, 10, -10, -10, 10, 10, -10, -10, 10, 10, -10, -10, -10, -10, -10, -10, -10, 10, 10, 10, 10, -10, 10, -10, 10, -10, -10, -10, 10, 10, 10, -10], "withholdReward": false, "trial_id": "practice_2", "block": "test", "trialIndex": 1, "score": 13.5, "costs": 0, "simulationMode": [null, null, null, null, null], "rewards": [-10, 10, 10, -10, 10], "path": ["0", "0", "1", "2", "3", "4", "6"], "rt": [643, 34, 333, 150, 156], "actions": ["up", "up", "up", "right", "right"], "actionTimes": [2693, 3250, 4082, 4732, 5389], "queries": {"click": {"state": {"target": [], "time": []}, "edge": {"target": [], "time": []}}, "mouseover": {"state": {"target": [], "time": []}, "edge": {"target": [], "time": []}}, "mouseout": {"state": {"target": ["1"], "time": [1462]}, "edge": {"target": [], "time": []}}}, "displayed_time": "5.88", "trialTime": 10008, "trial_type": "mouselab-mdp", "trial_index": 4, "time_elapsed": 32899, "internal_node_id": "0.0-2.0-2.0-1.0"}}, {"uniqueid": "w49640421:a89967272", "current_trial": 5, "dateTime": 1693564329251, "trialdata": {"view_history": [{"page_index": 0, "viewing_time": 3215}, {"page_index": 1, "viewing_time": 2256}], "rt": 5472, "trial_id": "mouselab_instructions_2_misaligned", "trial_type": "instructions", "trial_index": 5, "time_elapsed": 38374, "internal_node_id": "0.0-2.0-3.0"}}, {"uniqueid": "w49640421:a89967272", "current_trial": 6, "dateTime": 1693564389390, "trialdata": {"rt": 60130, "response": {"Q0": "The cost for clicking on nodes may vary between nodes.", "Q1": "The better I perform the higher my bonus will be.", "Q2": "No, the amount of cash at each node of the web may be different each time.", "Q3": "To get the highest total score.", "Q4": "Only before moving the spider.", "Q5": "3 seconds"}, "question_order": [0, 1, 2, 3, 4, 5], "correct": {"Q0": "The cost for clicking on nodes may vary between nodes.", "Q1": "The better I perform the higher my bonus will be.", "Q2": "No, the amount of cash at each node of the web may be different each time.", "Q3": "To get the highest total score.", "Q4": "Only before moving the spider.", "Q5": "3 seconds"}, "trial_id": "mouselab_quiz_misaligned", "trial_type": "survey-multi-choice", "trial_index": 6, "time_elapsed": 98513, "internal_node_id": "0.0-2.0-4.0"}}, {"uniqueid": "w49640421:a89967272", "current_trial": 7, "dateTime": 1693564394765, "trialdata": {"rt": 5359, "response": {"Q0": "No"}, "question_order": [0], "trial_id": "repeat_check", "trial_type": "survey-multi-choice", "trial_index": 7, "time_elapsed": 103888, "internal_node_id": "0.0-4.0-0.0"}}, {"uniqueid": "w49640421:a89967272", "current_trial": 8, "dateTime": 1693564395984, "trialdata": {"rt": 1211, "stimulus": "\n<h1> Get ready to start the game! </h1>\n\nThank you for reading the instructions. Get ready start with the 40 rounds of this game.\n<br><br>\nIf you need to take a break, feel free to take one after the end of a round, before continuing to the next one.\n<br><br>\nRemember, the more money the spider gets, the bigger your bonus will be!\n<br><br>\n<div style='text-align: center;'>Press <code>space</code> to begin.</div>\n\n<br><br>\n(If, at any point, the <code>space</code> key does not take you to the next page, click once on the text and try again.)", "response": " ", "trial_id": "mdp_ready", "trial_type": "html-keyboard-response", "trial_index": 8, "time_elapsed": 105107, "internal_node_id": "0.0-6.0-0.0"}}, {"uniqueid": "w49640421:a89967272", "current_trial": 9, "dateTime": 1693564413483, "trialdata": {"revealed_states": [], "clicked_states": [], "num_clicks_accrued": [0, 0, 0, 0, 0, 0, 0, 0, 0, 0, 0, 0, 0], "stateRewards": ["", -1, 2, -2, 13, -56, -28, 10, 14, 53, -80, -29, 1, -3, -3, -14, 14, 9, -40, -9, 18, 18, 48, 1, 1, 1, -9, 64, -39, -9, 7, -52, -78, 7], "withholdReward": false, "trial_id": "mdp_trial_1", "block": "test", "trialIndex": 2, "score": -16, "costs": 0, "simulationMode": [null, null, null, null, null], "rewards": [-1, 2, -2, 13, -28], "path": ["0", "0", "1", "2", "3", "4", "6"], "rt": [692, 129, 389, 137, 114], "actions": ["up", "up", "up", "right", "right"], "actionTimes": [2590, 3241, 4132, 4780, 5406], "queries": {"click": {"state": {"target": [], "time": []}, "edge": {"target": [], "time": []}}, "mouseover": {"state": {"target": [], "time": []}, "edge": {"target": [], "time": []}}, "mouseout": {"state": {"target": ["11", "8", "1", "0", "0", "0"], "time": [390, 574, 1273, 9976, 10376, 16479]}, "edge": {"target": [], "time": []}}}, "displayed_time": "15.90", "trialTime": 16944, "trial_type": "mouselab-mdp", "trial_index": 9, "time_elapsed": 122606, "internal_node_id": "0.0-6.0-1.0-0.0"}}, {"uniqueid": "w49640421:a89967272", "current_trial": 10, "dateTime": 1693564429908, "trialdata": {"revealed_states": [], "clicked_states": [], "num_clicks_accrued": [0, 0, 0, 0, 0, 0, 0, 0, 0, 0, 0, 0, 0], "stateRewards": ["", -1, 1, -6, -1, 80, 23, 2, -11, 73, -81, 59, 1, 3, 5, -1, -26, 28, -3, 16, -59, -13, -50, -2, -2, 2, 15, -50, 86, 17, -4, 37, 35, 44], "withholdReward": false, "trial_id": "mdp_trial_2", "block": "test", "trialIndex": 3, "score": 56, "costs": 0, "simulationMode": [null, null, null, null, null], "rewards": [-1, 1, -6, -11, 73], "path": ["0", "0", "1", "2", "3", "8", "9"], "rt": [387, 51, 102, 243, 457], "actions": ["up", "up", "up", "left", "up"], "actionTimes": [1447, 1995, 2629, 3388, 4350], "queries": {"click": {"state": {"target": [], "time": []}, "edge": {"target": [], "time": []}}, "mouseover": {"state": {"target": [], "time": []}, "edge": {"target": [], "time": []}}, "mouseout": {"state": {"target": ["0", "1", "10", "27", "17", "0", "31", "31", "31"], "time": [5126, 5174, 5274, 5374, 7523, 13574, 13674, 14057, 14274]}, "edge": {"target": [], "time": []}}}, "displayed_time": "15.08", "trialTime": 15835, "trial_type": "mouselab-mdp", "trial_index": 10, "time_elapsed": 139031, "internal_node_id": "0.0-6.0-1.0-1.0"}}, {"uniqueid": "w49640421:a89967272", "current_trial": 11, "dateTime": 1693564446841, "trialdata": {"revealed_states": [], "clicked_states": [], "num_clicks_accrued": [0, 0, 0, 0, 0, 0, 0, 0, 0, 0, 0, 0, 0], "stateRewards": ["", 2, -4, 1, -12, -59, -53, -74, 16, -88, -66, 66, 1, -2, 8, -9, -14, 22, 25, -1, -39, 47, -14, -1, -1, -2, 1, -4, 52, -26, 15, -7, 46, 43], "withholdReward": false, "trial_id": "mdp_trial_3", "block": "test", "trialIndex": 4, "score": -51, "costs": 0, "simulationMode": [null, null, null, null, null], "rewards": [2, -4, 1, 16, -66], "path": ["0", "0", "1", "2", "3", "8", "10"], "rt": [411, 190, 152, 284, 7], "actions": ["up", "up", "up", "left", "down"], "actionTimes": [1552, 2268, 2917, 3711, 4236], "queries": {"click": {"state": {"target": [], "time": []}, "edge": {"target": [], "time": []}}, "mouseover": {"state": {"target": [], "time": []}, "edge": {"target": [], "time": []}}, "mouseout": {"state": {"target": ["0"], "time": [6841]}, "edge": {"target": [], "time": []}}}, "displayed_time": "15.14", "trialTime": 16418, "trial_type": "mouselab-mdp", "trial_index": 11, "time_elapsed": 155962, "internal_node_id": "0.0-6.0-1.0-2.0"}}, {"uniqueid": "w49640421:a89967272", "current_trial": 12, "dateTime": 1693564465814, "trialdata": {"revealed_states": [], "clicked_states": [], "num_clicks_accrued": [0, 0, 0, 0, 0, 0, 0, 0, 0, 0, 0, 0, 0], "stateRewards": ["", 2, -3, 5, -14, -63, -9, -24, -11, -54, -43, 68, 2, -2, -4, 7, -64, 30, 47, 12, -74, 11, 86, 1, -3, 3, 10, -71, -42, -52, -1, -29, -16, 69], "withholdReward": false, "trial_id": "mdp_trial_4", "block": "test", "trialIndex": 5, "score": 61, "costs": 0, "simulationMode": [null, null, null, null, null], "rewards": [2, -3, 5, -11, 68], "path": ["0", "0", "1", "2", "3", "8", "11"], "rt": [1524, 211, 161, 186, 93], "actions": ["up", "up", "up", "left", "left"], "actionTimes": [2642, 3366, 4049, 4764, 5350], "queries": {"click": {"state": {"target": [], "time": []}, "edge": {"target": [], "time": []}}, "mouseover": {"state": {"target": [], "time": []}, "edge": {"target": [], "time": []}}, "mouseout": {"state": {"target": ["0"], "time": [17303]}, "edge": {"target": [], "time": []}}}, "displayed_time": "15.12", "trialTime": 18305, "trial_type": "mouselab-mdp", "trial_index": 12, "time_elapsed": 174937, "internal_node_id": "0.0-6.0-1.0-3.0"}}, {"uniqueid": "w49640421:a89967272", "current_trial": 13, "dateTime": 1693564540509, "trialdata": {"revealed_states": [], "clicked_states": [], "num_clicks_accrued": [0, 0, 0, 0, 0, 0, 0, 0, 0, 0, 0, 0, 0], "stateRewards": ["", -1, -1, 7, -15, -43, -21, -84, -9, -45, -66, 2, 1, -2, 2, 8, -27, 44, -52, -5, -84, 11, 53, 1, 4, -4, 16, 83, -82, -15, -16, 68, -43, 81], "withholdReward": false, "trial_id": "mdp_trial_5", "block": "test", "trialIndex": 6, "score": -18, "costs": 0, "simulationMode": [null, null, null, null, null, null], "rewards": [1, -2, 2, 8, -27], "path": ["0", "0", "12", "13", "14", "15", "16"], "rt": [734, 22329, 2092, 247, 88, 141], "actions": ["left", "right", "right", "right", "up", "up"], "actionTimes": [null, 22338, 24932, 25703, 26316, 26976], "queries": {"click": {"state": {"target": [], "time": []}, "edge": {"target": [], "time": []}}, "mouseover": {"state": {"target": [], "time": []}, "edge": {"target": [], "time": []}}, "mouseout": {"state": {"target": ["0", "23", "2", "8", "1", "0", "13", "17", "7", "2", "1", "1", "0", "2", "3", "2", "1", "0", "29", "25", "24", "23", "18", "6", "0", "21", "1", "28", "26", "26", "0", "12", "15", "13", "15", "0", "12", "12", "0", "3", "2", "1", "0"], "time": [null, null, null, null, null, null, null, null, null, null, null, null, null, null, null, null, null, null, null, null, null, null, null, null, null, null, 4970, 5570, 5670, 7736, 13424, 13461, 13727, 13920, 17489, 21717, 23935, 24151, 25298, 29336, 29453, 29502, 32141]}, "edge": {"target": [], "time": []}}}, "displayed_time": "27.48", "trialTime": 33366, "trial_type": "mouselab-mdp", "trial_index": 13, "time_elapsed": 249632, "internal_node_id": "0.0-6.0-1.0-4.0"}}, {"uniqueid": "w49640421:a89967272", "current_trial": 14, "dateTime": 1693564557255, "trialdata": {"revealed_states": [], "clicked_states": [], "num_clicks_accrued": [0, 0, 0, 0, 0, 0, 0, 0, 0, 0, 0, 0, 0], "stateRewards": ["", 2, 3, -6, -5, -3, 55, 40, 11, 61, 11, 51, 2, -4, -6, 9, -25, 29, -15, -6, 7, -77, -2, -2, -4, 1, 14, -43, -1, 56, -12, -54, 41, -74], "withholdReward": false, "trial_id": "mdp_trial_6", "block": "test", "trialIndex": 7, "score": 49, "costs": 0, "simulationMode": [null, null, null, null, null], "rewards": [2, 3, -6, -5, 55], "path": ["0", "0", "1", "2", "3", "4", "6"], "rt": [354, 8, 71, 170, 180], "actions": ["up", "up", "up", "right", "right"], "actionTimes": [1660, 2174, 2771, 3452, 4130], "queries": {"click": {"state": {"target": [], "time": []}, "edge": {"target": [], "time": []}}, "mouseover": {"state": {"target": [], "time": []}, "edge": {"target": [], "time": []}}, "mouseout": {"state": {"target": ["1", "0"], "time": [579, 5797]}, "edge": {"target": [], "time": []}}}, "displayed_time": "15.31", "trialTime": 16023, "trial_type": "mouselab-mdp", "trial_index": 14, "time_elapsed": 266377, "internal_node_id": "0.0-6.0-1.0-5.0"}}, {"uniqueid": "w49640421:a89967272", "current_trial": 15, "dateTime": 1693564574856, "trialdata": {"revealed_states": [], "clicked_states": [], "num_clicks_accrued": [0, 0, 0, 0, 0, 0, 0, 0, 0, 0, 0, 0, 0], "stateRewards": ["", 1, -2, -2, 10, -31, -77, 35, 9, -47, 8, 48, -2, 1, -4, -3, -26, -50, 43, -11, 76, -38, 17, 1, -1, 6, 10, 15, -9, 12, -8, 85, 11, -55], "withholdReward": false, "trial_id": "mdp_trial_7", "block": "test", "trialIndex": 8, "score": 31, "costs": 0, "simulationMode": [null, null, null, null, null], "rewards": [1, -1, 6, 10, 15], "path": ["0", "0", "23", "24", "25", "26", "27"], "rt": [620, 746, 119, 37, 117], "actions": ["left", "left", "left", "up", "up"], "actionTimes": [1748, 3015, 3655, 4190, 4809], "queries": {"click": {"state": {"target": [], "time": []}, "edge": {"target": [], "time": []}}, "mouseover": {"state": {"target": [], "time": []}, "edge": {"target": [], "time": []}}, "mouseout": {"state": {"target": ["0"], "time": [11517]}, "edge": {"target": [], "time": []}}}, "displayed_time": "15.13", "trialTime": 16861, "trial_type": "mouselab-mdp", "trial_index": 15, "time_elapsed": 283978, "internal_node_id": "0.0-6.0-1.0-6.0"}}, {"uniqueid": "w49640421:a89967272", "current_trial": 16, "dateTime": 1693564592241, "trialdata": {"revealed_states": [], "clicked_states": [], "num_clicks_accrued": [0, 0, 0, 0, 0, 0, 0, 0, 0, 0, 0, 0, 0], "stateRewards": ["", -2, 2, 3, -7, 76, 63, 21, 15, 35, -8, -44, 1, 1, -2, -12, 23, 24, 76, -9, 46, 66, -49, -2, -1, 7, 12, 40, -71, -45, -6, 38, -49, 46], "withholdReward": false, "trial_id": "mdp_trial_8", "block": "test", "trialIndex": 9, "score": 11, "costs": 0, "simulationMode": [null, null, null, null, null], "rewards": [1, 1, -2, -12, 23], "path": ["0", "0", "12", "13", "14", "15", "16"], "rt": [470, 28, 8, 724, 175], "actions": ["right", "right", "right", "up", "up"], "actionTimes": [2012, 2532, 3057, 4317, 5012], "queries": {"click": {"state": {"target": [], "time": []}, "edge": {"target": [], "time": []}}, "mouseover": {"state": {"target": [], "time": []}, "edge": {"target": [], "time": []}}, "mouseout": {"state": {"target": ["0"], "time": [13152]}, "edge": {"target": [], "time": []}}}, "displayed_time": "15.54", "trialTime": 16248, "trial_type": "mouselab-mdp", "trial_index": 16, "time_elapsed": 301363, "internal_node_id": "0.0-6.0-1.0-7.0"}}, {"uniqueid": "w49640421:a89967272", "current_trial": 17, "dateTime": 1693564609023, "trialdata": {"revealed_states": [], "clicked_states": [], "num_clicks_accrued": [0, 0, 0, 0, 0, 0, 0, 0, 0, 0, 0, 0, 0], "stateRewards": ["", -1, -3, 1, 13, -64, -29, 12, -4, -33, 50, 56, 2, -3, 4, 11, -64, -58, -55, 12, 47, 38, -25, -2, 2, 5, -15, 85, 7, 84, 10, 8, 57, 26], "withholdReward": false, "trial_id": "mdp_trial_9", "block": "test", "trialIndex": 10, "score": 75, "costs": 0, "simulationMode": [null, null, null, null, null], "rewards": [-2, 2, 5, -15, 85], "path": ["0", "0", "23", "24", "25", "26", "27"], "rt": [365, 38, 45, 1259, 48], "actions": ["left", "left", "left", "up", "up"], "actionTimes": [1779, 2309, 2865, 4648, 5202], "queries": {"click": {"state": {"target": [], "time": []}, "edge": {"target": [], "time": []}}, "mouseover": {"state": {"target": [], "time": []}, "edge": {"target": [], "time": []}}, "mouseout": {"state": {"target": ["1", "0"], "time": [633, 14635]}, "edge": {"target": [], "time": []}}}, "displayed_time": "15.42", "trialTime": 16047, "trial_type": "mouselab-mdp", "trial_index": 17, "time_elapsed": 318146, "internal_node_id": "0.0-6.0-1.0-8.0"}}, {"uniqueid": "w49640421:a89967272", "current_trial": 18, "dateTime": 1693564625561, "trialdata": {"revealed_states": [], "clicked_states": [], "num_clicks_accrued": [0, 0, 0, 0, 0, 0, 0, 0, 0, 0, 0, 0, 0], "stateRewards": ["", -2, -3, -3, 9, 79, 67, 22, -15, -56, 27, -85, -2, 4, -4, -15, -20, -32, 60, 15, 71, 57, 17, 1, 2, -8, 15, -37, -81, 82, 15, 21, -3, 2], "withholdReward": false, "trial_id": "mdp_trial_10", "block": "test", "trialIndex": 11, "score": 7, "costs": 0, "simulationMode": [null, null, null, null, null], "rewards": [1, 2, -8, 15, -3], "path": ["0", "0", "23", "24", "25", "30", "32"], "rt": [316, 103, 161, 207, 88], "actions": ["left", "left", "left", "down", "down"], "actionTimes": [1527, 2137, 2795, 3506, 4089], "queries": {"click": {"state": {"target": [], "time": []}, "edge": {"target": [], "time": []}}, "mouseover": {"state": {"target": [], "time": []}, "edge": {"target": [], "time": []}}, "mouseout": {"state": {"target": ["0", "0"], "time": [347, 5819]}, "edge": {"target": [], "time": []}}}, "displayed_time": "15.21", "trialTime": 15781, "trial_type": "mouselab-mdp", "trial_index": 18, "time_elapsed": 334683, "internal_node_id": "0.0-6.0-1.0-9.0"}}, {"uniqueid": "w49640421:a89967272", "current_trial": 19, "dateTime": 1693564642624, "trialdata": {"revealed_states": [], "clicked_states": [], "num_clicks_accrued": [0, 0, 0, 0, 0, 0, 0, 0, 0, 0, 0, 0, 0], "stateRewards": ["", -2, -1, 3, -3, 71, -58, -21, 7, -10, -75, -37, 2, 4, -1, -12, -79, -29, -48, 3, -41, -10, -30, -1, -2, 1, -15, 13, 66, 22, -1, -42, -86, -55], "withholdReward": false, "trial_id": "mdp_trial_11", "block": "test", "trialIndex": 12, "score": -30, "costs": 0, "simulationMode": [null, null, null, null, null], "rewards": [-2, -1, 3, 7, -37], "path": ["0", "0", "1", "2", "3", "8", "11"], "rt": [264, 109, 92, 204, 81], "actions": ["up", "up", "up", "left", "left"], "actionTimes": [1860, 2511, 3136, 3851, 4445], "queries": {"click": {"state": {"target": [], "time": []}, "edge": {"target": [], "time": []}}, "mouseover": {"state": {"target": [], "time": []}, "edge": {"target": [], "time": []}}, "mouseout": {"state": {"target": ["0", "0"], "time": [35, 6375]}, "edge": {"target": [], "time": []}}}, "displayed_time": "15.60", "trialTime": 16223, "trial_type": "mouselab-mdp", "trial_index": 19, "time_elapsed": 351746, "internal_node_id": "0.0-6.0-1.0-10.0"}}, {"uniqueid": "w49640421:a89967272", "current_trial": 20, "dateTime": 1693564659504, "trialdata": {"revealed_states": [], "clicked_states": [], "num_clicks_accrued": [0, 0, 0, 0, 0, 0, 0, 0, 0, 0, 0, 0, 0], "stateRewards": ["", 1, -1, -7, -7, -22, 15, -13, 13, 26, -32, 38, -1, 1, -7, -4, 16, -62, 86, 12, -54, 56, 64, -2, -1, 6, 14, -57, 37, 62, -6, -25, 50, -70], "withholdReward": false, "trial_id": "mdp_trial_12", "block": "test", "trialIndex": 13, "score": -27, "costs": 0, "simulationMode": [null, null, null, null, null], "rewards": [1, -1, -7, -7, -13], "path": ["0", "0", "1", "2", "3", "4", "7"], "rt": [421, 144, 3, 128, 189], "actions": ["up", "up", "up", "right", "down"], "actionTimes": [1754, 2422, 2949, 3590, 4284], "queries": {"click": {"state": {"target": [], "time": []}, "edge": {"target": [], "time": []}}, "mouseover": {"state": {"target": [], "time": []}, "edge": {"target": [], "time": []}}, "mouseout": {"state": {"target": ["0", "0"], "time": [319, 5076]}, "edge": {"target": [], "time": []}}}, "displayed_time": "15.34", "trialTime": 16071, "trial_type": "mouselab-mdp", "trial_index": 20, "time_elapsed": 368626, "internal_node_id": "0.0-6.0-1.0-11.0"}}, {"uniqueid": "w49640421:a89967272", "current_trial": 21, "dateTime": 1693564676490, "trialdata": {"revealed_states": [], "clicked_states": [], "num_clicks_accrued": [0, 0, 0, 0, 0, 0, 0, 0, 0, 0, 0, 0, 0], "stateRewards": ["", 2, -1, 3, -12, -83, 6, -33, 9, 28, 24, -50, -2, -1, -2, -5, -87, 37, 82, 12, 80, -5, 10, -2, -3, -6, 9, 22, -1, 16, 9, 77, -62, 58], "withholdReward": false, "trial_id": "mdp_trial_13", "block": "test", "trialIndex": 14, "score": -64, "costs": 0, "simulationMode": [null, null, null, null, null], "rewards": [-2, -3, -6, 9, -62], "path": ["0", "0", "23", "24", "25", "30", "32"], "rt": [752, 228, 143, 129, 111], "actions": ["left", "left", "left", "down", "down"], "actionTimes": [1952, 2676, 3344, 3977, 4616], "queries": {"click": {"state": {"target": [], "time": []}, "edge": {"target": [], "time": []}}, "mouseover": {"state": {"target": [], "time": []}, "edge": {"target": [], "time": []}}, "mouseout": {"state": {"target": ["0"], "time": [796]}, "edge": {"target": [], "time": []}}}, "displayed_time": "15.20", "trialTime": 15844, "trial_type": "mouselab-mdp", "trial_index": 21, "time_elapsed": 385612, "internal_node_id": "0.0-6.0-1.0-12.0"}}, {"uniqueid": "w49640421:a89967272", "current_trial": 22, "dateTime": 1693564692995, "trialdata": {"revealed_states": [], "clicked_states": [], "num_clicks_accrued": [0, 0, 0, 0, 0, 0, 0, 0, 0, 0, 0, 0, 0], "stateRewards": ["", -2, 2, 8, -6, -25, 3, 87, 2, -62, -2, 74, -2, -1, 2, -1, 79, 49, -37, -14, 5, 67, -9, -1, 2, -2, 5, 15, 38, 32, -14, -38, -38, 30], "withholdReward": false, "trial_id": "mdp_trial_14", "block": "test", "trialIndex": 15, "score": 77, "costs": 0, "simulationMode": [null, null, null, null, null], "rewards": [-2, -1, 2, -1, 79], "path": ["0", "0", "12", "13", "14", "15", "16"], "rt": [705, 4, 128, 137, 46], "actions": ["right", "right", "right", "up", "up"], "actionTimes": [1822, 2347, 3005, 3663, 4223], "queries": {"click": {"state": {"target": [], "time": []}, "edge": {"target": [], "time": []}}, "mouseover": {"state": {"target": [], "time": []}, "edge": {"target": [], "time": []}}, "mouseout": {"state": {"target": ["0", "0"], "time": [202, 7608]}, "edge": {"target": [], "time": []}}}, "displayed_time": "15.12", "trialTime": 15793, "trial_type": "mouselab-mdp", "trial_index": 22, "time_elapsed": 402117, "internal_node_id": "0.0-6.0-1.0-13.0"}}, {"uniqueid": "w49640421:a89967272", "current_trial": 23, "dateTime": 1693564709650, "trialdata": {"revealed_states": [], "clicked_states": [], "num_clicks_accrued": [0, 0, 0, 0, 0, 0, 0, 0, 0, 0, 0, 0, 0], "stateRewards": ["", 1, -4, -4, 8, 1, -79, 68, -10, -79, 8, -74, -1, -3, -6, 14, 43, 23, 9, 5, -51, 63, 61, -2, 4, 6, -10, 69, -32, 57, 15, -80, -80, -77], "withholdReward": false, "trial_id": "mdp_trial_15", "block": "test", "trialIndex": 16, "score": 67, "costs": 0, "simulationMode": [null, null, null, null, null], "rewards": [-2, 4, 6, -10, 69], "path": ["0", "0", "23", "24", "25", "26", "27"], "rt": [448, 10, 14, 38, 43], "actions": ["left", "left", "left", "up", "up"], "actionTimes": [1787, 2301, 2840, 3408, 3965], "queries": {"click": {"state": {"target": [], "time": []}, "edge": {"target": [], "time": []}}, "mouseover": {"state": {"target": [], "time": []}, "edge": {"target": [], "time": []}}, "mouseout": {"state": {"target": ["0"], "time": [5108]}, "edge": {"target": [], "time": []}}}, "displayed_time": "15.34", "trialTime": 15978, "trial_type": "mouselab-mdp", "trial_index": 23, "time_elapsed": 418772, "internal_node_id": "0.0-6.0-1.0-14.0"}}, {"uniqueid": "w49640421:a89967272", "current_trial": 24, "dateTime": 1693564726309, "trialdata": {"revealed_states": [], "clicked_states": [], "num_clicks_accrued": [0, 0, 0, 0, 0, 0, 0, 0, 0, 0, 0, 0, 0], "stateRewards": ["", 1, 1, 6, -14, -40, 37, 16, -13, 33, -68, 49, 2, 4, 3, 6, 55, 27, 32, 10, -65, 20, -87, 2, 1, -6, -5, -42, 12, 29, -8, 16, 76, -33], "withholdReward": false, "trial_id": "mdp_trial_16", "block": "test", "trialIndex": 17, "score": 70, "costs": 0, "simulationMode": [null, null, null, null, null], "rewards": [2, 4, 3, 6, 55], "path": ["0", "0", "12", "13", "14", "15", "16"], "rt": [730, 77, 95, 32, 149], "actions": ["right", "right", "right", "up", "up"], "actionTimes": [1947, 2518, 3135, 3688, 4375], "queries": {"click": {"state": {"target": [], "time": []}, "edge": {"target": [], "time": []}}, "mouseover": {"state": {"target": [], "time": []}, "edge": {"target": [], "time": []}}, "mouseout": {"state": {"target": ["0"], "time": [6655]}, "edge": {"target": [], "time": []}}}, "displayed_time": "15.22", "trialTime": 15840, "trial_type": "mouselab-mdp", "trial_index": 24, "time_elapsed": 435432, "internal_node_id": "0.0-6.0-1.0-15.0"}}, {"uniqueid": "w49640421:a89967272", "current_trial": 25, "dateTime": 1693564743995, "trialdata": {"revealed_states": [], "clicked_states": [], "num_clicks_accrued": [0, 0, 0, 0, 0, 0, 0, 0, 0, 0, 0, 0, 0], "stateRewards": ["", 1, 4, -8, -5, -15, -7, 21, 13, -30, 40, -65, 1, 1, 5, -14, 35, 27, -38, -11, 36, -58, -47, -2, 4, -3, 13, -16, -49, 22, 15, -56, -44, -10], "withholdReward": false, "trial_id": "mdp_trial_17", "block": "test", "trialIndex": 18, "score": -45, "costs": 0, "simulationMode": [null, null, null, null, null], "rewards": [1, 1, 5, -14, -38], "path": ["0", "0", "12", "13", "14", "15", "18"], "rt": [815, 22, 3, 3, 536], "actions": ["right", "right", "right", "up", "left"], "actionTimes": [3119, 3649, 4162, 4680, 5756], "queries": {"click": {"state": {"target": [], "time": []}, "edge": {"target": [], "time": []}}, "mouseover": {"state": {"target": [], "time": []}, "edge": {"target": [], "time": []}}, "mouseout": {"state": {"target": ["0", "0"], "time": [743, 12807]}, "edge": {"target": [], "time": []}}}, "displayed_time": "16.31", "trialTime": 17012, "trial_type": "mouselab-mdp", "trial_index": 25, "time_elapsed": 453118, "internal_node_id": "0.0-6.0-1.0-16.0"}}, {"uniqueid": "w49640421:a89967272", "current_trial": 26, "dateTime": 1693564761256, "trialdata": {"revealed_states": [], "clicked_states": [], "num_clicks_accrued": [0, 0, 0, 0, 0, 0, 0, 0, 0, 0, 0, 0, 0], "stateRewards": ["", 1, 2, -3, -5, 66, -50, -47, -5, 1, 28, -27, 1, 1, -1, -6, 37, -25, 56, 1, -82, -66, -40, -1, -4, -7, 15, -61, -23, 26, 10, 14, -56, 29], "withholdReward": false, "trial_id": "mdp_trial_18", "block": "test", "trialIndex": 19, "score": 29, "costs": 0, "simulationMode": [null, null, null, null, null], "rewards": [-1, -4, -7, 15, 26], "path": ["0", "0", "23", "24", "25", "26", "29"], "rt": [878, 173, 44, 103, 307], "actions": ["left", "left", "left", "up", "left"], "actionTimes": [2465, 3138, 3691, 4334, 5137], "queries": {"click": {"state": {"target": [], "time": []}, "edge": {"target": [], "time": []}}, "mouseover": {"state": {"target": [], "time": []}, "edge": {"target": [], "time": []}}, "mouseout": {"state": {"target": ["0"], "time": [9294]}, "edge": {"target": [], "time": []}}}, "displayed_time": "15.59", "trialTime": 16226, "trial_type": "mouselab-mdp", "trial_index": 26, "time_elapsed": 470378, "internal_node_id": "0.0-6.0-1.0-17.0"}}, {"uniqueid": "w49640421:a89967272", "current_trial": 27, "dateTime": 1693564779370, "trialdata": {"revealed_states": [], "clicked_states": [], "num_clicks_accrued": [0, 0, 0, 0, 0, 0, 0, 0, 0, 0, 0, 0, 0], "stateRewards": ["", 2, 4, -3, 16, -58, 30, -35, 11, -60, 47, 27, -2, -1, -7, -16, 23, -70, 68, -10, -65, -43, -34, -2, 1, 7, 9, -63, 34, -31, -8, -12, -86, 59], "withholdReward": false, "trial_id": "mdp_trial_19", "block": "test", "trialIndex": 20, "score": -88, "costs": 0, "simulationMode": [null, null, null, null, null], "rewards": [-2, 1, 7, -8, -86], "path": ["0", "0", "23", "24", "25", "30", "32"], "rt": [798, 155, 94, 176, 107], "actions": ["left", "left", "left", "down", "down"], "actionTimes": [2970, 3654, 4243, 4940, 5556], "queries": {"click": {"state": {"target": [], "time": []}, "edge": {"target": [], "time": []}}, "mouseover": {"state": {"target": [], "time": []}, "edge": {"target": [], "time": []}}, "mouseout": {"state": {"target": ["0", "0", "1", "0"], "time": [1131, 6962, 7034, 7979]}, "edge": {"target": [], "time": []}}}, "displayed_time": "16.17", "trialTime": 17244, "trial_type": "mouselab-mdp", "trial_index": 27, "time_elapsed": 488493, "internal_node_id": "0.0-6.0-1.0-18.0"}}, {"uniqueid": "w49640421:a89967272", "current_trial": 28, "dateTime": 1693564796144, "trialdata": {"revealed_states": [], "clicked_states": [], "num_clicks_accrued": [0, 0, 0, 0, 0, 0, 0, 0, 0, 0, 0, 0, 0], "stateRewards": ["", 2, -1, -4, -13, 74, 77, 3, 2, -43, -2, -11, 2, 3, 7, 11, -26, -29, -33, -3, -3, -13, -3, 1, 3, -7, 14, -59, 33, 9, -5, 34, 79, 68], "withholdReward": false, "trial_id": "mdp_trial_20", "block": "test", "trialIndex": 21, "score": 58, "costs": 0, "simulationMode": [null, null, null, null, null], "rewards": [2, -1, -4, -13, 74], "path": ["0", "0", "1", "2", "3", "4", "5"], "rt": [836, 146, 70, 44, 104], "actions": ["up", "up", "up", "right", "up"], "actionTimes": [2241, 2900, 3490, 4067, 4689], "queries": {"click": {"state": {"target": [], "time": []}, "edge": {"target": [], "time": []}}, "mouseover": {"state": {"target": [], "time": []}, "edge": {"target": [], "time": []}}, "mouseout": {"state": {"target": ["1", "0"], "time": [550, 5733]}, "edge": {"target": [], "time": []}}}, "displayed_time": "15.41", "trialTime": 16022, "trial_type": "mouselab-mdp", "trial_index": 28, "time_elapsed": 505267, "internal_node_id": "0.0-6.0-1.0-19.0"}}, {"uniqueid": "w49640421:a89967272", "current_trial": 29, "dateTime": 1693564813202, "trialdata": {"revealed_states": [], "clicked_states": [], "num_clicks_accrued": [0, 0, 0, 0, 0, 0, 0, 0, 0, 0, 0, 0, 0], "stateRewards": ["", 2, -2, 7, -11, -76, -65, -23, 16, -58, 30, 81, 1, 2, 7, 14, 9, 55, -2, 6, 11, -15, 31, -1, -1, -3, 2, 15, 2, 46, 15, 18, 45, -34], "withholdReward": false, "trial_id": "mdp_trial_21", "block": "test", "trialIndex": 22, "score": 43, "costs": 0, "simulationMode": [null, null, null, null, null], "rewards": [-1, -1, -3, 2, 46], "path": ["0", "0", "23", "24", "25", "26", "29"], "rt": [331, 59, 76, 147, 214], "actions": ["left", "left", "left", "up", "left"], "actionTimes": [1772, 2334, 2918, 3555, 4273], "queries": {"click": {"state": {"target": [], "time": []}, "edge": {"target": [], "time": []}}, "mouseover": {"state": {"target": [], "time": []}, "edge": {"target": [], "time": []}}, "mouseout": {"state": {"target": ["0"], "time": [5391]}, "edge": {"target": [], "time": []}}}, "displayed_time": "15.45", "trialTime": 16104, "trial_type": "mouselab-mdp", "trial_index": 29, "time_elapsed": 522325, "internal_node_id": "0.0-6.0-1.0-20.0"}}, {"uniqueid": "w49640421:a89967272", "current_trial": 30, "dateTime": 1693564829962, "trialdata": {"revealed_states": [], "clicked_states": [], "num_clicks_accrued": [0, 0, 0, 0, 0, 0, 0, 0, 0, 0, 0, 0, 0], "stateRewards": ["", -1, 2, -7, -12, -62, 12, -13, 5, 77, -71, 83, 1, -4, 7, 15, -42, -87, -4, 5, -25, 44, 88, -1, 4, -5, -8, 14, 51, 8, -5, 83, -24, -19], "withholdReward": false, "trial_id": "mdp_trial_22", "block": "test", "trialIndex": 23, "score": -68, "costs": 0, "simulationMode": [null, null, null, null, null], "rewards": [1, -4, 7, 15, -87], "path": ["0", "0", "12", "13", "14", "15", "17"], "rt": [1135, 5, 6, 18, 49], "actions": ["right", "right", "right", "up", "right"], "actionTimes": [2496, 3023, 3557, 4084, 4633], "queries": {"click": {"state": {"target": [], "time": []}, "edge": {"target": [], "time": []}}, "mouseover": {"state": {"target": [], "time": []}, "edge": {"target": [], "time": []}}, "mouseout": {"state": {"target": ["1", "0"], "time": [532, 5699]}, "edge": {"target": [], "time": []}}}, "displayed_time": "15.36", "trialTime": 15954, "trial_type": "mouselab-mdp", "trial_index": 30, "time_elapsed": 539084, "internal_node_id": "0.0-6.0-1.0-21.0"}}, {"uniqueid": "w49640421:a89967272", "current_trial": 31, "dateTime": 1693564847046, "trialdata": {"revealed_states": [], "clicked_states": [], "num_clicks_accrued": [0, 0, 0, 0, 0, 0, 0, 0, 0, 0, 0, 0, 0], "stateRewards": ["", 1, 2, 2, -15, -84, 28, -26, 13, 31, 86, 30, -2, 1, -1, -8, 66, -40, -1, -10, -32, 57, -17, 1, 2, -2, 9, -23, 77, 85, 12, -32, -62, -35], "withholdReward": false, "trial_id": "mdp_trial_23", "block": "test", "trialIndex": 24, "score": -49, "costs": 0, "simulationMode": [null, null, null, null, null], "rewards": [1, 2, -2, 12, -62], "path": ["0", "0", "23", "24", "25", "30", "32"], "rt": [266, 20, 15, 85, 97], "actions": ["left", "left", "left", "down", "down"], "actionTimes": [1924, 2461, 3008, 3689, 4304], "queries": {"click": {"state": {"target": [], "time": []}, "edge": {"target": [], "time": []}}, "mouseover": {"state": {"target": [], "time": []}, "edge": {"target": [], "time": []}}, "mouseout": {"state": {"target": ["0", "0"], "time": [593, 5357]}, "edge": {"target": [], "time": []}}}, "displayed_time": "15.66", "trialTime": 16245, "trial_type": "mouselab-mdp", "trial_index": 31, "time_elapsed": 556168, "internal_node_id": "0.0-6.0-1.0-22.0"}}, {"uniqueid": "w49640421:a89967272", "current_trial": 32, "dateTime": 1693564864388, "trialdata": {"revealed_states": [], "clicked_states": [], "num_clicks_accrued": [0, 0, 0, 0, 0, 0, 0, 0, 0, 0, 0, 0, 0], "stateRewards": ["", 1, -3, 4, 13, -72, 52, 5, 5, -58, 5, 14, 2, 1, 3, -14, -86, -4, 73, 6, -58, -50, 49, 2, -3, -4, 2, 33, -41, 42, -11, 81, 45, 53], "withholdReward": false, "trial_id": "mdp_trial_24", "block": "test", "trialIndex": 25, "score": 37, "costs": 0, "simulationMode": [null, null, null, null, null], "rewards": [2, -3, -4, -11, 53], "path": ["0", "0", "23", "24", "25", "30", "33"], "rt": [1053, 72, 145, 148, 30], "actions": ["left", "left", "left", "down", "left"], "actionTimes": [2997, 3567, 4207, 4876, 5425], "queries": {"click": {"state": {"target": [], "time": []}, "edge": {"target": [], "time": []}}, "mouseover": {"state": {"target": [], "time": []}, "edge": {"target": [], "time": []}}, "mouseout": {"state": {"target": ["0"], "time": [11143]}, "edge": {"target": [], "time": []}}}, "displayed_time": "15.95", "trialTime": 16558, "trial_type": "mouselab-mdp", "trial_index": 32, "time_elapsed": 573510, "internal_node_id": "0.0-6.0-1.0-23.0"}}, {"uniqueid": "w49640421:a89967272", "current_trial": 33, "dateTime": 1693564881625, "trialdata": {"revealed_states": [], "clicked_states": [], "num_clicks_accrued": [0, 0, 0, 0, 0, 0, 0, 0, 0, 0, 0, 0, 0], "stateRewards": ["", -1, 3, 8, 9, -53, 20, -84, 2, -28, -62, -31, -1, -2, -7, 2, 51, 58, 45, -4, -17, -41, 36, 2, -2, -7, -15, 29, -54, -37, -16, -43, 65, -17], "withholdReward": false, "trial_id": "mdp_trial_25", "block": "test", "trialIndex": 26, "score": -50, "costs": 0, "simulationMode": [null, null, null, null, null], "rewards": [-1, 3, 8, 2, -62], "path": ["0", "0", "1", "2", "3", "8", "10"], "rt": [686, 159, 245, 13, 122], "actions": ["up", "up", "up", "left", "down"], "actionTimes": [1872, 2548, 3300, 3834, 4475], "queries": {"click": {"state": {"target": [], "time": []}, "edge": {"target": [], "time": []}}, "mouseover": {"state": {"target": [], "time": []}, "edge": {"target": [], "time": []}}, "mouseout": {"state": {"target": ["0", "0"], "time": [18, 5635]}, "edge": {"target": [], "time": []}}}, "displayed_time": "15.19", "trialTime": 15828, "trial_type": "mouselab-mdp", "trial_index": 33, "time_elapsed": 590740, "internal_node_id": "0.0-6.0-1.0-24.0"}}, {"uniqueid": "w49640421:a89967272", "current_trial": 34, "dateTime": 1693564898682, "trialdata": {"revealed_states": [], "clicked_states": [], "num_clicks_accrued": [0, 0, 0, 0, 0, 0, 0, 0, 0, 0, 0, 0, 0], "stateRewards": ["", -2, -1, -5, 10, -36, -70, 68, -9, 86, 71, -10, 2, -4, 7, -7, 66, 44, -66, -13, -69, 43, 15, -2, 2, 6, -13, 62, 57, 50, -10, -69, 42, -72], "withholdReward": false, "trial_id": "mdp_trial_26", "block": "test", "trialIndex": 27, "score": -68, "costs": 0, "simulationMode": [null, null, null, null, null], "rewards": [2, -4, 7, -7, -66], "path": ["0", "0", "12", "13", "14", "15", "18"], "rt": [1015, 127, 135, 428, 364], "actions": ["right", "right", "right", "up", "left"], "actionTimes": [2532, 3159, 3799, 4726, 5596], "queries": {"click": {"state": {"target": [], "time": []}, "edge": {"target": [], "time": []}}, "mouseover": {"state": {"target": [], "time": []}, "edge": {"target": [], "time": []}}, "mouseout": {"state": {"target": ["0"], "time": [7146]}, "edge": {"target": [], "time": []}}}, "displayed_time": "15.52", "trialTime": 16072, "trial_type": "mouselab-mdp", "trial_index": 34, "time_elapsed": 607804, "internal_node_id": "0.0-6.0-1.0-25.0"}}, {"uniqueid": "w49640421:a89967272", "current_trial": 35, "dateTime": 1693564915803, "trialdata": {"revealed_states": [], "clicked_states": [], "num_clicks_accrued": [0, 0, 0, 0, 0, 0, 0, 0, 0, 0, 0, 0, 0], "stateRewards": ["", 1, -2, -3, 14, -42, -87, -37, -11, -50, 33, -44, -2, 4, -7, 13, 48, -75, -66, 12, 23, -2, 82, 1, -4, 3, 12, 51, -15, -26, -11, -52, -29, 82], "withholdReward": false, "trial_id": "mdp_trial_27", "block": "test", "trialIndex": 28, "score": -14, "costs": 0, "simulationMode": [null, null, null, null, null], "rewards": [1, -4, 3, 12, -26], "path": ["0", "0", "23", "24", "25", "26", "29"], "rt": [528, 61, 51, 612, 102], "actions": ["left", "left", "left", "up", "left"], "actionTimes": [2167, 2731, 3306, 4436, 5057], "queries": {"click": {"state": {"target": [], "time": []}, "edge": {"target": [], "time": []}}, "mouseover": {"state": {"target": [], "time": []}, "edge": {"target": [], "time": []}}, "mouseout": {"state": {"target": ["0"], "time": [6335]}, "edge": {"target": [], "time": []}}}, "displayed_time": "15.64", "trialTime": 16267, "trial_type": "mouselab-mdp", "trial_index": 35, "time_elapsed": 624925, "internal_node_id": "0.0-6.0-1.0-26.0"}}, {"uniqueid": "w49640421:a89967272", "current_trial": 36, "dateTime": 1693564933842, "trialdata": {"revealed_states": [], "clicked_states": [], "num_clicks_accrued": [0, 0, 0, 0, 0, 0, 0, 0, 0, 0, 0, 0, 0], "stateRewards": ["", -2, -3, 8, -4, -30, 31, 69, 9, 66, 87, 64, -2, 2, 8, 5, 47, 16, -39, -8, -54, 51, -19, 1, -2, -2, -11, -25, -26, 43, -9, 19, -84, 86], "withholdReward": false, "trial_id": "mdp_trial_28", "block": "test", "trialIndex": 29, "score": -40, "costs": 0, "simulationMode": [null, null, null, null, null], "rewards": [1, -2, -2, -11, -26], "path": ["0", "0", "23", "24", "25", "26", "28"], "rt": [582, 60, 77, 6, 318], "actions": ["left", "left", "left", "up", "right"], "actionTimes": [2228, 2782, 3364, 3877, 4703], "queries": {"click": {"state": {"target": [], "time": []}, "edge": {"target": [], "time": []}}, "mouseover": {"state": {"target": [], "time": []}, "edge": {"target": [], "time": []}}, "mouseout": {"state": {"target": ["0", "0"], "time": [661, 12870]}, "edge": {"target": [], "time": []}}}, "displayed_time": "15.65", "trialTime": 17156, "trial_type": "mouselab-mdp", "trial_index": 36, "time_elapsed": 642964, "internal_node_id": "0.0-6.0-1.0-27.0"}}, {"uniqueid": "w49640421:a89967272", "current_trial": 37, "dateTime": 1693564952595, "trialdata": {"revealed_states": [], "clicked_states": [], "num_clicks_accrued": [0, 0, 0, 0, 0, 0, 0, 0, 0, 0, 0, 0, 0], "stateRewards": ["", -2, 1, -7, 9, 8, 25, 61, -7, -17, 69, -81, 1, 4, -4, -11, 16, 67, 44, 3, 6, -45, -54, -2, 3, 6, -11, -15, 32, -47, 3, -39, -6, -88], "withholdReward": false, "trial_id": "mdp_trial_29", "block": "test", "trialIndex": 30, "score": 4, "costs": 0, "simulationMode": [null, null, null, null, null], "rewards": [-2, 3, 6, 3, -6], "path": ["0", "0", "23", "24", "25", "30", "32"], "rt": [393, 6, 40, 179, 76], "actions": ["left", "left", "left", "down", "down"], "actionTimes": [3554, 4076, 4626, 5298, 5896], "queries": {"click": {"state": {"target": [], "time": []}, "edge": {"target": [], "time": []}}, "mouseover": {"state": {"target": [], "time": []}, "edge": {"target": [], "time": []}}, "mouseout": {"state": {"target": ["0", "0", "1"], "time": [1755, 2414, 13568]}, "edge": {"target": [], "time": []}}}, "displayed_time": "17.16", "trialTime": 17958, "trial_type": "mouselab-mdp", "trial_index": 37, "time_elapsed": 661718, "internal_node_id": "0.0-6.0-1.0-28.0"}}, {"uniqueid": "w49640421:a89967272", "current_trial": 38, "dateTime": 1693564973349, "trialdata": {"revealed_states": [], "clicked_states": [], "num_clicks_accrued": [0, 0, 0, 0, 0, 0, 0, 0, 0, 0, 0, 0, 0], "stateRewards": ["", 1, 1, -7, -9, -44, 24, -83, -15, 44, -24, 72, -2, -3, 4, -5, 57, 55, 29, -11, 22, 12, -25, -1, 2, 7, 12, 33, -8, 47, -4, 8, 50, -4], "withholdReward": false, "trial_id": "mdp_trial_30", "block": "test", "trialIndex": 31, "score": 49, "costs": 0, "simulationMode": [null, null, null, null, null], "rewards": [-2, -3, 4, -5, 55], "path": ["0", "0", "12", "13", "14", "15", "17"], "rt": [221, 132, 106, 530, 290], "actions": ["right", "right", "right", "up", "right"], "actionTimes": [4028, 4662, 5272, 6294, 7087], "queries": {"click": {"state": {"target": [], "time": []}, "edge": {"target": [], "time": []}}, "mouseover": {"state": {"target": [], "time": []}, "edge": {"target": [], "time": []}}, "mouseout": {"state": {"target": ["2", "1", "0", "0"], "time": [2794, 2810, 3047, 15896]}, "edge": {"target": [], "time": []}}}, "displayed_time": "17.81", "trialTime": 19508, "trial_type": "mouselab-mdp", "trial_index": 38, "time_elapsed": 682471, "internal_node_id": "0.0-6.0-1.0-29.0"}}, {"uniqueid": "w49640421:a89967272", "current_trial": 39, "dateTime": 1693564997559, "trialdata": {"revealed_states": [], "clicked_states": [], "num_clicks_accrued": [0, 0, 0, 0, 0, 0, 0, 0, 0, 0, 0, 0, 0], "stateRewards": ["", 1, 2, -6, -13, -51, 22, -4, -12, -44, -12, 6, -2, -2, -2, -14, -46, -4, -77, -2, 36, -79, 41, 2, -4, 2, -6, -55, 59, 70, -5, 39, -19, 24], "withholdReward": false, "trial_id": "mdp_trial_31", "block": "test", "trialIndex": 32, "score": -61, "costs": 0, "simulationMode": [null, null, null, null, null], "rewards": [2, -4, 2, -6, -55], "path": ["0", "0", "23", "24", "25", "26", "27"], "rt": [1337, 254, 83, 151, 43], "actions": ["left", "left", "left", "up", "up"], "actionTimes": [4579, 5337, 5918, 6568, 7127], "queries": {"click": {"state": {"target": [], "time": []}, "edge": {"target": [], "time": []}}, "mouseover": {"state": {"target": [], "time": []}, "edge": {"target": [], "time": []}}, "mouseout": {"state": {"target": ["0"], "time": [17898]}, "edge": {"target": [], "time": []}}}, "displayed_time": "17.25", "trialTime": 23388, "trial_type": "mouselab-mdp", "trial_index": 39, "time_elapsed": 706681, "internal_node_id": "0.0-6.0-1.0-30.0"}}, {"uniqueid": "w49640421:a89967272", "current_trial": 40, "dateTime": 1693565015253, "trialdata": {"revealed_states": [], "clicked_states": [], "num_clicks_accrued": [0, 0, 0, 0, 0, 0, 0, 0, 0, 0, 0, 0, 0], "stateRewards": ["", 1, -1, 1, -14, -10, 67, -28, -11, 72, 40, -65, -1, 1, 1, -2, 8, -55, 34, -10, 61, 33, -15, 2, -4, 7, 4, -75, 63, -21, -16, 61, 19, 21], "withholdReward": false, "trial_id": "mdp_trial_32", "block": "test", "trialIndex": 33, "score": 8, "costs": 0, "simulationMode": [null, null, null, null, null], "rewards": [2, -4, 7, -16, 19], "path": ["0", "0", "23", "24", "25", "30", "32"], "rt": [872, 88, 97, 237, 404], "actions": ["left", "left", "left", "down", "down"], "actionTimes": [2597, 3207, 3816, 4589, 5507], "queries": {"click": {"state": {"target": [], "time": []}, "edge": {"target": [], "time": []}}, "mouseover": {"state": {"target": [], "time": []}, "edge": {"target": [], "time": []}}, "mouseout": {"state": {"target": ["0"], "time": [10899]}, "edge": {"target": [], "time": []}}}, "displayed_time": "15.73", "trialTime": 16867, "trial_type": "mouselab-mdp", "trial_index": 40, "time_elapsed": 724375, "internal_node_id": "0.0-6.0-1.0-31.0"}}, {"uniqueid": "w49640421:a89967272", "current_trial": 41, "dateTime": 1693565033373, "trialdata": {"revealed_states": [], "clicked_states": [], "num_clicks_accrued": [0, 0, 0, 0, 0, 0, 0, 0, 0, 0, 0, 0, 0], "stateRewards": ["", -1, -3, 4, -10, -5, 79, -87, -2, 53, 29, -20, -2, -1, -5, 10, 27, 86, 46, -16, -29, 40, 3, 2, 4, -1, -6, 37, 79, -29, 7, 86, -62, 29], "withholdReward": false, "trial_id": "mdp_trial_33", "block": "test", "trialIndex": 34, "score": 29, "costs": 0, "simulationMode": [null, null, null, null, null], "rewards": [-2, -1, -5, 10, 27], "path": ["0", "0", "12", "13", "14", "15", "16"], "rt": [3863, 45, 92, 214, 65], "actions": ["right", "right", "right", "up", "up"], "actionTimes": [6459, 7019, 7648, 8371, 8955], "queries": {"click": {"state": {"target": [], "time": []}, "edge": {"target": [], "time": []}}, "mouseover": {"state": {"target": [], "time": []}, "edge": {"target": [], "time": []}}, "mouseout": {"state": {"target": ["0"], "time": [13154]}, "edge": {"target": [], "time": []}}}, "displayed_time": "16.60", "trialTime": 17292, "trial_type": "mouselab-mdp", "trial_index": 41, "time_elapsed": 742496, "internal_node_id": "0.0-6.0-1.0-32.0"}}, {"uniqueid": "w49640421:a89967272", "current_trial": 42, "dateTime": 1693565050987, "trialdata": {"revealed_states": [], "clicked_states": [], "num_clicks_accrued": [0, 0, 0, 0, 0, 0, 0, 0, 0, 0, 0, 0, 0], "stateRewards": ["", 2, -1, 4, -9, -43, 7, 54, -13, 38, -40, -83, -1, 2, -8, -10, 34, -33, 11, -14, -79, 65, 26, 1, 2, 4, 10, 21, 1, 86, 4, -53, 28, -29], "withholdReward": false, "trial_id": "mdp_trial_34", "block": "test", "trialIndex": 35, "score": 38, "costs": 0, "simulationMode": [null, null, null, null, null], "rewards": [1, 2, 4, 10, 21], "path": ["0", "0", "23", "24", "25", "26", "27"], "rt": [404, 163, 148, 14, 155], "actions": ["left", "left", "left", "up", "up"], "actionTimes": [2424, 3091, 3745, 4258, 4933], "queries": {"click": {"state": {"target": [], "time": []}, "edge": {"target": [], "time": []}}, "mouseover": {"state": {"target": [], "time": []}, "edge": {"target": [], "time": []}}, "mouseout": {"state": {"target": ["0", "0"], "time": [166, 7193]}, "edge": {"target": [], "time": []}}}, "displayed_time": "16.02", "trialTime": 16745, "trial_type": "mouselab-mdp", "trial_index": 42, "time_elapsed": 760110, "internal_node_id": "0.0-6.0-1.0-33.0"}}, {"uniqueid": "w49640421:a89967272", "current_trial": 43, "dateTime": 1693565076534, "trialdata": {"revealed_states": [], "clicked_states": [], "num_clicks_accrued": [0, 0, 0, 0, 0, 0, 0, 0, 0, 0, 0, 0, 0], "stateRewards": ["", -1, -4, -1, -5, -28, -23, -15, -15, -38, 59, -87, 2, 2, -5, 9, -55, -39, -71, -6, 85, -85, -11, -1, -2, 5, -10, 1, 25, 41, -4, 69, -35, 86], "withholdReward": false, "trial_id": "mdp_trial_35", "block": "test", "trialIndex": 36, "score": 33, "costs": 0, "simulationMode": [null, null, null, null, null], "rewards": [-1, -2, 5, -10, 41], "path": ["0", "0", "23", "24", "25", "26", "29"], "rt": [377, 93, 141, 549, 303], "actions": ["left", "left", "left", "up", "left"], "actionTimes": [1602, 2211, 2858, 3916, 4754], "queries": {"click": {"state": {"target": [], "time": []}, "edge": {"target": [], "time": []}}, "mouseover": {"state": {"target": [], "time": []}, "edge": {"target": [], "time": []}}, "mouseout": {"state": {"target": ["0"], "time": [24280]}, "edge": {"target": [], "time": []}}}, "displayed_time": "15.23", "trialTime": 24814, "trial_type": "mouselab-mdp", "trial_index": 43, "time_elapsed": 785656, "internal_node_id": "0.0-6.0-1.0-34.0"}}, {"uniqueid": "w49640421:a89967272", "current_trial": 44, "dateTime": 1693565093547, "trialdata": {"revealed_states": [], "clicked_states": [], "num_clicks_accrued": [0, 0, 0, 0, 0, 0, 0, 0, 0, 0, 0, 0, 0], "stateRewards": ["", -1, 1, 8, -8, -49, 62, -78, 16, 28, -81, 78, -2, -3, -1, -4, 67, 49, -2, -13, -16, -39, 83, 1, -4, 4, -5, -20, 7, 84, 7, -32, -59, 19], "withholdReward": false, "trial_id": "mdp_trial_36", "block": "test", "trialIndex": 37, "score": 102, "costs": 0, "simulationMode": [null, null, null, null, null], "rewards": [-1, 1, 8, 16, 78], "path": ["0", "0", "1", "2", "3", "8", "11"], "rt": [584, 8, 287, 151, 199], "actions": ["up", "up", "up", "left", "left"], "actionTimes": [1692, 2199, 2995, 3659, 4375], "queries": {"click": {"state": {"target": [], "time": []}, "edge": {"target": [], "time": []}}, "mouseover": {"state": {"target": [], "time": []}, "edge": {"target": [], "time": []}}, "mouseout": {"state": {"target": ["0", "0"], "time": [36, 5306]}, "edge": {"target": [], "time": []}}}, "displayed_time": "15.11", "trialTime": 15800, "trial_type": "mouselab-mdp", "trial_index": 44, "time_elapsed": 802669, "internal_node_id": "0.0-6.0-1.0-35.0"}}, {"uniqueid": "w49640421:a89967272", "current_trial": 45, "dateTime": 1693565112249, "trialdata": {"revealed_states": [], "clicked_states": [], "num_clicks_accrued": [0, 0, 0, 0, 0, 0, 0, 0, 0, 0, 0, 0, 0], "stateRewards": ["", 1, -3, -6, -5, 47, 80, -29, 11, -71, 10, -29, -2, 3, -6, 12, 2, -78, -6, 8, 34, -16, -5, -1, 3, 3, -13, 84, -36, -62, -3, -27, 66, 15], "withholdReward": false, "trial_id": "mdp_trial_37", "block": "test", "trialIndex": 38, "score": -26, "costs": 0, "simulationMode": [null, null, null, null, null], "rewards": [1, -3, -6, 11, -29], "path": ["0", "0", "1", "2", "3", "8", "11"], "rt": [1668, 49, 8, 167, 72], "actions": ["up", "up", "up", "left", "left"], "actionTimes": [3501, 4067, 4609, 5284, 5857], "queries": {"click": {"state": {"target": [], "time": []}, "edge": {"target": [], "time": []}}, "mouseover": {"state": {"target": [], "time": []}, "edge": {"target": [], "time": []}}, "mouseout": {"state": {"target": ["0"], "time": [720]}, "edge": {"target": [], "time": []}}}, "displayed_time": "15.84", "trialTime": 17863, "trial_type": "mouselab-mdp", "trial_index": 45, "time_elapsed": 821372, "internal_node_id": "0.0-6.0-1.0-36.0"}}, {"uniqueid": "w49640421:a89967272", "current_trial": 46, "dateTime": 1693565131920, "trialdata": {"revealed_states": [], "clicked_states": [], "num_clicks_accrued": [0, 0, 0, 0, 0, 0, 0, 0, 0, 0, 0, 0, 0], "stateRewards": ["", -2, 1, -3, -16, -39, -52, 30, -7, -41, -59, 11, 2, 1, 8, 2, -11, -26, -42, -13, 87, -59, -48, -1, -1, -1, 16, -79, 31, 50, -1, -84, 34, -82], "withholdReward": false, "trial_id": "mdp_trial_38", "block": "test", "trialIndex": 39, "score": 63, "costs": 0, "simulationMode": [null, null, null, null, null], "rewards": [-1, -1, -1, 16, 50], "path": ["0", "0", "23", "24", "25", "26", "29"], "rt": [833, 14, 25, 1586, 203], "actions": ["left", "left", "left", "up", "left"], "actionTimes": [2277, 2785, 3329, 5422, 6125], "queries": {"click": {"state": {"target": [], "time": []}, "edge": {"target": [], "time": []}}, "mouseover": {"state": {"target": [], "time": []}, "edge": {"target": [], "time": []}}, "mouseout": {"state": {"target": ["0"], "time": [7219]}, "edge": {"target": [], "time": []}}}, "displayed_time": "15.45", "trialTime": 18105, "trial_type": "mouselab-mdp", "trial_index": 46, "time_elapsed": 841042, "internal_node_id": "0.0-6.0-1.0-37.0"}}, {"uniqueid": "w49640421:a89967272", "current_trial": 47, "dateTime": 1693565152201, "trialdata": {"revealed_states": [], "clicked_states": [], "num_clicks_accrued": [0, 0, 0, 0, 0, 0, 0, 0, 0, 0, 0, 0, 0], "stateRewards": ["", 1, -2, 7, -14, 88, -56, -44, -14, 64, -51, -57, -2, 3, -4, -9, -11, 19, -77, -1, 68, 75, -67, -1, 1, -2, 5, -37, 70, -34, -10, -72, 63, -41], "withholdReward": false, "trial_id": "mdp_trial_39", "block": "test", "trialIndex": 40, "score": -31, "costs": 0, "simulationMode": [null, null, null, null, null], "rewards": [-1, 1, -2, 5, -34], "path": ["0", "0", "23", "24", "25", "26", "29"], "rt": [1901, 67, 7, 512, 124], "actions": ["left", "left", "left", "up", "left"], "actionTimes": [3351, 3937, 4457, 5480, 6108], "queries": {"click": {"state": {"target": [], "time": []}, "edge": {"target": [], "time": []}}, "mouseover": {"state": {"target": [], "time": []}, "edge": {"target": [], "time": []}}, "mouseout": {"state": {"target": ["0", "0", "0"], "time": [231, 648, 17218]}, "edge": {"target": [], "time": []}}}, "displayed_time": "15.45", "trialTime": 19417, "trial_type": "mouselab-mdp", "trial_index": 47, "time_elapsed": 861323, "internal_node_id": "0.0-6.0-1.0-38.0"}}, {"uniqueid": "w49640421:a89967272", "current_trial": 48, "dateTime": 1693565169267, "trialdata": {"revealed_states": [], "clicked_states": [], "num_clicks_accrued": [0, 0, 0, 0, 0, 0, 0, 0, 0, 0, 0, 0, 0], "stateRewards": ["", 2, -1, -1, -9, -81, -30, 55, -6, 78, 25, 62, 2, 4, -1, 9, -85, 1, -19, 1, -60, 12, -34, 1, 4, -1, -13, -24, -16, -83, -8, 16, 43, 9], "withholdReward": false, "trial_id": "mdp_trial_40", "block": "test", "trialIndex": 41, "score": -92, "costs": 0, "simulationMode": [null, null, null, null, null], "rewards": [1, 4, -1, -13, -83], "path": ["0", "0", "23", "24", "25", "26", "29"], "rt": [1108, 6, 103, 114, 66], "actions": ["left", "left", "left", "up", "left"], "actionTimes": [2513, 3032, 3662, 4289, 4874], "queries": {"click": {"state": {"target": [], "time": []}, "edge": {"target": [], "time": []}}, "mouseover": {"state": {"target": [], "time": []}, "edge": {"target": [], "time": []}}, "mouseout": {"state": {"target": ["0", "0"], "time": [820, 9056]}, "edge": {"target": [], "time": []}}}, "displayed_time": "15.41", "trialTime": 16123, "trial_type": "mouselab-mdp", "trial_index": 48, "time_elapsed": 878389, "internal_node_id": "0.0-6.0-1.0-39.0"}}, {"uniqueid": "w49640421:a89967272", "current_trial": 49, "dateTime": 1693565234140, "trialdata": {"rt": 64857, "response": {"Q0": "$-16 to 16", "Q1": "$-32 to $32", "Q2": "$-88 to $88", "Q3": "The cost for clicking on nodes varied between nodes.", "Q4": "Very motivated"}, "question_order": [0, 1, 2, 3, 4], "trial_id": "final_quiz_control", "trial_type": "survey-multi-choice", "trial_index": 49, "time_elapsed": 943262, "internal_node_id": "0.0-6.0-2.0"}}, {"uniqueid": "w49640421:a89967272", "current_trial": 50, "dateTime": 1693565285520, "trialdata": {"rt": 51355, "response": {"Q0": "I just randomly went to the outer nodes. I didn't even use the inspector.", "Q1": "My strategy stayed the same throughout.", "Q2": "My performance stayed the same throughout."}, "trial_id": "self_report_control", "trial_type": "survey-text", "trial_index": 50, "time_elapsed": 994643, "internal_node_id": "0.0-6.0-3.0"}}, {"uniqueid": "w49640421:a89967272", "current_trial": 51, "dateTime": 1693565333803, "trialdata": {"rt": 48275, "response": {"Q0": "Strongly disagree", "Q1": "Neither disagree nor agree", "Q2": "Neither disagree nor agree", "Q3": "Neither disagree nor agree", "Q4": "Neither disagree nor agree", "Q5": "Neither disagree nor agree", "Q6": "Neither disagree nor agree"}, "question_order": [0, 1, 2, 3, 4, 5, 6], "trial_id": "self_report_2", "trial_type": "survey-multi-choice", "trial_index": 51, "time_elapsed": 1042926, "internal_node_id": "0.0-6.0-4.0"}}, {"uniqueid": "w49640421:a89967272", "current_trial": 52, "dateTime": 1693565348280, "trialdata": {"rt": 14468, "response": {"gender": "female", "age": "50", "colorblind": "0", "effort": "0"}, "trial_type": "survey-html-form", "trial_index": 52, "time_elapsed": 1057403, "internal_node_id": "0.0-6.0-5.0"}}], "questiondata": {"params": {"CODE": "C6DMOQA6", "MIN_TIME": 14, "inspectCost": 1, "startTime": "Fri Sep 01 2023 11:31:28 GMT+0100 (British Summer Time)", "bonusRate": 0.002, "variance": "1_2_4_8_44", "branching": "31123"}}, "eventdata": [{"eventtype": "initialized", "value": null, "timestamp": 1693564284969, "interval": 0}, {"eventtype": "window_resize", "value": [1280, 614], "timestamp": 1693564284969, "interval": 0}, {"eventtype": "window_resize", "value": [1280, 614], "timestamp": 1693564288498, "interval": 3529}, {"eventtype": "window_resize", "value": [1280, 720], "timestamp": 1693564292896, "interval": 4398}, {"eventtype": "window_resize", "value": [1280, 614], "timestamp": 1693564406028, "interval": 113132}, {"eventtype": "window_resize", "value": [1032, 600], "timestamp": 1693564423134, "interval": 17106}, {"eventtype": "window_resize", "value": [1280, 614], "timestamp": 1693564424420, "interval": 1286}, {"eventtype": "window_resize", "value": [1032, 600], "timestamp": 1693564481822, "interval": 57402}, {"eventtype": "window_resize", "value": [1280, 614], "timestamp": 1693564498497, "interval": 16675}, {"eventtype": "focus", "value": "off", "timestamp": 1693564501271, "interval": 2774}, {"eventtype": "focus", "value": "on", "timestamp": 1693564520296, "interval": 19025}, {"eventtype": "focus", "value": "off", "timestamp": 1693564521826, "interval": 1530}, {"eventtype": "focus", "value": "on", "timestamp": 1693564527581, "interval": 5755}, {"eventtype": "window_resize", "value": [1032, 600], "timestamp": 1693564536004, "interval": 8423}], "useragent": "Mozilla/5.0 (Windows NT 10.0; Win64; x64) AppleWebKit/537.36 (KHTML, like Gecko) Chrome/116.0.0.0 Safari/537.36", "mode": "live", "id": "w49640421:a89967272", "status": "user data saved", "Beginhit": "2023-09-01 10:31:23.559742", "Beginexp": "2023-09-01 10:31:34.052178", "Endhit": null, "psiturkStatus": 2, "browser": "<redacted>", "platform": "windows", "language": "en-GB"}