{"condition": 1, "counterbalance": 0, "assignmentId": "a14891900", "workerId": "w36257203", "hitId": "h51074544", "currenttrial": 56, "bonus": 0, "data": [{"uniqueid": "w36257203:a14891900", "current_trial": 0, "dateTime": 1691160841464, "trialdata": {"success": true, "trial_type": "fullscreen", "trial_index": 0, "time_elapsed": 2328, "internal_node_id": "0.0-0.0"}}, {"uniqueid": "w36257203:a14891900", "current_trial": 1, "dateTime": 1691160845020, "trialdata": {"view_history": [{"page_index": 0, "viewing_time": 3548}], "rt": 3549, "trial_id": "exp_instructions_misaligned", "trial_type": "instructions", "trial_index": 1, "time_elapsed": 5885, "internal_node_id": "0.0-1.0"}}, {"uniqueid": "w36257203:a14891900", "current_trial": 2, "dateTime": 1691160847300, "trialdata": {"success": true, "trial_type": "fullscreen", "trial_index": 2, "time_elapsed": 8165, "internal_node_id": "0.0-2.0-0.0"}}, {"uniqueid": "w36257203:a14891900", "current_trial": 3, "dateTime": 1691160940122, "trialdata": {"view_history": [{"page_index": 0, "viewing_time": 5619}, {"page_index": 1, "viewing_time": 42580}, {"page_index": 2, "viewing_time": 20245}, {"page_index": 3, "viewing_time": 24374}], "rt": 92819, "trial_id": "mouselab_instructions_1_misaligned", "trial_type": "instructions", "trial_index": 3, "time_elapsed": 100987, "internal_node_id": "0.0-2.0-1.0"}}, {"uniqueid": "w36257203:a14891900", "current_trial": 4, "dateTime": 1691160949257, "trialdata": {"revealed_states": [], "clicked_states": [], "num_clicks_accrued": [0, 0, 0, 0, 0, 0, 0, 0, 0, 0, 0, 0, 0], "stateRewards": ["", -10, -10, 10, -10, -10, 10, -10, 10, -10, 10, 10, -10, 10, 10, -10, 10, 10, 10, -10, 10, 10, 10, 10, -10, -10, 10, -10, -10, -10, 10, 10, -10, -10], "withholdReward": false, "trial_id": "practice_1", "block": "test", "trialIndex": 0, "score": -6.5, "costs": 0, "simulationMode": [null, null, null, null, null], "rewards": [10, -10, -10, 10, -10], "path": ["0", "0", "23", "24", "25", "26", "29"], "rt": [1060, 478, 147, 191, 104], "actions": ["left", "left", "left", "up", "left"], "actionTimes": [3503, 4491, 5155, 5863, 6499], "queries": {"click": {"state": {"target": [], "time": []}, "edge": {"target": [], "time": []}}, "mouseover": {"state": {"target": [], "time": []}, "edge": {"target": [], "time": []}}, "mouseout": {"state": {"target": ["2", "1", "0"], "time": [1321, 1396, 1751]}, "edge": {"target": [], "time": []}}}, "displayed_time": "7.02", "trialTime": 8652, "trial_type": "mouselab-mdp", "trial_index": 4, "time_elapsed": 110121, "internal_node_id": "0.0-2.0-2.0-0.0"}}, {"uniqueid": "w36257203:a14891900", "current_trial": 5, "dateTime": 1691160966979, "trialdata": {"revealed_states": [], "clicked_states": ["26", "25", "27", "29", "28", "24", "23"], "num_clicks_accrued": [0, 0, 0, 0, 0, 0, 0, 0, 0, 0, 0, 0, 0], "stateRewards": ["", 10, 10, 10, -10, -10, -10, -10, 10, -10, 10, 10, 10, 10, 10, 10, -10, 10, -10, 10, -10, 10, -10, 10, -10, 10, 10, -10, 10, -10, -10, -10, 10, -10], "withholdReward": false, "trial_id": "practice_2", "block": "test", "trialIndex": 1, "score": 30, "costs": -3.5, "simulationMode": [null, null, null, null, null, null], "rewards": [10, -10, 10, 10, 10], "path": ["0", "0", "23", "24", "25", "26", "28"], "rt": [9777, 476, 184, 157, 154, 185], "actions": ["left", "left", "left", "left", "up", "right"], "actionTimes": [12094, 12575, 13283, 13953, 14630, 15323], "queries": {"click": {"state": {"target": ["26", "25", "27", "29", "28", "24", "23"], "time": [3501, 4558, 5714, 6994, 8386, 10320, 11408]}, "edge": {"target": [], "time": []}}, "mouseover": {"state": {"target": ["23", "24", "25", "26", "25", "29", "27", "29", "26", "28", "24", "24", "23"], "time": [2662, 2772, 2928, 3265, 4373, 4972, 5499, 6212, 7622, 7754, 8983, 10284, 10943]}, "edge": {"target": [], "time": []}}, "mouseout": {"state": {"target": ["0", "23", "24", "25", "26", "25", "29", "27", "27", "29", "26", "28", "24", "24", "23"], "time": [2621, 2735, 2867, 3236, 3892, 4687, 5351, 5791, 6130, 7573, 7721, 8683, 9772, 10889, 16518]}, "edge": {"target": [], "time": []}}}, "displayed_time": "15.84", "trialTime": 17403, "trial_type": "mouselab-mdp", "trial_index": 5, "time_elapsed": 127843, "internal_node_id": "0.0-2.0-2.0-1.0"}}, {"uniqueid": "w36257203:a14891900", "current_trial": 6, "dateTime": 1691160985205, "trialdata": {"view_history": [{"page_index": 0, "viewing_time": 15279}, {"page_index": 1, "viewing_time": 2941}], "rt": 18220, "trial_id": "mouselab_instructions_2_misaligned", "trial_type": "instructions", "trial_index": 6, "time_elapsed": 146070, "internal_node_id": "0.0-2.0-3.0"}}, {"uniqueid": "w36257203:a14891900", "current_trial": 7, "dateTime": 1691161022269, "trialdata": {"rt": 37054, "response": {"Q0": "The cost for clicking on nodes may vary between nodes.", "Q1": "The better I perform the higher my bonus will be.", "Q2": "No, the amount of cash at each node of the web may be different each time.", "Q3": "To get the highest total score.", "Q4": "Only before moving the spider.", "Q5": "3 seconds"}, "question_order": [0, 1, 2, 3, 4, 5], "correct": {"Q0": "The cost for clicking on nodes may vary between nodes.", "Q1": "The better I perform the higher my bonus will be.", "Q2": "No, the amount of cash at each node of the web may be different each time.", "Q3": "To get the highest total score.", "Q4": "Only before moving the spider.", "Q5": "3 seconds"}, "trial_id": "mouselab_quiz_misaligned", "trial_type": "survey-multi-choice", "trial_index": 7, "time_elapsed": 183134, "internal_node_id": "0.0-2.0-4.0"}}, {"uniqueid": "w36257203:a14891900", "current_trial": 8, "dateTime": 1691161028985, "trialdata": {"rt": 6700, "stimulus": "\n<h1> Get ready to start the game! </h1>\n\nThank you for reading the instructions. Get ready start with the 40 rounds of this game.\n<br><br>\nIf you need to take a break, feel free to take one after the end of a round, before continuing to the next one.\n<br><br>\nRemember, the more money the spider gets, the bigger your bonus will be!\n<br><br>\n<div style='text-align: center;'>Press <code>space</code> to begin.</div>\n\n<br><br>\n(If, at any point, the <code>space</code> key does not take you to the next page, click once on the text and try again.)", "response": " ", "trial_id": "mdp_ready", "trial_type": "html-keyboard-response", "trial_index": 8, "time_elapsed": 189850, "internal_node_id": "0.0-4.0-0.0"}}, {"uniqueid": "w36257203:a14891900", "current_trial": 9, "dateTime": 1691161047145, "trialdata": {"revealed_states": [], "clicked_states": ["23", "1", "12", "7"], "num_clicks_accrued": [0, 0, 0, 0, 0, 0, 0, 0, 0, 0, 0, 0, 0], "stateRewards": ["", -2, 1, -3, -16, -39, -52, 30, -7, -41, -59, 11, 2, 1, 8, 2, -11, -26, -42, -13, 87, -59, -48, -1, -1, -1, 16, -79, 31, 50, -1, -84, 34, -82], "withholdReward": false, "trial_id": "mdp_trial_1", "block": "test", "trialIndex": 2, "score": -30.4, "costs": -1.4, "simulationMode": [null, null, null, null, null, null], "rewards": [2, 1, 8, 2, -42], "path": ["0", "0", "12", "13", "14", "15", "18"], "rt": [5132, 716, 135, 244, 163, 74], "actions": ["right", "right", "right", "right", "up", "left"], "actionTimes": [6283, 7004, 7669, 8425, 9107, 9698], "queries": {"click": {"state": {"target": ["23", "1", "12", "7"], "time": [1685, 2118, 2598, 3759]}, "edge": {"target": [], "time": []}}, "mouseover": {"state": {"target": ["23", "1", "12", "7", "2", "10", "2"], "time": [1303, 1875, 2356, 3552, 3932, 4462, 5075]}, "edge": {"target": [], "time": []}}, "mouseout": {"state": {"target": ["4", "1", "0", "23", "1", "12", "7", "2", "10", "2", "12", "0"], "time": [21, 509, 1236, 1810, 2310, 3238, 3898, 4397, 4994, 6170, 10424, 10487]}, "edge": {"target": [], "time": []}}}, "displayed_time": "15.15", "trialTime": 17811, "trial_type": "mouselab-mdp", "trial_index": 9, "time_elapsed": 208009, "internal_node_id": "0.0-4.0-1.0-0.0"}}, {"uniqueid": "w36257203:a14891900", "current_trial": 10, "dateTime": 1691161064337, "trialdata": {"revealed_states": [], "clicked_states": ["23", "1", "12", "24", "2", "13"], "num_clicks_accrued": [0, 0, 0, 0, 0, 0, 0, 0, 0, 0, 0, 0, 0], "stateRewards": ["", 2, -3, -5, 5, 11, -9, -33, 6, 67, 6, -30, -1, -2, -6, 13, 55, 13, 72, -14, 75, 21, -66, -2, -4, 6, 15, -1, -35, 60, 2, 51, -73, 12], "withholdReward": false, "trial_id": "mdp_trial_2", "block": "test", "trialIndex": 3, "score": 16.7, "costs": -0.29999999999999993, "simulationMode": [null, null, null, null, null], "rewards": [-1, -2, -6, 13, 13], "path": ["0", "0", "12", "13", "14", "15", "17"], "rt": [6694, 575, 152, 569, 121], "actions": ["right", "right", "right", "up", "right"], "actionTimes": [8094, 9195, 9867, 10948, 11577], "queries": {"click": {"state": {"target": ["23", "1", "12", "24", "2", "13"], "time": [2674, 3164, 3704, 4700, 5360, 6016]}, "edge": {"target": [], "time": []}}, "mouseover": {"state": {"target": ["23", "24", "23", "1", "12", "0", "24", "25", "24", "7", "2", "13"], "time": [1520, 1621, 2072, 3031, 3542, 4055, 4172, 4337, 4586, 4983, 5200, 5846]}, "edge": {"target": [], "time": []}}, "mouseout": {"state": {"target": ["22", "0", "23", "24", "23", "1", "12", "0", "23", "24", "25", "24", "1", "7", "2", "2", "13"], "time": [96, 1489, 1570, 1936, 2811, 3392, 4007, 4088, 4139, 4255, 4553, 4820, 4884, 5116, 5443, 5580, 7041]}, "edge": {"target": [], "time": []}}}, "displayed_time": "15.40", "trialTime": 16836, "trial_type": "mouselab-mdp", "trial_index": 10, "time_elapsed": 225200, "internal_node_id": "0.0-4.0-1.0-1.0"}}, {"uniqueid": "w36257203:a14891900", "current_trial": 11, "dateTime": 1691161082350, "trialdata": {"revealed_states": [], "clicked_states": ["25", "3", "14"], "num_clicks_accrued": [0, 0, 0, 0, 0, 0, 0, 0, 0, 0, 0, 0, 0], "stateRewards": ["", 1, -3, -1, 9, -34, -40, 22, -7, 45, 53, -11, 2, 4, 5, 15, 21, 37, -49, -3, 80, -28, -34, 1, -3, 1, 1, -40, -6, -5, -16, -85, -86, 59], "withholdReward": false, "trial_id": "mdp_trial_3", "block": "test", "trialIndex": 4, "score": 60.15, "costs": -2.8499999999999996, "simulationMode": [null, null, null, null, null], "rewards": [2, 4, 5, 15, 37], "path": ["0", "0", "12", "13", "14", "15", "17"], "rt": [3638, 16, 75, 185, 71], "actions": ["right", "right", "right", "up", "right"], "actionTimes": [5635, 6160, 6765, 7472, 8053], "queries": {"click": {"state": {"target": ["25", "3", "14"], "time": [2983, 3446, 4158]}, "edge": {"target": [], "time": []}}, "mouseover": {"state": {"target": ["24", "25", "28", "10", "3", "7", "18", "14", "13", "12", "0"], "time": [2016, 2700, 3071, 3120, 3204, 3684, 3768, 3950, 4629, 4662, 4779]}, "edge": {"target": [], "time": []}}, "mouseout": {"state": {"target": ["0", "23", "23", "0", "24", "25", "28", "10", "3", "7", "18", "14", "13", "12"], "time": [687, 1051, 1482, 2013, 2532, 3038, 3104, 3153, 3624, 3717, 3783, 4583, 4646, 4713]}, "edge": {"target": [], "time": []}}}, "displayed_time": "16.00", "trialTime": 17663, "trial_type": "mouselab-mdp", "trial_index": 11, "time_elapsed": 243213, "internal_node_id": "0.0-4.0-1.0-2.0"}}, {"uniqueid": "w36257203:a14891900", "current_trial": 12, "dateTime": 1691161099310, "trialdata": {"revealed_states": [], "clicked_states": ["25", "3", "14", "17"], "num_clicks_accrued": [0, 0, 0, 0, 0, 0, 0, 0, 0, 0, 0, 0, 0], "stateRewards": ["", 2, 4, 4, -8, -36, -33, 38, 16, -51, 57, 57, 1, 3, 4, -6, 45, 68, 87, 1, 63, 24, -55, -2, 2, -6, -13, -63, -50, 8, 2, 80, 6, 60], "withholdReward": false, "trial_id": "mdp_trial_4", "block": "test", "trialIndex": 5, "score": 35, "costs": -5, "simulationMode": [null, null, null, null, null, null], "rewards": [2, 4, 4, -8, 38], "path": ["0", "0", "1", "2", "3", "4", "7"], "rt": [5777, 552, 42, 108, 46, 8], "actions": ["up", "up", "up", "up", "right", "down"], "actionTimes": [7046, 7602, 8173, 8813, 9380, 9924], "queries": {"click": {"state": {"target": ["25", "3", "14", "17"], "time": [2051, 2761, 3555, 4782]}, "edge": {"target": [], "time": []}}, "mouseover": {"state": {"target": ["24", "25", "25", "28", "10", "3", "7", "18", "14", "15", "17", "20", "19"], "time": [1290, 1306, 1859, 2190, 2267, 2549, 3064, 3146, 3245, 3991, 4620, 5119, 6049]}, "edge": {"target": [], "time": []}}, "mouseout": {"state": {"target": ["23", "24", "25", "23", "0", "24", "25", "25", "28", "10", "3", "7", "18", "14", "15", "17", "20"], "time": [105, 296, 695, 728, 1286, 1296, 1340, 2151, 2207, 2317, 3013, 3083, 3163, 3742, 4240, 4955, 5633]}, "edge": {"target": [], "time": []}}}, "displayed_time": "15.27", "trialTime": 16607, "trial_type": "mouselab-mdp", "trial_index": 12, "time_elapsed": 260173, "internal_node_id": "0.0-4.0-1.0-3.0"}}, {"uniqueid": "w36257203:a14891900", "current_trial": 13, "dateTime": 1691161116333, "trialdata": {"revealed_states": [], "clicked_states": ["25", "3", "14", "29"], "num_clicks_accrued": [0, 0, 0, 0, 0, 0, 0, 0, 0, 0, 0, 0, 0], "stateRewards": ["", 1, -1, 1, 13, 31, -56, 72, 2, 41, 5, 63, -2, -3, -2, 3, -71, -26, 52, 13, -31, 24, -67, 2, -2, 5, 4, 66, 43, 72, 9, 86, -26, 44], "withholdReward": false, "trial_id": "mdp_trial_5", "block": "test", "trialIndex": 6, "score": 76, "costs": -5, "simulationMode": [null, null, null, null, null], "rewards": [2, -2, 5, 4, 72], "path": ["0", "0", "23", "24", "25", "26", "29"], "rt": [6991, 44, 141, 77, 14], "actions": ["left", "left", "left", "up", "left"], "actionTimes": [8652, 9210, 9887, 10486, 11019], "queries": {"click": {"state": {"target": ["25", "3", "14", "29"], "time": [2414, 3262, 4048, 5405]}, "edge": {"target": [], "time": []}}, "mouseover": {"state": {"target": ["23", "24", "25", "25", "8", "3", "7", "18", "13", "14", "13", "12", "23", "24", "26", "29", "33"], "time": [1750, 1802, 1853, 2145, 2894, 3142, 3491, 3573, 3639, 3905, 4418, 4586, 4784, 4833, 5098, 5251, 5911]}, "edge": {"target": [], "time": []}}, "mouseout": {"state": {"target": ["19", "12", "0", "23", "0", "23", "24", "25", "25", "8", "3", "7", "18", "13", "14", "13", "12", "23", "24", "26", "29", "33"], "time": [247, 524, 589, 1182, 1706, 1768, 1818, 2013, 2794, 2942, 3459, 3523, 3605, 3772, 4352, 4517, 4651, 4818, 4866, 5164, 5629, 6592]}, "edge": {"target": [], "time": []}}}, "displayed_time": "15.66", "trialTime": 16679, "trial_type": "mouselab-mdp", "trial_index": 13, "time_elapsed": 277197, "internal_node_id": "0.0-4.0-1.0-4.0"}}, {"uniqueid": "w36257203:a14891900", "current_trial": 14, "dateTime": 1691161133753, "trialdata": {"revealed_states": [], "clicked_states": ["25", "3", "14", "29"], "num_clicks_accrued": [0, 0, 0, 0, 0, 0, 0, 0, 0, 0, 0, 0, 0], "stateRewards": ["", 1, -3, -4, -11, -56, 61, -47, -16, -28, -9, 69, -2, -3, -4, -8, 40, -86, 59, -4, 80, 27, 54, -1, 3, -1, 8, 67, 23, 50, 6, 83, -43, -29], "withholdReward": false, "trial_id": "mdp_trial_6", "block": "test", "trialIndex": 7, "score": 54, "costs": -5, "simulationMode": [null, null, null, null, null], "rewards": [-1, 3, -1, 8, 50], "path": ["0", "0", "23", "24", "25", "26", "29"], "rt": [7977, 9, 673, 44, 27], "actions": ["left", "left", "left", "up", "left"], "actionTimes": [9179, 9712, 10920, 11471, 12032], "queries": {"click": {"state": {"target": ["25", "3", "14", "29"], "time": [2059, 2875, 3732, 5651]}, "edge": {"target": [], "time": []}}, "mouseover": {"state": {"target": ["24", "25", "25", "28", "10", "3", "7", "18", "13", "14", "20", "17", "15", "18", "28", "26", "29", "27", "26", "33", "26"], "time": [1224, 1276, 1958, 2235, 2319, 2617, 3065, 3146, 3296, 3449, 4258, 4572, 4992, 5042, 5103, 5276, 5508, 5887, 6281, 6582, 7311]}, "edge": {"target": [], "time": []}}, "mouseout": {"state": {"target": ["10", "1", "24", "25", "25", "28", "10", "3", "7", "18", "13", "14", "20", "17", "15", "18", "28", "26", "29", "27", "26", "33", "26"], "time": [484, 659, 1273, 1344, 2202, 2253, 2420, 3014, 3102, 3213, 3350, 4010, 4394, 4950, 5025, 5055, 5120, 5446, 5800, 6265, 6299, 7242, 7346]}, "edge": {"target": [], "time": []}}}, "displayed_time": "15.20", "trialTime": 17057, "trial_type": "mouselab-mdp", "trial_index": 14, "time_elapsed": 294617, "internal_node_id": "0.0-4.0-1.0-5.0"}}, {"uniqueid": "w36257203:a14891900", "current_trial": 15, "dateTime": 1691161150745, "trialdata": {"revealed_states": [], "clicked_states": ["25", "3", "14", "5"], "num_clicks_accrued": [0, 0, 0, 0, 0, 0, 0, 0, 0, 0, 0, 0, 0], "stateRewards": ["", -1, 2, 6, 11, 21, -21, -21, -6, 48, -71, 88, -1, -3, 3, 7, 64, 2, 9, -4, 37, -67, 72, 2, 2, -8, -8, -10, 71, -40, -3, 73, 80, 47], "withholdReward": false, "trial_id": "mdp_trial_7", "block": "test", "trialIndex": 8, "score": 44, "costs": -5, "simulationMode": [null, null, null, null, null, null], "rewards": [-1, 2, 6, -6, 48], "path": ["0", "0", "1", "2", "3", "8", "9"], "rt": [6683, 1024, 115, 125, 130, 97], "actions": ["up", "up", "up", "up", "left", "up"], "actionTimes": [8170, 9199, 9829, 10469, 11118, 11733], "queries": {"click": {"state": {"target": ["25", "3", "14", "5"], "time": [2623, 3236, 4049, 6039]}, "edge": {"target": [], "time": []}}, "mouseover": {"state": {"target": ["0", "23", "24", "25", "28", "10", "3", "7", "18", "14", "2", "4", "5", "9"], "time": [1755, 1970, 2068, 2101, 2777, 2826, 3126, 3607, 3655, 3905, 4486, 5435, 5833, 6391]}, "edge": {"target": [], "time": []}}, "mouseout": {"state": {"target": ["28", "0", "23", "24", "25", "28", "10", "3", "7", "18", "14", "2", "4", "5", "9"], "time": [767, 1910, 1987, 2081, 2727, 2810, 2863, 3556, 3622, 3706, 4386, 4519, 5504, 6249, 6972]}, "edge": {"target": [], "time": []}}}, "displayed_time": "15.49", "trialTime": 16647, "trial_type": "mouselab-mdp", "trial_index": 15, "time_elapsed": 311608, "internal_node_id": "0.0-4.0-1.0-6.0"}}, {"uniqueid": "w36257203:a14891900", "current_trial": 16, "dateTime": 1691161169670, "trialdata": {"revealed_states": [], "clicked_states": ["25", "3", "14"], "num_clicks_accrued": [0, 0, 0, 0, 0, 0, 0, 0, 0, 0, 0, 0, 0], "stateRewards": ["", -2, 2, 2, -6, 9, 37, 50, -13, -7, -18, -75, -2, -4, 4, 7, 23, -57, -66, -7, -81, -48, -76, 1, 1, -8, 1, 51, -2, 70, 14, 59, 71, -37], "withholdReward": false, "trial_id": "mdp_trial_8", "block": "test", "trialIndex": 9, "score": -54.85, "costs": -2.8499999999999996, "simulationMode": [null, null, null, null, null], "rewards": [-2, -4, 4, 7, -57], "path": ["0", "0", "12", "13", "14", "15", "17"], "rt": [3152, 44, 30, 180, 115], "actions": ["right", "right", "right", "up", "right"], "actionTimes": [4748, 5305, 5872, 6584, 7218], "queries": {"click": {"state": {"target": ["25", "3", "14"], "time": [2187, 2799, 3696]}, "edge": {"target": [], "time": []}}, "mouseover": {"state": {"target": ["23", "24", "25", "25", "10", "3", "7", "13", "14", "7"], "time": [1707, 1774, 1840, 2061, 2390, 2522, 3036, 3267, 3400, 3948]}, "edge": {"target": [], "time": []}}, "mouseout": {"state": {"target": ["12", "0", "23", "24", "25", "25", "10", "3", "7", "13", "14", "7", "3"], "time": [967, 1609, 1741, 1808, 1907, 2305, 2405, 3003, 3069, 3333, 3915, 3997, 4030]}, "edge": {"target": [], "time": []}}}, "displayed_time": "15.60", "trialTime": 18567, "trial_type": "mouselab-mdp", "trial_index": 16, "time_elapsed": 330533, "internal_node_id": "0.0-4.0-1.0-7.0"}}, {"uniqueid": "w36257203:a14891900", "current_trial": 17, "dateTime": 1691161188410, "trialdata": {"revealed_states": [], "clicked_states": ["25", "3", "14", "5"], "num_clicks_accrued": [0, 0, 0, 0, 0, 0, 0, 0, 0, 0, 0, 0, 0], "stateRewards": ["", 1, 1, 7, -11, 80, -20, -53, -14, 3, 31, 27, 2, -1, -8, -10, 33, 41, 86, 9, 78, -37, -13, -1, -2, -6, -8, -80, 75, 4, -16, -49, -74, 24], "withholdReward": false, "trial_id": "mdp_trial_9", "block": "test", "trialIndex": 10, "score": 73, "costs": -5, "simulationMode": [null, null, null, null, null], "rewards": [1, 1, 7, -11, 80], "path": ["0", "0", "1", "2", "3", "4", "5"], "rt": [6163, 669, 127, 28, 79], "actions": ["up", "up", "up", "right", "up"], "actionTimes": [8537, 9724, 10359, 10910, 11503], "queries": {"click": {"state": {"target": ["25", "3", "14", "5"], "time": [3038, 3605, 4320, 5320]}, "edge": {"target": [], "time": []}}, "mouseover": {"state": {"target": ["24", "25", "28", "2", "3", "7", "18", "14", "18", "6", "5", "10"], "time": [2390, 2503, 3197, 3246, 3313, 3926, 4010, 4109, 4793, 4905, 5152, 5716]}, "edge": {"target": [], "time": []}}, "mouseout": {"state": {"target": ["0", "0", "24", "25", "28", "2", "3", "3", "7", "18", "14", "18", "6", "5", "10", "10", "2", "7"], "time": [1710, 2387, 2441, 3089, 3212, 3263, 3687, 3878, 3977, 4043, 4639, 4809, 4972, 5538, 6496, 13789, 13849, 17966]}, "edge": {"target": [], "time": []}}}, "displayed_time": "16.38", "trialTime": 18382, "trial_type": "mouselab-mdp", "trial_index": 17, "time_elapsed": 349274, "internal_node_id": "0.0-4.0-1.0-8.0"}}, {"uniqueid": "w36257203:a14891900", "current_trial": 18, "dateTime": 1691161222746, "trialdata": {"revealed_states": [], "clicked_states": ["29", "9", "17", "20", "5", "33", "28", "27"], "num_clicks_accrued": [0, 0, 0, 0, 0, 0, 0, 0, 0, 0, 0, 0, 0], "stateRewards": ["", 2, 3, -1, 16, -78, -11, 46, 2, -20, 79, -67, 2, 3, 2, 11, -83, -42, -58, -11, -67, -22, 55, 2, -1, -1, -16, -83, -82, 23, -11, -29, 13, 13], "withholdReward": false, "trial_id": "mdp_trial_10", "block": "test", "trialIndex": 11, "score": -15.2, "costs": -17.2, "simulationMode": [null, null, null, null, null], "rewards": [2, -1, -1, -11, 13], "path": ["0", "0", "23", "24", "25", "30", "33"], "rt": [25895, 548, 96, 49, 271], "actions": ["left", "left", "left", "down", "left"], "actionTimes": [27416, 28475, 29084, 29650, 30436], "queries": {"click": {"state": {"target": ["29", "9", "17", "20", "5", "33", "28", "27"], "time": [2176, 4998, 7848, 11014, 13995, 16895, 21074, 24256]}, "edge": {"target": [], "time": []}}, "mouseover": {"state": {"target": ["23", "26", "29", "27", "11", "9", "5", "17", "16", "6", "5", "9", "5", "6", "16", "17", "20", "15", "4", "5", "3", "10", "28", "30", "33", "25", "24", "23", "23", "28", "27", "26", "24", "31", "31", "32"], "time": [1542, 1743, 1842, 2336, 2369, 2602, 3000, 3747, 4077, 4130, 4360, 4874, 5603, 6781, 6881, 7179, 8604, 11972, 13595, 13844, 14657, 14858, 14922, 15122, 15222, 17575, 18305, 18371, 20683, 20946, 21937, 24656, 24839, 24906, 25370, 26829]}, "edge": {"target": [], "time": []}}, "mouseout": {"state": {"target": ["1", "0", "23", "26", "29", "27", "11", "9", "5", "17", "16", "6", "5", "9", "5", "6", "16", "17", "20", "15", "4", "5", "3", "10", "28", "30", "33", "25", "24", "23", "23", "28", "27", "26", "24", "31", "31"], "time": [965, 1539, 1560, 1775, 2281, 2352, 2469, 2933, 3384, 4032, 4098, 4161, 4691, 5455, 6748, 6796, 7046, 8206, 11739, 12121, 13746, 14515, 14774, 14889, 14939, 15138, 17527, 17857, 18356, 18423, 20798, 21788, 24608, 24674, 24855, 25039, 26629]}, "edge": {"target": [], "time": []}}}, "displayed_time": "30.95", "trialTime": 33965, "trial_type": "mouselab-mdp", "trial_index": 18, "time_elapsed": 383610, "internal_node_id": "0.0-4.0-1.0-9.0"}}, {"uniqueid": "w36257203:a14891900", "current_trial": 19, "dateTime": 1691161241488, "trialdata": {"revealed_states": [], "clicked_states": ["29", "9", "17"], "num_clicks_accrued": [0, 0, 0, 0, 0, 0, 0, 0, 0, 0, 0, 0, 0], "stateRewards": ["", -1, 1, -1, 2, 19, 85, -18, 2, -3, -26, 36, 2, 4, 7, -9, -18, 70, 72, -5, 35, -20, -28, 1, -2, -4, -3, -59, -11, -63, -2, -72, 59, -69], "withholdReward": false, "trial_id": "mdp_trial_11", "block": "test", "trialIndex": 12, "score": 67.55, "costs": -6.449999999999999, "simulationMode": [null, null, null, null, null], "rewards": [2, 4, 7, -9, 70], "path": ["0", "0", "12", "13", "14", "15", "17"], "rt": [11047, 387, 204, 143, 121], "actions": ["right", "right", "right", "up", "right"], "actionTimes": [12677, 13587, 14299, 14951, 15591], "queries": {"click": {"state": {"target": ["29", "9", "17"], "time": [2401, 5625, 8677]}, "edge": {"target": [], "time": []}}, "mouseover": {"state": {"target": ["29", "29", "27", "11", "9", "5", "16", "17", "20", "14"], "time": [1727, 2262, 2549, 2585, 2666, 6329, 6578, 6694, 9266, 12191]}, "edge": {"target": [], "time": []}}, "mouseout": {"state": {"target": ["32", "12", "0", "29", "29", "27", "11", "9", "5", "16", "17", "20", "14", "22"], "time": [540, 1126, 1643, 1808, 2533, 2567, 2604, 6247, 6363, 6594, 9084, 12125, 16310, 16384]}, "edge": {"target": [], "time": []}}}, "displayed_time": "16.10", "trialTime": 18378, "trial_type": "mouselab-mdp", "trial_index": 19, "time_elapsed": 402352, "internal_node_id": "0.0-4.0-1.0-10.0"}}, {"uniqueid": "w36257203:a14891900", "current_trial": 20, "dateTime": 1691161268418, "trialdata": {"revealed_states": [], "clicked_states": ["29", "33", "9", "5", "17", "20"], "num_clicks_accrued": [0, 0, 0, 0, 0, 0, 0, 0, 0, 0, 0, 0, 0], "stateRewards": ["", -2, -4, 4, -11, -63, -60, -7, 2, -14, 81, -43, -1, -1, -5, 7, 10, 69, 40, 8, -83, 52, 60, 1, 2, 5, -5, 16, 64, 14, -3, 29, 7, -51], "withholdReward": false, "trial_id": "mdp_trial_12", "block": "test", "trialIndex": 13, "score": 56.1, "costs": -12.9, "simulationMode": [null, null, null, null, null, null], "rewards": [-1, -1, -5, 7, 69], "path": ["0", "0", "12", "13", "14", "15", "17"], "rt": [16862, 297, 133, 176, 346, 132], "actions": ["right", "right", "right", "right", "up", "right"], "actionTimes": [18831, 19133, 19797, 20505, 21383, 22031], "queries": {"click": {"state": {"target": ["29", "33", "9", "5", "17", "20"], "time": [2729, 5894, 8919, 12215, 15142, 18155]}, "edge": {"target": [], "time": []}}, "mouseover": {"state": {"target": ["26", "29", "29", "33", "25", "28", "10", "8", "11", "25", "30", "33", "25", "10", "9", "5", "6", "16", "17", "20"], "time": [1986, 1995, 2507, 3189, 3571, 3619, 3686, 3752, 4117, 4201, 4283, 4432, 6273, 6324, 6820, 9557, 12760, 12823, 13107, 15693]}, "edge": {"target": [], "time": []}}, "mouseout": {"state": {"target": ["0", "26", "29", "29", "33", "25", "28", "10", "8", "11", "25", "30", "33", "25", "10", "9", "5", "6", "16", "17", "20"], "time": [1983, 1992, 2027, 2940, 3521, 3586, 3653, 3719, 3885, 4150, 4249, 4300, 6257, 6290, 6339, 9457, 12757, 12790, 12842, 15594, 22754]}, "edge": {"target": [], "time": []}}}, "displayed_time": "22.55", "trialTime": 26579, "trial_type": "mouselab-mdp", "trial_index": 20, "time_elapsed": 429282, "internal_node_id": "0.0-4.0-1.0-11.0"}}, {"uniqueid": "w36257203:a14891900", "current_trial": 21, "dateTime": 1691161288808, "trialdata": {"revealed_states": [], "clicked_states": ["29", "9", "5"], "num_clicks_accrued": [0, 0, 0, 0, 0, 0, 0, 0, 0, 0, 0, 0, 0], "stateRewards": ["", 2, 3, -3, 4, 72, -28, 34, -12, 57, -64, -15, 2, 1, -4, -15, 2, 49, 31, -1, -42, -58, 31, -2, 1, -2, -13, -75, -19, -22, -6, 61, 10, -56], "withholdReward": false, "trial_id": "mdp_trial_13", "block": "test", "trialIndex": 14, "score": 71.55, "costs": -6.449999999999999, "simulationMode": [null, null, null, null, null, null], "rewards": [2, 3, -3, 4, 72], "path": ["0", "0", "1", "2", "3", "4", "5"], "rt": [7579, 720, 87, 184, 100, 22], "actions": ["up", "up", "up", "up", "right", "up"], "actionTimes": [9153, 9877, 10486, 11197, 11821, 12357], "queries": {"click": {"state": {"target": ["29", "9", "5"], "time": [2281, 5454, 8394]}, "edge": {"target": [], "time": []}}, "mouseover": {"state": {"target": ["24", "25", "29", "8", "9", "9", "3", "7", "7", "4", "5", "2", "1", "12", "22"], "time": [1590, 1626, 2154, 2718, 2880, 3077, 6262, 6312, 6615, 6710, 6843, 9645, 9827, 9860, 9876]}, "edge": {"target": [], "time": []}}, "mouseout": {"state": {"target": ["23", "23", "0", "24", "25", "29", "8", "9", "9", "3", "7", "7", "4", "5", "2", "1", "12", "22", "21", "25", "25", "31"], "time": [158, 743, 1587, 1595, 1746, 2631, 2763, 2945, 6246, 6279, 6395, 6693, 6759, 9445, 9729, 9845, 9871, 9887, 10312, 19092, 19557, 19590]}, "edge": {"target": [], "time": []}}}, "displayed_time": "15.57", "trialTime": 20029, "trial_type": "mouselab-mdp", "trial_index": 21, "time_elapsed": 449672, "internal_node_id": "0.0-4.0-1.0-12.0"}}, {"uniqueid": "w36257203:a14891900", "current_trial": 22, "dateTime": 1691161313793, "trialdata": {"revealed_states": [], "clicked_states": ["29", "17", "9", "20", "5", "22"], "num_clicks_accrued": [0, 0, 0, 0, 0, 0, 0, 0, 0, 0, 0, 0, 0], "stateRewards": ["", -1, 2, 5, -6, 13, -64, -47, 8, -79, -80, -33, 1, 2, -2, -16, 56, -71, -10, 3, 29, 44, 85, -1, 4, 5, 4, -36, -56, 19, 8, 52, -13, -2], "withholdReward": false, "trial_id": "mdp_trial_14", "block": "test", "trialIndex": 15, "score": 76.1, "costs": -12.9, "simulationMode": [null, null, null, null, null, null], "rewards": [1, 2, -2, 3, 85], "path": ["0", "0", "12", "13", "14", "19", "22"], "rt": [17738, 720, 210, 233, 64, 100], "actions": ["right", "right", "right", "right", "down", "left"], "actionTimes": [19244, 19969, 20731, 21498, 22088, 22703], "queries": {"click": {"state": {"target": ["29", "17", "9", "20", "5", "22"], "time": [2331, 5589, 8654, 11963, 14834, 18862]}, "edge": {"target": [], "time": []}}, "mouseover": {"state": {"target": ["23", "26", "29", "27", "11", "9", "16", "17", "16", "4", "9", "5", "6", "16", "20", "20", "4", "5", "7", "12", "22"], "time": [1811, 1922, 2157, 2536, 2569, 2684, 3780, 3945, 5984, 6087, 6349, 9715, 9752, 9781, 9900, 10079, 12535, 12833, 15536, 15917, 18774]}, "edge": {"target": [], "time": []}}, "mouseout": {"state": {"target": ["24", "23", "12", "0", "23", "26", "29", "27", "11", "9", "16", "17", "16", "4", "9", "5", "6", "16", "20", "20", "4", "5", "7", "12", "22"], "time": [64, 681, 982, 1770, 1824, 1974, 2485, 2551, 2618, 3680, 3795, 5918, 6002, 6149, 9443, 9748, 9765, 9798, 9948, 12435, 12617, 15421, 15569, 15969, 21277]}, "edge": {"target": [], "time": []}}}, "displayed_time": "23.22", "trialTime": 24603, "trial_type": "mouselab-mdp", "trial_index": 22, "time_elapsed": 474656, "internal_node_id": "0.0-4.0-1.0-13.0"}}, {"uniqueid": "w36257203:a14891900", "current_trial": 23, "dateTime": 1691161330560, "trialdata": {"revealed_states": [], "clicked_states": ["31"], "num_clicks_accrued": [0, 0, 0, 0, 0, 0, 0, 0, 0, 0, 0, 0, 0], "stateRewards": ["", -1, 2, 7, 8, 75, 67, -11, 6, 52, -17, 38, -1, 4, -8, 14, 74, -37, -17, -12, 52, 55, 71, -2, -1, -5, 2, 21, 6, -88, -14, 64, -61, -47], "withholdReward": false, "trial_id": "mdp_trial_15", "block": "test", "trialIndex": 16, "score": 39.85, "costs": -2.15, "simulationMode": [null, null, null, null, null], "rewards": [-2, -1, -5, -14, 64], "path": ["0", "0", "23", "24", "25", "30", "31"], "rt": [4916, 188, 203, 64, 98], "actions": ["left", "left", "left", "down", "right"], "actionTimes": [6267, 6976, 7687, 8261, 8893], "queries": {"click": {"state": {"target": ["31"], "time": [2637]}, "edge": {"target": [], "time": []}}, "mouseover": {"state": {"target": ["23", "30", "31", "24", "28", "26", "29"], "time": [1430, 1630, 2131, 2853, 3053, 4146, 4428]}, "edge": {"target": [], "time": []}}, "mouseout": {"state": {"target": ["0", "23", "30", "31", "24", "28", "26", "29"], "time": [1415, 1466, 1948, 2787, 2920, 4113, 4179, 10907]}, "edge": {"target": [], "time": []}}}, "displayed_time": "15.35", "trialTime": 16400, "trial_type": "mouselab-mdp", "trial_index": 23, "time_elapsed": 491424, "internal_node_id": "0.0-4.0-1.0-14.0"}}, {"uniqueid": "w36257203:a14891900", "current_trial": 24, "dateTime": 1691161346854, "trialdata": {"revealed_states": [], "clicked_states": ["31"], "num_clicks_accrued": [0, 0, 0, 0, 0, 0, 0, 0, 0, 0, 0, 0, 0], "stateRewards": ["", -1, -3, -3, 1, -38, 2, -53, -2, -1, -81, 70, -1, 1, -5, -9, 46, 15, 35, -1, -22, 38, 59, -2, 4, -8, 13, 1, -83, -43, 4, 76, 13, 48], "withholdReward": false, "trial_id": "mdp_trial_16", "block": "test", "trialIndex": 17, "score": 71.85, "costs": -2.15, "simulationMode": [null, null, null, null, null], "rewards": [-2, 4, -8, 4, 76], "path": ["0", "0", "23", "24", "25", "30", "31"], "rt": [4346, 51, 77, 65, 120], "actions": ["left", "left", "left", "down", "right"], "actionTimes": [5612, 6176, 6783, 7384, 8019], "queries": {"click": {"state": {"target": ["31"], "time": [2240]}, "edge": {"target": [], "time": []}}, "mouseover": {"state": {"target": ["31", "25", "29", "26", "28"], "time": [2064, 2506, 2705, 3270, 3403]}, "edge": {"target": [], "time": []}}, "mouseout": {"state": {"target": ["0", "31", "25", "29", "26", "28", "23"], "time": [1718, 2458, 2539, 3205, 3352, 6487, 6619]}, "edge": {"target": [], "time": []}}}, "displayed_time": "15.27", "trialTime": 15913, "trial_type": "mouselab-mdp", "trial_index": 24, "time_elapsed": 507717, "internal_node_id": "0.0-4.0-1.0-15.0"}}, {"uniqueid": "w36257203:a14891900", "current_trial": 25, "dateTime": 1691161364397, "trialdata": {"revealed_states": [], "clicked_states": ["31", "28", "29"], "num_clicks_accrued": [0, 0, 0, 0, 0, 0, 0, 0, 0, 0, 0, 0, 0], "stateRewards": ["", 2, 3, 8, 11, 25, -80, 6, -4, -56, 84, -23, -2, -4, -3, 4, -51, -9, -61, -15, -64, 67, -35, 1, -1, -7, -6, 83, 59, -15, 12, -79, 56, 41], "withholdReward": false, "trial_id": "mdp_trial_17", "block": "test", "trialIndex": 18, "score": 39.55, "costs": -6.449999999999999, "simulationMode": [null, null, null, null, null, null], "rewards": [1, -1, -7, -6, 59], "path": ["0", "0", "23", "24", "25", "26", "28"], "rt": [7900, 624, 529, 181, 80, 4], "actions": ["left", "left", "left", "left", "up", "right"], "actionTimes": [9167, 9795, 10858, 11573, 12181, 12700], "queries": {"click": {"state": {"target": ["31", "28", "29"], "time": [1894, 5101, 8906]}, "edge": {"target": [], "time": []}}, "mouseover": {"state": {"target": ["31", "31", "24", "28", "10", "27", "29"], "time": [1284, 1757, 2146, 2329, 5595, 5895, 6126]}, "edge": {"target": [], "time": []}}, "mouseout": {"state": {"target": ["0", "31", "31", "24", "28", "10", "27", "29", "25", "30", "30", "33"], "time": [1281, 1552, 2097, 2213, 5480, 5646, 5910, 10222, 10354, 10587, 14110, 14141]}, "edge": {"target": [], "time": []}}}, "displayed_time": "15.27", "trialTime": 17143, "trial_type": "mouselab-mdp", "trial_index": 25, "time_elapsed": 525261, "internal_node_id": "0.0-4.0-1.0-16.0"}}, {"uniqueid": "w36257203:a14891900", "current_trial": 26, "dateTime": 1691161386274, "trialdata": {"revealed_states": [], "clicked_states": ["31", "28", "10", "7"], "num_clicks_accrued": [0, 0, 0, 0, 0, 0, 0, 0, 0, 0, 0, 0, 0], "stateRewards": ["", -1, -2, 8, -6, -79, -6, 87, 9, -5, -66, -38, 2, 2, 5, -6, -82, 74, 85, -8, 67, -30, -15, 1, -2, -2, -2, 87, 64, 49, 7, 2, -38, -9], "withholdReward": false, "trial_id": "mdp_trial_18", "block": "test", "trialIndex": 19, "score": 50.4, "costs": -8.6, "simulationMode": [null, null, null, null, null, null, null], "rewards": [1, -2, -2, -2, 64], "path": ["0", "0", "23", "24", "25", "26", "28"], "rt": [7641, 3623, 567, 370, 90, 759, 82], "actions": ["left", "left", "left", "left", "left", "up", "right"], "actionTimes": [8846, 12473, 13044, 13957, 14571, 15852, 16453], "queries": {"click": {"state": {"target": ["31", "28", "10", "7"], "time": [2280, 5180, 8469, 11429]}, "edge": {"target": [], "time": []}}, "mouseover": {"state": {"target": ["0", "23", "24", "25", "31", "24", "28", "23", "10", "2", "7", "1", "23", "0"], "time": [1231, 1629, 1664, 1725, 2141, 2597, 2668, 5737, 6085, 9717, 10363, 11878, 12917, 12966]}, "edge": {"target": [], "time": []}}, "mouseout": {"state": {"target": ["0", "0", "23", "24", "25", "31", "24", "28", "28", "23", "10", "2", "7", "1", "23", "0", "7", "2", "26", "32"], "time": [716, 1570, 1659, 1692, 2077, 2553, 2635, 5253, 5653, 5804, 9618, 10198, 11724, 11938, 12933, 13017, 17682, 18225, 18264, 21155]}, "edge": {"target": [], "time": []}}}, "displayed_time": "16.97", "trialTime": 21484, "trial_type": "mouselab-mdp", "trial_index": 26, "time_elapsed": 547138, "internal_node_id": "0.0-4.0-1.0-17.0"}}, {"uniqueid": "w36257203:a14891900", "current_trial": 27, "dateTime": 1691161403808, "trialdata": {"revealed_states": [], "clicked_states": ["33", "28"], "num_clicks_accrued": [0, 0, 0, 0, 0, 0, 0, 0, 0, 0, 0, 0, 0], "stateRewards": ["", -2, 2, -1, -6, 22, 6, 6, -5, 70, -42, 65, 1, 3, 5, -6, -67, -9, 3, 14, 7, -62, -13, -2, 4, 1, 16, 42, -21, -52, -8, 32, 53, 81], "withholdReward": false, "trial_id": "mdp_trial_19", "block": "test", "trialIndex": 20, "score": 71.7, "costs": -4.3, "simulationMode": [null, null, null, null, null, null], "rewards": [-2, 4, 1, -8, 81], "path": ["0", "0", "23", "24", "25", "30", "33"], "rt": [4536, 439, 167, 345, 171, 83], "actions": ["left", "left", "left", "left", "down", "left"], "actionTimes": [5956, 6399, 7099, 7974, 8676, 9268], "queries": {"click": {"state": {"target": ["33", "28"], "time": [2274, 5291]}, "edge": {"target": [], "time": []}}, "mouseover": {"state": {"target": ["31", "30", "33", "25", "28", "24", "31"], "time": [1921, 1966, 2050, 2514, 2746, 6179, 6244]}, "edge": {"target": [], "time": []}}, "mouseout": {"state": {"target": ["0", "31", "30", "33", "25", "28", "24", "31", "30", "33"], "time": [1803, 1939, 1999, 2448, 2580, 6113, 6211, 10147, 10192, 10258]}, "edge": {"target": [], "time": []}}}, "displayed_time": "15.42", "trialTime": 17124, "trial_type": "mouselab-mdp", "trial_index": 27, "time_elapsed": 564672, "internal_node_id": "0.0-4.0-1.0-18.0"}}, {"uniqueid": "w36257203:a14891900", "current_trial": 28, "dateTime": 1691161420767, "trialdata": {"revealed_states": [], "clicked_states": ["31", "33"], "num_clicks_accrued": [0, 0, 0, 0, 0, 0, 0, 0, 0, 0, 0, 0, 0], "stateRewards": ["", -1, -4, -3, 1, -45, -67, -24, 14, 32, 22, 22, -1, 1, -5, -7, 72, 84, -79, -5, 19, -40, -2, -1, -2, 8, -3, 84, -25, -28, 11, 64, -66, 77], "withholdReward": false, "trial_id": "mdp_trial_20", "block": "test", "trialIndex": 21, "score": 88.7, "costs": -4.3, "simulationMode": [null, null, null, null, null, null], "rewards": [-1, -2, 8, 11, 77], "path": ["0", "0", "23", "24", "25", "30", "33"], "rt": [4416, 1035, 81, 235, 125, 84], "actions": ["left", "left", "left", "left", "down", "left"], "actionTimes": [5501, 6540, 7156, 7924, 8571, 9177], "queries": {"click": {"state": {"target": ["31", "33"], "time": [1813, 4997]}, "edge": {"target": [], "time": []}}, "mouseover": {"state": {"target": ["0", "23", "24", "31", "33"], "time": [1137, 1211, 1410, 1698, 2290]}, "edge": {"target": [], "time": []}}, "mouseout": {"state": {"target": ["0", "0", "23", "24", "31", "33", "32"], "time": [800, 1163, 1328, 1598, 2008, 5407, 10991]}, "edge": {"target": [], "time": []}}}, "displayed_time": "15.09", "trialTime": 16580, "trial_type": "mouselab-mdp", "trial_index": 28, "time_elapsed": 581631, "internal_node_id": "0.0-4.0-1.0-19.0"}}, {"uniqueid": "w36257203:a14891900", "current_trial": 29, "dateTime": 1691161438686, "trialdata": {"revealed_states": [], "clicked_states": ["31", "33"], "num_clicks_accrued": [0, 0, 0, 0, 0, 0, 0, 0, 0, 0, 0, 0, 0], "stateRewards": ["", 1, -2, -8, -3, 31, -84, -55, -14, 15, -58, 17, -2, -3, 7, 7, -12, 48, 67, 4, -44, -68, 46, 2, 3, -5, -7, 76, 27, 5, 11, 57, 52, 59], "withholdReward": false, "trial_id": "mdp_trial_21", "block": "test", "trialIndex": 22, "score": 65.7, "costs": -4.3, "simulationMode": [null, null, null, null, null, null], "rewards": [2, 3, -5, 11, 59], "path": ["0", "0", "23", "24", "25", "30", "33"], "rt": [5683, 742, 141, 45, 43, 48], "actions": ["left", "left", "left", "left", "down", "left"], "actionTimes": [8284, 9031, 9702, 10269, 10845, 11431], "queries": {"click": {"state": {"target": ["31", "33"], "time": [3137, 6548]}, "edge": {"target": [], "time": []}}, "mouseover": {"state": {"target": ["31", "30", "33", "32"], "time": [2659, 3453, 3552, 7433]}, "edge": {"target": [], "time": []}}, "mouseout": {"state": {"target": ["31", "30", "25", "24", "23", "0", "0", "31", "30", "33", "32"], "time": [168, 666, 1030, 1788, 1834, 1879, 2616, 3420, 3504, 6869, 12076]}, "edge": {"target": [], "time": []}}}, "displayed_time": "16.60", "trialTime": 17519, "trial_type": "mouselab-mdp", "trial_index": 29, "time_elapsed": 599549, "internal_node_id": "0.0-4.0-1.0-20.0"}}, {"uniqueid": "w36257203:a14891900", "current_trial": 30, "dateTime": 1691161455792, "trialdata": {"revealed_states": [], "clicked_states": ["33", "31"], "num_clicks_accrued": [0, 0, 0, 0, 0, 0, 0, 0, 0, 0, 0, 0, 0], "stateRewards": ["", -1, -4, -1, -11, 43, 69, 39, 4, 17, -20, -82, -2, -1, 4, 8, -79, 24, -79, 11, 36, 64, 41, 2, 4, -1, 11, -79, -47, 75, -3, 63, -36, -19], "withholdReward": false, "trial_id": "mdp_trial_22", "block": "test", "trialIndex": 23, "score": 60.7, "costs": -4.3, "simulationMode": [null, null, null, null, null], "rewards": [2, 4, -1, -3, 63], "path": ["0", "0", "23", "24", "25", "30", "31"], "rt": [8341, 264, 123, 83, 63], "actions": ["left", "left", "left", "down", "right"], "actionTimes": [9697, 10485, 11124, 11731, 12309], "queries": {"click": {"state": {"target": ["33", "31"], "time": [2514, 5352]}, "edge": {"target": [], "time": []}}, "mouseover": {"state": {"target": ["24", "25", "33", "30", "31", "24", "28", "28", "24"], "time": [1385, 1414, 2289, 3169, 3483, 5739, 5939, 8894, 9044]}, "edge": {"target": [], "time": []}}, "mouseout": {"state": {"target": ["0", "24", "25", "33", "30", "31", "24", "28", "28", "24"], "time": [914, 1392, 2212, 2771, 3203, 5707, 5788, 8457, 9026, 9059]}, "edge": {"target": [], "time": []}}}, "displayed_time": "15.36", "trialTime": 16699, "trial_type": "mouselab-mdp", "trial_index": 30, "time_elapsed": 616656, "internal_node_id": "0.0-4.0-1.0-21.0"}}, {"uniqueid": "w36257203:a14891900", "current_trial": 31, "dateTime": 1691161473009, "trialdata": {"revealed_states": [], "clicked_states": ["31", "28", "29"], "num_clicks_accrued": [0, 0, 0, 0, 0, 0, 0, 0, 0, 0, 0, 0, 0], "stateRewards": ["", -2, -3, 1, -7, 39, -67, 16, 5, -20, 73, 66, -1, 4, 5, -3, 23, -68, -87, -8, 3, -3, 17, 1, -4, -2, -13, -32, 34, 61, -5, -11, -18, 12], "withholdReward": false, "trial_id": "mdp_trial_23", "block": "test", "trialIndex": 24, "score": 36.55, "costs": -6.449999999999999, "simulationMode": [null, null, null, null, null], "rewards": [1, -4, -2, -13, 61], "path": ["0", "0", "23", "24", "25", "26", "29"], "rt": [10795, 43, 181, 184, 87], "actions": ["left", "left", "left", "up", "left"], "actionTimes": [11986, 12552, 13277, 13970, 14568], "queries": {"click": {"state": {"target": ["31", "28", "29"], "time": [2125, 5438, 8524]}, "edge": {"target": [], "time": []}}, "mouseover": {"state": {"target": ["31", "24", "28", "27", "29", "26", "28", "26", "29", "26", "27", "10", "27"], "time": [1979, 2372, 2721, 3783, 4462, 4843, 4995, 6003, 6086, 9188, 9321, 9669, 11681]}, "edge": {"target": [], "time": []}}, "mouseout": {"state": {"target": ["0", "31", "24", "28", "27", "29", "26", "28", "26", "29", "26", "27", "10"], "time": [1698, 2323, 2392, 3632, 4321, 4827, 4894, 5937, 6055, 9138, 9204, 9504, 11606]}, "edge": {"target": [], "time": []}}}, "displayed_time": "15.19", "trialTime": 16817, "trial_type": "mouselab-mdp", "trial_index": 31, "time_elapsed": 633873, "internal_node_id": "0.0-4.0-1.0-22.0"}}, {"uniqueid": "w36257203:a14891900", "current_trial": 32, "dateTime": 1691161499136, "trialdata": {"revealed_states": [], "clicked_states": ["31", "33", "28", "29", "27", "10"], "num_clicks_accrued": [0, 0, 0, 0, 0, 0, 0, 0, 0, 0, 0, 0, 0], "stateRewards": ["", -1, 2, -2, 13, -56, -28, 10, 14, 53, -80, -29, 1, -3, -3, -14, 14, 9, -40, -9, 18, 18, 48, 1, 1, 1, -9, 64, -39, -9, 7, -52, -78, 7], "withholdReward": false, "trial_id": "mdp_trial_24", "block": "test", "trialIndex": 25, "score": 45.1, "costs": -12.9, "simulationMode": [null, null, null, null, null, null], "rewards": [1, 1, 1, -9, 64], "path": ["0", "0", "23", "24", "25", "26", "27"], "rt": [17704, 542, 4, 466, 134, 45], "actions": ["left", "left", "left", "left", "up", "up"], "actionTimes": [19280, 19828, 20365, 21358, 22014, 22573], "queries": {"click": {"state": {"target": ["31", "33", "28", "29", "27", "10"], "time": [2566, 6038, 9174, 12154, 15364, 18431]}, "edge": {"target": [], "time": []}}, "mouseover": {"state": {"target": ["23", "24", "25", "31", "25", "29", "26", "28", "25", "33", "24", "28", "26", "29", "26", "7", "29", "26", "2", "7", "2", "10", "27", "26", "32", "31", "10"], "time": [1800, 2030, 2082, 2354, 2708, 2907, 3290, 3390, 5684, 5893, 6323, 6572, 9557, 9640, 10772, 11065, 11646, 12741, 12957, 13140, 14084, 14299, 14920, 15677, 16090, 16538, 16836]}, "edge": {"target": [], "time": []}}, "mouseout": {"state": {"target": ["27", "28", "23", "0", "23", "24", "25", "31", "25", "29", "26", "28", "25", "33", "24", "28", "26", "29", "26", "7", "29", "26", "2", "7", "2", "10", "27", "26", "32", "31", "10", "28"], "time": [941, 971, 1022, 1696, 1999, 2063, 2232, 2599, 2775, 3256, 3338, 5564, 5743, 6104, 6422, 9523, 9607, 10768, 10786, 11248, 12221, 12774, 13089, 14035, 14151, 14781, 15643, 15710, 16490, 16555, 18865, 23526]}, "edge": {"target": [], "time": []}}}, "displayed_time": "23.11", "trialTime": 25735, "trial_type": "mouselab-mdp", "trial_index": 32, "time_elapsed": 660000, "internal_node_id": "0.0-4.0-1.0-23.0"}}, {"uniqueid": "w36257203:a14891900", "current_trial": 33, "dateTime": 1691161520986, "trialdata": {"revealed_states": [], "clicked_states": ["31", "28", "33", "29", "32", "27"], "num_clicks_accrued": [0, 0, 0, 0, 0, 0, 0, 0, 0, 0, 0, 0, 0], "stateRewards": ["", -2, -1, -4, -15, -14, -67, 32, -3, -59, 63, 31, 2, -1, -7, -15, 71, -66, -27, -3, -54, -39, 72, 2, 1, 1, -13, 77, -40, 35, -9, 35, 75, 57], "withholdReward": false, "trial_id": "mdp_trial_25", "block": "test", "trialIndex": 26, "score": 55.1, "costs": -12.9, "simulationMode": [null, null, null, null, null, null, null], "rewards": [2, 1, 1, -13, 77], "path": ["0", "0", "23", "24", "25", "26", "27"], "rt": [10601, 3324, 263, 163, 362, 759, 103], "actions": ["left", "left", "left", "left", "left", "up", "up"], "actionTimes": [11729, 15058, 15325, 16019, 16914, 18208, 18824], "queries": {"click": {"state": {"target": ["31", "28", "33", "29", "32", "27"], "time": [1776, 5055, 8196, 11322, 12860, 14668]}, "edge": {"target": [], "time": []}}, "mouseover": {"state": {"target": ["31", "24", "28", "28", "30", "33", "33", "32", "29", "25", "31", "32", "25", "26", "27", "26", "24"], "time": [1643, 2200, 2266, 2565, 5401, 5483, 5566, 8867, 10224, 11817, 11933, 12731, 13592, 13674, 13906, 14969, 15069]}, "edge": {"target": [], "time": []}}, "mouseout": {"state": {"target": ["0", "31", "24", "28", "28", "30", "33", "33", "32", "29", "25", "31", "32", "25", "26", "27", "26", "24"], "time": [1147, 2134, 2249, 2282, 5268, 5434, 5503, 8833, 10010, 11728, 11851, 11984, 13508, 13641, 13808, 14918, 15022, 15142]}, "edge": {"target": [], "time": []}}}, "displayed_time": "19.34", "trialTime": 21473, "trial_type": "mouselab-mdp", "trial_index": 33, "time_elapsed": 681850, "internal_node_id": "0.0-4.0-1.0-24.0"}}, {"uniqueid": "w36257203:a14891900", "current_trial": 34, "dateTime": 1691161542272, "trialdata": {"revealed_states": [], "clicked_states": ["31", "33", "27", "28"], "num_clicks_accrued": [0, 0, 0, 0, 0, 0, 0, 0, 0, 0, 0, 0, 0], "stateRewards": ["", 1, 4, -4, 14, 35, 51, 19, -13, 54, 78, -74, -2, -1, -3, 13, -11, -42, -73, -15, -24, -3, -69, 2, -1, 5, 16, -27, 73, 58, 9, -60, 5, -60], "withholdReward": false, "trial_id": "mdp_trial_26", "block": "test", "trialIndex": 27, "score": 86.4, "costs": -8.6, "simulationMode": [null, null, null, null, null], "rewards": [2, -1, 5, 16, 73], "path": ["0", "0", "23", "24", "25", "26", "28"], "rt": [13767, 4, 724, 86, 42], "actions": ["left", "left", "left", "up", "right"], "actionTimes": [15103, 15628, 16879, 17486, 18054], "queries": {"click": {"state": {"target": ["31", "33", "27", "28"], "time": [1923, 5404, 8600, 11721]}, "edge": {"target": [], "time": []}}, "mouseover": {"state": {"target": ["23", "31", "30", "33", "29", "26", "28", "27", "26", "25", "30", "32", "33", "29", "27", "26", "28", "10", "28", "26", "10"], "time": [1444, 1656, 2139, 2253, 2802, 3150, 3299, 3663, 4012, 4061, 4154, 4328, 5278, 6133, 7991, 9003, 9188, 9804, 10330, 11971, 12668]}, "edge": {"target": [], "time": []}}, "mouseout": {"state": {"target": ["0", "23", "31", "30", "33", "29", "26", "28", "27", "26", "25", "30", "32", "33", "29", "27", "26", "28", "10", "28", "26", "28", "10"], "time": [1413, 1476, 2106, 2204, 2684, 3115, 3200, 3596, 3979, 4045, 4112, 4260, 4906, 5901, 7698, 8837, 9021, 9551, 10197, 11923, 12271, 12304, 17215]}, "edge": {"target": [], "time": []}}}, "displayed_time": "18.59", "trialTime": 20874, "trial_type": "mouselab-mdp", "trial_index": 34, "time_elapsed": 703136, "internal_node_id": "0.0-4.0-1.0-25.0"}}, {"uniqueid": "w36257203:a14891900", "current_trial": 35, "dateTime": 1691161564458, "trialdata": {"revealed_states": [], "clicked_states": ["31", "32"], "num_clicks_accrued": [0, 0, 0, 0, 0, 0, 0, 0, 0, 0, 0, 0, 0], "stateRewards": ["", -2, 4, -5, -12, 85, -24, -18, -15, -78, -22, 26, -1, -1, 2, 14, -45, 52, -23, 7, -33, 24, -6, -2, -4, 5, -7, -16, 36, -39, 5, 71, -87, -23], "withholdReward": false, "trial_id": "mdp_trial_27", "block": "test", "trialIndex": 28, "score": 70.7, "costs": -4.3, "simulationMode": [null, null, null, null, null, null], "rewards": [-2, -4, 5, 5, 71], "path": ["0", "0", "23", "24", "25", "30", "31"], "rt": [4864, 464, 153, 114, 161, 147], "actions": ["left", "left", "left", "left", "down", "right"], "actionTimes": [6291, 6759, 7439, 8080, 8771, 9435], "queries": {"click": {"state": {"target": ["31", "32"], "time": [2345, 5749]}, "edge": {"target": [], "time": []}}, "mouseover": {"state": {"target": ["23", "24", "31", "30", "33", "32"], "time": [1596, 1860, 2208, 3513, 3795, 4143]}, "edge": {"target": [], "time": []}}, "mouseout": {"state": {"target": ["26", "23", "0", "23", "24", "31", "30", "33", "32"], "time": [799, 845, 1558, 1746, 2092, 3431, 3637, 4011, 5811]}, "edge": {"target": [], "time": []}}}, "displayed_time": "15.43", "trialTime": 21767, "trial_type": "mouselab-mdp", "trial_index": 35, "time_elapsed": 725321, "internal_node_id": "0.0-4.0-1.0-26.0"}}, {"uniqueid": "w36257203:a14891900", "current_trial": 36, "dateTime": 1691161594134, "trialdata": {"revealed_states": [], "clicked_states": ["31", "29", "28", "33", "32", "27", "10", "5"], "num_clicks_accrued": [0, 0, 0, 0, 0, 0, 0, 0, 0, 0, 0, 0, 0], "stateRewards": ["", -1, 4, -6, -5, -22, -38, -38, -2, -56, 88, 14, -1, -1, -7, -6, 61, -60, 21, 11, 57, 31, -30, -2, -2, 6, -9, -44, -70, -44, -15, 34, 16, -78], "withholdReward": false, "trial_id": "mdp_trial_28", "block": "test", "trialIndex": 29, "score": 65.8, "costs": -17.2, "simulationMode": [null, null, null, null, null, null], "rewards": [-1, 4, -6, -2, 88], "path": ["0", "0", "1", "2", "3", "8", "10"], "rt": [23569, 542, 130, 48, 30, 24], "actions": ["up", "up", "up", "up", "left", "down"], "actionTimes": [24769, 25316, 25978, 26556, 27117, 27676], "queries": {"click": {"state": {"target": ["31", "29", "28", "33", "32", "27", "10", "5"], "time": [1947, 5040, 8159, 10975, 14185, 17488, 20663, 23610]}, "edge": {"target": [], "time": []}}, "mouseover": {"state": {"target": ["23", "31", "25", "29", "26", "28", "26", "29", "26", "28", "25", "30", "33", "33", "32", "30", "25", "26", "27", "1", "10", "8", "9", "5", "1"], "time": [1255, 1804, 2226, 2292, 3320, 3537, 4432, 4630, 5692, 6289, 8695, 9059, 9208, 9575, 12010, 14432, 14465, 14501, 14614, 18445, 18860, 21080, 21530, 22755, 24366]}, "edge": {"target": [], "time": []}}, "mouseout": {"state": {"target": ["0", "23", "31", "25", "29", "26", "28", "26", "29", "26", "28", "25", "30", "33", "33", "33", "32", "30", "25", "26", "27", "1", "10", "8", "9", "5", "1"], "time": [1215, 1277, 2177, 2244, 3254, 3387, 4199, 4581, 5659, 5791, 8528, 8859, 9108, 9224, 11064, 11546, 14399, 14448, 14481, 14547, 18246, 18661, 20999, 21148, 22457, 24132, 24400]}, "edge": {"target": [], "time": []}}}, "displayed_time": "28.18", "trialTime": 29246, "trial_type": "mouselab-mdp", "trial_index": 36, "time_elapsed": 754998, "internal_node_id": "0.0-4.0-1.0-27.0"}}, {"uniqueid": "w36257203:a14891900", "current_trial": 37, "dateTime": 1691161615553, "trialdata": {"revealed_states": [], "clicked_states": ["31", "29", "28", "33"], "num_clicks_accrued": [0, 0, 0, 0, 0, 0, 0, 0, 0, 0, 0, 0, 0], "stateRewards": ["", -2, 2, 3, -7, -31, -33, 29, -8, -57, 50, -83, -1, -1, 5, 13, -23, -62, 25, 5, -66, -85, 14, 1, -2, -1, 16, 71, 33, -19, -14, 5, -43, 79], "withholdReward": false, "trial_id": "mdp_trial_29", "block": "test", "trialIndex": 30, "score": 54.4, "costs": -8.6, "simulationMode": [null, null, null, null, null], "rewards": [1, -2, -1, -14, 79], "path": ["0", "0", "23", "24", "25", "30", "33"], "rt": [13246, 96, 165, 309, 136], "actions": ["left", "left", "left", "down", "left"], "actionTimes": [14672, 15291, 15991, 16814, 17470], "queries": {"click": {"state": {"target": ["31", "29", "28", "33"], "time": [2024, 5208, 8516, 11290]}, "edge": {"target": [], "time": []}}, "mouseover": {"state": {"target": ["31", "24", "28", "26", "29", "26", "28", "24", "33", "33", "27"], "time": [1723, 2256, 2488, 3151, 3632, 5555, 5754, 9436, 9718, 10215, 12288]}, "edge": {"target": [], "time": []}}, "mouseout": {"state": {"target": ["31", "24", "28", "26", "29", "26", "28", "24", "33", "33", "27", "24"], "time": [2069, 2322, 3118, 3293, 5506, 5656, 9421, 9455, 9802, 12073, 18788, 18879]}, "edge": {"target": [], "time": []}}}, "displayed_time": "17.98", "trialTime": 20977, "trial_type": "mouselab-mdp", "trial_index": 37, "time_elapsed": 776417, "internal_node_id": "0.0-4.0-1.0-28.0"}}, {"uniqueid": "w36257203:a14891900", "current_trial": 38, "dateTime": 1691161644771, "trialdata": {"revealed_states": [], "clicked_states": ["33", "28", "29"], "num_clicks_accrued": [0, 0, 0, 0, 0, 0, 0, 0, 0, 0, 0, 0, 0], "stateRewards": ["", -1, 4, 3, 12, -27, 34, -33, 3, -63, 1, 6, 2, 2, -6, -11, -77, -85, 68, -6, 51, 81, -60, -2, -2, 1, 15, 20, 15, 68, -10, -14, 6, -4], "withholdReward": false, "trial_id": "mdp_trial_30", "block": "test", "trialIndex": 31, "score": 73.55, "costs": -6.449999999999999, "simulationMode": [null, null, null, null, null], "rewards": [-2, -2, 1, 15, 68], "path": ["0", "0", "23", "24", "25", "26", "29"], "rt": [11289, 44, 96, 84, 50], "actions": ["left", "left", "left", "up", "left"], "actionTimes": [12801, 13354, 13985, 14586, 15150], "queries": {"click": {"state": {"target": ["33", "28", "29"], "time": [2217, 5408, 9309]}, "edge": {"target": [], "time": []}}, "mouseover": {"state": {"target": ["31", "30", "33", "25", "28", "24", "31", "32", "31", "25", "29", "11", "9", "9"], "time": [1593, 1696, 2049, 2445, 2592, 5711, 5843, 7287, 8885, 8960, 9228, 9739, 9839, 10154]}, "edge": {"target": [], "time": []}}, "mouseout": {"state": {"target": ["0", "31", "30", "33", "25", "28", "24", "31", "32", "31", "25", "29", "11", "9", "9"], "time": [1527, 1646, 1779, 2269, 2511, 5660, 5793, 6920, 8820, 8943, 8996, 9641, 9756, 9973, 11547]}, "edge": {"target": [], "time": []}}}, "displayed_time": "15.68", "trialTime": 28808, "trial_type": "mouselab-mdp", "trial_index": 38, "time_elapsed": 805635, "internal_node_id": "0.0-4.0-1.0-29.0"}}, {"uniqueid": "w36257203:a14891900", "current_trial": 39, "dateTime": 1691161689648, "trialdata": {"revealed_states": [], "clicked_states": ["33", "28", "29", "31", "32", "10", "9", "5"], "num_clicks_accrued": [0, 0, 0, 0, 0, 0, 0, 0, 0, 0, 0, 0, 0], "stateRewards": ["", -2, 2, 3, -7, 76, 63, 21, 15, 35, -8, -44, 1, 1, -2, -12, 23, 24, 76, -9, 46, 66, -49, -2, -1, 7, 12, 40, -71, -45, -6, 38, -49, 46], "withholdReward": false, "trial_id": "mdp_trial_31", "block": "test", "trialIndex": 32, "score": 54.8, "costs": -17.2, "simulationMode": [null, null, null, null, null], "rewards": [-2, 2, 3, -7, 76], "path": ["0", "0", "1", "2", "3", "4", "5"], "rt": [26582, 371, 58, 125, 61], "actions": ["up", "up", "up", "right", "up"], "actionTimes": [27908, 28796, 29360, 30010, 30592], "queries": {"click": {"state": {"target": ["33", "28", "29", "31", "32", "10", "9", "5"], "time": [2174, 5055, 8440, 11233, 14598, 17805, 20996, 24548]}, "edge": {"target": [], "time": []}}, "mouseover": {"state": {"target": ["31", "30", "33", "25", "28", "26", "29", "26", "28", "26", "29", "25", "31", "30", "32", "30", "25", "26", "10", "8", "10", "8", "9", "9", "7", "4", "5", "4", "7", "6"], "time": [1721, 1904, 1971, 2337, 2518, 2866, 2983, 4607, 4840, 5337, 5520, 8787, 9185, 11805, 11954, 15006, 15075, 15138, 15437, 15785, 15884, 18057, 18205, 19168, 21804, 22285, 22637, 25006, 25684, 27696]}, "edge": {"target": [], "time": []}}, "mouseout": {"state": {"target": ["19", "0", "31", "30", "33", "25", "28", "26", "29", "26", "28", "26", "29", "25", "31", "30", "32", "30", "25", "26", "10", "8", "10", "8", "9", "9", "7", "4", "5", "4", "7", "6"], "time": [11, 1612, 1771, 1938, 2234, 2386, 2817, 2952, 4592, 4674, 5256, 5424, 8753, 8820, 11754, 11821, 14955, 15038, 15090, 15270, 15486, 15817, 18007, 18124, 18471, 21410, 22235, 22417, 24922, 25369, 27527, 43021]}, "edge": {"target": [], "time": []}}}, "displayed_time": "31.11", "trialTime": 44442, "trial_type": "mouselab-mdp", "trial_index": 39, "time_elapsed": 850512, "internal_node_id": "0.0-4.0-1.0-30.0"}}, {"uniqueid": "w36257203:a14891900", "current_trial": 40, "dateTime": 1691161708126, "trialdata": {"revealed_states": [], "clicked_states": ["33", "29", "28"], "num_clicks_accrued": [0, 0, 0, 0, 0, 0, 0, 0, 0, 0, 0, 0, 0], "stateRewards": ["", -1, -2, -8, 8, -27, -82, 19, -14, -62, 4, 1, -2, 2, 6, 10, 73, -51, -2, 2, 73, -48, 54, -1, 2, -4, 11, -25, 47, 86, 15, 33, 43, -42], "withholdReward": false, "trial_id": "mdp_trial_32", "block": "test", "trialIndex": 33, "score": 87.55, "costs": -6.449999999999999, "simulationMode": [null, null, null, null, null, null], "rewards": [-1, 2, -4, 11, 86], "path": ["0", "0", "23", "24", "25", "26", "29"], "rt": [8006, 227, 135, 19, 41, 102], "actions": ["left", "left", "left", "left", "up", "left"], "actionTimes": [9197, 9428, 10109, 10655, 11221, 11845], "queries": {"click": {"state": {"target": ["33", "29", "28"], "time": [1928, 5223, 8045]}, "edge": {"target": [], "time": []}}, "mouseover": {"state": {"target": ["23", "24", "25", "33", "26", "28", "26", "29", "26", "28"], "time": [1243, 1307, 1423, 1811, 2320, 2535, 2867, 3099, 5570, 6963]}, "edge": {"target": [], "time": []}}, "mouseout": {"state": {"target": ["23", "24", "25", "33", "26", "28", "26", "29", "26", "28", "23"], "time": [1269, 1373, 1522, 1973, 2337, 2834, 2984, 5541, 6832, 8739, 16777]}, "edge": {"target": [], "time": []}}}, "displayed_time": "15.19", "trialTime": 18030, "trial_type": "mouselab-mdp", "trial_index": 40, "time_elapsed": 868990, "internal_node_id": "0.0-4.0-1.0-31.0"}}, {"uniqueid": "w36257203:a14891900", "current_trial": 41, "dateTime": 1691161725429, "trialdata": {"revealed_states": [], "clicked_states": ["33", "29"], "num_clicks_accrued": [0, 0, 0, 0, 0, 0, 0, 0, 0, 0, 0, 0, 0], "stateRewards": ["", 1, 1, 4, 11, 83, -66, 18, -16, -23, 5, 25, 1, -3, 1, -12, 18, 24, -86, -11, -64, 36, 40, 2, 1, -6, 13, 55, 29, 72, -2, 81, -72, -41], "withholdReward": false, "trial_id": "mdp_trial_33", "block": "test", "trialIndex": 34, "score": 77.7, "costs": -4.3, "simulationMode": [null, null, null, null, null], "rewards": [2, 1, -6, 13, 72], "path": ["0", "0", "23", "24", "25", "26", "29"], "rt": [8998, 10, 160, 40, 5], "actions": ["left", "left", "left", "up", "left"], "actionTimes": [10787, 11306, 12002, 12562, 13092], "queries": {"click": {"state": {"target": ["33", "29"], "time": [2912, 6809]}, "edge": {"target": [], "time": []}}, "mouseover": {"state": {"target": ["23", "24", "30", "33", "29", "26", "28"], "time": [2404, 2503, 2618, 2668, 3100, 9794, 9824]}, "edge": {"target": [], "time": []}}, "mouseout": {"state": {"target": ["0", "23", "24", "30", "33", "29", "26"], "time": [2377, 2453, 2552, 2634, 3001, 9771, 9810]}, "edge": {"target": [], "time": []}}}, "displayed_time": "15.79", "trialTime": 16844, "trial_type": "mouselab-mdp", "trial_index": 41, "time_elapsed": 886292, "internal_node_id": "0.0-4.0-1.0-32.0"}}, {"uniqueid": "w36257203:a14891900", "current_trial": 42, "dateTime": 1691161758658, "trialdata": {"revealed_states": [], "clicked_states": ["29", "33", "31", "28", "10", "5", "7", "6"], "num_clicks_accrued": [0, 0, 0, 0, 0, 0, 0, 0, 0, 0, 0, 0, 0], "stateRewards": ["", 1, -3, -6, -5, 47, 80, -29, 11, -71, 10, -29, -2, 3, -6, 12, 2, -78, -6, 8, 34, -16, -5, -1, 3, 3, -13, 84, -36, -62, -3, -27, 66, 15], "withholdReward": false, "trial_id": "mdp_trial_34", "block": "test", "trialIndex": 35, "score": 49.8, "costs": -17.2, "simulationMode": [null, null, null, null, null], "rewards": [1, -3, -6, -5, 80], "path": ["0", "0", "1", "2", "3", "4", "6"], "rt": [27649, 73, 92, 25, 188], "actions": ["up", "up", "up", "right", "right"], "actionTimes": [28985, 29575, 30189, 30735, 31446], "queries": {"click": {"state": {"target": ["29", "33", "31", "28", "10", "5", "7", "6"], "time": [2233, 5478, 8744, 12632, 15840, 19106, 22420, 25617]}, "edge": {"target": [], "time": []}}, "mouseover": {"state": {"target": ["23", "25", "26", "29", "33", "30", "31", "24", "28", "10", "3", "5", "7", "7", "8", "9", "6", "4", "3", "9"], "time": [1471, 1769, 1899, 2057, 4307, 5768, 6036, 11940, 12486, 14108, 16462, 16760, 19646, 21955, 22747, 22962, 24123, 25898, 25998, 26162]}, "edge": {"target": [], "time": []}}, "mouseout": {"state": {"target": ["28", "23", "0", "23", "25", "26", "29", "33", "30", "31", "24", "28", "10", "3", "5", "7", "7", "8", "9", "5", "6", "4", "3"], "time": [662, 693, 1438, 1537, 1786, 1996, 4026, 5717, 5949, 11780, 11988, 12863, 16413, 16528, 19315, 20409, 22626, 22846, 23610, 23776, 25866, 25964, 26079]}, "edge": {"target": [], "time": []}}}, "displayed_time": "31.97", "trialTime": 32808, "trial_type": "mouselab-mdp", "trial_index": 42, "time_elapsed": 919522, "internal_node_id": "0.0-4.0-1.0-33.0"}}, {"uniqueid": "w36257203:a14891900", "current_trial": 43, "dateTime": 1691161779154, "trialdata": {"revealed_states": [], "clicked_states": ["31", "33", "28"], "num_clicks_accrued": [0, 0, 0, 0, 0, 0, 0, 0, 0, 0, 0, 0, 0], "stateRewards": ["", 2, 3, 8, 14, 69, -27, 17, 2, -71, -65, -10, 2, -3, 7, 8, 65, -10, 65, -12, 73, -12, 13, -2, -2, 6, 10, -79, -69, -18, 10, -85, 67, 74], "withholdReward": false, "trial_id": "mdp_trial_35", "block": "test", "trialIndex": 36, "score": 79.55, "costs": -6.449999999999999, "simulationMode": [null, null, null, null, null, null], "rewards": [-2, -2, 6, 10, 74], "path": ["0", "0", "23", "24", "25", "30", "33"], "rt": [7521, 174, 132, 99, 584, 65], "actions": ["left", "left", "left", "left", "down", "left"], "actionTimes": [8994, 9172, 9847, 10477, 11592, 12165], "queries": {"click": {"state": {"target": ["31", "33", "28"], "time": [2577, 5448, 8356]}, "edge": {"target": [], "time": []}}, "mouseover": {"state": {"target": ["23", "24", "30", "32", "31", "30", "33", "25", "28"], "time": [1747, 1796, 1945, 2162, 2428, 3024, 3141, 6126, 6325]}, "edge": {"target": [], "time": []}}, "mouseout": {"state": {"target": ["1", "0", "23", "24", "30", "32", "31", "30", "33", "25", "28", "24", "31", "30", "31"], "time": [806, 1731, 1780, 1813, 2028, 2333, 2976, 3090, 6075, 6175, 8992, 9293, 9558, 14895, 18680]}, "edge": {"target": [], "time": []}}}, "displayed_time": "15.47", "trialTime": 20050, "trial_type": "mouselab-mdp", "trial_index": 43, "time_elapsed": 940018, "internal_node_id": "0.0-4.0-1.0-34.0"}}, {"uniqueid": "w36257203:a14891900", "current_trial": 44, "dateTime": 1691161802163, "trialdata": {"revealed_states": [], "clicked_states": ["29", "28", "33"], "num_clicks_accrued": [0, 0, 0, 0, 0, 0, 0, 0, 0, 0, 0, 0, 0], "stateRewards": ["", 2, -3, -8, 14, -7, -51, 73, 2, 36, 36, -43, -1, 3, -4, 1, 6, 87, -65, 15, 61, -42, -83, -1, 3, -2, -7, 30, -48, 35, 13, 26, 60, 78], "withholdReward": false, "trial_id": "mdp_trial_36", "block": "test", "trialIndex": 37, "score": 84.55, "costs": -6.449999999999999, "simulationMode": [null, null, null, null, null], "rewards": [-1, 3, -2, 13, 78], "path": ["0", "0", "23", "24", "25", "30", "33"], "rt": [10968, 106, 158, 895, 28], "actions": ["left", "left", "left", "down", "left"], "actionTimes": [13452, 14077, 14759, 16174, 16716], "queries": {"click": {"state": {"target": ["29", "28", "33"], "time": [3576, 6907, 10104]}, "edge": {"target": [], "time": []}}, "mouseover": {"state": {"target": ["23", "24", "25", "26", "29", "26", "28", "25", "33", "30", "31"], "time": [2538, 2639, 2720, 2991, 3319, 4547, 4678, 7283, 7336, 12024, 12157]}, "edge": {"target": [], "time": []}}, "mouseout": {"state": {"target": ["0", "23", "24", "25", "26", "29", "26", "28", "25", "33", "30", "31"], "time": [1135, 2578, 2688, 2813, 3102, 4531, 4596, 7216, 7320, 12008, 12057, 22346]}, "edge": {"target": [], "time": []}}}, "displayed_time": "17.23", "trialTime": 22591, "trial_type": "mouselab-mdp", "trial_index": 44, "time_elapsed": 963027, "internal_node_id": "0.0-4.0-1.0-35.0"}}, {"uniqueid": "w36257203:a14891900", "current_trial": 45, "dateTime": 1691161843982, "trialdata": {"revealed_states": [], "clicked_states": ["33", "31", "29", "27", "28", "32", "10", "7", "5", "17", "22"], "num_clicks_accrued": [0, 0, 0, 0, 0, 0, 0, 0, 0, 0, 0, 0, 0], "stateRewards": ["", -2, -4, -6, 12, -58, -70, -80, 2, 16, -88, -62, 1, 2, -5, 11, 77, -35, -44, -5, 18, -83, 87, 1, -3, -5, 13, -44, -21, -86, 10, -52, 8, 29], "withholdReward": false, "trial_id": "mdp_trial_37", "block": "test", "trialIndex": 38, "score": 56.35000000000001, "costs": -23.649999999999995, "simulationMode": [null, null, null, null, null], "rewards": [1, 2, -5, -5, 87], "path": ["0", "0", "12", "13", "14", "19", "22"], "rt": [36259, 16, 711, 69, 89], "actions": ["right", "right", "right", "down", "left"], "actionTimes": [37079, 37619, 38853, 39436, 40037], "queries": {"click": {"state": {"target": ["33", "31", "29", "27", "28", "32", "10", "7", "5", "17", "22"], "time": [1477, 4788, 7947, 11171, 14343, 17515, 20803, 23931, 27121, 30304, 33471]}, "edge": {"target": [], "time": []}}, "mouseover": {"state": {"target": ["23", "24", "30", "33", "30", "31", "31", "25", "29", "27", "27", "28", "10", "31", "32", "31", "24", "10", "2", "7", "4", "5", "4", "6", "5", "6", "17", "20", "19", "22", "19", "20"], "time": [877, 900, 1072, 1372, 1903, 2301, 3836, 5054, 5186, 8469, 10277, 12831, 14805, 16081, 16364, 17789, 17839, 18287, 21206, 21855, 24207, 24406, 25041, 25317, 25484, 27391, 27987, 30822, 31205, 31470, 33758, 33974]}, "edge": {"target": [], "time": []}}, "mouseout": {"state": {"target": ["0", "23", "24", "30", "33", "30", "31", "31", "25", "29", "27", "27", "28", "10", "31", "32", "31", "24", "10", "2", "7", "4", "5", "4", "6", "5", "6", "17", "20", "19", "22", "19", "20", "19"], "time": [834, 889, 957, 1156, 1836, 2068, 2484, 5037, 5087, 7984, 10054, 11388, 14523, 15981, 16099, 17739, 17805, 17888, 21173, 21403, 24157, 24240, 25022, 25056, 25335, 27358, 27425, 30524, 31171, 31254, 33725, 33791, 37356, 37556]}, "edge": {"target": [], "time": []}}}, "displayed_time": "40.55", "trialTime": 41404, "trial_type": "mouselab-mdp", "trial_index": 45, "time_elapsed": 1004846, "internal_node_id": "0.0-4.0-1.0-36.0"}}, {"uniqueid": "w36257203:a14891900", "current_trial": 46, "dateTime": 1691161878589, "trialdata": {"revealed_states": [], "clicked_states": ["33", "31", "29", "28", "27", "32"], "num_clicks_accrued": [0, 0, 0, 0, 0, 0, 0, 0, 0, 0, 0, 0, 0], "stateRewards": ["", -2, 1, -5, 2, -68, 80, 33, 10, 67, -59, 20, -1, -3, 3, 14, 74, -2, 24, -16, 63, 80, 46, -1, 4, 6, 12, 83, -38, -43, -4, 43, 14, -79], "withholdReward": false, "trial_id": "mdp_trial_38", "block": "test", "trialIndex": 39, "score": 91.1, "costs": -12.9, "simulationMode": [null, null, null, null, null, null], "rewards": [-1, 4, 6, 12, 83], "path": ["0", "0", "23", "24", "25", "26", "27"], "rt": [18257, 226, 52, 7, 98, 75], "actions": ["left", "left", "left", "left", "up", "up"], "actionTimes": [30056, 30288, 30871, 31444, 32061, 32665], "queries": {"click": {"state": {"target": ["33", "31", "29", "28", "27", "32"], "time": [13064, 16386, 19735, 22949, 26204, 29342]}, "edge": {"target": [], "time": []}}, "mouseover": {"state": {"target": ["0", "23", "24", "25", "33", "25", "24", "28", "24", "31", "30", "25", "29", "26", "28", "25", "30", "32", "30", "25", "26", "27", "26", "32", "32"], "time": [11815, 12118, 12209, 12272, 12713, 13333, 13482, 13582, 16042, 16136, 16916, 16982, 17314, 19999, 20165, 23349, 23432, 23631, 24824, 24907, 24974, 25074, 26589, 26766, 27345]}, "edge": {"target": [], "time": []}}, "mouseout": {"state": {"target": ["23", "23", "0", "23", "24", "0", "23", "24", "25", "33", "25", "24", "28", "24", "31", "30", "25", "29", "26", "28", "25", "30", "32", "30", "25", "26", "27", "26", "32", "32"], "time": [1324, 1552, 2619, 2640, 2656, 12086, 12172, 12243, 12337, 13099, 13415, 13499, 15998, 16105, 16865, 16949, 16998, 19984, 20032, 23184, 23383, 23532, 24775, 24892, 24940, 25024, 26556, 26682, 26930, 33692]}, "edge": {"target": [], "time": []}}}, "displayed_time": "33.19", "trialTime": 34177, "trial_type": "mouselab-mdp", "trial_index": 46, "time_elapsed": 1039453, "internal_node_id": "0.0-4.0-1.0-37.0"}}, {"uniqueid": "w36257203:a14891900", "current_trial": 47, "dateTime": 1691161895038, "trialdata": {"revealed_states": [], "clicked_states": ["27"], "num_clicks_accrued": [0, 0, 0, 0, 0, 0, 0, 0, 0, 0, 0, 0, 0], "stateRewards": ["", -1, 2, -6, 6, 43, 78, 78, -2, 55, -29, -17, -2, -4, 1, -15, 13, 7, -79, 8, -28, -68, 36, -1, -3, 3, -16, 84, -18, 87, 10, 32, 13, -81], "withholdReward": false, "trial_id": "mdp_trial_39", "block": "test", "trialIndex": 40, "score": 64.85, "costs": -2.15, "simulationMode": [null, null, null, null, null], "rewards": [-1, -3, 3, -16, 84], "path": ["0", "0", "23", "24", "25", "26", "27"], "rt": [5053, 8, 6, 102, 113], "actions": ["left", "left", "left", "up", "up"], "actionTimes": [6361, 6889, 7432, 8059, 8685], "queries": {"click": {"state": {"target": ["27"], "time": [2479]}, "edge": {"target": [], "time": []}}, "mouseover": {"state": {"target": ["27", "27", "29"], "time": [1834, 2380, 3144]}, "edge": {"target": [], "time": []}}, "mouseout": {"state": {"target": ["0", "27", "27", "27", "29", "26", "28"], "time": [1732, 1851, 2559, 2978, 11143, 11190, 11588]}, "edge": {"target": [], "time": []}}}, "displayed_time": "15.31", "trialTime": 15993, "trial_type": "mouselab-mdp", "trial_index": 47, "time_elapsed": 1055901, "internal_node_id": "0.0-4.0-1.0-38.0"}}, {"uniqueid": "w36257203:a14891900", "current_trial": 48, "dateTime": 1691161916412, "trialdata": {"revealed_states": [], "clicked_states": ["29", "28", "33"], "num_clicks_accrued": [0, 0, 0, 0, 0, 0, 0, 0, 0, 0, 0, 0, 0], "stateRewards": ["", 2, 3, 6, -5, -74, -53, 17, -12, 46, 44, 18, -2, 4, 1, -8, 22, -23, -49, 9, -45, 55, 81, 1, -1, -7, -16, -83, -71, -45, 2, 51, 82, 61], "withholdReward": false, "trial_id": "mdp_trial_40", "block": "test", "trialIndex": 41, "score": 49.55, "costs": -6.449999999999999, "simulationMode": [null, null, null, null, null], "rewards": [1, -1, -7, 2, 61], "path": ["0", "0", "23", "24", "25", "30", "33"], "rt": [13879, 100, 112, 51, 177], "actions": ["left", "left", "left", "down", "left"], "actionTimes": [15362, 15975, 16599, 17168, 17875], "queries": {"click": {"state": {"target": ["29", "28", "33"], "time": [3444, 8001, 11844]}, "edge": {"target": [], "time": []}}, "mouseover": {"state": {"target": ["23", "24", "26", "29", "26", "28", "26", "28", "25", "33", "30", "31", "31"], "time": [2167, 2528, 2624, 3172, 5554, 5791, 7664, 7914, 8589, 8837, 12590, 12611, 13447]}, "edge": {"target": [], "time": []}}, "mouseout": {"state": {"target": ["0", "23", "24", "26", "29", "26", "28", "26", "28", "25", "33", "30", "31", "31"], "time": [2135, 2508, 2544, 2668, 3526, 5604, 7446, 7831, 8340, 8623, 12586, 12607, 12637, 19893]}, "edge": {"target": [], "time": []}}}, "displayed_time": "18.39", "trialTime": 20906, "trial_type": "mouselab-mdp", "trial_index": 48, "time_elapsed": 1077276, "internal_node_id": "0.0-4.0-1.0-39.0"}}, {"uniqueid": "w36257203:a14891900", "current_trial": 49, "dateTime": 1691161941835, "trialdata": {"rt": 25411, "response": {"Q0": "$-2 to $2", "Q1": "$-16 to $16", "Q2": "$-88 to $88", "Q3": "The cost for clicking on nodes varied between nodes.", "Q4": "Slightly motivated"}, "question_order": [0, 1, 2, 3, 4], "trial_id": "final_quiz_control", "trial_type": "survey-multi-choice", "trial_index": 49, "time_elapsed": 1102699, "internal_node_id": "0.0-4.0-2.0"}}, {"uniqueid": "w36257203:a14891900", "current_trial": 50, "dateTime": 1691162001163, "trialdata": {"rt": 59310, "response": {"Q0": "I randomly clicked on the pointy ends of the web until I found one high enough", "Q1": "Not really, in the beginning I checked the first steps to understand if they mattered, then moved to the last and most important ones", "Q2": "I didn't improve much, I think the value at the ends were random"}, "trial_id": "self_report_control", "trial_type": "survey-text", "trial_index": 50, "time_elapsed": 1162028, "internal_node_id": "0.0-4.0-3.0"}}, {"uniqueid": "w36257203:a14891900", "current_trial": 51, "dateTime": 1691162030883, "trialdata": {"rt": 29708, "response": {"Q0": "Strongly disagree", "Q1": "Strongly disagree", "Q2": "Strongly disagree", "Q3": "Strongly agree", "Q4": "Strongly disagree", "Q5": "Strongly agree", "Q6": "Strongly disagree"}, "question_order": [0, 1, 2, 3, 4, 5, 6], "trial_id": "self_report_2", "trial_type": "survey-multi-choice", "trial_index": 51, "time_elapsed": 1191747, "internal_node_id": "0.0-4.0-4.0"}}, {"uniqueid": "w36257203:a14891900", "current_trial": 52, "dateTime": 1691162050568, "trialdata": {"rt": 19672, "response": {"gender": "female", "age": "24", "colorblind": "0", "effort": "0"}, "trial_type": "survey-html-form", "trial_index": 52, "time_elapsed": 1211433, "internal_node_id": "0.0-4.0-5.0"}}, {"uniqueid": "w36257203:a14891900", "current_trial": 53, "dateTime": 1691162068243, "trialdata": {"rt": 17662, "response": {"Q0": "It was clear", "Q1": "No", "Q2": "Maybe make it a bit faster, 3 seconds feels sluggish"}, "trial_type": "survey-text", "trial_index": 53, "time_elapsed": 1229108, "internal_node_id": "0.0-4.0-6.0"}}, {"uniqueid": "w36257203:a14891900", "current_trial": 54, "dateTime": 1691162071247, "trialdata": {"rt": 2998, "stimulus": "Press 'Finish HIT' in order to reach the completion code. Once the data has been saved, you will receive the code either in this window or in the original browser window where you started the experiment.\n", "response": 0, "trial_type": "html-button-response", "trial_index": 54, "time_elapsed": 1232112, "internal_node_id": "0.0-5.0"}}, {"uniqueid": "w36257203:a14891900", "current_trial": 55, "dateTime": 1691162072255, "trialdata": {"success": true, "trial_type": "fullscreen", "trial_index": 55, "time_elapsed": 1233120, "internal_node_id": "0.0-6.0"}}], "questiondata": {"params": {"CODE": "C6DMOQA6", "MIN_TIME": 14, "inspectCost": 1, "startTime": "Fri Aug 04 2023 16:53:58 GMT+0200 (Ora legale dell\u2019Europa centrale)", "bonusRate": 0.002, "variance": "1_2_4_8_44", "branching": "31123"}, "final_score": 2201.55}, "eventdata": [{"eventtype": "initialized", "value": null, "timestamp": 1691160838073, "interval": 0}, {"eventtype": "window_resize", "value": [1024, 767], "timestamp": 1691160838073, "interval": 0}, {"eventtype": "window_resize", "value": [1024, 767], "timestamp": 1691160838396, "interval": 323}, {"eventtype": "window_resize", "value": [1600, 900], "timestamp": 1691160840704, "interval": 2308}, {"eventtype": "window_resize", "value": [1024, 767], "timestamp": 1691162071513, "interval": 1230809}], "useragent": "Mozilla/5.0 (Windows NT 10.0; Win64; x64) AppleWebKit/537.36 (KHTML, like Gecko) Chrome/115.0.0.0 Safari/537.36", "mode": "live", "id": "w36257203:a14891900", "status": "user data saved", "Beginhit": "2023-08-04 14:53:59.094854", "Beginexp": "2023-08-04 14:54:03.988015", "Endhit": "2023-08-04 15:14:35.308963", "psiturkStatus": 3, "browser": "<redacted>", "platform": "windows", "language": "en-US"}