{"condition": 0, "counterbalance": 0, "assignmentId": "a49724958", "workerId": "w64840678", "hitId": "h17571151", "currenttrial": 55, "bonus": 0, "data": [{"uniqueid": "w64840678:a49724958", "current_trial": 0, "dateTime": 1693660327514, "trialdata": {"success": true, "trial_type": "fullscreen", "trial_index": 0, "time_elapsed": 6961, "internal_node_id": "0.0-0.0"}}, {"uniqueid": "w64840678:a49724958", "current_trial": 1, "dateTime": 1693660377772, "trialdata": {"view_history": [{"page_index": 0, "viewing_time": 50253}], "rt": 50254, "trial_id": "exp_instructions_control", "trial_type": "instructions", "trial_index": 1, "time_elapsed": 57220, "internal_node_id": "0.0-1.0"}}, {"uniqueid": "w64840678:a49724958", "current_trial": 2, "dateTime": 1693660735902, "trialdata": {"view_history": [{"page_index": 0, "viewing_time": 115248}, {"page_index": 1, "viewing_time": 144014}, {"page_index": 2, "viewing_time": 40742}, {"page_index": 3, "viewing_time": 58124}], "rt": 358128, "trial_id": "mouselab_instructions_1_control", "trial_type": "instructions", "trial_index": 2, "time_elapsed": 415350, "internal_node_id": "0.0-2.0-1.0"}}, {"uniqueid": "w64840678:a49724958", "current_trial": 3, "dateTime": 1693660776098, "trialdata": {"revealed_states": [], "clicked_states": ["23", "12", "1", "24", "25", "26", "27"], "num_clicks_accrued": [0, 0, 0, 0, 0, 0, 0, 0, 0, 0, 0, 0, 0], "stateRewards": ["", -10, -10, -10, 10, -10, -10, -10, -10, 10, -10, 10, -10, 10, -10, 10, -10, -10, 10, -10, 10, -10, -10, 10, 10, 10, -10, -10, 10, -10, -10, -10, 10, -10], "withholdReward": false, "trial_id": "practice_1", "block": "test", "trialIndex": 0, "score": 10, "costs": -3.5, "simulationMode": [null, null, null, null, null], "rewards": [10, 10, 10, -10, -10], "path": ["0", "0", "23", "24", "25", "26", "27"], "rt": [27058, 126, 24, 67, 592], "actions": ["left", "left", "left", "up", "up"], "actionTimes": [32631, 33254, 33767, 34360, 35452], "queries": {"click": {"state": {"target": ["23", "12", "1", "24", "25", "26", "27"], "time": [12286, 15151, 18867, 22441, 24178, 26907, 29108]}, "edge": {"target": [], "time": []}}, "mouseover": {"state": {"target": ["23", "0", "12", "1", "28", "24", "25", "26", "27"], "time": [11690, 13840, 14275, 18390, 21374, 22119, 23968, 26024, 28833]}, "edge": {"target": [], "time": []}}, "mouseout": {"state": {"target": ["0", "23", "23", "0", "12", "1", "1", "28", "24", "25", "26", "27", "26", "24"], "time": [10532, 12413, 13824, 13874, 17807, 19924, 20708, 21523, 23007, 24288, 27624, 31178, 38108, 38174]}, "edge": {"target": [], "time": []}}}, "displayed_time": "35.94", "trialTime": 39711, "trial_type": "mouselab-mdp", "trial_index": 3, "time_elapsed": 455545, "internal_node_id": "0.0-2.0-2.0-0.0"}}, {"uniqueid": "w64840678:a49724958", "current_trial": 4, "dateTime": 1693660821747, "trialdata": {"revealed_states": [], "clicked_states": ["23", "24", "12", "13", "1", "2", "3", "8", "11", "27", "29", "33", "30", "25"], "num_clicks_accrued": [0, 0, 0, 0, 0, 0, 0, 0, 0, 0, 0, 0, 0], "stateRewards": ["", -10, -10, -10, -10, -10, -10, -10, -10, -10, 10, -10, -10, -10, 10, 10, -10, -10, -10, -10, 10, -10, 10, -10, -10, 10, -10, -10, 10, -10, -10, -10, -10, 10], "withholdReward": false, "trial_id": "practice_2", "block": "test", "trialIndex": 1, "score": -13.5, "costs": -7, "simulationMode": [null, null, null, null, null], "rewards": [-10, -10, 10, -10, 10], "path": ["0", "0", "23", "24", "25", "30", "33"], "rt": [35737, 126, 527, 97, 36], "actions": ["left", "left", "left", "down", "left"], "actionTimes": [38709, 39337, 40355, 40957, 41496], "queries": {"click": {"state": {"target": ["23", "24", "12", "13", "1", "2", "3", "8", "11", "27", "29", "33", "30", "25"], "time": [7473, 9123, 13025, 14867, 16902, 18273, 19731, 21180, 24105, 27711, 29280, 31564, 33527, 35048]}, "edge": {"target": [], "time": []}}, "mouseover": {"state": {"target": ["0", "23", "23", "23", "24", "25", "25", "12", "13", "12", "13", "1", "2", "3", "8", "11", "27", "27", "26", "27", "26", "29", "26", "25", "33", "30", "25", "31", "24", "23"], "time": [3623, 3723, 6174, 7224, 8123, 9607, 10691, 11674, 12257, 12823, 13507, 16524, 17574, 19191, 20839, 23824, 26207, 26602, 27141, 27557, 28391, 28875, 29624, 31125, 31208, 32274, 34409, 35876, 38141, 38208]}, "edge": {"target": [], "time": []}}, "mouseout": {"state": {"target": ["0", "0", "23", "23", "23", "24", "25", "25", "12", "13", "12", "13", "1", "2", "3", "8", "11", "27", "27", "26", "27", "26", "29", "26", "25", "33", "30", "25", "31", "24", "23", "23"], "time": [2723, 3690, 5907, 6407, 8057, 9524, 9791, 11224, 11807, 12640, 13457, 16290, 17274, 18708, 20526, 22076, 26125, 26224, 27108, 27491, 28174, 28758, 29491, 31092, 31158, 32091, 33924, 35693, 37108, 38158, 38242, 44659]}, "edge": {"target": [], "time": []}}}, "displayed_time": "42.03", "trialTime": 45342, "trial_type": "mouselab-mdp", "trial_index": 4, "time_elapsed": 501194, "internal_node_id": "0.0-2.0-2.0-1.0"}}, {"uniqueid": "w64840678:a49724958", "current_trial": 5, "dateTime": 1693660872013, "trialdata": {"view_history": [{"page_index": 0, "viewing_time": 41675}, {"page_index": 1, "viewing_time": 8588}], "rt": 50263, "trial_id": "mouselab_instructions_2_control", "trial_type": "instructions", "trial_index": 5, "time_elapsed": 551460, "internal_node_id": "0.0-2.0-3.0"}}, {"uniqueid": "w64840678:a49724958", "current_trial": 6, "dateTime": 1693660931475, "trialdata": {"rt": 59458, "response": {"Q0": "The cost for clicking on nodes may vary between nodes.", "Q1": "The better I perform the higher my bonus will be.", "Q2": "No, the amount of cash at each node of the web may be different each time.", "Q3": "To get the highest total score.", "Q4": "Only before moving the spider.", "Q5": "3 seconds"}, "question_order": [0, 1, 2, 3, 4, 5], "correct": {"Q0": "The cost for clicking on nodes may vary between nodes.", "Q1": "The better I perform the higher my bonus will be.", "Q2": "No, the amount of cash at each node of the web may be different each time.", "Q3": "To get the highest total score.", "Q4": "Only before moving the spider.", "Q5": "3 seconds"}, "trial_id": "mouselab_quiz_control", "trial_type": "survey-multi-choice", "trial_index": 6, "time_elapsed": 610923, "internal_node_id": "0.0-2.0-4.0"}}, {"uniqueid": "w64840678:a49724958", "current_trial": 7, "dateTime": 1693660939212, "trialdata": {"rt": 7730, "response": {"Q0": "No"}, "question_order": [0], "trial_id": "repeat_check", "trial_type": "survey-multi-choice", "trial_index": 7, "time_elapsed": 618660, "internal_node_id": "0.0-4.0-0.0"}}, {"uniqueid": "w64840678:a49724958", "current_trial": 8, "dateTime": 1693660964856, "trialdata": {"rt": 25638, "stimulus": "\n<h1> Get ready to start the game! </h1>\n\nThank you for reading the instructions. Get ready start with the 40 rounds of this game.\n<br><br>\nIf you need to take a break, feel free to take one after the end of a round, before continuing to the next one.\n<br><br>\nRemember, the more money the spider gets, the bigger your bonus will be!\n<br><br>\n<div style='text-align: center;'>Press <code>space</code> to begin.</div>\n\n<br><br>\n(If, at any point, the <code>space</code> key does not take you to the next page, click once on the text and try again.)", "response": " ", "trial_id": "mdp_ready", "trial_type": "html-keyboard-response", "trial_index": 8, "time_elapsed": 644303, "internal_node_id": "0.0-6.0-0.0"}}, {"uniqueid": "w64840678:a49724958", "current_trial": 9, "dateTime": 1693661001963, "trialdata": {"revealed_states": [], "clicked_states": ["1", "2", "3", "8", "23", "24", "25", "26", "30", "32"], "num_clicks_accrued": [0, 0, 0, 0, 0, 0, 0, 0, 0, 0, 0, 0, 0], "stateRewards": ["", -1, -3, 1, 13, -64, -29, 12, -4, -33, 50, 56, 2, -3, 4, 11, -64, -58, -55, 12, 47, 38, -25, -2, 2, 5, -15, 85, 7, 84, 10, 8, 57, 26], "withholdReward": false, "trial_id": "mdp_trial_1", "block": "test", "trialIndex": 2, "score": 58, "costs": -14.000000000000002, "simulationMode": [null, null, null, null, null], "rewards": [-2, 2, 5, 10, 57], "path": ["0", "0", "23", "24", "25", "30", "32"], "rt": [26931, 2, 103, 102, 85], "actions": ["left", "left", "left", "down", "down"], "actionTimes": [30605, 31108, 31726, 32325, 32908], "queries": {"click": {"state": {"target": ["1", "2", "3", "8", "23", "24", "25", "26", "30", "32"], "time": [4493, 6638, 9915, 12406, 16099, 18237, 20625, 23270, 26169, 28451]}, "edge": {"target": [], "time": []}}, "mouseover": {"state": {"target": ["1", "2", "3", "8", "3", "8", "8", "11", "9", "28", "24", "23", "24", "25", "25", "26", "30", "32", "30", "32"], "time": [4286, 4787, 7370, 9237, 9670, 10404, 12020, 13321, 15154, 15438, 15505, 15921, 16488, 18754, 20238, 22804, 25521, 25604, 25871, 27859]}, "edge": {"target": [], "time": []}}, "mouseout": {"state": {"target": ["9", "1", "0", "1", "2", "3", "8", "3", "8", "8", "11", "9", "28", "24", "23", "24", "25", "25", "26", "26", "30", "32", "30", "32"], "time": [469, 1136, 4070, 4703, 7020, 9188, 9587, 10187, 11254, 13087, 14214, 15354, 15454, 15537, 16371, 18687, 18854, 22238, 23821, 25487, 25554, 25763, 26754, 28512]}, "edge": {"target": [], "time": []}}}, "displayed_time": "33.42", "trialTime": 36764, "trial_type": "mouselab-mdp", "trial_index": 9, "time_elapsed": 681410, "internal_node_id": "0.0-6.0-1.0-0.0"}}, {"uniqueid": "w64840678:a49724958", "current_trial": 10, "dateTime": 1693661028013, "trialdata": {"revealed_states": [], "clicked_states": ["17", "15", "14", "13", "12"], "num_clicks_accrued": [0, 0, 0, 0, 0, 0, 0, 0, 0, 0, 0, 0, 0], "stateRewards": ["", 1, 4, 7, -16, -84, -6, -46, -12, -7, -49, -26, -1, 2, -4, 2, 22, 37, -64, 1, 88, -13, -10, 1, -4, -2, 5, 2, -10, -34, 9, 66, 55, 38], "withholdReward": false, "trial_id": "mdp_trial_2", "block": "test", "trialIndex": 3, "score": 29, "costs": -7, "simulationMode": [null, null, null, null, null], "rewards": [-1, 2, -4, 2, 37], "path": ["0", "0", "12", "13", "14", "15", "17"], "rt": [12087, 186, 162, 122, 19], "actions": ["right", "right", "right", "up", "right"], "actionTimes": [16154, 16831, 17506, 18133, 18646], "queries": {"click": {"state": {"target": ["17", "15", "14", "13", "12"], "time": [5301, 7974, 9946, 12004, 14056]}, "edge": {"target": [], "time": []}}, "mouseover": {"state": {"target": ["12", "13", "20", "17", "16", "15", "14", "13", "12"], "time": [4458, 4524, 4658, 5024, 6375, 7675, 9458, 10442, 12556]}, "edge": {"target": [], "time": []}}, "mouseout": {"state": {"target": ["31", "23", "0", "12", "13", "20", "17", "16", "15", "14", "14", "13"], "time": [957, 1274, 3823, 4508, 4541, 4841, 5841, 7608, 9059, 10040, 10175, 12393]}, "edge": {"target": [], "time": []}}}, "displayed_time": "19.14", "trialTime": 25734, "trial_type": "mouselab-mdp", "trial_index": 10, "time_elapsed": 707461, "internal_node_id": "0.0-6.0-1.0-1.0"}}, {"uniqueid": "w64840678:a49724958", "current_trial": 11, "dateTime": 1693661061389, "trialdata": {"revealed_states": [], "clicked_states": ["5", "29", "33", "32", "20", "23", "24", "25"], "num_clicks_accrued": [0, 0, 0, 0, 0, 0, 0, 0, 0, 0, 0, 0, 0], "stateRewards": ["", -1, -4, 8, 8, -68, 47, 24, -7, -61, 49, -69, -1, -1, 8, -7, 42, 1, -45, -11, 10, -63, -6, 1, 4, 6, -16, 79, -37, -58, -12, 81, 18, -53], "withholdReward": false, "trial_id": "mdp_trial_3", "block": "test", "trialIndex": 4, "score": 5.799999999999999, "costs": -11.200000000000001, "simulationMode": [null, null, null, null, null], "rewards": [1, 4, 6, -12, 18], "path": ["0", "0", "23", "24", "25", "30", "32"], "rt": [21576, 264, 260, 67, 248], "actions": ["left", "left", "left", "down", "down"], "actionTimes": [23991, 24753, 25516, 26074, 26837], "queries": {"click": {"state": {"target": ["5", "29", "33", "32", "20", "23", "24", "25"], "time": [3424, 5988, 8368, 10401, 14439, 18067, 20071, 22074]}, "edge": {"target": [], "time": []}}, "mouseover": {"state": {"target": ["1", "4", "5", "9", "29", "33", "32", "31", "30", "31", "22", "19", "20", "31", "24", "23", "24", "25"], "time": [2903, 3036, 3119, 4486, 5819, 8204, 9503, 12803, 13037, 13270, 13420, 13570, 13970, 17004, 17420, 17686, 18820, 20837]}, "edge": {"target": [], "time": []}}, "mouseout": {"state": {"target": ["12", "0", "1", "4", "5", "5", "9", "29", "29", "33", "33", "32", "31", "30", "31", "22", "19", "20", "31", "24", "23", "24", "24"], "time": [903, 2819, 2936, 3086, 3532, 4036, 5437, 6081, 6953, 8375, 8886, 10770, 12886, 13142, 13304, 13470, 13859, 14836, 17086, 17603, 18160, 20148, 20520]}, "edge": {"target": [], "time": []}}}, "displayed_time": "27.34", "trialTime": 33037, "trial_type": "mouselab-mdp", "trial_index": 11, "time_elapsed": 740837, "internal_node_id": "0.0-6.0-1.0-2.0"}}, {"uniqueid": "w64840678:a49724958", "current_trial": 12, "dateTime": 1693661080517, "trialdata": {"revealed_states": [], "clicked_states": ["6", "27", "33"], "num_clicks_accrued": [0, 0, 0, 0, 0, 0, 0, 0, 0, 0, 0, 0, 0], "stateRewards": ["", 2, -4, 1, -12, -59, -53, -74, 16, -88, -66, 66, 1, -2, 8, -9, -14, 22, 25, -1, -39, 47, -14, -1, -1, -2, 1, -4, 52, -26, 15, -7, 46, 43], "withholdReward": false, "trial_id": "mdp_trial_4", "block": "test", "trialIndex": 5, "score": 49.8, "costs": -4.199999999999999, "simulationMode": [null, null, null, null, null], "rewards": [-1, -1, -2, 15, 43], "path": ["0", "0", "23", "24", "25", "30", "33"], "rt": [11240, 71, 78, 60, 147], "actions": ["left", "left", "left", "down", "left"], "actionTimes": [12953, 13534, 14108, 14672, 15310], "queries": {"click": {"state": {"target": ["6", "27", "33"], "time": [3840, 6771, 9383]}, "edge": {"target": [], "time": []}}, "mouseover": {"state": {"target": ["4", "6", "7", "2", "10", "27", "26", "33", "32", "30"], "time": [2959, 3610, 5944, 6043, 6093, 6610, 7594, 9176, 11615, 11877]}, "edge": {"target": [], "time": []}}, "mouseout": {"state": {"target": ["25", "24", "23", "4", "6", "7", "2", "10", "27", "26", "33", "32", "30", "25", "28"], "time": [743, 942, 1025, 3143, 4476, 5993, 6077, 6126, 7277, 8760, 10045, 11760, 12193, 17527, 17827]}, "edge": {"target": [], "time": []}}}, "displayed_time": "15.81", "trialTime": 18787, "trial_type": "mouselab-mdp", "trial_index": 12, "time_elapsed": 759965, "internal_node_id": "0.0-6.0-1.0-3.0"}}, {"uniqueid": "w64840678:a49724958", "current_trial": 13, "dateTime": 1693661106922, "trialdata": {"revealed_states": [], "clicked_states": ["18", "15", "14", "13", "12"], "num_clicks_accrued": [0, 0, 0, 0, 0, 0, 0, 0, 0, 0, 0, 0, 0], "stateRewards": ["", 1, -2, -2, 10, -31, -77, 35, 9, -47, 8, 48, -2, 1, -4, -3, -26, -50, 43, -11, 76, -38, 17, 1, -1, 6, 10, 15, -9, 12, -8, 85, 11, -55], "withholdReward": false, "trial_id": "mdp_trial_5", "block": "test", "trialIndex": 6, "score": 28, "costs": -7, "simulationMode": [null, null, null, null, null], "rewards": [-2, 1, -4, -3, 43], "path": ["0", "0", "12", "13", "14", "15", "18"], "rt": [13661, 163, 11, 1, 2], "actions": ["right", "right", "right", "up", "left"], "actionTimes": [19364, 20037, 20550, 21074, 21608], "queries": {"click": {"state": {"target": ["18", "15", "14", "13", "12"], "time": [7930, 10331, 12623, 14609, 17320]}, "edge": {"target": [], "time": []}}, "mouseover": {"state": {"target": ["12", "15", "16", "18", "15", "14", "13", "12"], "time": [6537, 6820, 7170, 7570, 10120, 11004, 13371, 15159]}, "edge": {"target": [], "time": []}}, "mouseout": {"state": {"target": ["18", "12", "0", "12", "15", "16", "18", "15", "14", "13", "12"], "time": [1069, 1502, 6387, 6620, 7003, 7436, 10020, 10771, 13004, 14970, 23722]}, "edge": {"target": [], "time": []}}}, "displayed_time": "22.12", "trialTime": 26068, "trial_type": "mouselab-mdp", "trial_index": 13, "time_elapsed": 786370, "internal_node_id": "0.0-6.0-1.0-4.0"}}, {"uniqueid": "w64840678:a49724958", "current_trial": 14, "dateTime": 1693661130808, "trialdata": {"revealed_states": [], "clicked_states": ["9", "5", "3", "2", "8"], "num_clicks_accrued": [0, 0, 0, 0, 0, 0, 0, 0, 0, 0, 0, 0, 0], "stateRewards": ["", -2, 1, -7, -8, -37, -76, -87, 11, 30, -63, 80, -1, 4, 2, -1, 42, 17, 52, -3, -75, -80, -68, 2, -3, -5, -15, -48, 82, 24, -7, 5, -22, -71], "withholdReward": false, "trial_id": "mdp_trial_6", "block": "test", "trialIndex": 7, "score": 26, "costs": -7, "simulationMode": [null, null, null, null, null], "rewards": [-2, 1, -7, 11, 30], "path": ["0", "0", "1", "2", "3", "8", "9"], "rt": [15199, 237, 98, 22, 31], "actions": ["up", "up", "up", "left", "up"], "actionTimes": [17554, 18302, 18895, 19419, 19944], "queries": {"click": {"state": {"target": ["9", "5", "3", "2", "8"], "time": [3305, 6046, 9458, 11582, 14874]}, "edge": {"target": [], "time": []}}, "mouseover": {"state": {"target": ["1", "2", "3", "9", "5", "5", "3", "3", "3", "2", "1", "8", "8", "10", "2", "1"], "time": [2711, 2811, 2878, 3128, 5544, 5878, 6861, 8994, 9295, 11179, 12445, 14244, 14595, 15899, 17278, 17328]}, "edge": {"target": [], "time": []}}, "mouseout": {"state": {"target": ["1", "2", "3", "9", "9", "5", "5", "3", "3", "3", "2", "2", "1", "2", "8", "8", "10", "2", "1"], "time": [2778, 2861, 2928, 3415, 4278, 5560, 6561, 7295, 9111, 10028, 11691, 12178, 14011, 14095, 14328, 15311, 16413, 17294, 17361]}, "edge": {"target": [], "time": []}}}, "displayed_time": "20.48", "trialTime": 23561, "trial_type": "mouselab-mdp", "trial_index": 14, "time_elapsed": 810255, "internal_node_id": "0.0-6.0-1.0-5.0"}}, {"uniqueid": "w64840678:a49724958", "current_trial": 15, "dateTime": 1693661159003, "trialdata": {"revealed_states": [], "clicked_states": ["6", "29", "27", "32", "24", "25"], "num_clicks_accrued": [0, 0, 0, 0, 0, 0, 0, 0, 0, 0, 0, 0, 0], "stateRewards": ["", -1, 1, -6, -1, 80, 23, 2, -11, 73, -81, 59, 1, 3, 5, -1, -26, 28, -3, 16, -59, -13, -50, -2, -2, 2, 15, -50, 86, 17, -4, 37, 35, 44], "withholdReward": false, "trial_id": "mdp_trial_7", "block": "test", "trialIndex": 8, "score": 20.6, "costs": -8.4, "simulationMode": [null, null, null, null, null], "rewards": [-2, -2, 2, -4, 35], "path": ["0", "0", "23", "24", "25", "30", "32"], "rt": [19462, 173, 679, 27, 99], "actions": ["left", "left", "left", "down", "down"], "actionTimes": [21189, 21876, 23064, 23612, 24201], "queries": {"click": {"state": {"target": ["6", "29", "27", "32", "24", "25"], "time": [3654, 7450, 9902, 12834, 16655, 19052]}, "edge": {"target": [], "time": []}}, "mouseover": {"state": {"target": ["12", "7", "4", "6", "7", "7", "10", "28", "26", "29", "27", "26", "25", "30", "32", "31", "23", "24", "25"], "time": [2532, 2982, 3082, 3432, 5832, 6632, 6882, 6982, 7016, 7150, 9682, 10483, 12016, 12300, 12449, 15767, 15883, 16484, 18900]}, "edge": {"target": [], "time": []}}, "mouseout": {"state": {"target": ["1", "12", "7", "4", "6", "7", "7", "10", "28", "26", "29", "27", "26", "25", "30", "32", "31", "23", "24", "25", "7", "6"], "time": [1065, 2753, 3032, 3216, 4499, 5866, 6649, 6949, 6999, 7099, 7916, 10333, 10599, 12233, 12383, 15399, 15783, 16350, 17100, 19584, 25601, 25650]}, "edge": {"target": [], "time": []}}}, "displayed_time": "24.72", "trialTime": 27859, "trial_type": "mouselab-mdp", "trial_index": 15, "time_elapsed": 838450, "internal_node_id": "0.0-6.0-1.0-6.0"}}, {"uniqueid": "w64840678:a49724958", "current_trial": 16, "dateTime": 1693661184217, "trialdata": {"revealed_states": [], "clicked_states": ["20", "5", "27", "32", "31"], "num_clicks_accrued": [0, 0, 0, 0, 0, 0, 0, 0, 0, 0, 0, 0, 0], "stateRewards": ["", 2, -1, 4, -9, -43, 7, 54, -13, 38, -40, -83, -1, 2, -8, -10, 34, -33, 11, -14, -79, 65, 26, 1, 2, 4, 10, 21, 1, 86, 4, -53, 28, -29], "withholdReward": false, "trial_id": "mdp_trial_8", "block": "test", "trialIndex": 9, "score": 32, "costs": -7, "simulationMode": [null, null, null, null, null], "rewards": [1, 2, 4, 4, 28], "path": ["0", "0", "23", "24", "25", "30", "32"], "rt": [17485, 119, 541, 43, 7], "actions": ["left", "left", "left", "down", "down"], "actionTimes": [19459, 20089, 21126, 21679, 22192], "queries": {"click": {"state": {"target": ["20", "5", "27", "32", "31"], "time": [3800, 6628, 9833, 13014, 16050]}, "edge": {"target": [], "time": []}}, "mouseover": {"state": {"target": ["20", "20", "14", "6", "5", "9", "11", "27", "27", "30", "32", "31", "30", "25"], "time": [3382, 3665, 6049, 6199, 6467, 9082, 9382, 9483, 9732, 12599, 12883, 15567, 18666, 19150]}, "edge": {"target": [], "time": []}}, "mouseout": {"state": {"target": ["31", "31", "23", "0", "20", "20", "14", "6", "5", "9", "11", "27", "27", "30", "32", "31", "30", "25", "24", "23", "0"], "time": [55, 1032, 1481, 2449, 3493, 6016, 6066, 6216, 8433, 9349, 9399, 9499, 10167, 12633, 13051, 17134, 18884, 24033, 24100, 24217, 24334]}, "edge": {"target": [], "time": []}}}, "displayed_time": "22.72", "trialTime": 24905, "trial_type": "mouselab-mdp", "trial_index": 16, "time_elapsed": 863664, "internal_node_id": "0.0-6.0-1.0-7.0"}}, {"uniqueid": "w64840678:a49724958", "current_trial": 17, "dateTime": 1693661206535, "trialdata": {"revealed_states": [], "clicked_states": ["20", "6", "29", "25"], "num_clicks_accrued": [0, 0, 0, 0, 0, 0, 0, 0, 0, 0, 0, 0, 0], "stateRewards": ["", 1, 4, 5, 8, -55, -11, 8, 16, -37, 77, -22, -2, 3, -8, -10, 45, 87, -67, 4, 17, -33, -22, -1, -3, 7, 6, -39, -85, 75, -1, 7, -48, 45], "withholdReward": false, "trial_id": "mdp_trial_9", "block": "test", "trialIndex": 10, "score": 78.4, "costs": -5.6, "simulationMode": [null, null, null, null, null], "rewards": [-1, -3, 7, 6, 75], "path": ["0", "0", "23", "24", "25", "26", "29"], "rt": [14618, 185, 73, 14, 498], "actions": ["left", "left", "left", "up", "left"], "actionTimes": [17146, 17824, 18412, 18936, 19954], "queries": {"click": {"state": {"target": ["20", "6", "29", "25"], "time": [4129, 7271, 10529, 14743]}, "edge": {"target": [], "time": []}}, "mouseover": {"state": {"target": ["12", "18", "15", "17", "20", "19", "14", "18", "6", "7", "2", "10", "27", "29", "25", "24", "23", "24", "25"], "time": [2936, 3020, 3136, 3602, 3952, 6470, 6687, 6820, 7136, 9454, 9489, 9522, 9653, 10303, 13420, 13686, 13736, 14004, 14603]}, "edge": {"target": [], "time": []}}, "mouseout": {"state": {"target": ["0", "12", "18", "15", "17", "20", "19", "14", "18", "6", "7", "2", "10", "27", "29", "25", "24", "23", "24", "25", "25"], "time": [2903, 2952, 3069, 3152, 3669, 6219, 6587, 6786, 6853, 8436, 9487, 9520, 9536, 9703, 10970, 13654, 13703, 13812, 14320, 18954, 21554]}, "edge": {"target": [], "time": []}}}, "displayed_time": "20.49", "trialTime": 21993, "trial_type": "mouselab-mdp", "trial_index": 17, "time_elapsed": 885983, "internal_node_id": "0.0-6.0-1.0-8.0"}}, {"uniqueid": "w64840678:a49724958", "current_trial": 18, "dateTime": 1693661228639, "trialdata": {"revealed_states": [], "clicked_states": ["20", "17", "16", "5"], "num_clicks_accrued": [0, 0, 0, 0, 0, 0, 0, 0, 0, 0, 0, 0, 0], "stateRewards": ["", 1, 2, -6, -13, -51, 22, -4, -12, -44, -12, 6, -2, -2, -2, -14, -46, -4, -77, -2, 36, -79, 41, 2, -4, 2, -6, -55, 59, 70, -5, 39, -19, 24], "withholdReward": false, "trial_id": "mdp_trial_10", "block": "test", "trialIndex": 11, "score": 22.4, "costs": -5.6, "simulationMode": [null, null, null, null, null], "rewards": [-2, -2, -2, -2, 36], "path": ["0", "0", "12", "13", "14", "19", "20"], "rt": [11924, 222, 390, 88, 49], "actions": ["right", "right", "right", "down", "right"], "actionTimes": [16477, 17194, 18077, 18657, 19233], "queries": {"click": {"state": {"target": ["20", "17", "16", "5"], "time": [5694, 7802, 10606, 13304]}, "edge": {"target": [], "time": []}}, "mouseover": {"state": {"target": ["12", "13", "14", "20", "17", "16", "6", "5", "9", "11", "1", "13", "14"], "time": [4999, 5082, 5132, 5582, 6465, 8532, 12216, 12800, 13583, 14199, 15599, 15666, 15699]}, "edge": {"target": [], "time": []}}, "mouseout": {"state": {"target": ["0", "12", "13", "14", "20", "17", "16", "6", "5", "9", "11", "1", "13", "14", "14", "14", "13", "22"], "time": [4965, 5065, 5098, 5165, 5786, 7999, 11451, 12582, 13483, 13633, 14899, 15616, 15682, 16916, 17215, 20800, 21266, 21333]}, "edge": {"target": [], "time": []}}}, "displayed_time": "19.73", "trialTime": 21792, "trial_type": "mouselab-mdp", "trial_index": 18, "time_elapsed": 908087, "internal_node_id": "0.0-6.0-1.0-9.0"}}, {"uniqueid": "w64840678:a49724958", "current_trial": 19, "dateTime": 1693661247518, "trialdata": {"revealed_states": [], "clicked_states": ["11", "32"], "num_clicks_accrued": [0, 0, 0, 0, 0, 0, 0, 0, 0, 0, 0, 0, 0], "stateRewards": ["", 2, -3, -8, 14, -7, -51, 73, 2, 36, 36, -43, -1, 3, -4, 1, 6, 87, -65, 15, 61, -42, -83, -1, 3, -2, -7, 30, -48, 35, 13, 26, 60, 78], "withholdReward": false, "trial_id": "mdp_trial_11", "block": "test", "trialIndex": 12, "score": 70.2, "costs": -2.8, "simulationMode": [null, null, null, null, null], "rewards": [-1, 3, -2, 13, 60], "path": ["0", "0", "23", "24", "25", "30", "32"], "rt": [7534, 151, 321, 71, 33], "actions": ["left", "left", "left", "down", "down"], "actionTimes": [8996, 9669, 10522, 11105, 11634], "queries": {"click": {"state": {"target": ["11", "32"], "time": [3052, 6008]}, "edge": {"target": [], "time": []}}, "mouseover": {"state": {"target": ["7", "4", "9", "11", "27", "26", "29", "32", "33", "30"], "time": [2115, 2182, 2333, 2648, 4117, 4200, 4732, 5849, 6967, 8516]}, "edge": {"target": [], "time": []}}, "mouseout": {"state": {"target": ["0", "7", "4", "9", "11", "11", "27", "26", "29", "32", "33", "30", "31", "23", "0", "12"], "time": [1214, 2148, 2232, 2415, 3060, 4049, 4167, 4483, 5115, 6383, 8466, 17266, 17433, 17766, 17883, 18066]}, "edge": {"target": [], "time": []}}}, "displayed_time": "15.46", "trialTime": 18552, "trial_type": "mouselab-mdp", "trial_index": 19, "time_elapsed": 926965, "internal_node_id": "0.0-6.0-1.0-10.0"}}, {"uniqueid": "w64840678:a49724958", "current_trial": 20, "dateTime": 1693661267821, "trialdata": {"revealed_states": [], "clicked_states": ["33"], "num_clicks_accrued": [0, 0, 0, 0, 0, 0, 0, 0, 0, 0, 0, 0, 0], "stateRewards": ["", -1, -3, -3, 1, -38, 2, -53, -2, -1, -81, 70, -1, 1, -5, -9, 46, 15, 35, -1, -22, 38, 59, -2, 4, -8, 13, 1, -83, -43, 4, 76, 13, 48], "withholdReward": false, "trial_id": "mdp_trial_12", "block": "test", "trialIndex": 13, "score": 44.6, "costs": -1.4, "simulationMode": [null, null, null, null, null], "rewards": [-2, 4, -8, 4, 48], "path": ["0", "0", "23", "24", "25", "30", "33"], "rt": [4563, 276, 89, 91, 145], "actions": ["left", "left", "left", "down", "left"], "actionTimes": [6058, 6836, 7415, 7999, 8637], "queries": {"click": {"state": {"target": ["33"], "time": [3088]}, "edge": {"target": [], "time": []}}, "mouseover": {"state": {"target": ["23", "25", "33", "33", "30", "31"], "time": [2339, 2539, 2689, 2939, 4039, 5706]}, "edge": {"target": [], "time": []}}, "mouseout": {"state": {"target": ["0", "23", "25", "33", "33", "30", "31", "24", "28", "32", "31"], "time": [2306, 2372, 2556, 2755, 3789, 4106, 10789, 10956, 13089, 17357, 17773]}, "edge": {"target": [], "time": []}}}, "displayed_time": "15.50", "trialTime": 19979, "trial_type": "mouselab-mdp", "trial_index": 20, "time_elapsed": 947269, "internal_node_id": "0.0-6.0-1.0-11.0"}}, {"uniqueid": "w64840678:a49724958", "current_trial": 21, "dateTime": 1693661288503, "trialdata": {"revealed_states": [], "clicked_states": ["20"], "num_clicks_accrued": [0, 0, 0, 0, 0, 0, 0, 0, 0, 0, 0, 0, 0], "stateRewards": ["", -1, 3, -4, -14, 78, 67, 2, 13, -32, 28, 39, -2, 1, -4, -4, -4, -42, -86, 11, 64, -29, -32, -1, -4, 2, -7, 5, 68, -61, 2, -21, 85, 50], "withholdReward": false, "trial_id": "mdp_trial_13", "block": "test", "trialIndex": 14, "score": 68.6, "costs": -1.4, "simulationMode": [null, null, null, null, null], "rewards": [-2, 1, -4, 11, 64], "path": ["0", "0", "12", "13", "14", "19", "20"], "rt": [3639, 130, 245, 19, 40], "actions": ["right", "right", "right", "down", "right"], "actionTimes": [6966, 7606, 8355, 8878, 9417], "queries": {"click": {"state": {"target": ["20"], "time": [4085]}, "edge": {"target": [], "time": []}}, "mouseover": {"state": {"target": ["12", "13", "14", "20"], "time": [3408, 3457, 3490, 3891]}, "edge": {"target": [], "time": []}}, "mouseout": {"state": {"target": ["13", "13", "22", "17", "14", "13", "12", "0", "12", "13", "14", "20"], "time": [1106, 1473, 1490, 2240, 2290, 2356, 2423, 2473, 3441, 3474, 3507, 11508]}, "edge": {"target": [], "time": []}}}, "displayed_time": "17.33", "trialTime": 20344, "trial_type": "mouselab-mdp", "trial_index": 21, "time_elapsed": 967950, "internal_node_id": "0.0-6.0-1.0-12.0"}}, {"uniqueid": "w64840678:a49724958", "current_trial": 22, "dateTime": 1693661307788, "trialdata": {"revealed_states": [], "clicked_states": ["5", "11", "33"], "num_clicks_accrued": [0, 0, 0, 0, 0, 0, 0, 0, 0, 0, 0, 0, 0], "stateRewards": ["", 2, -1, 8, -2, -16, 69, -39, -7, -13, -27, -86, 2, -2, 2, 13, -34, -16, -20, -5, 19, 81, 32, -2, -1, 2, -14, 20, 80, 58, 4, 70, 12, 73], "withholdReward": false, "trial_id": "mdp_trial_14", "block": "test", "trialIndex": 15, "score": 71.8, "costs": -4.199999999999999, "simulationMode": [null, null, null, null, null], "rewards": [-2, -1, 2, 4, 73], "path": ["0", "0", "23", "24", "25", "30", "33"], "rt": [8703, 356, 108, 5, 2], "actions": ["left", "left", "left", "down", "left"], "actionTimes": [10780, 11640, 12245, 12757, 13287], "queries": {"click": {"state": {"target": ["5", "11", "33"], "time": [3001, 5485, 8134]}, "edge": {"target": [], "time": []}}, "mouseover": {"state": {"target": ["1", "2", "4", "5", "9", "11", "26", "25", "33", "32"], "time": [2516, 2565, 2666, 2799, 4334, 5149, 7416, 7699, 8033, 10466]}, "edge": {"target": [], "time": []}}, "mouseout": {"state": {"target": ["20", "19", "22", "12", "0", "1", "2", "4", "5", "9", "11", "26", "25", "33", "33", "32", "31"], "time": [899, 1148, 1215, 1531, 2449, 2549, 2599, 2699, 3109, 5099, 6216, 7582, 7732, 8153, 9082, 16899, 17150]}, "edge": {"target": [], "time": []}}}, "displayed_time": "16.08", "trialTime": 18937, "trial_type": "mouselab-mdp", "trial_index": 22, "time_elapsed": 987235, "internal_node_id": "0.0-6.0-1.0-13.0"}}, {"uniqueid": "w64840678:a49724958", "current_trial": 23, "dateTime": 1693661331622, "trialdata": {"revealed_states": [], "clicked_states": ["21", "17", "5", "29"], "num_clicks_accrued": [0, 0, 0, 0, 0, 0, 0, 0, 0, 0, 0, 0, 0], "stateRewards": ["", 2, -4, -4, 13, -80, 62, 13, -11, 57, -13, -44, 1, 4, 3, -4, -29, -88, 15, 16, -58, 68, -45, -1, -3, -1, -9, -44, -86, -19, -7, -36, 59, 66], "withholdReward": false, "trial_id": "mdp_trial_15", "block": "test", "trialIndex": 16, "score": 86.4, "costs": -5.6, "simulationMode": [null, null, null, null, null], "rewards": [1, 4, 3, 16, 68], "path": ["0", "0", "12", "13", "14", "19", "21"], "rt": [14496, 343, 510, 22, 587], "actions": ["right", "right", "right", "down", "down"], "actionTimes": [15800, 16653, 17670, 18199, 19312], "queries": {"click": {"state": {"target": ["21", "17", "5", "29"], "time": [2384, 5243, 8031, 10955]}, "edge": {"target": [], "time": []}}, "mouseover": {"state": {"target": ["12", "13", "20", "21", "20", "17", "16", "6", "5", "5", "9", "11", "27", "29", "25", "24", "23", "0"], "time": [1773, 1805, 1872, 2272, 4306, 4972, 6023, 7289, 7489, 7922, 8706, 10073, 10439, 10739, 12906, 12939, 12989, 13040]}, "edge": {"target": [], "time": []}}, "mouseout": {"state": {"target": ["0", "12", "13", "20", "21", "20", "17", "16", "6", "5", "5", "9", "11", "27", "29", "25", "24", "23", "0"], "time": [1705, 1788, 1822, 1905, 3089, 4889, 5352, 7189, 7323, 7555, 8110, 9973, 10122, 10689, 12323, 12922, 12972, 13022, 13073]}, "edge": {"target": [], "time": []}}}, "displayed_time": "19.81", "trialTime": 23460, "trial_type": "mouselab-mdp", "trial_index": 23, "time_elapsed": 1011069, "internal_node_id": "0.0-6.0-1.0-14.0"}}, {"uniqueid": "w64840678:a49724958", "current_trial": 24, "dateTime": 1693661350724, "trialdata": {"revealed_states": [], "clicked_states": ["5", "29", "21"], "num_clicks_accrued": [0, 0, 0, 0, 0, 0, 0, 0, 0, 0, 0, 0, 0], "stateRewards": ["", 1, 1, 7, -11, 80, -20, -53, -14, 3, 31, 27, 2, -1, -8, -10, 33, 41, 86, 9, 78, -37, -13, -1, -2, -6, -8, -80, 75, 4, -16, -49, -74, 24], "withholdReward": false, "trial_id": "mdp_trial_16", "block": "test", "trialIndex": 17, "score": 73.8, "costs": -4.199999999999999, "simulationMode": [null, null, null, null, null], "rewards": [1, 1, 7, -11, 80], "path": ["0", "0", "1", "2", "3", "4", "5"], "rt": [10797, 236, 3, 9, 445], "actions": ["up", "up", "up", "right", "up"], "actionTimes": [12778, 13506, 14007, 14548, 15516], "queries": {"click": {"state": {"target": ["5", "29", "21"], "time": [3421, 6384, 9460]}, "edge": {"target": [], "time": []}}, "mouseover": {"state": {"target": ["18", "16", "16", "6", "5", "8", "11", "27", "29", "33", "32", "21", "14", "7"], "time": [2651, 2701, 2867, 2934, 3117, 4268, 4835, 5418, 5932, 7686, 8368, 9251, 11935, 12385]}, "edge": {"target": [], "time": []}}, "mouseout": {"state": {"target": ["14", "13", "12", "0", "18", "16", "16", "6", "5", "5", "8", "11", "27", "29", "29", "33", "32", "21", "14", "7", "7", "7"], "time": [850, 983, 1084, 2484, 2667, 2751, 2918, 2968, 3561, 3902, 4701, 4935, 5585, 6477, 6868, 7803, 8468, 9556, 12118, 12468, 13001, 18225]}, "edge": {"target": [], "time": []}}}, "displayed_time": "16.02", "trialTime": 18723, "trial_type": "mouselab-mdp", "trial_index": 24, "time_elapsed": 1030171, "internal_node_id": "0.0-6.0-1.0-15.0"}}, {"uniqueid": "w64840678:a49724958", "current_trial": 25, "dateTime": 1693661373937, "trialdata": {"revealed_states": [], "clicked_states": ["21", "16", "9", "19"], "num_clicks_accrued": [0, 0, 0, 0, 0, 0, 0, 0, 0, 0, 0, 0, 0], "stateRewards": ["", -2, 3, -1, 2, -72, 63, 20, -1, 62, -66, 39, -2, 3, -6, 14, 22, 47, 1, 8, -49, -1, -41, 2, 2, -6, -16, -64, -60, -34, 16, 54, 22, -7], "withholdReward": false, "trial_id": "mdp_trial_17", "block": "test", "trialIndex": 18, "score": 55.4, "costs": -5.6, "simulationMode": [null, null, null, null, null], "rewards": [-2, 3, -1, -1, 62], "path": ["0", "0", "1", "2", "3", "8", "9"], "rt": [14860, 126, 168, 555, 38], "actions": ["up", "up", "up", "left", "up"], "actionTimes": [17609, 18242, 18900, 19972, 20506], "queries": {"click": {"state": {"target": ["21", "16", "9", "19"], "time": [3812, 6529, 9846, 13658]}, "edge": {"target": [], "time": []}}, "mouseover": {"state": {"target": ["12", "22", "19", "21", "17", "17", "16", "3", "9", "8", "1", "13", "14", "19", "13", "12", "1"], "time": [3196, 3263, 3313, 3446, 5297, 6034, 6263, 9413, 9696, 12380, 12830, 13030, 13097, 13464, 16963, 17280, 17414]}, "edge": {"target": [], "time": []}}, "mouseout": {"state": {"target": ["0", "0", "12", "22", "19", "21", "17", "17", "16", "3", "9", "8", "1", "13", "14", "19", "13", "12", "1", "1"], "time": [1246, 3164, 3213, 3279, 3413, 4446, 5663, 6230, 6846, 9496, 11100, 12496, 12863, 13063, 13164, 16780, 17247, 17296, 18213, 22247]}, "edge": {"target": [], "time": []}}}, "displayed_time": "21.00", "trialTime": 22863, "trial_type": "mouselab-mdp", "trial_index": 25, "time_elapsed": 1053384, "internal_node_id": "0.0-6.0-1.0-16.0"}}, {"uniqueid": "w64840678:a49724958", "current_trial": 26, "dateTime": 1693661405197, "trialdata": {"revealed_states": [], "clicked_states": ["27", "32", "21", "16", "6", "9", "33", "20"], "num_clicks_accrued": [0, 0, 0, 0, 0, 0, 0, 0, 0, 0, 0, 0, 0], "stateRewards": ["", 2, 4, 7, -6, -76, -81, 2, 5, -66, -3, 36, -2, -4, 6, -2, -69, 4, -49, -6, 67, 38, -67, 2, 1, 1, 6, -68, -21, 52, -16, -16, 6, -70], "withholdReward": false, "trial_id": "mdp_trial_18", "block": "test", "trialIndex": 19, "score": 49.8, "costs": -11.200000000000001, "simulationMode": [null, null, null, null, null], "rewards": [-2, -4, 6, -6, 67], "path": ["0", "0", "12", "13", "14", "19", "20"], "rt": [22738, 204, 187, 19, 66], "actions": ["right", "right", "right", "down", "right"], "actionTimes": [24206, 24917, 25601, 26134, 26712], "queries": {"click": {"state": {"target": ["27", "32", "21", "16", "6", "9", "33", "20"], "time": [3035, 5497, 7993, 11343, 13715, 15905, 18745, 21477]}, "edge": {"target": [], "time": []}}, "mouseover": {"state": {"target": ["26", "27", "27", "26", "33", "33", "32", "21", "20", "17", "17", "16", "6", "4", "9", "11", "26", "29", "33", "19", "20"], "time": [2393, 2477, 2860, 3394, 3663, 4641, 5210, 7744, 9882, 10628, 11022, 11144, 13361, 14477, 15694, 17094, 17811, 18211, 18545, 21110, 21328]}, "edge": {"target": [], "time": []}}, "mouseout": {"state": {"target": ["0", "26", "27", "27", "26", "33", "33", "32", "21", "20", "17", "17", "16", "6", "4", "9", "11", "26", "29", "33", "19", "20", "19"], "time": [1894, 2460, 2527, 3344, 3427, 3712, 5061, 6030, 8378, 10444, 10827, 11084, 13294, 14244, 14510, 16427, 17127, 17895, 18362, 20594, 21227, 23622, 30545]}, "edge": {"target": [], "time": []}}}, "displayed_time": "27.21", "trialTime": 30837, "trial_type": "mouselab-mdp", "trial_index": 26, "time_elapsed": 1084645, "internal_node_id": "0.0-6.0-1.0-17.0"}}, {"uniqueid": "w64840678:a49724958", "current_trial": 27, "dateTime": 1693661423445, "trialdata": {"revealed_states": [], "clicked_states": ["16", "9", "33"], "num_clicks_accrued": [0, 0, 0, 0, 0, 0, 0, 0, 0, 0, 0, 0, 0], "stateRewards": ["", 2, -4, 7, 3, 23, -42, 4, 7, -81, -33, 7, -2, -4, 5, -1, 50, -57, -14, -13, -14, 44, 55, -2, -2, 5, -2, 33, 1, 57, -13, -7, 58, 87], "withholdReward": false, "trial_id": "mdp_trial_19", "block": "test", "trialIndex": 20, "score": 70.8, "costs": -4.199999999999999, "simulationMode": [null, null, null, null, null], "rewards": [-2, -2, 5, -13, 87], "path": ["0", "0", "23", "24", "25", "30", "33"], "rt": [9323, 195, 11, 16, 19], "actions": ["left", "left", "left", "down", "left"], "actionTimes": [10929, 11632, 12153, 12670, 13189], "queries": {"click": {"state": {"target": ["16", "9", "33"], "time": [2722, 5424, 7905]}, "edge": {"target": [], "time": []}}, "mouseover": {"state": {"target": ["18", "16", "6", "4", "8", "9", "9", "11", "27", "29", "33"], "time": [2352, 2502, 3486, 3636, 4185, 4785, 5235, 6135, 6484, 6751, 7784]}, "edge": {"target": [], "time": []}}, "mouseout": {"state": {"target": ["22", "0", "18", "16", "6", "4", "8", "9", "9", "11", "27", "29", "33", "33", "30", "24", "23", "1", "17", "15", "18"], "time": [717, 2153, 2385, 2756, 3569, 3702, 4752, 4834, 5435, 6152, 6519, 7035, 7914, 9168, 16652, 16785, 16818, 16869, 17402, 17468, 17535]}, "edge": {"target": [], "time": []}}}, "displayed_time": "15.61", "trialTime": 17892, "trial_type": "mouselab-mdp", "trial_index": 27, "time_elapsed": 1102893, "internal_node_id": "0.0-6.0-1.0-18.0"}}, {"uniqueid": "w64840678:a49724958", "current_trial": 28, "dateTime": 1693661441698, "trialdata": {"revealed_states": [], "clicked_states": ["20", "9", "16", "33"], "num_clicks_accrued": [0, 0, 0, 0, 0, 0, 0, 0, 0, 0, 0, 0, 0], "stateRewards": ["", -2, -3, -6, -7, 9, 16, 65, 5, -41, 20, -25, -1, -4, 1, -11, -49, -4, 71, 1, 39, -62, 52, -2, -3, 7, -9, -28, -70, 84, 8, 24, -58, 82], "withholdReward": false, "trial_id": "mdp_trial_20", "block": "test", "trialIndex": 21, "score": 86.4, "costs": -5.6, "simulationMode": [null, null, null, null, null], "rewards": [-2, -3, 7, 8, 82], "path": ["0", "0", "23", "24", "25", "30", "33"], "rt": [11732, 212, 609, 18, 11], "actions": ["left", "left", "left", "down", "left"], "actionTimes": [13121, 13875, 14986, 15514, 16057], "queries": {"click": {"state": {"target": ["20", "9", "16", "33"], "time": [2289, 5021, 7454, 9938]}, "edge": {"target": [], "time": []}}, "mouseover": {"state": {"target": ["18", "15", "14", "20", "14", "18", "2", "9", "11", "27", "26", "26", "10", "7", "16", "1", "23", "24", "25", "33", "29"], "time": [1658, 1824, 1891, 2057, 4124, 4375, 4474, 4825, 5742, 5958, 6075, 6542, 6725, 6958, 7258, 8058, 8445, 9241, 9358, 9824, 12291]}, "edge": {"target": [], "time": []}}, "mouseout": {"state": {"target": ["12", "0", "18", "15", "14", "20", "14", "18", "2", "9", "9", "11", "27", "26", "26", "10", "7", "16", "1", "23", "24", "25", "33", "29"], "time": [657, 1415, 1741, 1857, 1925, 3007, 4208, 4408, 4492, 5113, 5475, 5759, 6025, 6208, 6624, 6791, 6992, 7758, 8208, 8941, 9325, 9424, 9961, 12858]}, "edge": {"target": [], "time": []}}}, "displayed_time": "16.58", "trialTime": 17884, "trial_type": "mouselab-mdp", "trial_index": 28, "time_elapsed": 1121146, "internal_node_id": "0.0-6.0-1.0-19.0"}}, {"uniqueid": "w64840678:a49724958", "current_trial": 29, "dateTime": 1693661460489, "trialdata": {"revealed_states": [], "clicked_states": ["16", "33"], "num_clicks_accrued": [0, 0, 0, 0, 0, 0, 0, 0, 0, 0, 0, 0, 0], "stateRewards": ["", -1, -4, -1, -5, -28, -23, -15, -15, -38, 59, -87, 2, 2, -5, 9, -55, -39, -71, -6, 85, -85, -11, -1, -2, 5, -10, 1, 25, 41, -4, 69, -35, 86], "withholdReward": false, "trial_id": "mdp_trial_21", "block": "test", "trialIndex": 22, "score": 81.2, "costs": -2.8, "simulationMode": [null, null, null, null, null], "rewards": [-1, -2, 5, -4, 86], "path": ["0", "0", "23", "24", "25", "30", "33"], "rt": [7587, 325, 79, 569, 103], "actions": ["left", "left", "left", "down", "left"], "actionTimes": [10244, 11078, 11648, 12719, 13338], "queries": {"click": {"state": {"target": ["16", "33"], "time": [4524, 7200]}, "edge": {"target": [], "time": []}}, "mouseover": {"state": {"target": ["18", "15", "16", "16", "7", "2", "28", "26", "29", "33", "30", "33", "32"], "time": [3415, 3466, 4032, 4382, 5499, 5682, 6035, 6166, 6298, 6682, 6748, 6982, 9582]}, "edge": {"target": [], "time": []}}, "mouseout": {"state": {"target": ["29", "28", "1", "18", "15", "16", "16", "7", "2", "28", "26", "29", "33", "30", "33", "32", "8"], "time": [1634, 1765, 2148, 3432, 3532, 4148, 4620, 5582, 5799, 6082, 6266, 6332, 6715, 6765, 8849, 14316, 18116]}, "edge": {"target": [], "time": []}}}, "displayed_time": "16.66", "trialTime": 18414, "trial_type": "mouselab-mdp", "trial_index": 29, "time_elapsed": 1139936, "internal_node_id": "0.0-6.0-1.0-20.0"}}, {"uniqueid": "w64840678:a49724958", "current_trial": 30, "dateTime": 1693661479743, "trialdata": {"revealed_states": [], "clicked_states": ["21", "9", "32", "20"], "num_clicks_accrued": [0, 0, 0, 0, 0, 0, 0, 0, 0, 0, 0, 0, 0], "stateRewards": ["", 2, 4, 7, 7, -79, -2, -21, -5, -53, 47, -21, 1, -3, -1, 7, 83, 7, 84, -7, 80, -37, 69, 2, -4, 5, 2, 4, -20, -30, 7, 71, 44, -81], "withholdReward": false, "trial_id": "mdp_trial_22", "block": "test", "trialIndex": 23, "score": 64.4, "costs": -5.6, "simulationMode": [null, null, null, null, null], "rewards": [1, -3, -1, -7, 80], "path": ["0", "0", "12", "13", "14", "19", "20"], "rt": [11190, 110, 103, 495, 39], "actions": ["right", "right", "right", "down", "right"], "actionTimes": [13008, 13626, 14219, 15227, 15787], "queries": {"click": {"state": {"target": ["21", "9", "32", "20"], "time": [2957, 5521, 7907, 10391]}, "edge": {"target": [], "time": []}}, "mouseover": {"state": {"target": ["12", "13", "19", "21", "19", "13", "2", "8", "9", "11", "27", "25", "30", "32", "20"], "time": [2229, 2295, 2395, 2646, 4862, 4912, 5012, 5163, 5362, 6146, 6396, 7446, 7512, 7762, 10096]}, "edge": {"target": [], "time": []}}, "mouseout": {"state": {"target": ["10", "1", "12", "13", "19", "21", "19", "13", "2", "8", "9", "11", "27", "25", "30", "32", "20", "19"], "time": [295, 928, 2279, 2312, 2579, 3362, 4896, 4946, 5046, 5312, 5996, 6230, 6682, 7480, 7596, 8019, 10597, 17546]}, "edge": {"target": [], "time": []}}}, "displayed_time": "16.28", "trialTime": 18882, "trial_type": "mouselab-mdp", "trial_index": 30, "time_elapsed": 1159191, "internal_node_id": "0.0-6.0-1.0-21.0"}}, {"uniqueid": "w64840678:a49724958", "current_trial": 31, "dateTime": 1693661497841, "trialdata": {"revealed_states": [], "clicked_states": ["9", "33"], "num_clicks_accrued": [0, 0, 0, 0, 0, 0, 0, 0, 0, 0, 0, 0, 0], "stateRewards": ["", 1, 2, 3, 16, 63, -25, 16, -4, -14, 82, -66, -1, -3, -3, -11, -14, 19, 46, 3, -34, -82, 66, -2, -3, 4, -5, -63, 77, -37, -1, -45, -41, 84], "withholdReward": false, "trial_id": "mdp_trial_23", "block": "test", "trialIndex": 24, "score": 79.2, "costs": -2.8, "simulationMode": [null, null, null, null, null], "rewards": [-2, -3, 4, -1, 84], "path": ["0", "0", "23", "24", "25", "30", "33"], "rt": [6941, 229, 320, 54, 76], "actions": ["left", "left", "left", "down", "left"], "actionTimes": [8274, 9011, 9834, 10403, 10974], "queries": {"click": {"state": {"target": ["9", "33"], "time": [2447, 5731]}, "edge": {"target": [], "time": []}}, "mouseover": {"state": {"target": ["1", "2", "9", "9", "11", "27", "26", "33", "33", "32"], "time": [1729, 1795, 2045, 2329, 3095, 3247, 3479, 5199, 5613, 6513]}, "edge": {"target": [], "time": []}}, "mouseout": {"state": {"target": ["0", "1", "2", "9", "9", "11", "27", "26", "33", "33", "32", "31", "31", "31", "31", "23", "23"], "time": [1496, 1779, 1845, 2129, 2979, 3179, 3347, 3679, 5296, 6163, 7096, 8629, 8955, 9246, 11346, 14563, 16580]}, "edge": {"target": [], "time": []}}}, "displayed_time": "15.33", "trialTime": 17729, "trial_type": "mouselab-mdp", "trial_index": 31, "time_elapsed": 1177289, "internal_node_id": "0.0-6.0-1.0-22.0"}}, {"uniqueid": "w64840678:a49724958", "current_trial": 32, "dateTime": 1693661522622, "trialdata": {"revealed_states": [], "clicked_states": ["5", "29", "32", "20", "16", "17"], "num_clicks_accrued": [0, 0, 0, 0, 0, 0, 0, 0, 0, 0, 0, 0, 0], "stateRewards": ["", -1, -3, 4, -10, -5, 79, -87, -2, 53, 29, -20, -2, -1, -5, 10, 27, 86, 46, -16, -29, 40, 3, 2, 4, -1, -6, 37, 79, -29, 7, 86, -62, 29], "withholdReward": false, "trial_id": "mdp_trial_24", "block": "test", "trialIndex": 25, "score": 79.6, "costs": -8.4, "simulationMode": [null, null, null, null, null], "rewards": [-2, -1, -5, 10, 86], "path": ["0", "0", "12", "13", "14", "15", "17"], "rt": [16732, 136, 496, 95, 455], "actions": ["right", "right", "right", "up", "right"], "actionTimes": [18586, 19228, 20236, 20855, 21812], "queries": {"click": {"state": {"target": ["5", "29", "32", "20", "16", "17"], "time": [3568, 5442, 7909, 10296, 13435, 15720]}, "edge": {"target": [], "time": []}}, "mouseover": {"state": {"target": ["12", "15", "5", "5", "8", "11", "27", "26", "29", "32", "20", "19", "22", "13", "15", "16", "16", "17", "15", "13", "12", "12", "13"], "time": [2471, 2655, 3087, 3454, 4515, 4621, 4871, 4988, 5305, 7604, 10055, 10738, 10845, 12271, 12454, 12671, 13321, 15022, 16455, 17088, 17772, 18288, 18372]}, "edge": {"target": [], "time": []}}, "mouseout": {"state": {"target": ["0", "12", "15", "5", "5", "5", "8", "11", "27", "26", "29", "32", "20", "19", "22", "13", "15", "16", "16", "16", "17", "15", "13", "12", "12", "13", "22"], "time": [1553, 2539, 2738, 3137, 3628, 4239, 4588, 4655, 4938, 5038, 6188, 8454, 10655, 10824, 10906, 12355, 12604, 12755, 13958, 14071, 15828, 16722, 17446, 17856, 18322, 19005, 24055]}, "edge": {"target": [], "time": []}}}, "displayed_time": "22.31", "trialTime": 24400, "trial_type": "mouselab-mdp", "trial_index": 32, "time_elapsed": 1202069, "internal_node_id": "0.0-6.0-1.0-23.0"}}, {"uniqueid": "w64840678:a49724958", "current_trial": 33, "dateTime": 1693661559207, "trialdata": {"revealed_states": [], "clicked_states": ["27", "33", "21", "20", "16", "9", "32", "31", "29", "17"], "num_clicks_accrued": [0, 0, 0, 0, 0, 0, 0, 0, 0, 0, 0, 0, 0], "stateRewards": ["", 2, -4, 4, 9, 69, 9, -75, 12, -86, 66, 25, -1, 3, 2, -13, -88, -3, 1, 4, -69, 49, -84, 2, -1, 4, 2, -18, -81, -52, -15, -69, -54, 25], "withholdReward": false, "trial_id": "mdp_trial_25", "block": "test", "trialIndex": 26, "score": -75, "costs": -14.000000000000002, "simulationMode": [null, null, null, null, null], "rewards": [-1, 3, 2, 4, -69], "path": ["0", "0", "12", "13", "14", "19", "20"], "rt": [27614, 179, 245, 19, 38], "actions": ["right", "right", "right", "down", "right"], "actionTimes": [29102, 29777, 30543, 31066, 31605], "queries": {"click": {"state": {"target": ["27", "33", "21", "20", "16", "9", "32", "31", "29", "17"], "time": [2532, 4729, 7613, 9974, 12842, 15486, 19145, 21518, 23962, 26670]}, "edge": {"target": [], "time": []}}, "mouseover": {"state": {"target": ["28", "27", "26", "33", "32", "21", "20", "15", "16", "6", "16", "4", "9", "11", "26", "25", "25", "22", "19", "20", "20", "19", "0", "23", "24", "25", "30", "32", "31", "30", "29", "24", "14", "17", "20"], "time": [2027, 2377, 3261, 4478, 5344, 7261, 8961, 10878, 12044, 12312, 12628, 14811, 15195, 16113, 16229, 16313, 16463, 16664, 16697, 16715, 17111, 17644, 17894, 17913, 17929, 17961, 18578, 18943, 21278, 23495, 23728, 24466, 26245, 26445, 27429]}, "edge": {"target": [], "time": []}}, "mouseout": {"state": {"target": ["0", "28", "27", "26", "33", "32", "21", "20", "15", "16", "6", "16", "16", "16", "4", "9", "11", "26", "25", "25", "22", "19", "20", "20", "19", "0", "23", "24", "25", "30", "32", "31", "30", "29", "24", "14", "17", "20", "20", "19"], "time": [1911, 2077, 3144, 3461, 5128, 6561, 7646, 10278, 11944, 12111, 12495, 12935, 13661, 14139, 14911, 16061, 16131, 16247, 16390, 16502, 16681, 16713, 16747, 17578, 17695, 17911, 17927, 17944, 18495, 18745, 19217, 23345, 23512, 24361, 24520, 26345, 27162, 31495, 31846, 33862]}, "edge": {"target": [], "time": []}}}, "displayed_time": "32.10", "trialTime": 36175, "trial_type": "mouselab-mdp", "trial_index": 33, "time_elapsed": 1238655, "internal_node_id": "0.0-6.0-1.0-24.0"}}, {"uniqueid": "w64840678:a49724958", "current_trial": 34, "dateTime": 1693661588006, "trialdata": {"revealed_states": [], "clicked_states": ["5", "29", "32", "21", "20", "16", "33", "30"], "num_clicks_accrued": [0, 0, 0, 0, 0, 0, 0, 0, 0, 0, 0, 0, 0], "stateRewards": ["", 2, 4, -6, -13, -75, -81, 30, 7, 5, 59, -65, -1, -1, 7, 14, -38, 36, -41, 1, -54, -5, 64, 2, -1, 5, 6, -19, 79, 11, 16, -33, -50, 58], "withholdReward": false, "trial_id": "mdp_trial_26", "block": "test", "trialIndex": 27, "score": 68.8, "costs": -11.200000000000001, "simulationMode": [null, null, null, null, null, null], "rewards": [2, -1, 5, 16, 58], "path": ["0", "0", "23", "24", "25", "30", "33"], "rt": [20499, 1485, 236, 62, 41, 19], "actions": ["left", "left", "left", "left", "down", "left"], "actionTimes": [22819, 24308, 25035, 25594, 26138, 26666], "queries": {"click": {"state": {"target": ["5", "29", "32", "21", "20", "16", "33", "30"], "time": [3437, 5889, 8227, 10960, 12985, 16192, 19131, 22311]}, "edge": {"target": [], "time": []}}, "mouseover": {"state": {"target": ["7", "5", "8", "11", "27", "29", "33", "32", "30", "31", "21", "20", "16", "15", "16", "1", "28", "24", "24", "24", "25", "33", "30"], "time": [2928, 3261, 4195, 4361, 4694, 5695, 6847, 8095, 9680, 10078, 10679, 12495, 15129, 15428, 16045, 16495, 16596, 17995, 18162, 18462, 18712, 18995, 22084]}, "edge": {"target": [], "time": []}}, "mouseout": {"state": {"target": ["22", "0", "7", "5", "8", "11", "27", "29", "33", "32", "29", "30", "31", "21", "20", "16", "15", "16", "1", "28", "24", "24", "24", "25", "33", "30", "33", "30"], "time": [1528, 2795, 2962, 3995, 4312, 4412, 4878, 6395, 7214, 8878, 9497, 9713, 10362, 12112, 13512, 15328, 15928, 16358, 16513, 16662, 18046, 18245, 18679, 18829, 20362, 22403, 24495, 28179]}, "edge": {"target": [], "time": []}}}, "displayed_time": "27.18", "trialTime": 28422, "trial_type": "mouselab-mdp", "trial_index": 34, "time_elapsed": 1267453, "internal_node_id": "0.0-6.0-1.0-25.0"}}, {"uniqueid": "w64840678:a49724958", "current_trial": 35, "dateTime": 1693661620115, "trialdata": {"revealed_states": [], "clicked_states": ["11", "33", "32", "20", "16", "29", "5", "7"], "num_clicks_accrued": [0, 0, 0, 0, 0, 0, 0, 0, 0, 0, 0, 0, 0], "stateRewards": ["", -2, -4, -8, 8, 63, -50, -19, -7, -17, -31, 31, 1, 3, -5, 12, -35, -63, -29, -4, -17, -75, -79, -2, -3, -2, 8, -3, -85, 10, -2, -82, -82, 56], "withholdReward": false, "trial_id": "mdp_trial_27", "block": "test", "trialIndex": 28, "score": 45.8, "costs": -11.200000000000001, "simulationMode": [null, null, null, null, null], "rewards": [-2, -4, -8, 8, 63], "path": ["0", "0", "1", "2", "3", "4", "5"], "rt": [25690, 157, 6, 536, 72], "actions": ["up", "up", "up", "right", "up"], "actionTimes": [27146, 27815, 28328, 29376, 29943], "queries": {"click": {"state": {"target": ["11", "33", "32", "20", "16", "29", "5", "7"], "time": [3098, 5421, 9162, 11738, 14344, 18122, 21755, 25055]}, "edge": {"target": [], "time": []}}, "mouseover": {"state": {"target": ["7", "4", "8", "11", "26", "33", "32", "31", "32", "32", "20", "19", "19", "14", "16", "1", "28", "25", "30", "30", "25", "29", "26", "27", "8", "9", "5", "4", "7", "7"], "time": [2052, 2135, 2602, 3063, 4336, 5086, 6437, 8152, 8452, 8919, 11469, 12736, 13675, 13836, 14103, 15036, 15436, 16319, 16936, 17302, 17369, 17887, 19639, 20337, 20836, 21237, 21486, 23253, 24303, 24770]}, "edge": {"target": [], "time": []}}, "mouseout": {"state": {"target": ["0", "7", "4", "8", "11", "26", "33", "32", "31", "32", "32", "20", "19", "19", "14", "16", "16", "1", "28", "25", "30", "30", "25", "29", "29", "26", "27", "8", "9", "5", "5", "4", "7", "7", "1"], "time": [1151, 2102, 2352, 2719, 3769, 4552, 5852, 7772, 8202, 8503, 9919, 12536, 13503, 13786, 13853, 14450, 14770, 15136, 15686, 16469, 17170, 17319, 17386, 18198, 19453, 20170, 20670, 21170, 21419, 21864, 22828, 23962, 24319, 31387, 31470]}, "edge": {"target": [], "time": []}}}, "displayed_time": "30.44", "trialTime": 31687, "trial_type": "mouselab-mdp", "trial_index": 35, "time_elapsed": 1299562, "internal_node_id": "0.0-6.0-1.0-26.0"}}, {"uniqueid": "w64840678:a49724958", "current_trial": 36, "dateTime": 1693661656146, "trialdata": {"revealed_states": [], "clicked_states": ["32", "9", "20", "21", "29", "33", "16", "5", "28", "27"], "num_clicks_accrued": [0, 0, 0, 0, 0, 0, 0, 0, 0, 0, 0, 0, 0], "stateRewards": ["", -2, -2, -3, -6, -15, -11, 41, -12, -63, -76, 2, -2, -3, 8, 9, -36, -2, -18, -16, -32, -85, -17, -2, 1, 5, -16, 82, 35, -88, -1, 80, -82, -20], "withholdReward": false, "trial_id": "mdp_trial_28", "block": "test", "trialIndex": 29, "score": 56, "costs": -14.000000000000002, "simulationMode": [null, null, null, null, null, null], "rewards": [-2, 1, 5, -16, 82], "path": ["0", "0", "23", "24", "25", "26", "27"], "rt": [27951, 1660, 101, 403, 19, 4], "actions": ["left", "left", "left", "left", "up", "up"], "actionTimes": [29310, 30973, 31582, 32499, 33033, 33535], "queries": {"click": {"state": {"target": ["32", "9", "20", "21", "29", "33", "16", "5", "28", "27"], "time": [2998, 6218, 9030, 11274, 13660, 16041, 18762, 21550, 25004, 28960]}, "edge": {"target": [], "time": []}}, "mouseover": {"state": {"target": ["0", "23", "31", "32", "32", "31", "25", "26", "27", "11", "9", "8", "10", "13", "14", "19", "20", "21", "33", "29", "33", "30", "31", "13", "18", "16", "1", "28", "15", "4", "5", "8", "23", "24", "28", "27"], "time": [1761, 1794, 1910, 2194, 2827, 3962, 4894, 5060, 5177, 5360, 6061, 7327, 7744, 8261, 8344, 8511, 8794, 10278, 12094, 13128, 15913, 17712, 17929, 18178, 18295, 18544, 19264, 19382, 20978, 21128, 21361, 22028, 24028, 24195, 24761, 28761]}, "edge": {"target": [], "time": []}}, "mouseout": {"state": {"target": ["23", "0", "23", "31", "32", "32", "31", "25", "26", "27", "11", "9", "8", "10", "13", "14", "19", "20", "21", "33", "29", "33", "30", "31", "13", "18", "16", "16", "1", "28", "15", "4", "5", "8", "23", "24", "28", "28", "27", "23"], "time": [893, 1777, 1844, 2027, 2378, 3009, 4527, 5028, 5127, 5244, 5494, 6844, 7544, 7827, 8278, 8444, 8595, 9478, 11544, 12345, 14478, 16135, 17862, 17978, 18245, 18345, 18839, 19079, 19280, 19397, 21012, 21311, 21878, 22145, 24128, 24328, 26762, 28495, 34945, 35179]}, "edge": {"target": [], "time": []}}}, "displayed_time": "34.05", "trialTime": 35626, "trial_type": "mouselab-mdp", "trial_index": 36, "time_elapsed": 1335594, "internal_node_id": "0.0-6.0-1.0-27.0"}}, {"uniqueid": "w64840678:a49724958", "current_trial": 37, "dateTime": 1693661674193, "trialdata": {"revealed_states": [], "clicked_states": ["21", "29", "9"], "num_clicks_accrued": [0, 0, 0, 0, 0, 0, 0, 0, 0, 0, 0, 0, 0], "stateRewards": ["", 2, 2, 3, -15, 23, -14, 73, -7, -32, -20, -6, 1, 1, -5, -12, 73, 6, -84, 11, -81, -57, 13, -2, -1, -4, -8, -52, -58, 49, 13, 5, -41, -41], "withholdReward": false, "trial_id": "mdp_trial_29", "block": "test", "trialIndex": 30, "score": 29.8, "costs": -4.199999999999999, "simulationMode": [null, null, null, null, null], "rewards": [-2, -1, -4, -8, 49], "path": ["0", "0", "23", "24", "25", "26", "29"], "rt": [9452, 205, 18, 9, 336], "actions": ["left", "left", "left", "up", "left"], "actionTimes": [10992, 11700, 12214, 12763, 13616], "queries": {"click": {"state": {"target": ["21", "29", "9"], "time": [2583, 5130, 8231]}, "edge": {"target": [], "time": []}}, "mouseover": {"state": {"target": ["12", "19", "21", "31", "33", "29", "26", "8", "9", "11", "3", "4", "6", "6"], "time": [2027, 2177, 2360, 4193, 4610, 4960, 5844, 7511, 7994, 8711, 9794, 10011, 10194, 10460]}, "edge": {"target": [], "time": []}}, "mouseout": {"state": {"target": ["0", "0", "12", "19", "21", "31", "33", "29", "26", "8", "9", "11", "3", "4", "6", "6"], "time": [876, 1993, 2043, 2243, 3243, 4327, 4626, 5611, 5877, 7860, 8594, 9128, 9894, 10144, 10360, 17427]}, "edge": {"target": [], "time": []}}}, "displayed_time": "15.54", "trialTime": 17604, "trial_type": "mouselab-mdp", "trial_index": 37, "time_elapsed": 1353641, "internal_node_id": "0.0-6.0-1.0-28.0"}}, {"uniqueid": "w64840678:a49724958", "current_trial": 38, "dateTime": 1693661694715, "trialdata": {"revealed_states": [], "clicked_states": ["21", "29"], "num_clicks_accrued": [0, 0, 0, 0, 0, 0, 0, 0, 0, 0, 0, 0, 0], "stateRewards": ["", 1, 1, 4, 11, 83, -66, 18, -16, -23, 5, 25, 1, -3, 1, -12, 18, 24, -86, -11, -64, 36, 40, 2, 1, -6, 13, 55, 29, 72, -2, 81, -72, -41], "withholdReward": false, "trial_id": "mdp_trial_30", "block": "test", "trialIndex": 31, "score": 79.2, "costs": -2.8, "simulationMode": [null, null, null, null, null], "rewards": [2, 1, -6, 13, 72], "path": ["0", "0", "23", "24", "25", "26", "29"], "rt": [6967, 213, 290, 51, 376], "actions": ["left", "left", "left", "up", "left"], "actionTimes": [8439, 9146, 9952, 10517, 11422], "queries": {"click": {"state": {"target": ["21", "29"], "time": [2643, 5661]}, "edge": {"target": [], "time": []}}, "mouseover": {"state": {"target": ["12", "20", "21", "19", "13", "18", "4", "3", "8", "11", "27", "29", "32"], "time": [1926, 2027, 2627, 3244, 3327, 3460, 3911, 3977, 4060, 4744, 4843, 5177, 7127]}, "edge": {"target": [], "time": []}}, "mouseout": {"state": {"target": ["18", "12", "0", "12", "20", "21", "19", "13", "18", "4", "3", "8", "11", "27", "29", "32"], "time": [626, 777, 1910, 1960, 2077, 3110, 3277, 3394, 3510, 3944, 4028, 4710, 4760, 4893, 6261, 7244]}, "edge": {"target": [], "time": []}}}, "displayed_time": "15.47", "trialTime": 20091, "trial_type": "mouselab-mdp", "trial_index": 38, "time_elapsed": 1374162, "internal_node_id": "0.0-6.0-1.0-29.0"}}, {"uniqueid": "w64840678:a49724958", "current_trial": 39, "dateTime": 1693661729101, "trialdata": {"revealed_states": [], "clicked_states": ["9", "32", "17", "21", "29", "31", "10"], "num_clicks_accrued": [0, 0, 0, 0, 0, 0, 0, 0, 0, 0, 0, 0, 0], "stateRewards": ["", 1, 4, -8, -5, -15, -7, 21, 13, -30, 40, -65, 1, 1, 5, -14, 35, 27, -38, -11, 36, -58, -47, -2, 4, -3, 13, -16, -49, 22, 15, -56, -44, -10], "withholdReward": false, "trial_id": "mdp_trial_31", "block": "test", "trialIndex": 32, "score": 40.2, "costs": -9.8, "simulationMode": [null, null, null, null, null], "rewards": [1, 4, -8, 13, 40], "path": ["0", "0", "1", "2", "3", "8", "10"], "rt": [24394, 338, 87, 436, 81], "actions": ["up", "up", "up", "left", "down"], "actionTimes": [26650, 27489, 28087, 29019, 29597], "queries": {"click": {"state": {"target": ["9", "32", "17", "21", "29", "31", "10"], "time": [4015, 7404, 9870, 12947, 15448, 18209, 20863]}, "edge": {"target": [], "time": []}}, "mouseover": {"state": {"target": ["9", "9", "11", "27", "26", "33", "32", "27", "10", "7", "17", "17", "15", "24", "21", "31", "30", "33", "29", "33", "30", "31", "2", "10", "0", "21", "22", "0", "1", "2", "8", "8", "3", "4", "6"], "time": [3430, 3863, 4875, 5614, 5730, 6030, 6833, 8482, 8580, 8764, 9114, 9699, 11082, 12281, 12781, 14697, 14780, 14897, 15265, 17380, 17697, 18014, 20514, 20664, 22231, 22881, 23948, 24080, 24330, 24414, 24514, 24780, 25180, 25263, 25497]}, "edge": {"target": [], "time": []}}, "mouseout": {"state": {"target": ["0", "9", "9", "9", "11", "27", "26", "33", "32", "27", "10", "7", "17", "17", "15", "24", "21", "31", "30", "33", "29", "33", "30", "31", "2", "10", "10", "0", "21", "22", "0", "1", "2", "8", "8", "3", "4", "6", "6", "2", "18", "20"], "time": [1696, 3497, 4123, 4616, 5266, 5680, 5746, 6147, 7764, 8514, 8614, 8797, 9480, 10599, 11282, 12297, 13023, 14747, 14864, 14930, 16799, 17581, 17797, 20214, 20630, 20971, 21798, 22249, 23764, 23964, 24130, 24381, 24447, 24697, 24881, 25247, 25314, 26514, 31248, 32864, 32914, 32964]}, "edge": {"target": [], "time": []}}}, "displayed_time": "30.10", "trialTime": 33946, "trial_type": "mouselab-mdp", "trial_index": 39, "time_elapsed": 1408548, "internal_node_id": "0.0-6.0-1.0-30.0"}}, {"uniqueid": "w64840678:a49724958", "current_trial": 40, "dateTime": 1693661749622, "trialdata": {"revealed_states": [], "clicked_states": ["5", "29", "32"], "num_clicks_accrued": [0, 0, 0, 0, 0, 0, 0, 0, 0, 0, 0, 0, 0], "stateRewards": ["", -2, -4, 6, 14, -34, 49, 36, -8, -3, 32, -4, 1, -2, 1, -8, -20, -71, -57, -7, -86, -62, -16, -2, -3, -5, 11, 23, -21, 53, 5, -5, 85, 73], "withholdReward": false, "trial_id": "mdp_trial_32", "block": "test", "trialIndex": 33, "score": 75.8, "costs": -4.199999999999999, "simulationMode": [null, null, null, null, null], "rewards": [-2, -3, -5, 5, 85], "path": ["0", "0", "23", "24", "25", "30", "32"], "rt": [9832, 197, 400, 96, 125], "actions": ["left", "left", "left", "down", "down"], "actionTimes": [12860, 13548, 14451, 15064, 15693], "queries": {"click": {"state": {"target": ["5", "29", "32"], "time": [4338, 7014, 9833]}, "edge": {"target": [], "time": []}}, "mouseover": {"state": {"target": ["7", "4", "5", "8", "11", "27", "29", "33", "32"], "time": [3816, 3915, 4132, 5215, 5383, 6499, 6835, 7694, 9649]}, "edge": {"target": [], "time": []}}, "mouseout": {"state": {"target": ["21", "0", "7", "4", "5", "8", "11", "27", "29", "33", "32"], "time": [631, 2515, 3865, 4049, 4401, 5232, 6384, 6532, 7433, 7765, 9869]}, "edge": {"target": [], "time": []}}}, "displayed_time": "17.03", "trialTime": 20051, "trial_type": "mouselab-mdp", "trial_index": 40, "time_elapsed": 1429069, "internal_node_id": "0.0-6.0-1.0-31.0"}}, {"uniqueid": "w64840678:a49724958", "current_trial": 41, "dateTime": 1693661775756, "trialdata": {"revealed_states": [], "clicked_states": ["21", "17", "29", "31", "32", "5", "11"], "num_clicks_accrued": [0, 0, 0, 0, 0, 0, 0, 0, 0, 0, 0, 0, 0], "stateRewards": ["", 1, 4, 5, -5, 58, -80, 75, 6, 25, -39, 46, 2, -2, 4, 2, 59, 31, -22, -12, -61, 15, 72, 1, -2, -7, 8, 77, 76, -23, -7, 71, -15, -3], "withholdReward": false, "trial_id": "mdp_trial_33", "block": "test", "trialIndex": 34, "score": 46.2, "costs": -9.8, "simulationMode": [null, null, null, null, null], "rewards": [1, -2, -7, -7, 71], "path": ["0", "0", "23", "24", "25", "30", "31"], "rt": [19234, 312, 86, 19, 157], "actions": ["left", "left", "left", "down", "right"], "actionTimes": [20528, 21341, 21925, 22444, 23116], "queries": {"click": {"state": {"target": ["21", "17", "29", "31", "32", "5", "11"], "time": [2119, 4179, 6661, 9354, 12061, 15337, 18197]}, "edge": {"target": [], "time": []}}, "mouseover": {"state": {"target": ["12", "22", "19", "21", "17", "7", "2", "27", "29", "33", "31", "32", "30", "24", "2", "4", "5", "4", "4", "3", "9", "11"], "time": [1720, 1785, 1819, 1902, 2886, 4737, 4836, 5721, 6536, 8137, 8969, 11319, 14037, 14103, 14220, 14303, 14870, 16337, 17470, 17536, 17787, 17986]}, "edge": {"target": [], "time": []}}, "mouseout": {"state": {"target": ["31", "0", "12", "22", "19", "21", "17", "7", "2", "27", "29", "29", "33", "31", "32", "30", "24", "2", "4", "5", "4", "4", "3", "9", "11", "11"], "time": [435, 1702, 1752, 1802, 1835, 2131, 4263, 4787, 4919, 6019, 6760, 7454, 8203, 10669, 12686, 14070, 14119, 14253, 14570, 16170, 16503, 17503, 17554, 17936, 18311, 19753]}, "edge": {"target": [], "time": []}}}, "displayed_time": "23.61", "trialTime": 25689, "trial_type": "mouselab-mdp", "trial_index": 41, "time_elapsed": 1455204, "internal_node_id": "0.0-6.0-1.0-32.0"}}, {"uniqueid": "w64840678:a49724958", "current_trial": 42, "dateTime": 1693661794438, "trialdata": {"revealed_states": [], "clicked_states": ["9", "33", "28"], "num_clicks_accrued": [0, 0, 0, 0, 0, 0, 0, 0, 0, 0, 0, 0, 0], "stateRewards": ["", -2, -3, 7, -13, 60, 9, 37, -6, 37, 20, 1, 2, -2, -8, 6, -80, -31, -10, -7, 70, -65, -44, -1, 1, 7, 6, -11, 73, -85, 16, -21, 47, 34], "withholdReward": false, "trial_id": "mdp_trial_34", "block": "test", "trialIndex": 35, "score": 81.8, "costs": -4.199999999999999, "simulationMode": [null, null, null, null, null], "rewards": [-1, 1, 7, 6, 73], "path": ["0", "0", "23", "24", "25", "26", "28"], "rt": [10057, 232, 53, 521, 348], "actions": ["left", "left", "left", "up", "right"], "actionTimes": [11458, 12190, 12744, 13796, 14660], "queries": {"click": {"state": {"target": ["9", "33", "28"], "time": [2887, 5576, 8846]}, "edge": {"target": [], "time": []}}, "mouseover": {"state": {"target": ["1", "2", "8", "9", "9", "27", "26", "33", "30", "25", "26", "27", "28", "24"], "time": [2123, 2189, 2273, 2307, 2690, 4290, 4556, 5273, 6374, 7756, 7890, 8006, 8356, 11250]}, "edge": {"target": [], "time": []}}, "mouseout": {"state": {"target": ["0", "1", "2", "8", "9", "9", "27", "26", "33", "30", "25", "26", "27", "28", "24", "24", "10"], "time": [755, 2172, 2206, 2290, 2339, 2939, 4442, 4606, 5592, 7123, 7856, 7956, 8123, 10673, 12706, 13559, 16756]}, "edge": {"target": [], "time": []}}}, "displayed_time": "15.40", "trialTime": 18239, "trial_type": "mouselab-mdp", "trial_index": 42, "time_elapsed": 1473886, "internal_node_id": "0.0-6.0-1.0-33.0"}}, {"uniqueid": "w64840678:a49724958", "current_trial": 43, "dateTime": 1693661819375, "trialdata": {"revealed_states": [], "clicked_states": ["16", "11", "29", "32", "20", "17"], "num_clicks_accrued": [0, 0, 0, 0, 0, 0, 0, 0, 0, 0, 0, 0, 0], "stateRewards": ["", -1, -2, 8, -6, -79, -6, 87, 9, -5, -66, -38, 2, 2, 5, -6, -82, 74, 85, -8, 67, -30, -15, 1, -2, -2, -2, 87, 64, 49, 7, 2, -38, -9], "withholdReward": false, "trial_id": "mdp_trial_35", "block": "test", "trialIndex": 36, "score": 68.6, "costs": -8.4, "simulationMode": [null, null, null, null, null], "rewards": [2, 2, 5, -6, 74], "path": ["0", "0", "12", "13", "14", "15", "17"], "rt": [17577, 254, 219, 5, 401], "actions": ["right", "right", "right", "up", "right"], "actionTimes": [19304, 20083, 20796, 21300, 22212], "queries": {"click": {"state": {"target": ["16", "11", "29", "32", "20", "17"], "time": [3080, 5595, 8082, 10658, 14150, 16890]}, "edge": {"target": [], "time": []}}, "mouseover": {"state": {"target": ["12", "13", "16", "7", "2", "8", "11", "29", "33", "32", "21", "20", "19", "19", "14", "17", "15", "12", "0", "12"], "time": [2342, 2591, 2874, 4975, 5141, 5291, 5326, 7825, 8876, 10492, 13243, 13992, 14559, 16408, 16476, 16825, 17376, 17676, 18709, 19175]}, "edge": {"target": [], "time": []}}, "mouseout": {"state": {"target": ["1", "12", "13", "16", "7", "2", "8", "11", "11", "29", "29", "33", "32", "21", "20", "19", "19", "14", "17", "15", "12", "0", "12", "13"], "time": [1174, 2491, 2641, 4908, 5091, 5192, 5308, 5705, 6592, 8093, 8676, 8931, 11142, 13727, 14415, 14709, 16426, 16558, 16961, 17459, 18492, 19010, 19225, 24043]}, "edge": {"target": [], "time": []}}}, "displayed_time": "22.73", "trialTime": 24494, "trial_type": "mouselab-mdp", "trial_index": 43, "time_elapsed": 1498822, "internal_node_id": "0.0-6.0-1.0-34.0"}}, {"uniqueid": "w64840678:a49724958", "current_trial": 44, "dateTime": 1693661838108, "trialdata": {"revealed_states": [], "clicked_states": ["5", "32", "33"], "num_clicks_accrued": [0, 0, 0, 0, 0, 0, 0, 0, 0, 0, 0, 0, 0], "stateRewards": ["", -2, 2, -1, -6, 22, 6, 6, -5, 70, -42, 65, 1, 3, 5, -6, -67, -9, 3, 14, 7, -62, -13, -2, 4, 1, 16, 42, -21, -52, -8, 32, 53, 81], "withholdReward": false, "trial_id": "mdp_trial_36", "block": "test", "trialIndex": 37, "score": 71.8, "costs": -4.199999999999999, "simulationMode": [null, null, null, null, null], "rewards": [-2, 4, 1, -8, 81], "path": ["0", "0", "23", "24", "25", "30", "33"], "rt": [9370, 265, 109, 47, 83], "actions": ["left", "left", "left", "down", "left"], "actionTimes": [10996, 11779, 12392, 12947, 13547], "queries": {"click": {"state": {"target": ["5", "32", "33"], "time": [3248, 5980, 8303]}, "edge": {"target": [], "time": []}}, "mouseover": {"state": {"target": ["28", "8", "3", "5", "15", "14", "19", "32", "33"], "time": [2145, 2646, 2678, 3078, 4212, 4712, 4829, 5762, 8078]}, "edge": {"target": [], "time": []}}, "mouseout": {"state": {"target": ["0", "28", "8", "3", "5", "15", "14", "19", "32", "33"], "time": [778, 2178, 2661, 2695, 3978, 4596, 4779, 5112, 6963, 17712]}, "edge": {"target": [], "time": []}}}, "displayed_time": "15.63", "trialTime": 18214, "trial_type": "mouselab-mdp", "trial_index": 44, "time_elapsed": 1517556, "internal_node_id": "0.0-6.0-1.0-35.0"}}, {"uniqueid": "w64840678:a49724958", "current_trial": 45, "dateTime": 1693661861324, "trialdata": {"revealed_states": [], "clicked_states": ["9", "33", "20", "21", "29"], "num_clicks_accrued": [0, 0, 0, 0, 0, 0, 0, 0, 0, 0, 0, 0, 0], "stateRewards": ["", -2, 2, -4, -4, -59, 88, 62, -3, 69, -15, -34, 1, -2, -5, 7, -54, -20, 78, -16, -74, -53, -21, 2, -4, 2, 13, -8, -44, 26, 9, 72, 4, 17], "withholdReward": false, "trial_id": "mdp_trial_37", "block": "test", "trialIndex": 38, "score": 55, "costs": -7, "simulationMode": [null, null, null, null, null], "rewards": [-2, 2, -4, -3, 69], "path": ["0", "0", "1", "2", "3", "8", "9"], "rt": [16492, 108, 110, 478, 41], "actions": ["up", "up", "up", "left", "up"], "actionTimes": [17988, 18606, 19219, 20191, 20734], "queries": {"click": {"state": {"target": ["9", "33", "20", "21", "29"], "time": [3147, 5630, 8177, 11351, 14194]}, "edge": {"target": [], "time": []}}, "mouseover": {"state": {"target": ["0", "1", "7", "4", "3", "9", "26", "33", "19", "20", "14", "13", "22", "21", "21", "32", "29", "29", "26", "27"], "time": [1654, 2174, 2291, 2357, 2491, 2791, 4624, 5457, 7824, 7924, 10208, 10424, 10541, 10824, 11208, 13042, 13709, 14059, 16108, 16458]}, "edge": {"target": [], "time": []}}, "mouseout": {"state": {"target": ["33", "23", "0", "0", "1", "7", "4", "3", "9", "26", "33", "33", "19", "20", "14", "13", "22", "21", "21", "32", "29", "29", "26"], "time": [608, 992, 1123, 1909, 2190, 2324, 2457, 2525, 3974, 4791, 5662, 6274, 7842, 9957, 10242, 10524, 10608, 10858, 11859, 13108, 13791, 15791, 16125]}, "edge": {"target": [], "time": []}}}, "displayed_time": "21.25", "trialTime": 22775, "trial_type": "mouselab-mdp", "trial_index": 45, "time_elapsed": 1540771, "internal_node_id": "0.0-6.0-1.0-36.0"}}, {"uniqueid": "w64840678:a49724958", "current_trial": 46, "dateTime": 1693661878145, "trialdata": {"revealed_states": [], "clicked_states": ["32", "20"], "num_clicks_accrued": [0, 0, 0, 0, 0, 0, 0, 0, 0, 0, 0, 0, 0], "stateRewards": ["", 1, -3, -1, 9, -34, -40, 22, -7, 45, 53, -11, 2, 4, 5, 15, 21, 37, -49, -3, 80, -28, -34, 1, -3, 1, 1, -40, -6, -5, -16, -85, -86, 59], "withholdReward": false, "trial_id": "mdp_trial_38", "block": "test", "trialIndex": 39, "score": 85.2, "costs": -2.8, "simulationMode": [null, null, null, null, null], "rewards": [2, 4, 5, -3, 80], "path": ["0", "0", "12", "13", "14", "19", "20"], "rt": [6001, 334, 75, 78, 44], "actions": ["right", "right", "right", "down", "right"], "actionTimes": [7427, 8294, 8867, 9436, 10009], "queries": {"click": {"state": {"target": ["32", "20"], "time": [2539, 4894]}, "edge": {"target": [], "time": []}}, "mouseover": {"state": {"target": ["0", "32", "21", "20", "17"], "time": [1923, 2390, 3657, 4747, 6640]}, "edge": {"target": [], "time": []}}, "mouseout": {"state": {"target": ["27", "28", "23", "0", "32", "21", "20", "17", "17"], "time": [457, 672, 939, 1973, 2648, 3690, 6091, 6657, 11955]}, "edge": {"target": [], "time": []}}}, "displayed_time": "15.43", "trialTime": 16343, "trial_type": "mouselab-mdp", "trial_index": 46, "time_elapsed": 1557592, "internal_node_id": "0.0-6.0-1.0-37.0"}}, {"uniqueid": "w64840678:a49724958", "current_trial": 47, "dateTime": 1693661909295, "trialdata": {"revealed_states": [], "clicked_states": ["29", "21", "20", "9", "33", "6", "32", "5"], "num_clicks_accrued": [0, 0, 0, 0, 0, 0, 0, 0, 0, 0, 0, 0, 0], "stateRewards": ["", 1, -1, 4, -2, -75, -75, 84, -9, -60, -79, 59, 2, -4, 8, 9, -17, -82, 80, 14, -4, 49, 49, -1, 3, 6, -11, -33, 34, 55, 9, -57, 5, 59], "withholdReward": false, "trial_id": "mdp_trial_39", "block": "test", "trialIndex": 40, "score": 64.8, "costs": -11.200000000000001, "simulationMode": [null, null, null, null, null], "rewards": [-1, 3, 6, 9, 59], "path": ["0", "0", "23", "24", "25", "30", "33"], "rt": [24344, 302, 45, 545, 114], "actions": ["left", "left", "left", "down", "left"], "actionTimes": [25753, 26575, 27129, 28196, 28814], "queries": {"click": {"state": {"target": ["29", "21", "20", "9", "33", "6", "32", "5"], "time": [2721, 5741, 8712, 11357, 14143, 17836, 20424, 23212]}, "edge": {"target": [], "time": []}}, "mouseover": {"state": {"target": ["1", "2", "11", "27", "29", "33", "32", "21", "20", "14", "15", "7", "3", "9", "11", "29", "33", "32", "31", "23", "1", "6", "7", "2", "24", "25", "24", "24", "31", "32", "31", "24", "10", "3", "5", "3", "10"], "time": [1980, 2080, 2231, 2347, 2564, 3931, 4981, 5481, 8131, 9300, 9483, 10597, 10814, 11148, 12181, 13273, 13665, 15581, 17098, 17215, 17315, 17665, 19016, 19049, 19249, 19731, 19798, 19927, 20014, 20215, 22298, 22548, 22682, 22765, 23048, 24401, 25232]}, "edge": {"target": [], "time": []}}, "mouseout": {"state": {"target": ["15", "13", "12", "0", "1", "2", "11", "27", "29", "33", "32", "21", "20", "14", "15", "7", "3", "9", "11", "29", "33", "32", "31", "23", "1", "6", "7", "2", "24", "25", "24", "24", "31", "32", "32", "31", "24", "10", "3", "5", "5", "3", "10", "10", "10", "10"], "time": [547, 731, 896, 1787, 2030, 2130, 2264, 2364, 3315, 4348, 5081, 5754, 8810, 9350, 9667, 10747, 10881, 11999, 12233, 13348, 14698, 16298, 17165, 17231, 17331, 18915, 19032, 19065, 19293, 19748, 19831, 19998, 20082, 20522, 21216, 22515, 22582, 22715, 22783, 23321, 23798, 24618, 25382, 26432, 26882, 30349]}, "edge": {"target": [], "time": []}}}, "displayed_time": "29.32", "trialTime": 30683, "trial_type": "mouselab-mdp", "trial_index": 47, "time_elapsed": 1588742, "internal_node_id": "0.0-6.0-1.0-38.0"}}, {"uniqueid": "w64840678:a49724958", "current_trial": 48, "dateTime": 1693661926580, "trialdata": {"revealed_states": [], "clicked_states": ["16", "29", "32"], "num_clicks_accrued": [0, 0, 0, 0, 0, 0, 0, 0, 0, 0, 0, 0, 0], "stateRewards": ["", -1, 3, 8, 10, -86, 61, -36, 10, 17, -60, 24, -1, -3, 3, 11, 50, 60, 33, -3, -20, 58, -6, 1, -4, -4, 13, -70, -71, 43, 14, 52, 82, -11], "withholdReward": false, "trial_id": "mdp_trial_40", "block": "test", "trialIndex": 41, "score": 84.8, "costs": -4.199999999999999, "simulationMode": [null, null, null, null, null], "rewards": [1, -4, -4, 14, 82], "path": ["0", "0", "23", "24", "25", "30", "32"], "rt": [10307, 222, 217, 60, 31], "actions": ["left", "left", "left", "down", "down"], "actionTimes": [11662, 12395, 13124, 13683, 14220], "queries": {"click": {"state": {"target": ["16", "29", "32"], "time": [2860, 5936, 8498]}, "edge": {"target": [], "time": []}}, "mouseover": {"state": {"target": ["12", "13", "14", "15", "16", "16", "1", "29", "33", "32", "31"], "time": [1854, 1920, 1971, 2204, 2238, 2630, 4804, 5837, 7239, 8254, 10421]}, "edge": {"target": [], "time": []}}, "mouseout": {"state": {"target": ["12", "13", "14", "15", "16", "16", "1", "29", "33", "32", "31"], "time": [1904, 1953, 2004, 2220, 2270, 2936, 4955, 6045, 7270, 9054, 11487]}, "edge": {"target": [], "time": []}}}, "displayed_time": "15.36", "trialTime": 16773, "trial_type": "mouselab-mdp", "trial_index": 48, "time_elapsed": 1606027, "internal_node_id": "0.0-6.0-1.0-39.0"}}, {"uniqueid": "w64840678:a49724958", "current_trial": 49, "dateTime": 1693661970840, "trialdata": {"rt": 44256, "response": {"Q0": "$-2 to $2", "Q1": "$-4 to $4", "Q2": "$-88 to $88", "Q3": "The cost was always $1.4.", "Q4": "Very motivated"}, "question_order": [0, 1, 2, 3, 4], "trial_id": "final_quiz_control", "trial_type": "survey-multi-choice", "trial_index": 49, "time_elapsed": 1650288, "internal_node_id": "0.0-6.0-2.0"}}, {"uniqueid": "w64840678:a49724958", "current_trial": 50, "dateTime": 1693662263667, "trialdata": {"rt": 292815, "response": {"Q0": "Click on the last nodes and check which has the highest value and go for. I didn't consider the value of the first 4 steps as I found out they didn't affect the score much compared to the last step.", "Q1": "Yes, I found out that the last node was worth more than any of the first 4 nodes so I only kept checking the last node after the first couple of rounds", "Q2": "no that difficult. not knowing whats the highest amount of points you could get or whats the average points so the benchmark for me to hit was hard to figure out which made me take more risk to get higher amounts of points. "}, "trial_id": "self_report_control", "trial_type": "survey-text", "trial_index": 50, "time_elapsed": 1943115, "internal_node_id": "0.0-6.0-3.0"}}, {"uniqueid": "w64840678:a49724958", "current_trial": 51, "dateTime": 1693662297485, "trialdata": {"rt": 33810, "response": {"gender": "male", "age": "19", "colorblind": "0", "effort": "0"}, "trial_type": "survey-html-form", "trial_index": 51, "time_elapsed": 1976932, "internal_node_id": "0.0-6.0-4.0"}}, {"uniqueid": "w64840678:a49724958", "current_trial": 52, "dateTime": 1693662331336, "trialdata": {"rt": 33845, "response": {"Q0": "no", "Q1": "no", "Q2": "was a fun game to play"}, "trial_type": "survey-text", "trial_index": 52, "time_elapsed": 2010784, "internal_node_id": "0.0-6.0-5.0"}}, {"uniqueid": "w64840678:a49724958", "current_trial": 53, "dateTime": 1693662469217, "trialdata": {"rt": 137876, "stimulus": "<h1>Completion Code Instructions (1/2)</h1>\n<br><br><br><br>\nYou have reached the end of the experiment! The completion code consists of two parts: (1) a code with 2 characters (2) a code with 6 characters. On this page, you will receive the second part of the code. The first part of the completion code will be on the next page.\n<br><br>\nThe second part of your completion code is: <b>EWEK22</b>\n<br><br>\nPlease note this down. Then, press 'Next' in order to find the first part of your completion code. Once the data has been saved, you will receive this code either in this window or in the original browser window where you started the experiment.\n <br><br>\n<h2 style='color: red;'>Note: this is <strong>NOT</strong> the full completion code. Copy this down and click 'Next' to get the full completion code on the next page.</h2>", "response": 0, "trial_type": "html-button-response", "trial_index": 53, "time_elapsed": 2148665, "internal_node_id": "0.0-6.0-6.0"}}, {"uniqueid": "w64840678:a49724958", "current_trial": 54, "dateTime": 1693662470223, "trialdata": {"success": true, "trial_type": "fullscreen", "trial_index": 54, "time_elapsed": 2149671, "internal_node_id": "0.0-7.0"}}], "questiondata": {"params": {"CODE": "C6DMOQA6", "MIN_TIME": 14, "inspectCost": 1, "startTime": "Sat Sep 02 2023 14:11:59 GMT+0100 (British Summer Time)", "bonusRate": 0.002, "variance": "1_2_4_8_44", "branching": "31123"}, "final_score": 2211}, "eventdata": [{"eventtype": "initialized", "value": null, "timestamp": 1693660319434, "interval": 0}, {"eventtype": "window_resize", "value": [1028, 778], "timestamp": 1693660319434, "interval": 0}, {"eventtype": "window_resize", "value": [1028, 778], "timestamp": 1693660319753, "interval": 319}, {"eventtype": "window_resize", "value": [1536, 864], "timestamp": 1693660326726, "interval": 6973}, {"eventtype": "window_resize", "value": [1028, 778], "timestamp": 1693662469468, "interval": 2142742}], "useragent": "Mozilla/5.0 (Windows NT 10.0; Win64; x64) AppleWebKit/537.36 (KHTML, like Gecko) Chrome/116.0.0.0 Safari/537.36", "mode": "live", "id": "w64840678:a49724958", "status": "user data saved", "Beginhit": "2023-09-02 13:11:56.978875", "Beginexp": "2023-09-02 13:12:06.479011", "Endhit": "2023-09-02 13:47:49.277061", "psiturkStatus": 3, "browser": "<redacted>", "platform": "windows", "language": "en-GB"}