{"condition": 0, "counterbalance": 0, "assignmentId": "a15207729", "workerId": "w63995085", "hitId": "h19947583", "currenttrial": 68, "bonus": 0, "data": [{"uniqueid": "w63995085:a15207729", "current_trial": 0, "dateTime": 1693388922048, "trialdata": {"success": true, "trial_type": "fullscreen", "trial_index": 0, "time_elapsed": 5955, "internal_node_id": "0.0-0.0"}}, {"uniqueid": "w63995085:a15207729", "current_trial": 1, "dateTime": 1693388934781, "trialdata": {"view_history": [{"page_index": 0, "viewing_time": 12720}], "rt": 12721, "trial_id": "exp_instructions_control", "trial_type": "instructions", "trial_index": 1, "time_elapsed": 18689, "internal_node_id": "0.0-1.0"}}, {"uniqueid": "w63995085:a15207729", "current_trial": 2, "dateTime": 1693389270871, "trialdata": {"view_history": [{"page_index": 0, "viewing_time": 226758}, {"page_index": 1, "viewing_time": 12990}, {"page_index": 0, "viewing_time": 1655}, {"page_index": 1, "viewing_time": 2137}, {"page_index": 0, "viewing_time": 8731}, {"page_index": 1, "viewing_time": 59493}, {"page_index": 2, "viewing_time": 12706}, {"page_index": 3, "viewing_time": 11618}], "rt": 336088, "trial_id": "mouselab_instructions_1_control", "trial_type": "instructions", "trial_index": 2, "time_elapsed": 354779, "internal_node_id": "0.0-2.0-1.0"}}, {"uniqueid": "w63995085:a15207729", "current_trial": 3, "dateTime": 1693389297872, "trialdata": {"revealed_states": [], "clicked_states": [], "num_clicks_accrued": [0, 0, 0, 0, 0, 0, 0, 0, 0, 0, 0, 0, 0], "stateRewards": ["", 10, 10, -10, 10, 10, 10, -10, -10, 10, -10, 10, 10, -10, 10, 10, 10, 10, 10, 10, 10, -10, 10, 10, 10, -10, 10, 10, 10, -10, 10, 10, -10, -10], "withholdReward": false, "trial_id": "practice_1", "block": "test", "trialIndex": 0, "score": 33.5, "costs": 0, "simulationMode": [null, null, null, null, null], "rewards": [10, 10, -10, 10, 10], "path": ["0", "0", "1", "2", "3", "4", "5"], "rt": [1004, 435, 3655, 861, 814], "actions": ["up", "up", "up", "right", "up"], "actionTimes": [4819, 5776, 9977, 11363, 12732], "queries": {"click": {"state": {"target": [], "time": []}, "edge": {"target": [], "time": []}}, "mouseover": {"state": {"target": [], "time": []}, "edge": {"target": [], "time": []}}, "mouseout": {"state": {"target": ["0"], "time": [2823]}, "edge": {"target": [], "time": []}}}, "displayed_time": "13.29", "trialTime": 26547, "trial_type": "mouselab-mdp", "trial_index": 3, "time_elapsed": 381779, "internal_node_id": "0.0-2.0-2.0-0.0"}}, {"uniqueid": "w63995085:a15207729", "current_trial": 4, "dateTime": 1693389330067, "trialdata": {"revealed_states": [], "clicked_states": [], "num_clicks_accrued": [0, 0, 0, 0, 0, 0, 0, 0, 0, 0, 0, 0, 0], "stateRewards": ["", 10, -10, -10, 10, 10, -10, -10, 10, 10, -10, 10, -10, -10, -10, -10, -10, 10, 10, -10, 10, -10, 10, -10, 10, -10, -10, 10, 10, 10, 10, -10, -10, 10], "withholdReward": false, "trial_id": "practice_2", "block": "test", "trialIndex": 1, "score": -26.5, "costs": 0, "simulationMode": [null, null, null, null, null], "rewards": [-10, -10, -10, -10, 10], "path": ["0", "0", "12", "13", "14", "19", "20"], "rt": [1191, 2407, 540, 1358, 448], "actions": ["right", "right", "right", "down", "right"], "actionTimes": [4972, 7896, 8958, 10826, 11829], "queries": {"click": {"state": {"target": [], "time": []}, "edge": {"target": [], "time": []}}, "mouseover": {"state": {"target": [], "time": []}, "edge": {"target": [], "time": []}}, "mouseout": {"state": {"target": ["0"], "time": [3570]}, "edge": {"target": [], "time": []}}}, "displayed_time": "12.35", "trialTime": 31997, "trial_type": "mouselab-mdp", "trial_index": 4, "time_elapsed": 413974, "internal_node_id": "0.0-2.0-2.0-1.0"}}, {"uniqueid": "w63995085:a15207729", "current_trial": 5, "dateTime": 1693389374915, "trialdata": {"view_history": [{"page_index": 0, "viewing_time": 40348}, {"page_index": 1, "viewing_time": 4495}], "rt": 44844, "trial_id": "mouselab_instructions_2_control", "trial_type": "instructions", "trial_index": 5, "time_elapsed": 458823, "internal_node_id": "0.0-2.0-3.0"}}, {"uniqueid": "w63995085:a15207729", "current_trial": 6, "dateTime": 1693389421139, "trialdata": {"rt": 46210, "response": {"Q0": "There is no cost for clicking on nodes.", "Q1": "The better I perform the higher my bonus will be.", "Q2": "No, the amount of cash at each node of the web may be different each time.", "Q3": "To get the highest total score.", "Q4": "Only after moving the spider.", "Q5": "3 seconds"}, "question_order": [0, 1, 2, 3, 4, 5], "correct": {"Q0": "The cost for clicking on nodes may vary between nodes.", "Q1": "The better I perform the higher my bonus will be.", "Q2": "No, the amount of cash at each node of the web may be different each time.", "Q3": "To get the highest total score.", "Q4": "Only before moving the spider.", "Q5": "3 seconds"}, "trial_id": "mouselab_quiz_control", "trial_type": "survey-multi-choice", "trial_index": 6, "time_elapsed": 505047, "internal_node_id": "0.0-2.0-4.0"}}, {"uniqueid": "w63995085:a15207729", "current_trial": 7, "dateTime": 1693389431573, "trialdata": {"success": true, "trial_type": "fullscreen", "trial_index": 7, "time_elapsed": 515481, "internal_node_id": "0.0-2.1-0.1-0.1"}}, {"uniqueid": "w63995085:a15207729", "current_trial": 8, "dateTime": 1693389524729, "trialdata": {"view_history": [{"page_index": 0, "viewing_time": 65989}, {"page_index": 1, "viewing_time": 11773}, {"page_index": 2, "viewing_time": 11906}, {"page_index": 3, "viewing_time": 3489}], "rt": 93158, "trial_id": "mouselab_instructions_1_control", "trial_type": "instructions", "trial_index": 8, "time_elapsed": 608637, "internal_node_id": "0.0-2.1-1.1"}}, {"uniqueid": "w63995085:a15207729", "current_trial": 9, "dateTime": 1693389540977, "trialdata": {"revealed_states": [], "clicked_states": [], "num_clicks_accrued": [0, 0, 0, 0, 0, 0, 0, 0, 0, 0, 0, 0, 0], "stateRewards": ["", 10, 10, -10, 10, 10, 10, -10, -10, 10, -10, 10, 10, -10, 10, 10, 10, 10, 10, 10, 10, -10, 10, 10, 10, -10, 10, 10, 10, -10, 10, 10, -10, -10], "withholdReward": false, "trial_id": "practice_1", "block": "test", "trialIndex": 2, "score": 33.5, "costs": 0, "simulationMode": [null, null, null, null, null], "rewards": [10, 10, -10, 10, 10], "path": ["0", "0", "23", "24", "25", "30", "31"], "rt": [2709, 447, 512, 631, 399], "actions": ["left", "left", "left", "down", "right"], "actionTimes": [6728, 7696, 8743, 9899, 10830], "queries": {"click": {"state": {"target": [], "time": []}, "edge": {"target": [], "time": []}}, "mouseover": {"state": {"target": ["0"], "time": [4732]}, "edge": {"target": [], "time": []}}, "mouseout": {"state": {"target": ["0", "0"], "time": [1419, 4782]}, "edge": {"target": [], "time": []}}}, "displayed_time": "11.38", "trialTime": 16050, "trial_type": "mouselab-mdp", "trial_index": 9, "time_elapsed": 624884, "internal_node_id": "0.0-2.1-2.1-0.1"}}, {"uniqueid": "w63995085:a15207729", "current_trial": 10, "dateTime": 1693389558240, "trialdata": {"revealed_states": [], "clicked_states": [], "num_clicks_accrued": [0, 0, 0, 0, 0, 0, 0, 0, 0, 0, 0, 0, 0], "stateRewards": ["", 10, -10, -10, 10, 10, -10, -10, 10, 10, -10, 10, -10, -10, -10, -10, -10, 10, 10, -10, 10, -10, 10, -10, 10, -10, -10, 10, 10, 10, 10, -10, -10, 10], "withholdReward": false, "trial_id": "practice_2", "block": "test", "trialIndex": 3, "score": -6.5, "costs": 0, "simulationMode": [null, null, null, null, null], "rewards": [-10, 10, -10, -10, 10], "path": ["0", "0", "23", "24", "25", "26", "29"], "rt": [3981, 315, 213, 137, 827], "actions": ["left", "left", "left", "up", "left"], "actionTimes": [8176, 8990, 9753, 10425, 11784], "queries": {"click": {"state": {"target": [], "time": []}, "edge": {"target": [], "time": []}}, "mouseover": {"state": {"target": [], "time": []}, "edge": {"target": [], "time": []}}, "mouseout": {"state": {"target": [], "time": []}, "edge": {"target": [], "time": []}}}, "displayed_time": "12.30", "trialTime": 17054, "trial_type": "mouselab-mdp", "trial_index": 10, "time_elapsed": 642148, "internal_node_id": "0.0-2.1-2.1-1.1"}}, {"uniqueid": "w63995085:a15207729", "current_trial": 11, "dateTime": 1693389580400, "trialdata": {"view_history": [{"page_index": 0, "viewing_time": 15908}, {"page_index": 1, "viewing_time": 6247}], "rt": 22155, "trial_id": "mouselab_instructions_2_control", "trial_type": "instructions", "trial_index": 11, "time_elapsed": 664308, "internal_node_id": "0.0-2.1-3.1"}}, {"uniqueid": "w63995085:a15207729", "current_trial": 12, "dateTime": 1693389805486, "trialdata": {"rt": 225083, "response": {"Q0": "There is no cost for clicking on nodes.", "Q1": "The better I perform the higher my bonus will be.", "Q2": "No, the amount of cash at each node of the web may be different each time.", "Q3": "To get the highest total score.", "Q4": "Any time during the round.", "Q5": "3 seconds"}, "question_order": [0, 1, 2, 3, 4, 5], "correct": {"Q0": "The cost for clicking on nodes may vary between nodes.", "Q1": "The better I perform the higher my bonus will be.", "Q2": "No, the amount of cash at each node of the web may be different each time.", "Q3": "To get the highest total score.", "Q4": "Only before moving the spider.", "Q5": "3 seconds"}, "trial_id": "mouselab_quiz_control", "trial_type": "survey-multi-choice", "trial_index": 12, "time_elapsed": 889394, "internal_node_id": "0.0-2.1-4.1"}}, {"uniqueid": "w63995085:a15207729", "current_trial": 13, "dateTime": 1693389815007, "trialdata": {"success": true, "trial_type": "fullscreen", "trial_index": 13, "time_elapsed": 898915, "internal_node_id": "0.0-2.2-0.2-0.2"}}, {"uniqueid": "w63995085:a15207729", "current_trial": 14, "dateTime": 1693389817902, "trialdata": {"view_history": [{"page_index": 0, "viewing_time": 1693}, {"page_index": 1, "viewing_time": 198}, {"page_index": 2, "viewing_time": 207}, {"page_index": 3, "viewing_time": 794}], "rt": 2892, "trial_id": "mouselab_instructions_1_control", "trial_type": "instructions", "trial_index": 14, "time_elapsed": 901810, "internal_node_id": "0.0-2.2-1.2"}}, {"uniqueid": "w63995085:a15207729", "current_trial": 15, "dateTime": 1693389833659, "trialdata": {"revealed_states": [], "clicked_states": ["14", "12"], "num_clicks_accrued": [0, 0, 0, 0, 0, 0, 0, 0, 0, 0, 0, 0, 0], "stateRewards": ["", 10, 10, -10, 10, 10, 10, -10, -10, 10, -10, 10, 10, -10, 10, 10, 10, 10, 10, 10, 10, -10, 10, 10, 10, -10, 10, 10, 10, -10, 10, 10, -10, -10], "withholdReward": false, "trial_id": "practice_1", "block": "test", "trialIndex": 4, "score": 32.5, "costs": -1, "simulationMode": [null, null, null, null, null], "rewards": [10, -10, 10, 10, 10], "path": ["0", "0", "12", "13", "14", "19", "20"], "rt": [5320, 587, 238, 577, 185], "actions": ["right", "right", "right", "down", "right"], "actionTimes": [8837, 9953, 10707, 11823, 12548], "queries": {"click": {"state": {"target": ["14", "12"], "time": [5027, 6918]}, "edge": {"target": [], "time": []}}, "mouseover": {"state": {"target": ["14", "14", "12", "13"], "time": [4317, 4734, 6566, 8233]}, "edge": {"target": [], "time": []}}, "mouseout": {"state": {"target": ["0", "14", "14", "12"], "time": [4122, 4368, 6215, 7582]}, "edge": {"target": [], "time": []}}}, "displayed_time": "13.06", "trialTime": 15511, "trial_type": "mouselab-mdp", "trial_index": 15, "time_elapsed": 917566, "internal_node_id": "0.0-2.2-2.2-0.2"}}, {"uniqueid": "w63995085:a15207729", "current_trial": 16, "dateTime": 1693389843961, "trialdata": {"revealed_states": [], "clicked_states": [], "num_clicks_accrued": [0, 0, 0, 0, 0, 0, 0, 0, 0, 0, 0, 0, 0], "stateRewards": ["", 10, -10, -10, 10, 10, -10, -10, 10, 10, -10, 10, -10, -10, -10, -10, -10, 10, 10, -10, 10, -10, 10, -10, 10, -10, -10, 10, 10, 10, 10, -10, -10, 10], "withholdReward": false, "trial_id": "practice_2", "block": "test", "trialIndex": 5, "score": -6.5, "costs": 0, "simulationMode": [null, null, null, null, null], "rewards": [-10, 10, -10, -10, 10], "path": ["0", "0", "23", "24", "25", "26", "28"], "rt": [1339, 300, 292, 248, 861], "actions": ["left", "left", "left", "up", "right"], "actionTimes": [4097, 4927, 5768, 6572, 7953], "queries": {"click": {"state": {"target": [], "time": []}, "edge": {"target": [], "time": []}}, "mouseover": {"state": {"target": [], "time": []}, "edge": {"target": [], "time": []}}, "mouseout": {"state": {"target": ["13", "12", "0"], "time": [1823, 2091, 9686]}, "edge": {"target": [], "time": []}}}, "displayed_time": "8.49", "trialTime": 10101, "trial_type": "mouselab-mdp", "trial_index": 16, "time_elapsed": 927869, "internal_node_id": "0.0-2.2-2.2-1.2"}}, {"uniqueid": "w63995085:a15207729", "current_trial": 17, "dateTime": 1693389869556, "trialdata": {"view_history": [{"page_index": 0, "viewing_time": 22616}, {"page_index": 1, "viewing_time": 2978}], "rt": 25594, "trial_id": "mouselab_instructions_2_control", "trial_type": "instructions", "trial_index": 17, "time_elapsed": 953464, "internal_node_id": "0.0-2.2-3.2"}}, {"uniqueid": "w63995085:a15207729", "current_trial": 18, "dateTime": 1693390178260, "trialdata": {"rt": 308692, "response": {"Q0": "The cost for clicking on nodes may vary between nodes.", "Q1": "The better I perform the higher my bonus will be.", "Q2": "No, the amount of cash at each node of the web may be different each time.", "Q3": "To get the highest total score.", "Q4": "Any time during the round.", "Q5": "3 seconds"}, "question_order": [0, 1, 2, 3, 4, 5], "correct": {"Q0": "The cost for clicking on nodes may vary between nodes.", "Q1": "The better I perform the higher my bonus will be.", "Q2": "No, the amount of cash at each node of the web may be different each time.", "Q3": "To get the highest total score.", "Q4": "Only before moving the spider.", "Q5": "3 seconds"}, "trial_id": "mouselab_quiz_control", "trial_type": "survey-multi-choice", "trial_index": 18, "time_elapsed": 1262167, "internal_node_id": "0.0-2.2-4.2"}}, {"uniqueid": "w63995085:a15207729", "current_trial": 19, "dateTime": 1693390186894, "trialdata": {"success": true, "trial_type": "fullscreen", "trial_index": 19, "time_elapsed": 1270802, "internal_node_id": "0.0-2.3-0.3-0.3"}}, {"uniqueid": "w63995085:a15207729", "current_trial": 20, "dateTime": 1693390421630, "trialdata": {"view_history": [{"page_index": 0, "viewing_time": 3978}, {"page_index": 1, "viewing_time": 262}, {"page_index": 2, "viewing_time": 816}, {"page_index": 3, "viewing_time": 4219}, {"page_index": 2, "viewing_time": 203}, {"page_index": 1, "viewing_time": 151413}, {"page_index": 2, "viewing_time": 31273}, {"page_index": 3, "viewing_time": 42570}], "rt": 234735, "trial_id": "mouselab_instructions_1_control", "trial_type": "instructions", "trial_index": 20, "time_elapsed": 1505537, "internal_node_id": "0.0-2.3-1.3"}}, {"uniqueid": "w63995085:a15207729", "current_trial": 21, "dateTime": 1693390450352, "trialdata": {"revealed_states": [], "clicked_states": [], "num_clicks_accrued": [0, 0, 0, 0, 0, 0, 0, 0, 0, 0, 0, 0, 0], "stateRewards": ["", 10, 10, -10, 10, 10, 10, -10, -10, 10, -10, 10, 10, -10, 10, 10, 10, 10, 10, 10, 10, -10, 10, 10, 10, -10, 10, 10, 10, -10, 10, 10, -10, -10], "withholdReward": false, "trial_id": "practice_1", "block": "test", "trialIndex": 6, "score": 13.5, "costs": 0, "simulationMode": [null, null, null, null, null], "rewards": [10, -10, 10, 10, -10], "path": ["0", "0", "12", "13", "14", "19", "21"], "rt": [5530, 3767, 1018, 235, 2467], "actions": ["right", "right", "right", "down", "down"], "actionTimes": [11068, 15374, 16903, 17671, 20651], "queries": {"click": {"state": {"target": [], "time": []}, "edge": {"target": [], "time": []}}, "mouseover": {"state": {"target": ["23"], "time": [11002]}, "edge": {"target": [], "time": []}}, "mouseout": {"state": {"target": ["0", "0", "23", "23", "0", "13", "22"], "time": [4558, 10953, 11036, 12339, 12419, 12551, 12684]}, "edge": {"target": [], "time": []}}}, "displayed_time": "21.16", "trialTime": 28477, "trial_type": "mouselab-mdp", "trial_index": 21, "time_elapsed": 1534259, "internal_node_id": "0.0-2.3-2.3-0.3"}}, {"uniqueid": "w63995085:a15207729", "current_trial": 22, "dateTime": 1693390489362, "trialdata": {"revealed_states": [], "clicked_states": [], "num_clicks_accrued": [0, 0, 0, 0, 0, 0, 0, 0, 0, 0, 0, 0, 0], "stateRewards": ["", 10, -10, -10, 10, 10, -10, -10, 10, 10, -10, 10, -10, -10, -10, -10, -10, 10, 10, -10, 10, -10, 10, -10, 10, -10, -10, 10, 10, 10, 10, -10, -10, 10], "withholdReward": false, "trial_id": "practice_2", "block": "test", "trialIndex": 7, "score": 13.5, "costs": 0, "simulationMode": [null, null, null, null, null], "rewards": [10, -10, -10, 10, 10], "path": ["0", "0", "1", "2", "3", "8", "9"], "rt": [4568, 356, 7264, 1462, 1917], "actions": ["up", "up", "up", "left", "up"], "actionTimes": [16905, 17808, 25600, 27557, 29977], "queries": {"click": {"state": {"target": [], "time": []}, "edge": {"target": [], "time": []}}, "mouseover": {"state": {"target": [], "time": []}, "edge": {"target": [], "time": []}}, "mouseout": {"state": {"target": ["0", "10", "10", "13"], "time": [21745, 21995, 24559, 24892]}, "edge": {"target": [], "time": []}}}, "displayed_time": "30.51", "trialTime": 38748, "trial_type": "mouselab-mdp", "trial_index": 22, "time_elapsed": 1573269, "internal_node_id": "0.0-2.3-2.3-1.3"}}, {"uniqueid": "w63995085:a15207729", "current_trial": 23, "dateTime": 1693390541509, "trialdata": {"view_history": [{"page_index": 0, "viewing_time": 41356}, {"page_index": 1, "viewing_time": 10789}], "rt": 52146, "trial_id": "mouselab_instructions_2_control", "trial_type": "instructions", "trial_index": 23, "time_elapsed": 1625417, "internal_node_id": "0.0-2.3-3.3"}}, {"uniqueid": "w63995085:a15207729", "current_trial": 24, "dateTime": 1693390596874, "trialdata": {"rt": 55358, "response": {"Q0": "The cost for clicking on nodes may vary between nodes.", "Q1": "The better I perform the higher my bonus will be.", "Q2": "No, the amount of cash at each node of the web may be different each time.", "Q3": "To get the highest total score.", "Q4": "Only before moving the spider.", "Q5": "3 seconds"}, "question_order": [0, 1, 2, 3, 4, 5], "correct": {"Q0": "The cost for clicking on nodes may vary between nodes.", "Q1": "The better I perform the higher my bonus will be.", "Q2": "No, the amount of cash at each node of the web may be different each time.", "Q3": "To get the highest total score.", "Q4": "Only before moving the spider.", "Q5": "3 seconds"}, "trial_id": "mouselab_quiz_control", "trial_type": "survey-multi-choice", "trial_index": 24, "time_elapsed": 1680782, "internal_node_id": "0.0-2.3-4.3"}}, {"uniqueid": "w63995085:a15207729", "current_trial": 25, "dateTime": 1693390613390, "trialdata": {"rt": 16499, "response": {"Q0": "No"}, "question_order": [0], "trial_id": "repeat_check", "trial_type": "survey-multi-choice", "trial_index": 25, "time_elapsed": 1697297, "internal_node_id": "0.0-4.0-0.0"}}, {"uniqueid": "w63995085:a15207729", "current_trial": 26, "dateTime": 1693390636044, "trialdata": {"rt": 22639, "stimulus": "\n<h1> Get ready to start the game! </h1>\n\nThank you for reading the instructions. Get ready start with the 40 rounds of this game.\n<br><br>\nIf you need to take a break, feel free to take one after the end of a round, before continuing to the next one.\n<br><br>\nRemember, the more money the spider gets, the bigger your bonus will be!\n<br><br>\n<div style='text-align: center;'>Press <code>space</code> to begin.</div>\n\n<br><br>\n(If, at any point, the <code>space</code> key does not take you to the next page, click once on the text and try again.)", "response": " ", "trial_id": "mdp_ready", "trial_type": "html-keyboard-response", "trial_index": 26, "time_elapsed": 1719952, "internal_node_id": "0.0-6.0-0.0"}}, {"uniqueid": "w63995085:a15207729", "current_trial": 27, "dateTime": 1693390662184, "trialdata": {"revealed_states": [], "clicked_states": [], "num_clicks_accrued": [0, 0, 0, 0, 0, 0, 0, 0, 0, 0, 0, 0, 0], "stateRewards": ["", -1, 1, 3, -8, -23, -15, -14, -11, -23, 58, 68, 1, 3, 5, 12, -17, -41, -7, -10, -4, 82, 10, 1, 4, -4, 11, 73, 55, -55, -1, -86, -86, 54], "withholdReward": false, "trial_id": "mdp_trial_1", "block": "test", "trialIndex": 8, "score": -5, "costs": 0, "simulationMode": [null, null, null, null, null], "rewards": [1, 3, 5, -10, -4], "path": ["0", "0", "12", "13", "14", "19", "20"], "rt": [1124, 106, 104, 428, 98], "actions": ["right", "right", "right", "down", "right"], "actionTimes": [10088, 10718, 11352, 12290, 12924], "queries": {"click": {"state": {"target": [], "time": []}, "edge": {"target": [], "time": []}}, "mouseover": {"state": {"target": [], "time": []}, "edge": {"target": [], "time": []}}, "mouseout": {"state": {"target": [], "time": []}, "edge": {"target": [], "time": []}}}, "displayed_time": "22.97", "trialTime": 25882, "trial_type": "mouselab-mdp", "trial_index": 27, "time_elapsed": 1746091, "internal_node_id": "0.0-6.0-1.0-0.0"}}, {"uniqueid": "w63995085:a15207729", "current_trial": 28, "dateTime": 1693390684244, "trialdata": {"revealed_states": [], "clicked_states": [], "num_clicks_accrued": [0, 0, 0, 0, 0, 0, 0, 0, 0, 0, 0, 0, 0], "stateRewards": ["", 1, 4, -8, -5, -15, -7, 21, 13, -30, 40, -65, 1, 1, 5, -14, 35, 27, -38, -11, 36, -58, -47, -2, 4, -3, 13, -16, -49, 22, 15, -56, -44, -10], "withholdReward": false, "trial_id": "mdp_trial_2", "block": "test", "trialIndex": 9, "score": 28, "costs": 0, "simulationMode": [null, null, null, null, null], "rewards": [1, 1, 5, -14, 35], "path": ["0", "0", "12", "13", "14", "15", "16"], "rt": [2387, 853, 443, 435, 418], "actions": ["right", "right", "right", "up", "up"], "actionTimes": [4171, 5556, 6545, 7517, 8450], "queries": {"click": {"state": {"target": [], "time": []}, "edge": {"target": [], "time": []}}, "mouseover": {"state": {"target": [], "time": []}, "edge": {"target": [], "time": []}}, "mouseout": {"state": {"target": [], "time": []}, "edge": {"target": [], "time": []}}}, "displayed_time": "15.79", "trialTime": 21801, "trial_type": "mouselab-mdp", "trial_index": 28, "time_elapsed": 1768151, "internal_node_id": "0.0-6.0-1.0-1.0"}}, {"uniqueid": "w63995085:a15207729", "current_trial": 29, "dateTime": 1693390703881, "trialdata": {"revealed_states": [], "clicked_states": [], "num_clicks_accrued": [0, 0, 0, 0, 0, 0, 0, 0, 0, 0, 0, 0, 0], "stateRewards": ["", -2, 1, -7, -8, -37, -76, -87, 11, 30, -63, 80, -1, 4, 2, -1, 42, 17, 52, -3, -75, -80, -68, 2, -3, -5, -15, -48, 82, 24, -7, 5, -22, -71], "withholdReward": false, "trial_id": "mdp_trial_3", "block": "test", "trialIndex": 10, "score": 3, "costs": 0, "simulationMode": [null, null, null, null, null], "rewards": [2, -3, -5, -15, 24], "path": ["0", "0", "23", "24", "25", "26", "29"], "rt": [1938, 201, 452, 1095, 1229], "actions": ["left", "left", "left", "up", "left"], "actionTimes": [4454, 5190, 6158, 7765, 9514], "queries": {"click": {"state": {"target": [], "time": []}, "edge": {"target": [], "time": []}}, "mouseover": {"state": {"target": [], "time": []}, "edge": {"target": [], "time": []}}, "mouseout": {"state": {"target": [], "time": []}, "edge": {"target": [], "time": []}}}, "displayed_time": "16.53", "trialTime": 19379, "trial_type": "mouselab-mdp", "trial_index": 29, "time_elapsed": 1787788, "internal_node_id": "0.0-6.0-1.0-2.0"}}, {"uniqueid": "w63995085:a15207729", "current_trial": 30, "dateTime": 1693390727080, "trialdata": {"revealed_states": [], "clicked_states": [], "num_clicks_accrued": [0, 0, 0, 0, 0, 0, 0, 0, 0, 0, 0, 0, 0], "stateRewards": ["", 2, 3, -3, 4, 72, -28, 34, -12, 57, -64, -15, 2, 1, -4, -15, 2, 49, 31, -1, -42, -58, 31, -2, 1, -2, -13, -75, -19, -22, -6, 61, 10, -56], "withholdReward": false, "trial_id": "mdp_trial_4", "block": "test", "trialIndex": 11, "score": -60, "costs": 0, "simulationMode": [null, null, null, null, null], "rewards": [2, 1, -4, -1, -58], "path": ["0", "0", "12", "13", "14", "19", "21"], "rt": [5177, 410, 363, 487, 318], "actions": ["right", "right", "right", "down", "down"], "actionTimes": [10566, 11491, 12407, 13431, 14278], "queries": {"click": {"state": {"target": [], "time": []}, "edge": {"target": [], "time": []}}, "mouseover": {"state": {"target": [], "time": []}, "edge": {"target": [], "time": []}}, "mouseout": {"state": {"target": ["0"], "time": [4863]}, "edge": {"target": [], "time": []}}}, "displayed_time": "19.39", "trialTime": 22876, "trial_type": "mouselab-mdp", "trial_index": 30, "time_elapsed": 1810988, "internal_node_id": "0.0-6.0-1.0-3.0"}}, {"uniqueid": "w63995085:a15207729", "current_trial": 31, "dateTime": 1693390745468, "trialdata": {"revealed_states": [], "clicked_states": [], "num_clicks_accrued": [0, 0, 0, 0, 0, 0, 0, 0, 0, 0, 0, 0, 0], "stateRewards": ["", -1, 2, -7, -12, -62, 12, -13, 5, 77, -71, 83, 1, -4, 7, 15, -42, -87, -4, 5, -25, 44, 88, -1, 4, -5, -8, 14, 51, 8, -5, 83, -24, -19], "withholdReward": false, "trial_id": "mdp_trial_5", "block": "test", "trialIndex": 12, "score": -26, "costs": 0, "simulationMode": [null, null, null, null, null], "rewards": [-1, 4, -5, -5, -19], "path": ["0", "0", "23", "24", "25", "30", "33"], "rt": [981, 395, 310, 594, 642], "actions": ["left", "left", "left", "down", "left"], "actionTimes": [2919, 3847, 4674, 5807, 7005], "queries": {"click": {"state": {"target": [], "time": []}, "edge": {"target": [], "time": []}}, "mouseover": {"state": {"target": [], "time": []}, "edge": {"target": [], "time": []}}, "mouseout": {"state": {"target": ["0"], "time": [1703]}, "edge": {"target": [], "time": []}}}, "displayed_time": "15.94", "trialTime": 18031, "trial_type": "mouselab-mdp", "trial_index": 31, "time_elapsed": 1829375, "internal_node_id": "0.0-6.0-1.0-4.0"}}, {"uniqueid": "w63995085:a15207729", "current_trial": 32, "dateTime": 1693390766759, "trialdata": {"revealed_states": [], "clicked_states": [], "num_clicks_accrued": [0, 0, 0, 0, 0, 0, 0, 0, 0, 0, 0, 0, 0], "stateRewards": ["", 2, -1, 8, -2, -16, 69, -39, -7, -13, -27, -86, 2, -2, 2, 13, -34, -16, -20, -5, 19, 81, 32, -2, -1, 2, -14, 20, 80, 58, 4, 70, 12, 73], "withholdReward": false, "trial_id": "mdp_trial_6", "block": "test", "trialIndex": 13, "score": 5, "costs": 0, "simulationMode": [null, null, null, null, null], "rewards": [-2, -1, 2, -14, 20], "path": ["0", "0", "23", "24", "25", "26", "27"], "rt": [2509, 299, 268, 659, 143], "actions": ["left", "left", "left", "up", "up"], "actionTimes": [4542, 5377, 6162, 7353, 8021], "queries": {"click": {"state": {"target": [], "time": []}, "edge": {"target": [], "time": []}}, "mouseover": {"state": {"target": [], "time": []}, "edge": {"target": [], "time": []}}, "mouseout": {"state": {"target": ["0"], "time": [1806]}, "edge": {"target": [], "time": []}}}, "displayed_time": "16.04", "trialTime": 20954, "trial_type": "mouselab-mdp", "trial_index": 32, "time_elapsed": 1850666, "internal_node_id": "0.0-6.0-1.0-5.0"}}, {"uniqueid": "w63995085:a15207729", "current_trial": 33, "dateTime": 1693390785708, "trialdata": {"revealed_states": [], "clicked_states": [], "num_clicks_accrued": [0, 0, 0, 0, 0, 0, 0, 0, 0, 0, 0, 0, 0], "stateRewards": ["", 2, -3, -2, 14, -4, 85, 46, 15, -28, 41, 31, -1, -1, -1, 5, 62, 79, 57, 12, -73, -64, 86, -1, 1, -3, -5, 68, 11, -32, 8, -80, -21, -56], "withholdReward": false, "trial_id": "mdp_trial_7", "block": "test", "trialIndex": 14, "score": -16, "costs": 0, "simulationMode": [null, null, null, null, null], "rewards": [2, -3, -2, 15, -28], "path": ["0", "0", "1", "2", "3", "8", "9"], "rt": [4466, 507, 504, 386, 854], "actions": ["up", "up", "up", "left", "up"], "actionTimes": [6655, 7692, 8736, 9635, 11036], "queries": {"click": {"state": {"target": [], "time": []}, "edge": {"target": [], "time": []}}, "mouseover": {"state": {"target": [], "time": []}, "edge": {"target": [], "time": []}}, "mouseout": {"state": {"target": ["0"], "time": [1972]}, "edge": {"target": [], "time": []}}}, "displayed_time": "16.19", "trialTime": 18629, "trial_type": "mouselab-mdp", "trial_index": 33, "time_elapsed": 1869615, "internal_node_id": "0.0-6.0-1.0-6.0"}}, {"uniqueid": "w63995085:a15207729", "current_trial": 34, "dateTime": 1693390804412, "trialdata": {"revealed_states": [], "clicked_states": [], "num_clicks_accrued": [0, 0, 0, 0, 0, 0, 0, 0, 0, 0, 0, 0, 0], "stateRewards": ["", 2, -4, -4, 13, -80, 62, 13, -11, 57, -13, -44, 1, 4, 3, -4, -29, -88, 15, 16, -58, 68, -45, -1, -3, -1, -9, -44, -86, -19, -7, -36, 59, 66], "withholdReward": false, "trial_id": "mdp_trial_8", "block": "test", "trialIndex": 15, "score": -34, "costs": 0, "simulationMode": [null, null, null, null, null], "rewards": [1, 4, 3, 16, -58], "path": ["0", "0", "12", "13", "14", "19", "20"], "rt": [6155, 445, 169, 1281, 597], "actions": ["right", "right", "right", "down", "right"], "actionTimes": [8878, 9859, 10564, 12390, 13506], "queries": {"click": {"state": {"target": [], "time": []}, "edge": {"target": [], "time": []}}, "mouseover": {"state": {"target": [], "time": []}, "edge": {"target": [], "time": []}}, "mouseout": {"state": {"target": ["0", "0"], "time": [1645, 7262]}, "edge": {"target": [], "time": []}}}, "displayed_time": "16.73", "trialTime": 18383, "trial_type": "mouselab-mdp", "trial_index": 34, "time_elapsed": 1888320, "internal_node_id": "0.0-6.0-1.0-7.0"}}, {"uniqueid": "w63995085:a15207729", "current_trial": 35, "dateTime": 1693390825823, "trialdata": {"revealed_states": [], "clicked_states": [], "num_clicks_accrued": [0, 0, 0, 0, 0, 0, 0, 0, 0, 0, 0, 0, 0], "stateRewards": ["", 2, 3, 3, 10, 19, -21, 6, 9, 54, 68, 16, 2, 2, -6, -8, 40, -2, -75, -2, -42, 55, 59, -1, 2, 4, -14, 11, -34, -30, -6, 61, -53, 13], "withholdReward": false, "trial_id": "mdp_trial_9", "block": "test", "trialIndex": 16, "score": -43, "costs": 0, "simulationMode": [null, null, null, null, null], "rewards": [-1, 2, 4, -14, -34], "path": ["0", "0", "23", "24", "25", "26", "28"], "rt": [1113, 425, 748, 584, 108], "actions": ["left", "left", "left", "up", "right"], "actionTimes": [3181, 4135, 5422, 6558, 7199], "queries": {"click": {"state": {"target": [], "time": []}, "edge": {"target": [], "time": []}}, "mouseover": {"state": {"target": [], "time": []}, "edge": {"target": [], "time": []}}, "mouseout": {"state": {"target": ["0"], "time": [1475]}, "edge": {"target": [], "time": []}}}, "displayed_time": "16.09", "trialTime": 21103, "trial_type": "mouselab-mdp", "trial_index": 35, "time_elapsed": 1909730, "internal_node_id": "0.0-6.0-1.0-8.0"}}, {"uniqueid": "w63995085:a15207729", "current_trial": 36, "dateTime": 1693390846472, "trialdata": {"revealed_states": [], "clicked_states": [], "num_clicks_accrued": [0, 0, 0, 0, 0, 0, 0, 0, 0, 0, 0, 0, 0], "stateRewards": ["", 2, -1, 5, 6, 10, 86, 55, 10, -45, 63, -71, 1, -2, 5, -8, -50, -72, 36, 15, 61, 12, 33, -1, -4, 6, 5, 79, -56, -21, -16, -87, 60, -81], "withholdReward": false, "trial_id": "mdp_trial_10", "block": "test", "trialIndex": 17, "score": -54, "costs": 0, "simulationMode": [null, null, null, null, null], "rewards": [1, -2, 5, -8, -50], "path": ["0", "0", "12", "13", "14", "15", "16"], "rt": [5884, 236, 182, 271, 69], "actions": ["right", "right", "right", "up", "up"], "actionTimes": [7282, 8035, 8748, 9536, 10150], "queries": {"click": {"state": {"target": [], "time": []}, "edge": {"target": [], "time": []}}, "mouseover": {"state": {"target": [], "time": []}, "edge": {"target": [], "time": []}}, "mouseout": {"state": {"target": ["0"], "time": [1214]}, "edge": {"target": [], "time": []}}}, "displayed_time": "15.41", "trialTime": 20315, "trial_type": "mouselab-mdp", "trial_index": 36, "time_elapsed": 1930379, "internal_node_id": "0.0-6.0-1.0-9.0"}}, {"uniqueid": "w63995085:a15207729", "current_trial": 37, "dateTime": 1693390866904, "trialdata": {"revealed_states": [], "clicked_states": [], "num_clicks_accrued": [0, 0, 0, 0, 0, 0, 0, 0, 0, 0, 0, 0, 0], "stateRewards": ["", 1, 1, 7, -11, 80, -20, -53, -14, 3, 31, 27, 2, -1, -8, -10, 33, 41, 86, 9, 78, -37, -13, -1, -2, -6, -8, -80, 75, 4, -16, -49, -74, 24], "withholdReward": false, "trial_id": "mdp_trial_11", "block": "test", "trialIndex": 18, "score": 16, "costs": 0, "simulationMode": [null, null, null, null, null], "rewards": [2, -1, -8, -10, 33], "path": ["0", "0", "12", "13", "14", "15", "16"], "rt": [8334, 51, 363, 733, 168], "actions": ["right", "right", "right", "up", "up"], "actionTimes": [10261, 10828, 11739, 12992, 13710], "queries": {"click": {"state": {"target": [], "time": []}, "edge": {"target": [], "time": []}}, "mouseover": {"state": {"target": [], "time": []}, "edge": {"target": [], "time": []}}, "mouseout": {"state": {"target": ["0"], "time": [9517]}, "edge": {"target": [], "time": []}}}, "displayed_time": "15.93", "trialTime": 20080, "trial_type": "mouselab-mdp", "trial_index": 37, "time_elapsed": 1950811, "internal_node_id": "0.0-6.0-1.0-10.0"}}, {"uniqueid": "w63995085:a15207729", "current_trial": 38, "dateTime": 1693390903925, "trialdata": {"revealed_states": [], "clicked_states": [], "num_clicks_accrued": [0, 0, 0, 0, 0, 0, 0, 0, 0, 0, 0, 0, 0], "stateRewards": ["", 2, 4, 7, -6, -76, -81, 2, 5, -66, -3, 36, -2, -4, 6, -2, -69, 4, -49, -6, 67, 38, -67, 2, 1, 1, 6, -68, -21, 52, -16, -16, 6, -70], "withholdReward": false, "trial_id": "mdp_trial_12", "block": "test", "trialIndex": 19, "score": 15, "costs": 0, "simulationMode": [null, null, null, null, null], "rewards": [2, 4, 7, 5, -3], "path": ["0", "0", "1", "2", "3", "8", "10"], "rt": [1475, 80, 656, 60, 927], "actions": ["up", "up", "up", "left", "down"], "actionTimes": [22503, 23139, 24331, 24919, 26383], "queries": {"click": {"state": {"target": [], "time": []}, "edge": {"target": [], "time": []}}, "mouseover": {"state": {"target": [], "time": []}, "edge": {"target": [], "time": []}}, "mouseout": {"state": {"target": ["0", "0"], "time": [11485, 15859]}, "edge": {"target": [], "time": []}}}, "displayed_time": "35.04", "trialTime": 36651, "trial_type": "mouselab-mdp", "trial_index": 38, "time_elapsed": 1987833, "internal_node_id": "0.0-6.0-1.0-11.0"}}, {"uniqueid": "w63995085:a15207729", "current_trial": 39, "dateTime": 1693390928438, "trialdata": {"revealed_states": [], "clicked_states": [], "num_clicks_accrued": [0, 0, 0, 0, 0, 0, 0, 0, 0, 0, 0, 0, 0], "stateRewards": ["", 1, 2, -8, 9, 18, -83, -11, 6, -64, -48, 17, -2, -2, -5, -3, -24, -3, -86, -2, 48, -41, -22, -2, 4, 7, 8, 81, 13, -48, 10, 61, 19, 57], "withholdReward": false, "trial_id": "mdp_trial_13", "block": "test", "trialIndex": 20, "score": -36, "costs": 0, "simulationMode": [null, null, null, null, null], "rewards": [-2, -2, -5, -3, -24], "path": ["0", "0", "12", "13", "14", "15", "16"], "rt": [1581, 303, 201, 944, 88], "actions": ["right", "right", "right", "up", "up"], "actionTimes": [9943, 10775, 11489, 12981, 13623], "queries": {"click": {"state": {"target": [], "time": []}, "edge": {"target": [], "time": []}}, "mouseover": {"state": {"target": [], "time": []}, "edge": {"target": [], "time": []}}, "mouseout": {"state": {"target": ["0"], "time": [8095]}, "edge": {"target": [], "time": []}}}, "displayed_time": "22.37", "trialTime": 24081, "trial_type": "mouselab-mdp", "trial_index": 39, "time_elapsed": 2012345, "internal_node_id": "0.0-6.0-1.0-12.0"}}, {"uniqueid": "w63995085:a15207729", "current_trial": 40, "dateTime": 1693390948989, "trialdata": {"revealed_states": [], "clicked_states": [], "num_clicks_accrued": [0, 0, 0, 0, 0, 0, 0, 0, 0, 0, 0, 0, 0], "stateRewards": ["", 2, 4, 4, 9, -88, -10, 44, 16, -54, 64, 78, 1, 2, 5, 16, 80, 36, 7, -4, 9, -47, -70, -1, -3, 6, -16, 11, 80, 28, 8, -1, 34, -17], "withholdReward": false, "trial_id": "mdp_trial_14", "block": "test", "trialIndex": 21, "score": 90, "costs": 0, "simulationMode": [null, null, null, null, null], "rewards": [2, 4, 4, 16, 64], "path": ["0", "0", "1", "2", "3", "8", "10"], "rt": [1917, 195, 191, 637, 909], "actions": ["up", "up", "up", "left", "down"], "actionTimes": [3689, 4420, 5148, 6294, 7731], "queries": {"click": {"state": {"target": [], "time": []}, "edge": {"target": [], "time": []}}, "mouseover": {"state": {"target": [], "time": []}, "edge": {"target": [], "time": []}}, "mouseout": {"state": {"target": ["0"], "time": [1534]}, "edge": {"target": [], "time": []}}}, "displayed_time": "15.78", "trialTime": 20152, "trial_type": "mouselab-mdp", "trial_index": 40, "time_elapsed": 2032896, "internal_node_id": "0.0-6.0-1.0-13.0"}}, {"uniqueid": "w63995085:a15207729", "current_trial": 41, "dateTime": 1693390971343, "trialdata": {"revealed_states": [], "clicked_states": [], "num_clicks_accrued": [0, 0, 0, 0, 0, 0, 0, 0, 0, 0, 0, 0, 0], "stateRewards": ["", 2, -4, -8, -15, 71, -43, -41, 7, -17, 20, 67, -1, -1, -4, 6, 37, -24, -47, 9, 34, 57, 45, 1, 2, -4, -5, -23, 88, -5, 13, -40, 43, 44], "withholdReward": false, "trial_id": "mdp_trial_15", "block": "test", "trialIndex": 22, "score": -66, "costs": 0, "simulationMode": [null, null, null, null, null], "rewards": [2, -4, -8, -15, -41], "path": ["0", "0", "1", "2", "3", "4", "7"], "rt": [1598, 1152, 558, 3, 463], "actions": ["up", "up", "up", "right", "down"], "actionTimes": [3113, 4786, 5858, 6420, 7444], "queries": {"click": {"state": {"target": [], "time": []}, "edge": {"target": [], "time": []}}, "mouseover": {"state": {"target": [], "time": []}, "edge": {"target": [], "time": []}}, "mouseout": {"state": {"target": ["0"], "time": [1270]}, "edge": {"target": [], "time": []}}}, "displayed_time": "15.52", "trialTime": 21917, "trial_type": "mouselab-mdp", "trial_index": 41, "time_elapsed": 2055251, "internal_node_id": "0.0-6.0-1.0-14.0"}}, {"uniqueid": "w63995085:a15207729", "current_trial": 42, "dateTime": 1693390989772, "trialdata": {"revealed_states": [], "clicked_states": [], "num_clicks_accrued": [0, 0, 0, 0, 0, 0, 0, 0, 0, 0, 0, 0, 0], "stateRewards": ["", 1, 1, -5, 10, -31, 73, 14, -8, -23, 63, -70, -1, 2, 8, 7, 25, -59, 27, -10, -40, -71, -15, -2, 3, -8, -5, -19, 77, -34, 7, 67, 63, 19], "withholdReward": false, "trial_id": "mdp_trial_16", "block": "test", "trialIndex": 23, "score": 21, "costs": 0, "simulationMode": [null, null, null, null, null], "rewards": [1, 1, -5, 10, 14], "path": ["0", "0", "1", "2", "3", "4", "7"], "rt": [3897, 217, 350, 621, 1209], "actions": ["up", "up", "up", "right", "down"], "actionTimes": [5470, 6226, 7093, 8247, 9966], "queries": {"click": {"state": {"target": [], "time": []}, "edge": {"target": [], "time": []}}, "mouseover": {"state": {"target": [], "time": []}, "edge": {"target": [], "time": []}}, "mouseout": {"state": {"target": ["0"], "time": [1378]}, "edge": {"target": [], "time": []}}}, "displayed_time": "15.58", "trialTime": 18025, "trial_type": "mouselab-mdp", "trial_index": 42, "time_elapsed": 2073679, "internal_node_id": "0.0-6.0-1.0-15.0"}}, {"uniqueid": "w63995085:a15207729", "current_trial": 43, "dateTime": 1693391010388, "trialdata": {"revealed_states": [], "clicked_states": [], "num_clicks_accrued": [0, 0, 0, 0, 0, 0, 0, 0, 0, 0, 0, 0, 0], "stateRewards": ["", -1, -2, 4, 9, 10, -75, 39, 16, -43, 88, -19, -1, 1, 2, 4, -31, 10, 73, 12, 41, -64, -81, -2, 2, -6, 1, -81, -1, -26, 3, -59, -3, -20], "withholdReward": false, "trial_id": "mdp_trial_17", "block": "test", "trialIndex": 24, "score": -6, "costs": 0, "simulationMode": [null, null, null, null, null], "rewards": [-2, 2, -6, 3, -3], "path": ["0", "0", "23", "24", "25", "30", "32"], "rt": [4771, 1143, 1325, 3860, 1239], "actions": ["left", "left", "left", "down", "down"], "actionTimes": [6701, 8363, 10238, 14639, 16414], "queries": {"click": {"state": {"target": [], "time": []}, "edge": {"target": [], "time": []}}, "mouseover": {"state": {"target": [], "time": []}, "edge": {"target": [], "time": []}}, "mouseout": {"state": {"target": ["0", "0", "12"], "time": [1713, 18986, 19018]}, "edge": {"target": [], "time": []}}}, "displayed_time": "16.94", "trialTime": 20221, "trial_type": "mouselab-mdp", "trial_index": 43, "time_elapsed": 2094295, "internal_node_id": "0.0-6.0-1.0-16.0"}}, {"uniqueid": "w63995085:a15207729", "current_trial": 44, "dateTime": 1693391042911, "trialdata": {"revealed_states": [], "clicked_states": ["24", "26", "2", "9", "15"], "num_clicks_accrued": [0, 0, 0, 0, 0, 0, 0, 0, 0, 0, 0, 0, 0], "stateRewards": ["", -2, -2, -3, -6, -15, -11, 41, -12, -63, -76, 2, -2, -3, 8, 9, -36, -2, -18, -16, -32, -85, -17, -2, 1, 5, -16, 82, 35, -88, -1, 80, -82, -20], "withholdReward": false, "trial_id": "mdp_trial_18", "block": "test", "trialIndex": 25, "score": -13, "costs": -7, "simulationMode": [null, null, null, null, null], "rewards": [-2, -3, 8, 9, -18], "path": ["0", "0", "12", "13", "14", "15", "18"], "rt": [19097, 378, 382, 925, 955], "actions": ["right", "right", "right", "up", "left"], "actionTimes": [22441, 23368, 24270, 25712, 27208], "queries": {"click": {"state": {"target": ["24", "26", "2", "9", "15"], "time": [5842, 7857, 10021, 13235, 16019]}, "edge": {"target": [], "time": []}}, "mouseover": {"state": {"target": ["24", "26", "27", "26", "27", "10", "2", "7", "2", "3", "8", "9", "4", "7", "18", "15", "13", "13", "12"], "time": [5385, 6702, 6868, 7035, 8583, 8872, 8901, 9049, 9581, 10732, 10948, 12447, 14011, 14562, 15310, 15509, 16541, 16810, 18990]}, "edge": {"target": [], "time": []}}, "mouseout": {"state": {"target": ["28", "24", "26", "27", "26", "27", "10", "2", "7", "2", "3", "8", "9", "4", "7", "18", "15", "13", "13", "12"], "time": [1855, 6652, 6752, 6985, 8534, 8867, 8898, 8933, 9250, 10631, 10831, 12412, 13447, 14044, 15193, 15460, 16510, 16576, 18840, 20222]}, "edge": {"target": [], "time": []}}}, "displayed_time": "27.72", "trialTime": 32102, "trial_type": "mouselab-mdp", "trial_index": 44, "time_elapsed": 2126818, "internal_node_id": "0.0-6.0-1.0-17.0"}}, {"uniqueid": "w63995085:a15207729", "current_trial": 45, "dateTime": 1693391088904, "trialdata": {"revealed_states": [], "clicked_states": ["25", "12", "1", "23", "3", "13", "10", "7"], "num_clicks_accrued": [0, 0, 0, 0, 0, 0, 0, 0, 0, 0, 0, 0, 0], "stateRewards": ["", -2, -1, -3, -1, -78, -6, 2, -1, 22, -88, 32, 2, 2, -7, -8, -51, -17, 54, 2, -44, 54, 75, 2, -2, -8, -15, -29, 12, -67, 15, -1, -47, -47], "withholdReward": false, "trial_id": "mdp_trial_19", "block": "test", "trialIndex": 26, "score": -96.2, "costs": -11.200000000000001, "simulationMode": [null, null, null, null, null], "rewards": [-2, -1, -3, -1, -78], "path": ["0", "0", "1", "2", "3", "4", "5"], "rt": [31706, 1200, 831, 792, 617], "actions": ["up", "up", "up", "right", "up"], "actionTimes": [36763, 38486, 39849, 41191, 42347], "queries": {"click": {"state": {"target": ["25", "12", "1", "23", "3", "13", "10", "7"], "time": [6150, 8988, 11333, 15111, 17578, 21029, 24153, 25926]}, "edge": {"target": [], "time": []}}, "mouseover": {"state": {"target": ["23", "24", "25", "30", "24", "12", "1", "10", "28", "23", "23", "0", "12", "12", "2", "3", "8", "7", "19", "13", "19", "19", "2", "10", "2", "7", "2", "8", "9", "10"], "time": [5408, 5445, 5690, 6841, 8206, 8572, 9489, 12134, 13583, 14050, 14616, 15769, 15951, 16198, 16298, 16830, 18105, 19681, 20081, 20330, 21614, 21946, 22961, 23297, 25145, 25376, 28410, 30721, 31004, 35251]}, "edge": {"target": [], "time": []}}, "mouseout": {"state": {"target": ["23", "24", "25", "30", "24", "12", "1", "10", "28", "23", "23", "0", "12", "12", "2", "3", "8", "7", "19", "13", "19", "19", "2", "10", "2", "7", "2", "8", "9", "10"], "time": [5441, 5574, 6371, 8180, 8256, 9438, 11836, 13466, 13666, 14299, 15765, 15816, 16097, 16246, 16764, 18101, 19646, 19731, 20281, 21531, 21697, 22495, 23294, 24366, 25210, 28407, 28456, 30887, 35173, 35299]}, "edge": {"target": [], "time": []}}}, "displayed_time": "42.85", "trialTime": 45581, "trial_type": "mouselab-mdp", "trial_index": 45, "time_elapsed": 2172811, "internal_node_id": "0.0-6.0-1.0-18.0"}}, {"uniqueid": "w63995085:a15207729", "current_trial": 46, "dateTime": 1693391108893, "trialdata": {"revealed_states": [], "clicked_states": [], "num_clicks_accrued": [0, 0, 0, 0, 0, 0, 0, 0, 0, 0, 0, 0, 0], "stateRewards": ["", -1, 1, -5, -6, -78, 47, -13, 12, 48, -88, 20, 2, -3, -2, 13, -20, 37, -57, 14, -38, 30, 31, -2, -2, 8, 2, -23, 78, 28, 12, -74, -88, 8], "withholdReward": false, "trial_id": "mdp_trial_20", "block": "test", "trialIndex": 27, "score": 24, "costs": 0, "simulationMode": [null, null, null, null, null], "rewards": [-2, -2, 8, 12, 8], "path": ["0", "0", "23", "24", "25", "30", "33"], "rt": [9456, 589, 409, 746, 556], "actions": ["left", "left", "left", "down", "left"], "actionTimes": [11882, 13027, 13964, 15232, 16341], "queries": {"click": {"state": {"target": [], "time": []}, "edge": {"target": [], "time": []}}, "mouseover": {"state": {"target": ["23"], "time": [4409]}, "edge": {"target": [], "time": []}}, "mouseout": {"state": {"target": ["0", "23"], "time": [4309, 18661]}, "edge": {"target": [], "time": []}}}, "displayed_time": "16.86", "trialTime": 19560, "trial_type": "mouselab-mdp", "trial_index": 46, "time_elapsed": 2192800, "internal_node_id": "0.0-6.0-1.0-19.0"}}, {"uniqueid": "w63995085:a15207729", "current_trial": 47, "dateTime": 1693391164517, "trialdata": {"revealed_states": [], "clicked_states": ["23", "12", "2", "8", "25", "27", "29", "32", "14", "20", "1", "3", "4", "6", "7"], "num_clicks_accrued": [0, 0, 0, 0, 0, 0, 0, 0, 0, 0, 0, 0, 0], "stateRewards": ["", -2, 3, -1, 2, -72, 63, 20, -1, 62, -66, 39, -2, 3, -6, 14, 22, 47, 1, 8, -49, -1, -41, 2, 2, -6, -16, -64, -60, -34, 16, 54, 22, -7], "withholdReward": false, "trial_id": "mdp_trial_21", "block": "test", "trialIndex": 28, "score": 40, "costs": -20.999999999999996, "simulationMode": [null, null, null, null, null], "rewards": [-2, 3, -1, -1, 62], "path": ["0", "0", "1", "2", "3", "8", "9"], "rt": [43994, 621, 1039, 239, 832], "actions": ["up", "up", "up", "left", "up"], "actionTimes": [46192, 47369, 48938, 49682, 51029], "queries": {"click": {"state": {"target": ["23", "12", "2", "8", "25", "27", "29", "32", "14", "20", "1", "3", "4", "6", "7"], "time": [3925, 6817, 9634, 11996, 14747, 18247, 20379, 22026, 23994, 26835, 29015, 30810, 32667, 35592, 38576]}, "edge": {"target": [], "time": []}}, "mouseover": {"state": {"target": ["23", "24", "24", "23", "0", "13", "12", "13", "2", "8", "26", "26", "25", "26", "27", "29", "32", "15", "14", "14", "19", "20", "15", "1", "18", "7", "3", "4", "5", "6", "7"], "time": [2661, 2791, 3107, 3357, 4544, 4640, 4856, 7421, 8902, 10568, 12496, 12610, 12895, 15311, 17096, 19022, 21352, 22867, 23154, 23501, 24733, 26365, 27647, 28429, 29693, 29929, 30062, 31371, 33492, 35105, 36305]}, "edge": {"target": [], "time": []}}, "mouseout": {"state": {"target": ["0", "23", "24", "24", "23", "0", "13", "12", "13", "2", "8", "26", "26", "25", "26", "27", "29", "32", "15", "14", "14", "19", "20", "15", "1", "18", "7", "3", "4", "5", "6", "7"], "time": [2658, 2741, 2891, 3273, 4540, 4590, 4774, 7371, 8868, 10185, 12445, 12578, 12743, 15308, 17072, 18906, 20888, 22243, 23151, 23201, 24649, 26049, 27598, 27998, 29230, 29895, 29978, 31367, 33259, 34696, 36107, 44947]}, "edge": {"target": [], "time": []}}}, "displayed_time": "51.58", "trialTime": 55200, "trial_type": "mouselab-mdp", "trial_index": 47, "time_elapsed": 2248424, "internal_node_id": "0.0-6.0-1.0-20.0"}}, {"uniqueid": "w63995085:a15207729", "current_trial": 48, "dateTime": 1693391186073, "trialdata": {"revealed_states": [], "clicked_states": [], "num_clicks_accrued": [0, 0, 0, 0, 0, 0, 0, 0, 0, 0, 0, 0, 0], "stateRewards": ["", -2, 2, -5, 1, 42, -63, -58, -6, 2, 16, 81, -2, 4, 7, -10, 33, 3, -33, -2, -52, -84, -27, 2, -3, -3, 15, -74, -14, -5, -5, -84, 79, -31], "withholdReward": false, "trial_id": "mdp_trial_22", "block": "test", "trialIndex": 29, "score": -62, "costs": 0, "simulationMode": [null, null, null, null, null], "rewards": [-2, 2, -5, 1, -58], "path": ["0", "0", "1", "2", "3", "4", "7"], "rt": [3194, 1358, 267, 986, 426], "actions": ["up", "up", "up", "right", "down"], "actionTimes": [6580, 8459, 9251, 10751, 11705], "queries": {"click": {"state": {"target": [], "time": []}, "edge": {"target": [], "time": []}}, "mouseover": {"state": {"target": [], "time": []}, "edge": {"target": [], "time": []}}, "mouseout": {"state": {"target": [], "time": []}, "edge": {"target": [], "time": []}}}, "displayed_time": "17.40", "trialTime": 21141, "trial_type": "mouselab-mdp", "trial_index": 48, "time_elapsed": 2269980, "internal_node_id": "0.0-6.0-1.0-21.0"}}, {"uniqueid": "w63995085:a15207729", "current_trial": 49, "dateTime": 1693391205604, "trialdata": {"revealed_states": [], "clicked_states": [], "num_clicks_accrued": [0, 0, 0, 0, 0, 0, 0, 0, 0, 0, 0, 0, 0], "stateRewards": ["", -1, 4, -6, -5, -22, -38, -38, -2, -56, 88, 14, -1, -1, -7, -6, 61, -60, 21, 11, 57, 31, -30, -2, -2, 6, -9, -44, -70, -44, -15, 34, 16, -78], "withholdReward": false, "trial_id": "mdp_trial_23", "block": "test", "trialIndex": 30, "score": 6, "costs": 0, "simulationMode": [null, null, null, null, null], "rewards": [-1, -1, -7, -6, 21], "path": ["0", "0", "12", "13", "14", "15", "18"], "rt": [7421, 1445, 326, 586, 171], "actions": ["right", "right", "right", "up", "left"], "actionTimes": [9683, 11641, 12486, 13612, 14314], "queries": {"click": {"state": {"target": [], "time": []}, "edge": {"target": [], "time": []}}, "mouseover": {"state": {"target": [], "time": []}, "edge": {"target": [], "time": []}}, "mouseout": {"state": {"target": ["0"], "time": [449]}, "edge": {"target": [], "time": []}}}, "displayed_time": "16.26", "trialTime": 19083, "trial_type": "mouselab-mdp", "trial_index": 49, "time_elapsed": 2289511, "internal_node_id": "0.0-6.0-1.0-22.0"}}, {"uniqueid": "w63995085:a15207729", "current_trial": 50, "dateTime": 1693391227671, "trialdata": {"revealed_states": [], "clicked_states": [], "num_clicks_accrued": [0, 0, 0, 0, 0, 0, 0, 0, 0, 0, 0, 0, 0], "stateRewards": ["", -2, 2, -2, -7, -50, -62, -45, 7, 36, -24, -72, -1, -1, 8, -1, -67, 20, -52, 2, 35, -50, 80, -1, 1, 6, -6, -70, 6, 88, 8, -47, 74, -19], "withholdReward": false, "trial_id": "mdp_trial_24", "block": "test", "trialIndex": 31, "score": -54, "costs": 0, "simulationMode": [null, null, null, null, null], "rewards": [-2, 2, -2, -7, -45], "path": ["0", "0", "1", "2", "3", "4", "7"], "rt": [3091, 220, 153, 137, 253], "actions": ["up", "up", "up", "right", "down"], "actionTimes": [7798, 8548, 9231, 9881, 10680], "queries": {"click": {"state": {"target": [], "time": []}, "edge": {"target": [], "time": []}}, "mouseover": {"state": {"target": [], "time": []}, "edge": {"target": [], "time": []}}, "mouseout": {"state": {"target": [], "time": []}, "edge": {"target": [], "time": []}}}, "displayed_time": "18.72", "trialTime": 21666, "trial_type": "mouselab-mdp", "trial_index": 50, "time_elapsed": 2311579, "internal_node_id": "0.0-6.0-1.0-23.0"}}, {"uniqueid": "w63995085:a15207729", "current_trial": 51, "dateTime": 1693391246138, "trialdata": {"revealed_states": [], "clicked_states": [], "num_clicks_accrued": [0, 0, 0, 0, 0, 0, 0, 0, 0, 0, 0, 0, 0], "stateRewards": ["", 1, 1, -6, -2, 7, 77, 3, 16, -16, 66, 31, -1, 3, -8, -6, 33, -50, -48, 7, -60, -66, 36, 2, -3, 3, -7, -12, -61, -79, -4, 8, 74, -70], "withholdReward": false, "trial_id": "mdp_trial_25", "block": "test", "trialIndex": 32, "score": 21, "costs": 0, "simulationMode": [null, null, null, null, null], "rewards": [-1, 3, -8, -6, 33], "path": ["0", "0", "12", "13", "14", "15", "16"], "rt": [2379, 163, 34, 780, 267], "actions": ["right", "right", "right", "up", "up"], "actionTimes": [3365, 4060, 4612, 5956, 6760], "queries": {"click": {"state": {"target": [], "time": []}, "edge": {"target": [], "time": []}}, "mouseover": {"state": {"target": [], "time": []}, "edge": {"target": [], "time": []}}, "mouseout": {"state": {"target": [], "time": []}, "edge": {"target": [], "time": []}}}, "displayed_time": "14.99", "trialTime": 18034, "trial_type": "mouselab-mdp", "trial_index": 51, "time_elapsed": 2330046, "internal_node_id": "0.0-6.0-1.0-24.0"}}, {"uniqueid": "w63995085:a15207729", "current_trial": 52, "dateTime": 1693391265808, "trialdata": {"revealed_states": [], "clicked_states": [], "num_clicks_accrued": [0, 0, 0, 0, 0, 0, 0, 0, 0, 0, 0, 0, 0], "stateRewards": ["", 2, -2, -8, 9, -20, 55, -58, 14, 42, 2, 36, 1, -3, -5, 5, -58, 57, 60, 16, 57, 30, -70, -2, 1, 3, 10, 59, 23, 77, -13, -26, 88, -72], "withholdReward": false, "trial_id": "mdp_trial_26", "block": "test", "trialIndex": 33, "score": -57, "costs": 0, "simulationMode": [null, null, null, null, null], "rewards": [2, -2, -8, 9, -58], "path": ["0", "0", "1", "2", "3", "4", "7"], "rt": [2657, 122, 68, 74, 146], "actions": ["up", "up", "up", "right", "down"], "actionTimes": [5445, 6114, 6711, 7314, 8019], "queries": {"click": {"state": {"target": [], "time": []}, "edge": {"target": [], "time": []}}, "mouseover": {"state": {"target": [], "time": []}, "edge": {"target": [], "time": []}}, "mouseout": {"state": {"target": [], "time": []}, "edge": {"target": [], "time": []}}}, "displayed_time": "16.80", "trialTime": 19168, "trial_type": "mouselab-mdp", "trial_index": 52, "time_elapsed": 2349715, "internal_node_id": "0.0-6.0-1.0-25.0"}}, {"uniqueid": "w63995085:a15207729", "current_trial": 53, "dateTime": 1693391282982, "trialdata": {"revealed_states": [], "clicked_states": [], "num_clicks_accrued": [0, 0, 0, 0, 0, 0, 0, 0, 0, 0, 0, 0, 0], "stateRewards": ["", 1, 2, -3, -6, 50, -7, 7, -7, -80, 21, -1, 2, 2, 4, -1, 33, 84, 1, 14, -53, 81, 6, -2, -2, -3, -9, -87, -38, -59, -5, -74, -3, -71], "withholdReward": false, "trial_id": "mdp_trial_27", "block": "test", "trialIndex": 34, "score": 8, "costs": 0, "simulationMode": [null, null, null, null, null], "rewards": [2, 2, 4, -1, 1], "path": ["0", "0", "12", "13", "14", "15", "18"], "rt": [1240, 216, 135, 713, 1678], "actions": ["right", "right", "right", "up", "left"], "actionTimes": [2200, 2933, 3585, 4828, 7043], "queries": {"click": {"state": {"target": [], "time": []}, "edge": {"target": [], "time": []}}, "mouseover": {"state": {"target": [], "time": []}, "edge": {"target": [], "time": []}}, "mouseout": {"state": {"target": ["0"], "time": [448]}, "edge": {"target": [], "time": []}}}, "displayed_time": "14.96", "trialTime": 16715, "trial_type": "mouselab-mdp", "trial_index": 53, "time_elapsed": 2366889, "internal_node_id": "0.0-6.0-1.0-26.0"}}, {"uniqueid": "w63995085:a15207729", "current_trial": 54, "dateTime": 1693391301187, "trialdata": {"revealed_states": [], "clicked_states": [], "num_clicks_accrued": [0, 0, 0, 0, 0, 0, 0, 0, 0, 0, 0, 0, 0], "stateRewards": ["", -2, 1, 6, -2, -10, -78, -69, 14, -15, 7, -1, 1, -1, -2, 13, 77, 32, 87, 5, -74, 30, -26, 1, 3, 4, 12, 39, 54, -43, 2, 10, 23, 13], "withholdReward": false, "trial_id": "mdp_trial_28", "block": "test", "trialIndex": 35, "score": 26, "costs": 0, "simulationMode": [null, null, null, null, null], "rewards": [-2, 1, 6, 14, 7], "path": ["0", "0", "1", "2", "3", "8", "10"], "rt": [1711, 357, 471, 985, 244], "actions": ["up", "up", "up", "left", "down"], "actionTimes": [3016, 3908, 4921, 6434, 7208], "queries": {"click": {"state": {"target": [], "time": []}, "edge": {"target": [], "time": []}}, "mouseover": {"state": {"target": [], "time": []}, "edge": {"target": [], "time": []}}, "mouseout": {"state": {"target": ["0"], "time": [1065]}, "edge": {"target": [], "time": []}}}, "displayed_time": "15.31", "trialTime": 17754, "trial_type": "mouselab-mdp", "trial_index": 54, "time_elapsed": 2385094, "internal_node_id": "0.0-6.0-1.0-27.0"}}, {"uniqueid": "w63995085:a15207729", "current_trial": 55, "dateTime": 1693391319585, "trialdata": {"revealed_states": [], "clicked_states": [], "num_clicks_accrued": [0, 0, 0, 0, 0, 0, 0, 0, 0, 0, 0, 0, 0], "stateRewards": ["", -1, 3, 8, 9, -53, 20, -84, 2, -28, -62, -31, -1, -2, -7, 2, 51, 58, 45, -4, -17, -41, 36, 2, -2, -7, -15, 29, -54, -37, -16, -43, 65, -17], "withholdReward": false, "trial_id": "mdp_trial_29", "block": "test", "trialIndex": 36, "score": 37, "costs": 0, "simulationMode": [null, null, null, null, null], "rewards": [-1, -2, -7, 2, 45], "path": ["0", "0", "12", "13", "14", "15", "18"], "rt": [4290, 325, 317, 748, 511], "actions": ["right", "right", "right", "up", "left"], "actionTimes": [5806, 6680, 7520, 8802, 9847], "queries": {"click": {"state": {"target": [], "time": []}, "edge": {"target": [], "time": []}}, "mouseover": {"state": {"target": [], "time": []}, "edge": {"target": [], "time": []}}, "mouseout": {"state": {"target": ["0"], "time": [1239]}, "edge": {"target": [], "time": []}}}, "displayed_time": "15.52", "trialTime": 17927, "trial_type": "mouselab-mdp", "trial_index": 55, "time_elapsed": 2403492, "internal_node_id": "0.0-6.0-1.0-28.0"}}, {"uniqueid": "w63995085:a15207729", "current_trial": 56, "dateTime": 1693391338320, "trialdata": {"revealed_states": [], "clicked_states": [], "num_clicks_accrued": [0, 0, 0, 0, 0, 0, 0, 0, 0, 0, 0, 0, 0], "stateRewards": ["", -2, 3, 8, -9, 59, 41, -50, -1, 82, 66, 33, 2, -2, 7, 8, 1, -38, 12, -16, 24, -37, 67, 1, 4, -2, 5, 35, -83, 28, 8, -27, 69, -64], "withholdReward": false, "trial_id": "mdp_trial_30", "block": "test", "trialIndex": 37, "score": -53, "costs": 0, "simulationMode": [null, null, null, null, null], "rewards": [1, 4, -2, 8, -64], "path": ["0", "0", "23", "24", "25", "30", "33"], "rt": [5247, 261, 319, 881, 534], "actions": ["left", "left", "left", "down", "left"], "actionTimes": [7308, 8112, 8985, 10414, 11482], "queries": {"click": {"state": {"target": [], "time": []}, "edge": {"target": [], "time": []}}, "mouseover": {"state": {"target": [], "time": []}, "edge": {"target": [], "time": []}}, "mouseout": {"state": {"target": ["0"], "time": [1222]}, "edge": {"target": [], "time": []}}}, "displayed_time": "16.07", "trialTime": 18193, "trial_type": "mouselab-mdp", "trial_index": 56, "time_elapsed": 2422227, "internal_node_id": "0.0-6.0-1.0-29.0"}}, {"uniqueid": "w63995085:a15207729", "current_trial": 57, "dateTime": 1693391356701, "trialdata": {"revealed_states": [], "clicked_states": [], "num_clicks_accrued": [0, 0, 0, 0, 0, 0, 0, 0, 0, 0, 0, 0, 0], "stateRewards": ["", -1, -3, 4, -10, -5, 79, -87, -2, 53, 29, -20, -2, -1, -5, 10, 27, 86, 46, -16, -29, 40, 3, 2, 4, -1, -6, 37, 79, -29, 7, 86, -62, 29], "withholdReward": false, "trial_id": "mdp_trial_31", "block": "test", "trialIndex": 38, "score": -97, "costs": 0, "simulationMode": [null, null, null, null, null], "rewards": [-1, -3, 4, -10, -87], "path": ["0", "0", "1", "2", "3", "4", "7"], "rt": [1333, 93, 242, 197, 735], "actions": ["up", "up", "up", "right", "down"], "actionTimes": [2496, 3120, 3917, 4640, 5927], "queries": {"click": {"state": {"target": [], "time": []}, "edge": {"target": [], "time": []}}, "mouseover": {"state": {"target": [], "time": []}, "edge": {"target": [], "time": []}}, "mouseout": {"state": {"target": [], "time": []}, "edge": {"target": [], "time": []}}}, "displayed_time": "15.17", "trialTime": 17947, "trial_type": "mouselab-mdp", "trial_index": 57, "time_elapsed": 2440608, "internal_node_id": "0.0-6.0-1.0-30.0"}}, {"uniqueid": "w63995085:a15207729", "current_trial": 58, "dateTime": 1693391375044, "trialdata": {"revealed_states": [], "clicked_states": [], "num_clicks_accrued": [0, 0, 0, 0, 0, 0, 0, 0, 0, 0, 0, 0, 0], "stateRewards": ["", -2, -4, 4, -11, -63, -60, -7, 2, -14, 81, -43, -1, -1, -5, 7, 10, 69, 40, 8, -83, 52, 60, 1, 2, 5, -5, 16, 64, 14, -3, 29, 7, -51], "withholdReward": false, "trial_id": "mdp_trial_32", "block": "test", "trialIndex": 39, "score": -73, "costs": 0, "simulationMode": [null, null, null, null, null], "rewards": [-2, -4, 4, -11, -60], "path": ["0", "0", "1", "2", "3", "4", "6"], "rt": [3034, 637, 672, 90, 90], "actions": ["up", "up", "up", "right", "right"], "actionTimes": [4670, 5855, 7056, 7673, 8322], "queries": {"click": {"state": {"target": [], "time": []}, "edge": {"target": [], "time": []}}, "mouseover": {"state": {"target": [], "time": []}, "edge": {"target": [], "time": []}}, "mouseout": {"state": {"target": [], "time": []}, "edge": {"target": [], "time": []}}}, "displayed_time": "15.64", "trialTime": 17802, "trial_type": "mouselab-mdp", "trial_index": 58, "time_elapsed": 2458951, "internal_node_id": "0.0-6.0-1.0-31.0"}}, {"uniqueid": "w63995085:a15207729", "current_trial": 59, "dateTime": 1693391393696, "trialdata": {"revealed_states": [], "clicked_states": [], "num_clicks_accrued": [0, 0, 0, 0, 0, 0, 0, 0, 0, 0, 0, 0, 0], "stateRewards": ["", -2, 4, -3, -13, 63, -36, 62, 11, 78, 34, -51, 2, -2, 8, -6, -40, -18, 31, 9, 64, 39, 79, 1, 4, -4, 15, -12, 76, 73, -10, -77, 86, -4], "withholdReward": false, "trial_id": "mdp_trial_33", "block": "test", "trialIndex": 40, "score": 48, "costs": 0, "simulationMode": [null, null, null, null, null], "rewards": [-2, 4, -3, -13, 62], "path": ["0", "0", "1", "2", "3", "4", "7"], "rt": [1177, 314, 266, 121, 109], "actions": ["up", "up", "up", "right", "down"], "actionTimes": [2627, 3478, 4263, 4933, 5587], "queries": {"click": {"state": {"target": [], "time": []}, "edge": {"target": [], "time": []}}, "mouseover": {"state": {"target": [], "time": []}, "edge": {"target": [], "time": []}}, "mouseout": {"state": {"target": [], "time": []}, "edge": {"target": [], "time": []}}}, "displayed_time": "15.47", "trialTime": 18114, "trial_type": "mouselab-mdp", "trial_index": 59, "time_elapsed": 2477603, "internal_node_id": "0.0-6.0-1.0-32.0"}}, {"uniqueid": "w63995085:a15207729", "current_trial": 60, "dateTime": 1693391411614, "trialdata": {"revealed_states": [], "clicked_states": [], "num_clicks_accrued": [0, 0, 0, 0, 0, 0, 0, 0, 0, 0, 0, 0, 0], "stateRewards": ["", -1, 1, -1, 2, 19, 85, -18, 2, -3, -26, 36, 2, 4, 7, -9, -18, 70, 72, -5, 35, -20, -28, 1, -2, -4, -3, -59, -11, -63, -2, -72, 59, -69], "withholdReward": false, "trial_id": "mdp_trial_34", "block": "test", "trialIndex": 41, "score": -71, "costs": 0, "simulationMode": [null, null, null, null, null], "rewards": [1, -2, -4, -3, -63], "path": ["0", "0", "23", "24", "25", "26", "29"], "rt": [4400, 485, 221, 435, 325], "actions": ["left", "left", "left", "up", "left"], "actionTimes": [5909, 6938, 7691, 8657, 9527], "queries": {"click": {"state": {"target": [], "time": []}, "edge": {"target": [], "time": []}}, "mouseover": {"state": {"target": [], "time": []}, "edge": {"target": [], "time": []}}, "mouseout": {"state": {"target": [], "time": []}, "edge": {"target": [], "time": []}}}, "displayed_time": "15.51", "trialTime": 17392, "trial_type": "mouselab-mdp", "trial_index": 60, "time_elapsed": 2495521, "internal_node_id": "0.0-6.0-1.0-33.0"}}, {"uniqueid": "w63995085:a15207729", "current_trial": 61, "dateTime": 1693391430496, "trialdata": {"revealed_states": [], "clicked_states": [], "num_clicks_accrued": [0, 0, 0, 0, 0, 0, 0, 0, 0, 0, 0, 0, 0], "stateRewards": ["", -1, -4, -1, -5, -28, -23, -15, -15, -38, 59, -87, 2, 2, -5, 9, -55, -39, -71, -6, 85, -85, -11, -1, -2, 5, -10, 1, 25, 41, -4, 69, -35, 86], "withholdReward": false, "trial_id": "mdp_trial_35", "block": "test", "trialIndex": 42, "score": 84, "costs": 0, "simulationMode": [null, null, null, null, null], "rewards": [-1, -2, 5, -4, 86], "path": ["0", "0", "23", "24", "25", "30", "33"], "rt": [805, 262, 253, 135, 181], "actions": ["left", "left", "left", "down", "left"], "actionTimes": [2924, 3715, 4504, 5153, 5883], "queries": {"click": {"state": {"target": [], "time": []}, "edge": {"target": [], "time": []}}, "mouseover": {"state": {"target": [], "time": []}, "edge": {"target": [], "time": []}}, "mouseout": {"state": {"target": [], "time": []}, "edge": {"target": [], "time": []}}}, "displayed_time": "16.12", "trialTime": 18388, "trial_type": "mouselab-mdp", "trial_index": 61, "time_elapsed": 2514403, "internal_node_id": "0.0-6.0-1.0-34.0"}}, {"uniqueid": "w63995085:a15207729", "current_trial": 62, "dateTime": 1693391448300, "trialdata": {"revealed_states": [], "clicked_states": [], "num_clicks_accrued": [0, 0, 0, 0, 0, 0, 0, 0, 0, 0, 0, 0, 0], "stateRewards": ["", -1, 3, -4, -14, 78, 67, 2, 13, -32, 28, 39, -2, 1, -4, -4, -4, -42, -86, 11, 64, -29, -32, -1, -4, 2, -7, 5, 68, -61, 2, -21, 85, 50], "withholdReward": false, "trial_id": "mdp_trial_36", "block": "test", "trialIndex": 43, "score": -26, "costs": 0, "simulationMode": [null, null, null, null, null], "rewards": [-2, 1, -4, 11, -32], "path": ["0", "0", "12", "13", "14", "19", "22"], "rt": [3505, 218, 197, 107, 738], "actions": ["right", "right", "right", "down", "left"], "actionTimes": [5142, 5888, 6599, 7258, 8522], "queries": {"click": {"state": {"target": [], "time": []}, "edge": {"target": [], "time": []}}, "mouseover": {"state": {"target": [], "time": []}, "edge": {"target": [], "time": []}}, "mouseout": {"state": {"target": [], "time": []}, "edge": {"target": [], "time": []}}}, "displayed_time": "15.65", "trialTime": 17298, "trial_type": "mouselab-mdp", "trial_index": 62, "time_elapsed": 2532207, "internal_node_id": "0.0-6.0-1.0-35.0"}}, {"uniqueid": "w63995085:a15207729", "current_trial": 63, "dateTime": 1693391468317, "trialdata": {"revealed_states": [], "clicked_states": [], "num_clicks_accrued": [0, 0, 0, 0, 0, 0, 0, 0, 0, 0, 0, 0, 0], "stateRewards": ["", 2, 3, 8, 11, 25, -80, 6, -4, -56, 84, -23, -2, -4, -3, 4, -51, -9, -61, -15, -64, 67, -35, 1, -1, -7, -6, 83, 59, -15, 12, -79, 56, 41], "withholdReward": false, "trial_id": "mdp_trial_37", "block": "test", "trialIndex": 44, "score": 93, "costs": 0, "simulationMode": [null, null, null, null, null], "rewards": [2, 3, 8, -4, 84], "path": ["0", "0", "1", "2", "3", "8", "10"], "rt": [4169, 138, 158, 945, 168], "actions": ["up", "up", "up", "left", "down"], "actionTimes": [6246, 6924, 7593, 9096, 9803], "queries": {"click": {"state": {"target": [], "time": []}, "edge": {"target": [], "time": []}}, "mouseover": {"state": {"target": [], "time": []}, "edge": {"target": [], "time": []}}, "mouseout": {"state": {"target": [], "time": []}, "edge": {"target": [], "time": []}}}, "displayed_time": "16.08", "trialTime": 19266, "trial_type": "mouselab-mdp", "trial_index": 63, "time_elapsed": 2552224, "internal_node_id": "0.0-6.0-1.0-36.0"}}, {"uniqueid": "w63995085:a15207729", "current_trial": 64, "dateTime": 1693391489980, "trialdata": {"revealed_states": [], "clicked_states": [], "num_clicks_accrued": [0, 0, 0, 0, 0, 0, 0, 0, 0, 0, 0, 0, 0], "stateRewards": ["", 1, 3, 3, -10, 52, 68, 59, 12, 7, 49, 21, -2, -3, -4, -2, -2, 63, 63, -4, 44, 43, -76, -2, -3, -6, 13, 48, 36, 12, -5, -36, -33, -11], "withholdReward": false, "trial_id": "mdp_trial_38", "block": "test", "trialIndex": 45, "score": 56, "costs": 0, "simulationMode": [null, null, null, null, null], "rewards": [1, 3, 3, -10, 59], "path": ["0", "0", "1", "2", "3", "4", "7"], "rt": [5989, 177, 281, 269, 410], "actions": ["up", "up", "up", "right", "down"], "actionTimes": [8214, 8905, 9709, 10515, 11452], "queries": {"click": {"state": {"target": [], "time": []}, "edge": {"target": [], "time": []}}, "mouseover": {"state": {"target": [], "time": []}, "edge": {"target": [], "time": []}}, "mouseout": {"state": {"target": ["0"], "time": [1197]}, "edge": {"target": [], "time": []}}}, "displayed_time": "16.23", "trialTime": 21109, "trial_type": "mouselab-mdp", "trial_index": 64, "time_elapsed": 2573888, "internal_node_id": "0.0-6.0-1.0-37.0"}}, {"uniqueid": "w63995085:a15207729", "current_trial": 65, "dateTime": 1693391507761, "trialdata": {"revealed_states": [], "clicked_states": [], "num_clicks_accrued": [0, 0, 0, 0, 0, 0, 0, 0, 0, 0, 0, 0, 0], "stateRewards": ["", -1, -3, 1, -4, -48, -63, -49, -2, -84, -19, 65, 2, -2, -2, -12, -4, 59, 9, 6, 75, 69, -13, -1, -3, -3, -2, -37, -68, -36, 13, 32, 18, -14], "withholdReward": false, "trial_id": "mdp_trial_39", "block": "test", "trialIndex": 46, "score": -24, "costs": 0, "simulationMode": [null, null, null, null, null], "rewards": [-1, -3, 1, -2, -19], "path": ["0", "0", "1", "2", "3", "8", "10"], "rt": [2306, 291, 233, 168, 342], "actions": ["up", "up", "up", "left", "down"], "actionTimes": [4049, 4854, 5610, 6329, 7186], "queries": {"click": {"state": {"target": [], "time": []}, "edge": {"target": [], "time": []}}, "mouseover": {"state": {"target": [], "time": []}, "edge": {"target": [], "time": []}}, "mouseout": {"state": {"target": ["0"], "time": [1459]}, "edge": {"target": [], "time": []}}}, "displayed_time": "15.76", "trialTime": 17253, "trial_type": "mouselab-mdp", "trial_index": 65, "time_elapsed": 2591668, "internal_node_id": "0.0-6.0-1.0-38.0"}}, {"uniqueid": "w63995085:a15207729", "current_trial": 66, "dateTime": 1693391525937, "trialdata": {"revealed_states": [], "clicked_states": [], "num_clicks_accrued": [0, 0, 0, 0, 0, 0, 0, 0, 0, 0, 0, 0, 0], "stateRewards": ["", -1, 1, 8, -8, -49, 62, -78, 16, 28, -81, 78, -2, -3, -1, -4, 67, 49, -2, -13, -16, -39, 83, 1, -4, 4, -5, -20, 7, 84, 7, -32, -59, 19], "withholdReward": false, "trial_id": "mdp_trial_40", "block": "test", "trialIndex": 47, "score": 39, "costs": 0, "simulationMode": [null, null, null, null, null], "rewards": [-2, -3, -1, -4, 49], "path": ["0", "0", "12", "13", "14", "15", "17"], "rt": [2326, 187, 262, 113, 93], "actions": ["right", "right", "right", "up", "right"], "actionTimes": [3653, 4361, 5152, 5802, 6432], "queries": {"click": {"state": {"target": [], "time": []}, "edge": {"target": [], "time": []}}, "mouseover": {"state": {"target": [], "time": []}, "edge": {"target": [], "time": []}}, "mouseout": {"state": {"target": ["0"], "time": [1040]}, "edge": {"target": [], "time": []}}}, "displayed_time": "15.34", "trialTime": 17740, "trial_type": "mouselab-mdp", "trial_index": 66, "time_elapsed": 2609844, "internal_node_id": "0.0-6.0-1.0-39.0"}}, {"uniqueid": "w63995085:a15207729", "current_trial": 67, "dateTime": 1693391578396, "trialdata": {"rt": 52451, "response": {"Q0": "$-2 to $2", "Q1": "$-32 to $32", "Q2": "$-88 to $88", "Q3": "There was no cost for clicking on nodes.", "Q4": "Very motivated"}, "question_order": [0, 1, 2, 3, 4], "trial_id": "final_quiz_control", "trial_type": "survey-multi-choice", "trial_index": 67, "time_elapsed": 2662304, "internal_node_id": "0.0-6.0-2.0"}}], "questiondata": {"params": {"CODE": "C6DMOQA6", "MIN_TIME": 14, "inspectCost": 1, "startTime": "Wed Aug 30 2023 11:48:34 GMT+0200 (South Africa Standard Time)", "bonusRate": 0.002, "variance": "1_2_4_8_44", "branching": "31123"}}, "eventdata": [{"eventtype": "initialized", "value": null, "timestamp": 1693388913970, "interval": 0}, {"eventtype": "window_resize", "value": [1028, 744], "timestamp": 1693388913970, "interval": 0}, {"eventtype": "window_resize", "value": [1028, 744], "timestamp": 1693388914404, "interval": 434}, {"eventtype": "window_resize", "value": [1536, 864], "timestamp": 1693388921266, "interval": 6862}, {"eventtype": "focus", "value": "off", "timestamp": 1693389428513, "interval": 507247}, {"eventtype": "focus", "value": "on", "timestamp": 1693389428513, "interval": 0}, {"eventtype": "window_resize", "value": [1028, 744], "timestamp": 1693389428735, "interval": 222}, {"eventtype": "window_resize", "value": [1536, 864], "timestamp": 1693389430843, "interval": 2108}, {"eventtype": "focus", "value": "off", "timestamp": 1693389755492, "interval": 324649}, {"eventtype": "focus", "value": "on", "timestamp": 1693389760804, "interval": 5312}, {"eventtype": "focus", "value": "off", "timestamp": 1693389811232, "interval": 50428}, {"eventtype": "focus", "value": "on", "timestamp": 1693389811232, "interval": 0}, {"eventtype": "window_resize", "value": [1028, 744], "timestamp": 1693389811459, "interval": 227}, {"eventtype": "window_resize", "value": [1536, 864], "timestamp": 1693389814257, "interval": 2798}, {"eventtype": "focus", "value": "off", "timestamp": 1693390184011, "interval": 369754}, {"eventtype": "focus", "value": "on", "timestamp": 1693390184012, "interval": 1}, {"eventtype": "window_resize", "value": [1028, 744], "timestamp": 1693390184235, "interval": 223}, {"eventtype": "window_resize", "value": [1536, 864], "timestamp": 1693390186125, "interval": 1890}, {"eventtype": "focus", "value": "off", "timestamp": 1693390519241, "interval": 333116}, {"eventtype": "focus", "value": "on", "timestamp": 1693390524103, "interval": 4862}], "useragent": "Mozilla/5.0 (Windows NT 10.0; Win64; x64) AppleWebKit/537.36 (KHTML, like Gecko) Chrome/116.0.0.0 Safari/537.36", "mode": "live", "id": "w63995085:a15207729", "status": "user data saved", "Beginhit": "2023-08-30 09:48:31.883273", "Beginexp": "2023-08-30 09:48:42.371056", "Endhit": null, "psiturkStatus": 2, "browser": "<redacted>", "platform": "windows", "language": "en-US", "excludeReason": "dataincomplete"}