{"condition": 0, "counterbalance": 0, "assignmentId": "a70797613", "workerId": "w61292887", "hitId": "h17076007", "currenttrial": 55, "bonus": 0, "data": [{"uniqueid": "w61292887:a70797613", "current_trial": 0, "dateTime": 1693580093945, "trialdata": {"success": true, "trial_type": "fullscreen", "trial_index": 0, "time_elapsed": 4103, "internal_node_id": "0.0-0.0"}}, {"uniqueid": "w61292887:a70797613", "current_trial": 1, "dateTime": 1693580107157, "trialdata": {"view_history": [{"page_index": 0, "viewing_time": 13204}], "rt": 13206, "trial_id": "exp_instructions_control", "trial_type": "instructions", "trial_index": 1, "time_elapsed": 17316, "internal_node_id": "0.0-1.0"}}, {"uniqueid": "w61292887:a70797613", "current_trial": 2, "dateTime": 1693580229993, "trialdata": {"view_history": [{"page_index": 0, "viewing_time": 36071}, {"page_index": 1, "viewing_time": 48972}, {"page_index": 2, "viewing_time": 11187}, {"page_index": 3, "viewing_time": 26606}], "rt": 122835, "trial_id": "mouselab_instructions_1_control", "trial_type": "instructions", "trial_index": 2, "time_elapsed": 140151, "internal_node_id": "0.0-2.0-1.0"}}, {"uniqueid": "w61292887:a70797613", "current_trial": 3, "dateTime": 1693580254753, "trialdata": {"revealed_states": [], "clicked_states": ["12", "23", "1"], "num_clicks_accrued": [0, 0, 0, 0, 0, 0, 0, 0, 0, 0, 0, 0, 0], "stateRewards": ["", -10, -10, 10, 10, -10, 10, -10, -10, -10, -10, -10, 10, -10, 10, 10, 10, 10, -10, -10, -10, 10, -10, 10, -10, 10, 10, -10, 10, -10, 10, -10, 10, 10], "withholdReward": false, "trial_id": "practice_1", "block": "test", "trialIndex": 0, "score": 12, "costs": -1.5, "simulationMode": [null, null, null, null, null], "rewards": [10, -10, 10, 10, -10], "path": ["0", "0", "23", "24", "25", "26", "27"], "rt": [8510, 1386, 1125, 3852, 924], "actions": ["left", "left", "left", "up", "up"], "actionTimes": [11254, 13163, 14804, 19177, 20596], "queries": {"click": {"state": {"target": ["12", "23", "1"], "time": [4642, 6952, 8921]}, "edge": {"target": [], "time": []}}, "mouseover": {"state": {"target": ["12", "0", "23", "1", "0"], "time": [4430, 5884, 6247, 8012, 9875]}, "edge": {"target": [], "time": []}}, "mouseout": {"state": {"target": ["0", "0", "12", "0", "23", "1", "0", "0", "26", "24"], "time": [1448, 3833, 5616, 5929, 7744, 9829, 9892, 15924, 22801, 22870]}, "edge": {"target": [], "time": []}}}, "displayed_time": "21.12", "trialTime": 23844, "trial_type": "mouselab-mdp", "trial_index": 3, "time_elapsed": 164911, "internal_node_id": "0.0-2.0-2.0-0.0"}}, {"uniqueid": "w61292887:a70797613", "current_trial": 4, "dateTime": 1693580279829, "trialdata": {"revealed_states": [], "clicked_states": ["23", "1", "3", "4", "5", "7"], "num_clicks_accrued": [0, 0, 0, 0, 0, 0, 0, 0, 0, 0, 0, 0, 0], "stateRewards": ["", 10, 10, 10, 10, -10, -10, 10, -10, -10, -10, -10, -10, 10, 10, -10, -10, -10, -10, -10, -10, 10, 10, -10, -10, 10, -10, 10, -10, -10, 10, 10, 10, -10], "withholdReward": false, "trial_id": "practice_2", "block": "test", "trialIndex": 1, "score": 50.5, "costs": -3, "simulationMode": [null, null, null, null, null], "rewards": [10, 10, 10, 10, 10], "path": ["0", "0", "1", "2", "3", "4", "7"], "rt": [15859, 8, 82, 640, 131], "actions": ["up", "up", "up", "right", "down"], "actionTimes": [18427, 18961, 19566, 20725, 21381], "queries": {"click": {"state": {"target": ["23", "1", "3", "4", "5", "7"], "time": [4951, 6375, 10566, 11766, 13806, 15706]}, "edge": {"target": [], "time": []}}, "mouseover": {"state": {"target": ["23", "0", "1", "12", "3", "3", "4", "5", "7", "6"], "time": [3411, 5742, 6142, 6993, 9488, 10041, 11139, 13703, 15620, 16553]}, "edge": {"target": [], "time": []}}, "mouseout": {"state": {"target": ["0", "23", "0", "1", "12", "3", "3", "4", "4", "5", "7", "6"], "time": [3198, 5694, 5789, 6925, 8877, 9891, 10697, 13137, 13354, 14302, 16303, 17635]}, "edge": {"target": [], "time": []}}}, "displayed_time": "21.90", "trialTime": 24400, "trial_type": "mouselab-mdp", "trial_index": 4, "time_elapsed": 189987, "internal_node_id": "0.0-2.0-2.0-1.0"}}, {"uniqueid": "w61292887:a70797613", "current_trial": 5, "dateTime": 1693580293777, "trialdata": {"view_history": [{"page_index": 0, "viewing_time": 8517}, {"page_index": 1, "viewing_time": 5427}], "rt": 13945, "trial_id": "mouselab_instructions_2_control", "trial_type": "instructions", "trial_index": 5, "time_elapsed": 203936, "internal_node_id": "0.0-2.0-3.0"}}, {"uniqueid": "w61292887:a70797613", "current_trial": 6, "dateTime": 1693580316457, "trialdata": {"rt": 22673, "response": {"Q0": "The cost for clicking on nodes may vary between nodes.", "Q1": "The better I perform the higher my bonus will be.", "Q2": "No, the amount of cash at each node of the web may be different each time.", "Q3": "To get the highest total score.", "Q4": "Only before moving the spider.", "Q5": "3 seconds"}, "question_order": [0, 1, 2, 3, 4, 5], "correct": {"Q0": "The cost for clicking on nodes may vary between nodes.", "Q1": "The better I perform the higher my bonus will be.", "Q2": "No, the amount of cash at each node of the web may be different each time.", "Q3": "To get the highest total score.", "Q4": "Only before moving the spider.", "Q5": "3 seconds"}, "trial_id": "mouselab_quiz_control", "trial_type": "survey-multi-choice", "trial_index": 6, "time_elapsed": 226616, "internal_node_id": "0.0-2.0-4.0"}}, {"uniqueid": "w61292887:a70797613", "current_trial": 7, "dateTime": 1693580320958, "trialdata": {"rt": 4487, "response": {"Q0": "No"}, "question_order": [0], "trial_id": "repeat_check", "trial_type": "survey-multi-choice", "trial_index": 7, "time_elapsed": 231116, "internal_node_id": "0.0-4.0-0.0"}}, {"uniqueid": "w61292887:a70797613", "current_trial": 8, "dateTime": 1693580331946, "trialdata": {"rt": 10976, "stimulus": "\n<h1> Get ready to start the game! </h1>\n\nThank you for reading the instructions. Get ready start with the 40 rounds of this game.\n<br><br>\nIf you need to take a break, feel free to take one after the end of a round, before continuing to the next one.\n<br><br>\nRemember, the more money the spider gets, the bigger your bonus will be!\n<br><br>\n<div style='text-align: center;'>Press <code>space</code> to begin.</div>\n\n<br><br>\n(If, at any point, the <code>space</code> key does not take you to the next page, click once on the text and try again.)", "response": " ", "trial_id": "mdp_ready", "trial_type": "html-keyboard-response", "trial_index": 8, "time_elapsed": 242105, "internal_node_id": "0.0-6.0-0.0"}}, {"uniqueid": "w61292887:a70797613", "current_trial": 9, "dateTime": 1693580361388, "trialdata": {"revealed_states": [], "clicked_states": ["23", "12", "1", "19", "22", "20", "21"], "num_clicks_accrued": [0, 0, 0, 0, 0, 0, 0, 0, 0, 0, 0, 0, 0], "stateRewards": ["", 1, 1, 6, -14, -40, 37, 16, -13, 33, -68, 49, 2, 4, 3, 6, 55, 27, 32, 10, -65, 20, -87, 2, 1, -6, -5, -42, 12, 29, -8, 16, 76, -33], "withholdReward": false, "trial_id": "mdp_trial_1", "block": "test", "trialIndex": 2, "score": 29.2, "costs": -9.8, "simulationMode": [null, null, null, null, null], "rewards": [2, 4, 3, 10, 20], "path": ["0", "0", "12", "13", "14", "19", "21"], "rt": [21526, 69, 119, 74, 175], "actions": ["right", "right", "right", "down", "down"], "actionTimes": [23266, 23860, 24493, 25081, 25780], "queries": {"click": {"state": {"target": ["23", "12", "1", "19", "22", "20", "21"], "time": [2659, 5695, 7851, 11727, 14576, 17845, 20569]}, "edge": {"target": [], "time": []}}, "mouseover": {"state": {"target": ["23", "0", "12", "1", "7", "4", "18", "14", "19", "14", "15", "14", "21", "22", "21", "20", "21", "19", "15", "16"], "time": [2257, 3220, 3554, 6700, 9134, 9164, 10315, 10581, 11444, 12295, 12726, 14010, 14161, 14329, 17410, 17573, 20506, 21307, 21372, 21419]}, "edge": {"target": [], "time": []}}, "mouseout": {"state": {"target": ["2", "0", "23", "0", "12", "1", "7", "4", "18", "14", "19", "14", "15", "14", "21", "22", "21", "20", "20", "21", "21", "19", "15"], "time": [440, 2238, 3205, 3270, 6534, 9097, 9147, 9949, 10346, 11148, 12231, 12311, 13994, 14045, 14263, 15061, 17477, 17923, 20291, 20587, 21291, 21339, 21389]}, "edge": {"target": [], "time": []}}}, "displayed_time": "26.30", "trialTime": 28555, "trial_type": "mouselab-mdp", "trial_index": 9, "time_elapsed": 271546, "internal_node_id": "0.0-6.0-1.0-0.0"}}, {"uniqueid": "w61292887:a70797613", "current_trial": 10, "dateTime": 1693580391664, "trialdata": {"revealed_states": [], "clicked_states": ["5", "6", "7", "11", "1", "2", "10", "29"], "num_clicks_accrued": [0, 0, 0, 0, 0, 0, 0, 0, 0, 0, 0, 0, 0], "stateRewards": ["", -1, -3, -3, 1, -38, 2, -53, -2, -1, -81, 70, -1, 1, -5, -9, 46, 15, 35, -1, -22, 38, 59, -2, 4, -8, 13, 1, -83, -43, 4, 76, 13, 48], "withholdReward": false, "trial_id": "mdp_trial_2", "block": "test", "trialIndex": 3, "score": 49.8, "costs": -11.200000000000001, "simulationMode": [null, null, null, null, null], "rewards": [-1, -3, -3, -2, 70], "path": ["0", "0", "1", "2", "3", "8", "11"], "rt": [21984, 60, 766, 511, 234], "actions": ["up", "up", "up", "left", "left"], "actionTimes": [23632, 24190, 25479, 26511, 27267], "queries": {"click": {"state": {"target": ["5", "6", "7", "11", "1", "2", "10", "29"], "time": [3744, 6166, 8242, 10505, 14254, 16644, 19098, 21016]}, "edge": {"target": [], "time": []}}, "mouseover": {"state": {"target": ["1", "2", "3", "5", "4", "6", "7", "2", "8", "11", "10", "10", "2", "1", "2", "8", "10", "28", "26", "29"], "time": [2111, 2810, 3293, 3444, 4090, 5891, 6709, 8690, 8839, 9172, 10922, 11305, 13622, 13820, 16400, 17282, 18869, 19634, 20067, 20429]}, "edge": {"target": [], "time": []}}, "mouseout": {"state": {"target": ["16", "0", "1", "2", "3", "5", "4", "6", "7", "2", "8", "11", "10", "10", "2", "1", "2", "8", "10", "28", "26", "29", "26"], "time": [376, 2030, 2377, 2863, 3343, 4058, 4160, 6644, 8658, 8738, 9124, 10885, 10986, 13304, 13768, 16335, 17186, 18833, 19599, 19683, 20115, 23048, 29145]}, "edge": {"target": [], "time": []}}}, "displayed_time": "27.79", "trialTime": 29525, "trial_type": "mouselab-mdp", "trial_index": 10, "time_elapsed": 301822, "internal_node_id": "0.0-6.0-1.0-1.0"}}, {"uniqueid": "w61292887:a70797613", "current_trial": 11, "dateTime": 1693580415051, "trialdata": {"revealed_states": [], "clicked_states": ["23", "12", "1", "5", "6"], "num_clicks_accrued": [0, 0, 0, 0, 0, 0, 0, 0, 0, 0, 0, 0, 0], "stateRewards": ["", 2, -3, -2, 14, -4, 85, 46, 15, -28, 41, 31, -1, -1, -1, 5, 62, 79, 57, 12, -73, -64, 86, -1, 1, -3, -5, 68, 11, -32, 8, -80, -21, -56], "withholdReward": false, "trial_id": "mdp_trial_3", "block": "test", "trialIndex": 4, "score": 89, "costs": -7, "simulationMode": [null, null, null, null, null], "rewards": [2, -3, -2, 14, 85], "path": ["0", "0", "1", "2", "3", "4", "6"], "rt": [15667, 210, 69, 578, 206], "actions": ["up", "up", "up", "right", "right"], "actionTimes": [17507, 18233, 18827, 19920, 20646], "queries": {"click": {"state": {"target": ["23", "12", "1", "5", "6"], "time": [3680, 6104, 8717, 11780, 14130]}, "edge": {"target": [], "time": []}}, "mouseover": {"state": {"target": ["0", "31", "24", "23", "24", "0", "12", "1", "1", "18", "20", "4", "5", "6", "7"], "time": [2467, 2636, 3069, 3300, 4568, 5829, 5861, 8195, 8595, 9277, 9410, 10895, 11526, 14011, 16007]}, "edge": {"target": [], "time": []}}, "mouseout": {"state": {"target": ["0", "0", "31", "24", "23", "24", "23", "0", "12", "12", "1", "1", "18", "20", "4", "5", "6", "7", "0"], "time": [1167, 2516, 2658, 3264, 4531, 5768, 5814, 5846, 6895, 8146, 8227, 9243, 9294, 10695, 11112, 12160, 14373, 22334, 22486]}, "edge": {"target": [], "time": []}}}, "displayed_time": "21.15", "trialTime": 22671, "trial_type": "mouselab-mdp", "trial_index": 11, "time_elapsed": 325209, "internal_node_id": "0.0-6.0-1.0-2.0"}}, {"uniqueid": "w61292887:a70797613", "current_trial": 12, "dateTime": 1693580440831, "trialdata": {"revealed_states": [], "clicked_states": ["27", "29", "32", "33", "23"], "num_clicks_accrued": [0, 0, 0, 0, 0, 0, 0, 0, 0, 0, 0, 0, 0], "stateRewards": ["", -1, -1, 4, -16, -75, 81, -51, -7, -84, 73, -30, -2, 1, -3, -16, -77, 33, 14, 1, 45, 87, -66, 2, 2, -5, -7, -19, -17, 79, -3, 8, 49, 47], "withholdReward": false, "trial_id": "mdp_trial_4", "block": "test", "trialIndex": 5, "score": 64, "costs": -7, "simulationMode": [null, null, null, null, null], "rewards": [2, 2, -5, -7, 79], "path": ["0", "0", "23", "24", "25", "26", "29"], "rt": [16108, 115, 146, 1243, 94], "actions": ["left", "left", "left", "up", "left"], "actionTimes": [19147, 19794, 20452, 22215, 22834], "queries": {"click": {"state": {"target": ["27", "29", "32", "33", "23"], "time": [5441, 8335, 11790, 14239, 16509]}, "edge": {"target": [], "time": []}}, "mouseover": {"state": {"target": ["23", "24", "26", "27", "26", "29", "30", "25", "26", "29", "10", "2", "1", "23", "31", "32", "33", "30", "31", "0", "23"], "time": [3795, 3835, 4681, 5163, 6049, 6278, 7513, 7612, 7664, 7913, 9196, 9561, 10578, 10610, 10646, 11028, 14044, 14505, 14541, 14622, 14975]}, "edge": {"target": [], "time": []}}, "mouseout": {"state": {"target": ["0", "23", "24", "26", "27", "26", "29", "30", "25", "26", "29", "27", "10", "2", "1", "23", "31", "32", "33", "30", "31", "0", "23"], "time": [3767, 3816, 3916, 4816, 5963, 6128, 6598, 7579, 7626, 7828, 8677, 9061, 9528, 9594, 10593, 10627, 10659, 13846, 14489, 14521, 14554, 14930, 24387]}, "edge": {"target": [], "time": []}}}, "displayed_time": "23.35", "trialTime": 25001, "trial_type": "mouselab-mdp", "trial_index": 12, "time_elapsed": 350989, "internal_node_id": "0.0-6.0-1.0-3.0"}}, {"uniqueid": "w61292887:a70797613", "current_trial": 13, "dateTime": 1693580473493, "trialdata": {"revealed_states": [], "clicked_states": ["20", "16", "5", "6", "11", "9", "27", "29", "28", "10"], "num_clicks_accrued": [0, 0, 0, 0, 0, 0, 0, 0, 0, 0, 0, 0, 0], "stateRewards": ["", 2, 3, 3, 10, 19, -21, 6, 9, 54, 68, 16, 2, 2, -6, -8, 40, -2, -75, -2, -42, 55, 59, -1, 2, 4, -14, 11, -34, -30, -6, 61, -53, 13], "withholdReward": false, "trial_id": "mdp_trial_5", "block": "test", "trialIndex": 6, "score": 71, "costs": -14.000000000000002, "simulationMode": [null, null, null, null, null], "rewards": [2, 3, 3, 9, 68], "path": ["0", "0", "1", "2", "3", "8", "10"], "rt": [24092, 553, 183, 569, 98], "actions": ["up", "up", "up", "left", "down"], "actionTimes": [26258, 27326, 28024, 29110, 29722], "queries": {"click": {"state": {"target": ["20", "16", "5", "6", "11", "9", "27", "29", "28", "10"], "time": [3495, 5572, 7871, 9828, 12114, 14531, 17130, 19584, 21552, 23773]}, "edge": {"target": [], "time": []}}, "mouseover": {"state": {"target": ["12", "13", "19", "20", "15", "16", "16", "6", "5", "6", "4", "9", "11", "9", "27", "29", "26", "28", "28", "8", "9", "8", "10", "24", "30"], "time": [2739, 2791, 3087, 3374, 4087, 4172, 4489, 6236, 6688, 8187, 10182, 10599, 10699, 14230, 15082, 19394, 19959, 19999, 20309, 22377, 22640, 23024, 23590, 24207, 24506]}, "edge": {"target": [], "time": []}}, "mouseout": {"state": {"target": ["12", "12", "13", "19", "20", "15", "16", "16", "6", "5", "6", "4", "9", "11", "11", "9", "11", "27", "29", "26", "28", "28", "8", "9", "8", "10", "24", "30"], "time": [789, 2771, 2819, 3157, 3974, 4119, 4204, 6187, 6251, 8153, 10166, 10232, 10633, 12226, 13931, 14780, 14878, 19078, 19942, 19996, 20042, 21874, 22409, 22992, 23088, 24107, 24406, 24725]}, "edge": {"target": [], "time": []}}}, "displayed_time": "30.24", "trialTime": 31788, "trial_type": "mouselab-mdp", "trial_index": 13, "time_elapsed": 383651, "internal_node_id": "0.0-6.0-1.0-4.0"}}, {"uniqueid": "w61292887:a70797613", "current_trial": 14, "dateTime": 1693580506040, "trialdata": {"revealed_states": [], "clicked_states": ["20", "17", "16", "21", "22", "6", "5", "9", "10", "11", "29"], "num_clicks_accrued": [0, 0, 0, 0, 0, 0, 0, 0, 0, 0, 0, 0, 0], "stateRewards": ["", 1, 2, -6, -13, -51, 22, -4, -12, -44, -12, 6, -2, -2, -2, -14, -46, -4, -77, -2, 36, -79, 41, 2, -4, 2, -6, -55, 59, 70, -5, 39, -19, 24], "withholdReward": false, "trial_id": "mdp_trial_6", "block": "test", "trialIndex": 7, "score": 48.599999999999994, "costs": -15.400000000000002, "simulationMode": [null, null, null, null, null], "rewards": [2, -4, 2, -6, 70], "path": ["0", "0", "23", "24", "25", "26", "29"], "rt": [24991, 78, 376, 435, 136], "actions": ["left", "left", "left", "up", "left"], "actionTimes": [26775, 27373, 28269, 29240, 29883], "queries": {"click": {"state": {"target": ["20", "17", "16", "21", "22", "6", "5", "9", "10", "11", "29"], "time": [3436, 5405, 7648, 9630, 11552, 13593, 15441, 17470, 19391, 21447, 23791]}, "edge": {"target": [], "time": []}}, "mouseover": {"state": {"target": ["12", "13", "14", "19", "20", "17", "16", "15", "14", "19", "21", "22", "13", "6", "5", "9", "9", "8", "10", "11", "27", "26", "29", "25", "31"], "time": [2374, 2608, 2827, 2942, 3276, 3840, 6688, 8000, 8025, 8057, 8240, 10004, 12135, 12552, 14068, 16019, 16283, 18081, 18150, 19863, 21734, 21829, 23678, 24181, 24258]}, "edge": {"target": [], "time": []}}, "mouseout": {"state": {"target": ["0", "12", "13", "14", "19", "20", "17", "16", "15", "14", "19", "21", "22", "13", "6", "5", "9", "9", "8", "10", "11", "27", "26", "29", "25", "31"], "time": [2343, 2462, 2743, 2911, 3210, 3728, 6526, 7958, 8013, 8055, 8087, 9934, 12119, 12153, 13968, 15916, 16049, 17814, 18097, 19783, 21678, 21780, 22264, 24164, 24196, 31242]}, "edge": {"target": [], "time": []}}}, "displayed_time": "30.39", "trialTime": 31728, "trial_type": "mouselab-mdp", "trial_index": 14, "time_elapsed": 416198, "internal_node_id": "0.0-6.0-1.0-5.0"}}, {"uniqueid": "w61292887:a70797613", "current_trial": 15, "dateTime": 1693580523970, "trialdata": {"revealed_states": [], "clicked_states": ["9", "5", "6"], "num_clicks_accrued": [0, 0, 0, 0, 0, 0, 0, 0, 0, 0, 0, 0, 0], "stateRewards": ["", -1, 2, -2, 5, 80, -61, -27, 12, 44, -26, -75, -2, -4, 1, -16, 42, -49, -50, 4, -44, 2, 80, -2, -2, 5, -2, 59, 10, 24, 7, -48, -86, -44], "withholdReward": false, "trial_id": "mdp_trial_7", "block": "test", "trialIndex": 8, "score": 79.8, "costs": -4.199999999999999, "simulationMode": [null, null, null, null, null], "rewards": [-1, 2, -2, 5, 80], "path": ["0", "0", "1", "2", "3", "4", "5"], "rt": [7995, 90, 214, 91, 330], "actions": ["up", "up", "up", "right", "up"], "actionTimes": [9636, 10240, 10981, 11590, 12444], "queries": {"click": {"state": {"target": ["9", "5", "6"], "time": [3234, 5401, 7712]}, "edge": {"target": [], "time": []}}, "mouseover": {"state": {"target": ["12", "1", "8", "9", "8", "10", "8", "3", "5", "6", "6"], "time": [2285, 2420, 2590, 3055, 3616, 3683, 3937, 4001, 4250, 5900, 6202]}, "edge": {"target": [], "time": []}}, "mouseout": {"state": {"target": ["0", "12", "1", "8", "9", "8", "10", "8", "3", "5", "6", "6", "7", "1", "31", "32"], "time": [903, 2373, 2441, 2719, 3592, 3642, 3885, 3954, 4038, 5863, 5948, 16244, 16309, 16323, 16372, 16389]}, "edge": {"target": [], "time": []}}}, "displayed_time": "15.65", "trialTime": 17073, "trial_type": "mouselab-mdp", "trial_index": 15, "time_elapsed": 434128, "internal_node_id": "0.0-6.0-1.0-6.0"}}, {"uniqueid": "w61292887:a70797613", "current_trial": 16, "dateTime": 1693580552055, "trialdata": {"revealed_states": [], "clicked_states": ["32", "33", "31", "27", "29", "5", "17", "20"], "num_clicks_accrued": [0, 0, 0, 0, 0, 0, 0, 0, 0, 0, 0, 0, 0], "stateRewards": ["", 1, -2, -8, -3, 31, -84, -55, -14, 15, -58, 17, -2, -3, 7, 7, -12, 48, 67, 4, -44, -68, 46, 2, 3, -5, -7, 76, 27, 5, 11, 57, 52, 59], "withholdReward": false, "trial_id": "mdp_trial_8", "block": "test", "trialIndex": 9, "score": 57.8, "costs": -11.200000000000001, "simulationMode": [null, null, null, null, null], "rewards": [2, 3, -5, -7, 76], "path": ["0", "0", "23", "24", "25", "26", "27"], "rt": [21272, 57, 106, 187, 68], "actions": ["left", "left", "left", "up", "up"], "actionTimes": [23062, 23642, 24271, 24989, 25585], "queries": {"click": {"state": {"target": ["32", "33", "31", "27", "29", "5", "17", "20"], "time": [3130, 5193, 7819, 10471, 13465, 15633, 17710, 20266]}, "edge": {"target": [], "time": []}}, "mouseover": {"state": {"target": ["24", "30", "32", "33", "25", "26", "25", "31", "24", "28", "11", "27", "29", "11", "9", "5", "6", "16", "17", "20"], "time": [1910, 2463, 2947, 3613, 5675, 5709, 7365, 7426, 8107, 8142, 8483, 8892, 12920, 13819, 13872, 14185, 16304, 16337, 16749, 19718]}, "edge": {"target": [], "time": []}}, "mouseout": {"state": {"target": ["0", "24", "30", "32", "33", "25", "26", "25", "31", "24", "28", "11", "27", "27", "29", "11", "9", "5", "6", "16", "17", "20"], "time": [1818, 2361, 2562, 3541, 5608, 5693, 7362, 7381, 8076, 8123, 8173, 8497, 11341, 12622, 13762, 13836, 13903, 16267, 16320, 16352, 18518, 20798]}, "edge": {"target": [], "time": []}}}, "displayed_time": "26.10", "trialTime": 27180, "trial_type": "mouselab-mdp", "trial_index": 16, "time_elapsed": 462213, "internal_node_id": "0.0-6.0-1.0-7.0"}}, {"uniqueid": "w61292887:a70797613", "current_trial": 17, "dateTime": 1693580578646, "trialdata": {"revealed_states": [], "clicked_states": ["5", "21", "29", "27", "22", "20", "11", "9"], "num_clicks_accrued": [0, 0, 0, 0, 0, 0, 0, 0, 0, 0, 0, 0, 0], "stateRewards": ["", 1, -4, -6, -1, -21, 17, -72, 10, 77, 67, -46, -1, 4, -2, 14, -66, -49, -45, -15, -52, 23, -67, 2, -2, -2, 15, -3, 45, -64, 5, -44, 83, 61], "withholdReward": false, "trial_id": "mdp_trial_9", "block": "test", "trialIndex": 10, "score": 66.8, "costs": -11.200000000000001, "simulationMode": [null, null, null, null, null], "rewards": [1, -4, -6, 10, 77], "path": ["0", "0", "1", "2", "3", "8", "9"], "rt": [18656, 285, 183, 629, 242], "actions": ["up", "up", "up", "left", "up"], "actionTimes": [20752, 21555, 22252, 23394, 24164], "queries": {"click": {"state": {"target": ["5", "21", "29", "27", "22", "20", "11", "9"], "time": [3096, 5052, 7188, 9069, 11095, 13136, 16128, 18050]}, "edge": {"target": [], "time": []}}, "mouseover": {"state": {"target": ["1", "2", "3", "5", "6", "16", "15", "14", "19", "21", "26", "29", "27", "27", "28", "23", "0", "12", "22", "20", "13", "18", "7", "2", "8", "11", "9", "25", "30", "33"], "time": [2594, 2634, 2665, 2799, 3407, 3443, 3845, 4110, 4161, 4575, 5577, 5595, 7684, 7945, 9424, 9473, 9509, 9777, 9873, 13059, 13504, 13536, 15438, 15455, 15474, 15888, 17156, 18376, 18520, 18684]}, "edge": {"target": [], "time": []}}, "mouseout": {"state": {"target": ["21", "22", "12", "0", "1", "2", "3", "5", "6", "16", "15", "14", "19", "21", "26", "29", "27", "27", "27", "28", "23", "0", "12", "22", "20", "13", "18", "7", "2", "8", "11", "9", "25", "30"], "time": [1063, 1147, 1283, 2563, 2615, 2663, 2699, 3363, 3430, 3829, 3916, 4145, 4193, 5479, 5593, 7289, 7727, 9184, 9394, 9458, 9489, 9543, 9808, 11624, 13438, 13521, 15407, 15453, 15472, 15488, 16722, 18288, 18387, 18636]}, "edge": {"target": [], "time": []}}}, "displayed_time": "24.68", "trialTime": 25826, "trial_type": "mouselab-mdp", "trial_index": 17, "time_elapsed": 488804, "internal_node_id": "0.0-6.0-1.0-8.0"}}, {"uniqueid": "w61292887:a70797613", "current_trial": 18, "dateTime": 1693580596074, "trialdata": {"revealed_states": [], "clicked_states": ["5", "17"], "num_clicks_accrued": [0, 0, 0, 0, 0, 0, 0, 0, 0, 0, 0, 0, 0], "stateRewards": ["", -1, -2, 8, -6, -79, -6, 87, 9, -5, -66, -38, 2, 2, 5, -6, -82, 74, 85, -8, 67, -30, -15, 1, -2, -2, -2, 87, 64, 49, 7, 2, -38, -9], "withholdReward": false, "trial_id": "mdp_trial_10", "block": "test", "trialIndex": 11, "score": 74.2, "costs": -2.8, "simulationMode": [null, null, null, null, null], "rewards": [2, 2, 5, -6, 74], "path": ["0", "0", "12", "13", "14", "15", "17"], "rt": [6478, 88, 136, 270, 91], "actions": ["right", "right", "right", "up", "right"], "actionTimes": [7912, 8516, 9177, 9959, 10563], "queries": {"click": {"state": {"target": ["5", "17"], "time": [2751, 5015]}, "edge": {"target": [], "time": []}}, "mouseover": {"state": {"target": ["5", "6", "16", "17"], "time": [2558, 3608, 4272, 4758]}, "edge": {"target": [], "time": []}}, "mouseout": {"state": {"target": ["0", "5", "6", "16", "17", "17", "14", "22"], "time": [2060, 3558, 3640, 4323, 5157, 5738, 15186, 16184]}, "edge": {"target": [], "time": []}}}, "displayed_time": "15.45", "trialTime": 16633, "trial_type": "mouselab-mdp", "trial_index": 18, "time_elapsed": 506231, "internal_node_id": "0.0-6.0-1.0-9.0"}}, {"uniqueid": "w61292887:a70797613", "current_trial": 19, "dateTime": 1693580613774, "trialdata": {"revealed_states": [], "clicked_states": ["27", "9"], "num_clicks_accrued": [0, 0, 0, 0, 0, 0, 0, 0, 0, 0, 0, 0, 0], "stateRewards": ["", 1, -4, -4, 8, 1, -79, 68, -10, -79, 8, -74, -1, -3, -6, 14, 43, 23, 9, 5, -51, 63, 61, -2, 4, 6, -10, 69, -32, 57, 15, -80, -80, -77], "withholdReward": false, "trial_id": "mdp_trial_11", "block": "test", "trialIndex": 12, "score": 64.2, "costs": -2.8, "simulationMode": [null, null, null, null, null], "rewards": [-2, 4, 6, -10, 69], "path": ["0", "0", "23", "24", "25", "26", "27"], "rt": [5801, 8, 82, 841, 116], "actions": ["left", "left", "left", "up", "up"], "actionTimes": [7279, 7803, 8412, 9759, 10400], "queries": {"click": {"state": {"target": ["27", "9"], "time": [2274, 4843]}, "edge": {"target": [], "time": []}}, "mouseover": {"state": {"target": ["27", "11", "9", "5"], "time": [2185, 2825, 4580, 5601]}, "edge": {"target": [], "time": []}}, "mouseout": {"state": {"target": ["0", "27", "11", "9", "5", "4", "13", "22"], "time": [956, 2773, 2848, 5482, 5627, 11443, 11512, 11563]}, "edge": {"target": [], "time": []}}}, "displayed_time": "15.49", "trialTime": 16604, "trial_type": "mouselab-mdp", "trial_index": 19, "time_elapsed": 523932, "internal_node_id": "0.0-6.0-1.0-10.0"}}, {"uniqueid": "w61292887:a70797613", "current_trial": 20, "dateTime": 1693580639604, "trialdata": {"revealed_states": [], "clicked_states": ["5", "17", "18", "16", "9", "29", "33", "20"], "num_clicks_accrued": [0, 0, 0, 0, 0, 0, 0, 0, 0, 0, 0, 0, 0], "stateRewards": ["", -1, -3, 1, -4, -48, -63, -49, -2, -84, -19, 65, 2, -2, -2, -12, -4, 59, 9, 6, 75, 69, -13, -1, -3, -3, -2, -37, -68, -36, 13, 32, 18, -14], "withholdReward": false, "trial_id": "mdp_trial_12", "block": "test", "trialIndex": 13, "score": 67.8, "costs": -11.200000000000001, "simulationMode": [null, null, null, null, null], "rewards": [2, -2, -2, 6, 75], "path": ["0", "0", "12", "13", "14", "19", "20"], "rt": [19145, 22, 84, 568, 142], "actions": ["right", "right", "right", "down", "right"], "actionTimes": [20468, 21030, 21629, 22726, 23381], "queries": {"click": {"state": {"target": ["5", "17", "18", "16", "9", "29", "33", "20"], "time": [2626, 4541, 6653, 8719, 10877, 12842, 15305, 17777]}, "edge": {"target": [], "time": []}}, "mouseover": {"state": {"target": ["3", "5", "17", "17", "15", "18", "16", "3", "9", "11", "27", "29", "33", "30", "31", "19", "20", "21"], "time": [2071, 2437, 3108, 3384, 5071, 5189, 7015, 9096, 9463, 11314, 11340, 11412, 15225, 15791, 15861, 17410, 17658, 19527]}, "edge": {"target": [], "time": []}}, "mouseout": {"state": {"target": ["0", "3", "5", "17", "17", "15", "18", "16", "3", "9", "11", "27", "29", "33", "30", "31", "19", "20", "21"], "time": [784, 2092, 3037, 3131, 5022, 5116, 6947, 8934, 9128, 11279, 11338, 11361, 14896, 15324, 15825, 16193, 17493, 19313, 24688]}, "edge": {"target": [], "time": []}}}, "displayed_time": "23.90", "trialTime": 24933, "trial_type": "mouselab-mdp", "trial_index": 20, "time_elapsed": 549762, "internal_node_id": "0.0-6.0-1.0-11.0"}}, {"uniqueid": "w61292887:a70797613", "current_trial": 21, "dateTime": 1693580656750, "trialdata": {"revealed_states": [], "clicked_states": ["21", "27"], "num_clicks_accrued": [0, 0, 0, 0, 0, 0, 0, 0, 0, 0, 0, 0, 0], "stateRewards": ["", -1, 1, 6, -6, 70, 66, 67, -16, -75, -35, 37, -1, 4, 4, -6, 47, -9, 63, 15, 21, -63, 13, 1, 3, -6, 10, 79, -29, 18, -15, 9, -67, -19], "withholdReward": false, "trial_id": "mdp_trial_13", "block": "test", "trialIndex": 14, "score": 84.2, "costs": -2.8, "simulationMode": [null, null, null, null, null], "rewards": [1, 3, -6, 10, 79], "path": ["0", "0", "23", "24", "25", "26", "27"], "rt": [5666, 15, 16, 235, 65], "actions": ["left", "left", "left", "up", "up"], "actionTimes": [7135, 7678, 8225, 8993, 9574], "queries": {"click": {"state": {"target": ["21", "27"], "time": [2518, 4446]}, "edge": {"target": [], "time": []}}, "mouseover": {"state": {"target": ["12", "13", "19", "21", "22", "10", "11", "27", "29", "29", "25", "31"], "time": [1948, 1972, 2043, 2429, 2860, 2926, 3259, 3545, 5059, 6292, 6628, 6658]}, "edge": {"target": [], "time": []}}, "mouseout": {"state": {"target": ["1", "0", "12", "13", "19", "21", "22", "10", "11", "27", "29", "29", "25", "31"], "time": [776, 1894, 1970, 2013, 2149, 2546, 2876, 2941, 3477, 4992, 5115, 6591, 6642, 10623]}, "edge": {"target": [], "time": []}}}, "displayed_time": "15.48", "trialTime": 16238, "trial_type": "mouselab-mdp", "trial_index": 21, "time_elapsed": 566908, "internal_node_id": "0.0-6.0-1.0-12.0"}}, {"uniqueid": "w61292887:a70797613", "current_trial": 22, "dateTime": 1693580678556, "trialdata": {"revealed_states": [], "clicked_states": ["5", "17", "18", "16"], "num_clicks_accrued": [0, 0, 0, 0, 0, 0, 0, 0, 0, 0, 0, 0, 0], "stateRewards": ["", -1, 1, 8, -3, -24, 11, -65, -6, -77, 48, 44, -2, 1, -2, -7, -55, -35, 33, 8, -28, 19, -53, -1, -1, -5, -5, -70, 10, 44, 8, -58, -70, 51], "withholdReward": false, "trial_id": "mdp_trial_14", "block": "test", "trialIndex": 15, "score": 46.4, "costs": -5.6, "simulationMode": [null, null, null, null, null], "rewards": [-1, -1, -5, 8, 51], "path": ["0", "0", "23", "24", "25", "30", "33"], "rt": [14116, 11, 368, 659, 84], "actions": ["left", "left", "left", "down", "left"], "actionTimes": [15634, 16158, 17057, 18231, 18825], "queries": {"click": {"state": {"target": ["5", "17", "18", "16"], "time": [2479, 4571, 6526, 8546]}, "edge": {"target": [], "time": []}}, "mouseover": {"state": {"target": ["7", "5", "6", "15", "17", "15", "18", "16", "20", "20", "21"], "time": [1542, 2350, 2698, 2748, 3269, 4885, 5263, 6877, 11793, 13077, 14859]}, "edge": {"target": [], "time": []}}, "mouseout": {"state": {"target": ["0", "7", "5", "6", "15", "17", "15", "18", "16", "16", "17", "20", "20", "21"], "time": [1541, 1618, 2665, 2734, 2779, 4867, 4933, 6796, 8664, 8913, 8995, 11830, 14826, 14889]}, "edge": {"target": [], "time": []}}}, "displayed_time": "19.36", "trialTime": 20827, "trial_type": "mouselab-mdp", "trial_index": 22, "time_elapsed": 588713, "internal_node_id": "0.0-6.0-1.0-13.0"}}, {"uniqueid": "w61292887:a70797613", "current_trial": 23, "dateTime": 1693580699840, "trialdata": {"revealed_states": [], "clicked_states": ["9", "5", "20", "22", "33", "32"], "num_clicks_accrued": [0, 0, 0, 0, 0, 0, 0, 0, 0, 0, 0, 0, 0], "stateRewards": ["", -1, 3, 8, 9, -53, 20, -84, 2, -28, -62, -31, -1, -2, -7, 2, 51, 58, 45, -4, -17, -41, 36, 2, -2, -7, -15, 29, -54, -37, -16, -43, 65, -17], "withholdReward": false, "trial_id": "mdp_trial_15", "block": "test", "trialIndex": 16, "score": 33.6, "costs": -8.4, "simulationMode": [null, null, null, null, null], "rewards": [2, -2, -7, -16, 65], "path": ["0", "0", "23", "24", "25", "30", "32"], "rt": [13951, 578, 261, 165, 162], "actions": ["left", "left", "left", "down", "down"], "actionTimes": [15368, 16473, 17254, 17942, 18621], "queries": {"click": {"state": {"target": ["9", "5", "20", "22", "33", "32"], "time": [2460, 4347, 6233, 8175, 10522, 12499]}, "edge": {"target": [], "time": []}}, "mouseover": {"state": {"target": ["10", "9", "5", "6", "15", "14", "20", "19", "22", "31", "30", "33", "32", "30", "25", "26", "27"], "time": [1884, 2253, 2999, 4682, 4743, 4817, 5481, 6764, 6847, 8963, 10178, 10446, 11792, 13892, 13938, 13992, 14492]}, "edge": {"target": [], "time": []}}, "mouseout": {"state": {"target": ["0", "10", "9", "5", "6", "15", "14", "20", "19", "22", "31", "30", "33", "32", "30", "25", "26", "27", "10"], "time": [1771, 1919, 2866, 4650, 4698, 4779, 5116, 6731, 6796, 8864, 10130, 10214, 11579, 13846, 13907, 13963, 14460, 19971, 20091]}, "edge": {"target": [], "time": []}}}, "displayed_time": "19.14", "trialTime": 20428, "trial_type": "mouselab-mdp", "trial_index": 23, "time_elapsed": 609998, "internal_node_id": "0.0-6.0-1.0-14.0"}}, {"uniqueid": "w61292887:a70797613", "current_trial": 24, "dateTime": 1693580718792, "trialdata": {"revealed_states": [], "clicked_states": ["33", "27", "9", "11", "29"], "num_clicks_accrued": [0, 0, 0, 0, 0, 0, 0, 0, 0, 0, 0, 0, 0], "stateRewards": ["", -1, -3, -7, -7, -76, 30, -49, 11, -70, 56, 2, 1, 4, -3, -14, -59, -83, -25, -9, -21, -67, -73, -2, 4, 4, -9, -11, -32, 60, 9, -87, 22, -64], "withholdReward": false, "trial_id": "mdp_trial_16", "block": "test", "trialIndex": 17, "score": 50, "costs": -7, "simulationMode": [null, null, null, null, null], "rewards": [-2, 4, 4, -9, 60], "path": ["0", "0", "23", "24", "25", "26", "29"], "rt": [11627, 70, 69, 415, 458], "actions": ["left", "left", "left", "up", "left"], "actionTimes": [13370, 13957, 14536, 15472, 16426], "queries": {"click": {"state": {"target": ["33", "27", "9", "11", "29"], "time": [2822, 4764, 6711, 8630, 10513]}, "edge": {"target": [], "time": []}}, "mouseover": {"state": {"target": ["23", "24", "30", "33", "31", "24", "28", "11", "27", "11", "9", "11", "29", "26", "28"], "time": [2096, 2154, 2475, 2657, 3339, 3370, 3403, 3469, 3887, 5201, 5269, 7345, 9311, 10951, 11015]}, "edge": {"target": [], "time": []}}, "mouseout": {"state": {"target": ["0", "23", "24", "30", "33", "31", "24", "28", "11", "27", "11", "9", "11", "29", "26", "28", "23"], "time": [2073, 2121, 2389, 2524, 3054, 3355, 3385, 3419, 3789, 5140, 5218, 7153, 8928, 10936, 10987, 17648, 17713]}, "edge": {"target": [], "time": []}}}, "displayed_time": "16.95", "trialTime": 18050, "trial_type": "mouselab-mdp", "trial_index": 24, "time_elapsed": 628950, "internal_node_id": "0.0-6.0-1.0-15.0"}}, {"uniqueid": "w61292887:a70797613", "current_trial": 25, "dateTime": 1693580736166, "trialdata": {"revealed_states": [], "clicked_states": ["5"], "num_clicks_accrued": [0, 0, 0, 0, 0, 0, 0, 0, 0, 0, 0, 0, 0], "stateRewards": ["", 2, -1, 5, 8, 75, -35, -77, 1, -9, -81, -58, 1, 2, -7, 5, 77, -16, 19, 16, -10, -18, 40, -2, 3, 7, -5, 64, 1, -62, 10, 27, 10, 65], "withholdReward": false, "trial_id": "mdp_trial_17", "block": "test", "trialIndex": 18, "score": 87.6, "costs": -1.4, "simulationMode": [null, null, null, null, null], "rewards": [2, -1, 5, 8, 75], "path": ["0", "0", "1", "2", "3", "4", "5"], "rt": [3588, 17, 74, 31, 82], "actions": ["up", "up", "up", "right", "up"], "actionTimes": [5131, 5676, 6282, 6837, 7439], "queries": {"click": {"state": {"target": ["5"], "time": [2543]}, "edge": {"target": [], "time": []}}, "mouseover": {"state": {"target": ["7", "4", "5", "6", "6"], "time": [1978, 2010, 2427, 2976, 3737]}, "edge": {"target": [], "time": []}}, "mouseout": {"state": {"target": ["7", "4", "5", "6", "6", "7"], "time": [2007, 2029, 2841, 3472, 8587, 8673]}, "edge": {"target": [], "time": []}}}, "displayed_time": "15.55", "trialTime": 16505, "trial_type": "mouselab-mdp", "trial_index": 25, "time_elapsed": 646325, "internal_node_id": "0.0-6.0-1.0-16.0"}}, {"uniqueid": "w61292887:a70797613", "current_trial": 26, "dateTime": 1693580762692, "trialdata": {"revealed_states": [], "clicked_states": ["5", "6", "9", "11", "27", "28", "33", "20"], "num_clicks_accrued": [0, 0, 0, 0, 0, 0, 0, 0, 0, 0, 0, 0, 0], "stateRewards": ["", 1, -2, -2, 10, -31, -77, 35, 9, -47, 8, 48, -2, 1, -4, -3, -26, -50, 43, -11, 76, -38, 17, 1, -1, 6, 10, 15, -9, 12, -8, 85, 11, -55], "withholdReward": false, "trial_id": "mdp_trial_18", "block": "test", "trialIndex": 19, "score": 48.8, "costs": -11.200000000000001, "simulationMode": [null, null, null, null, null], "rewards": [-2, 1, -4, -11, 76], "path": ["0", "0", "12", "13", "14", "19", "20"], "rt": [19098, 481, 336, 199, 118], "actions": ["right", "right", "right", "down", "right"], "actionTimes": [20746, 21749, 22601, 23298, 23933], "queries": {"click": {"state": {"target": ["5", "6", "9", "11", "27", "28", "33", "20"], "time": [3203, 5339, 7290, 10037, 12121, 14160, 16139, 18063]}, "edge": {"target": [], "time": []}}, "mouseover": {"state": {"target": ["1", "2", "5", "6", "4", "9", "11", "11", "27", "28", "23", "24", "24", "28", "26", "30", "33", "30", "31", "19", "20", "17", "17"], "time": [2674, 2700, 3124, 4607, 5805, 6155, 7805, 8165, 11451, 12667, 12813, 13152, 13282, 13389, 14514, 14664, 14981, 16465, 16501, 16582, 17015, 18512, 19798]}, "edge": {"target": [], "time": []}}, "mouseout": {"state": {"target": ["0", "1", "2", "5", "5", "6", "4", "9", "11", "11", "27", "28", "23", "24", "24", "28", "26", "30", "33", "30", "31", "19", "20", "17", "17", "14", "22"], "time": [2377, 2697, 2721, 3227, 4093, 5788, 5820, 7745, 7971, 11256, 12635, 12719, 13117, 13204, 13350, 14466, 14543, 14913, 16262, 16485, 16516, 16598, 18454, 18548, 20150, 25028, 25111]}, "edge": {"target": [], "time": []}}}, "displayed_time": "24.44", "trialTime": 25429, "trial_type": "mouselab-mdp", "trial_index": 26, "time_elapsed": 672850, "internal_node_id": "0.0-6.0-1.0-17.0"}}, {"uniqueid": "w61292887:a70797613", "current_trial": 27, "dateTime": 1693580780052, "trialdata": {"revealed_states": [], "clicked_states": ["21", "6"], "num_clicks_accrued": [0, 0, 0, 0, 0, 0, 0, 0, 0, 0, 0, 0, 0], "stateRewards": ["", -1, 4, -8, 12, 14, 69, -8, 5, -72, -14, 56, -1, -1, -1, 9, 67, 19, 11, -9, -88, -58, 3, 2, -4, -8, 4, 62, 77, -74, 5, -31, 65, 88], "withholdReward": false, "trial_id": "mdp_trial_19", "block": "test", "trialIndex": 20, "score": 73.2, "costs": -2.8, "simulationMode": [null, null, null, null, null], "rewards": [-1, 4, -8, 12, 69], "path": ["0", "0", "1", "2", "3", "4", "6"], "rt": [5927, 57, 53, 11, 96], "actions": ["up", "up", "up", "right", "right"], "actionTimes": [7327, 7898, 8475, 8999, 9623], "queries": {"click": {"state": {"target": ["21", "6"], "time": [2399, 4339]}, "edge": {"target": [], "time": []}}, "mouseover": {"state": {"target": ["22", "21", "13", "18", "6", "16", "17"], "time": [2079, 2193, 2717, 2747, 3143, 4756, 4833]}, "edge": {"target": [], "time": []}}, "mouseout": {"state": {"target": ["0", "22", "21", "13", "18", "6", "16", "17", "14", "13"], "time": [1957, 2107, 2509, 2744, 2773, 4740, 4806, 13639, 14768, 14835]}, "edge": {"target": [], "time": []}}}, "displayed_time": "15.41", "trialTime": 16423, "trial_type": "mouselab-mdp", "trial_index": 27, "time_elapsed": 690210, "internal_node_id": "0.0-6.0-1.0-18.0"}}, {"uniqueid": "w61292887:a70797613", "current_trial": 28, "dateTime": 1693580798368, "trialdata": {"revealed_states": [], "clicked_states": ["9", "5", "27", "28", "17"], "num_clicks_accrued": [0, 0, 0, 0, 0, 0, 0, 0, 0, 0, 0, 0, 0], "stateRewards": ["", 2, -3, -8, 14, -7, -51, 73, 2, 36, 36, -43, -1, 3, -4, 1, 6, 87, -65, 15, 61, -42, -83, -1, 3, -2, -7, 30, -48, 35, 13, 26, 60, 78], "withholdReward": false, "trial_id": "mdp_trial_20", "block": "test", "trialIndex": 21, "score": 79, "costs": -7, "simulationMode": [null, null, null, null, null], "rewards": [-1, 3, -4, 1, 87], "path": ["0", "0", "12", "13", "14", "15", "17"], "rt": [11524, 485, 208, 163, 111], "actions": ["right", "right", "right", "up", "right"], "actionTimes": [12842, 13850, 14602, 15288, 15918], "queries": {"click": {"state": {"target": ["9", "5", "27", "28", "17"], "time": [2033, 4203, 6100, 8116, 10196]}, "edge": {"target": [], "time": []}}, "mouseover": {"state": {"target": ["9", "5", "8", "27", "28", "1", "18", "17", "15", "18"], "time": [1849, 4061, 4586, 4995, 6713, 8768, 8797, 10060, 10827, 12194]}, "edge": {"target": [], "time": []}}, "mouseout": {"state": {"target": ["0", "9", "5", "8", "27", "28", "1", "18", "17", "15", "18"], "time": [1363, 2517, 4221, 4625, 6429, 8751, 8783, 8815, 10791, 10844, 12276]}, "edge": {"target": [], "time": []}}}, "displayed_time": "16.42", "trialTime": 17292, "trial_type": "mouselab-mdp", "trial_index": 28, "time_elapsed": 708526, "internal_node_id": "0.0-6.0-1.0-19.0"}}, {"uniqueid": "w61292887:a70797613", "current_trial": 29, "dateTime": 1693580816168, "trialdata": {"revealed_states": [], "clicked_states": ["9", "11"], "num_clicks_accrued": [0, 0, 0, 0, 0, 0, 0, 0, 0, 0, 0, 0, 0], "stateRewards": ["", -1, 1, 8, -8, -49, 62, -78, 16, 28, -81, 78, -2, -3, -1, -4, 67, 49, -2, -13, -16, -39, 83, 1, -4, 4, -5, -20, 7, 84, 7, -32, -59, 19], "withholdReward": false, "trial_id": "mdp_trial_21", "block": "test", "trialIndex": 22, "score": 99.2, "costs": -2.8, "simulationMode": [null, null, null, null, null], "rewards": [-1, 1, 8, 16, 78], "path": ["0", "0", "1", "2", "3", "8", "11"], "rt": [5475, 130, 132, 362, 106], "actions": ["up", "up", "up", "left", "left"], "actionTimes": [6724, 7366, 8018, 8887, 9507], "queries": {"click": {"state": {"target": ["9", "11"], "time": [1901, 3969]}, "edge": {"target": [], "time": []}}, "mouseover": {"state": {"target": ["10", "8", "9", "11", "23", "31"], "time": [1273, 1332, 1753, 2272, 4773, 4885]}, "edge": {"target": [], "time": []}}, "mouseout": {"state": {"target": ["18", "0", "10", "8", "9", "11", "23", "31"], "time": [424, 1272, 1306, 1725, 2170, 4406, 4821, 16233]}, "edge": {"target": [], "time": []}}}, "displayed_time": "15.26", "trialTime": 16927, "trial_type": "mouselab-mdp", "trial_index": 29, "time_elapsed": 726326, "internal_node_id": "0.0-6.0-1.0-20.0"}}, {"uniqueid": "w61292887:a70797613", "current_trial": 30, "dateTime": 1693580853899, "trialdata": {"revealed_states": [], "clicked_states": ["6", "20", "22", "21", "17", "16", "18", "32", "27", "28", "31", "33", "9"], "num_clicks_accrued": [0, 0, 0, 0, 0, 0, 0, 0, 0, 0, 0, 0, 0], "stateRewards": ["", 2, -1, -1, -9, -81, -30, 55, -6, 78, 25, 62, 2, 4, -1, 9, -85, 1, -19, 1, -60, 12, -34, 1, 4, -1, -13, -24, -16, -83, -8, 16, 43, 9], "withholdReward": false, "trial_id": "mdp_trial_22", "block": "test", "trialIndex": 23, "score": 53.8, "costs": -18.2, "simulationMode": [null, null, null, null, null], "rewards": [2, -1, -1, -6, 78], "path": ["0", "0", "1", "2", "3", "8", "9"], "rt": [30085, 461, 124, 40, 853], "actions": ["up", "up", "up", "left", "up"], "actionTimes": [31539, 32515, 33155, 33705, 35069], "queries": {"click": {"state": {"target": ["6", "20", "22", "21", "17", "16", "18", "32", "27", "28", "31", "33", "9"], "time": [2290, 4235, 6162, 8105, 10229, 12218, 14134, 16462, 18523, 20693, 22997, 25639, 28286]}, "edge": {"target": [], "time": []}}, "mouseover": {"state": {"target": ["1", "2", "3", "4", "6", "16", "15", "20", "19", "22", "21", "19", "14", "15", "17", "16", "18", "14", "12", "0", "23", "24", "31", "32", "30", "26", "27", "28", "24", "31", "30", "33", "25", "28", "11", "9", "8", "10"], "time": [1537, 1563, 1588, 1971, 2050, 2818, 2836, 2917, 4816, 4951, 6616, 8448, 8466, 8513, 8891, 10728, 12656, 14858, 15492, 15535, 15550, 15642, 16110, 16327, 16724, 16763, 16801, 20558, 22621, 22822, 25100, 25436, 26684, 26768, 27738, 28053, 28549, 28584]}, "edge": {"target": [], "time": []}}, "mouseout": {"state": {"target": ["10", "0", "1", "2", "3", "4", "6", "16", "15", "20", "19", "22", "21", "19", "14", "15", "17", "16", "18", "18", "14", "12", "0", "23", "24", "31", "32", "30", "26", "27", "28", "24", "31", "30", "33", "25", "28", "11", "9", "8", "10", "0"], "time": [589, 1479, 1560, 1585, 1609, 2019, 2785, 2834, 2851, 4786, 4867, 6513, 8430, 8464, 8494, 8806, 10323, 12561, 14265, 14789, 15463, 15520, 15548, 15592, 16061, 16127, 16677, 16760, 16787, 18907, 22588, 22691, 25069, 25188, 26630, 26732, 26801, 27767, 28516, 28582, 28614, 36510]}, "edge": {"target": [], "time": []}}}, "displayed_time": "35.58", "trialTime": 36651, "trial_type": "mouselab-mdp", "trial_index": 30, "time_elapsed": 764057, "internal_node_id": "0.0-6.0-1.0-21.0"}}, {"uniqueid": "w61292887:a70797613", "current_trial": 31, "dateTime": 1693580871233, "trialdata": {"revealed_states": [], "clicked_states": ["9", "17", "18", "22"], "num_clicks_accrued": [0, 0, 0, 0, 0, 0, 0, 0, 0, 0, 0, 0, 0], "stateRewards": ["", 1, 4, -8, -13, -13, -87, -77, -10, -44, 54, 42, 2, -3, -4, 12, -9, -80, 52, 9, 84, -2, -65, 1, -4, -5, -6, 8, 80, 32, 13, -59, -5, -13], "withholdReward": false, "trial_id": "mdp_trial_23", "block": "test", "trialIndex": 24, "score": 53.4, "costs": -5.6, "simulationMode": [null, null, null, null, null], "rewards": [2, -3, -4, 12, 52], "path": ["0", "0", "12", "13", "14", "15", "18"], "rt": [8880, 90, 51, 187, 27], "actions": ["right", "right", "right", "up", "left"], "actionTimes": [10807, 11422, 11993, 12702, 13226], "queries": {"click": {"state": {"target": ["9", "17", "18", "22"], "time": [2865, 4756, 6678, 8679]}, "edge": {"target": [], "time": []}}, "mouseover": {"state": {"target": ["9", "5", "16", "17", "17", "15", "18", "13", "22", "21", "21"], "time": [2720, 3165, 3550, 3601, 3786, 5066, 5148, 7050, 7099, 9062, 9338]}, "edge": {"target": [], "time": []}}, "mouseout": {"state": {"target": ["0", "9", "5", "16", "17", "17", "15", "18", "13", "22", "21", "21"], "time": [539, 3083, 3203, 3570, 3633, 5051, 5115, 7008, 7064, 9013, 9099, 14362]}, "edge": {"target": [], "time": []}}}, "displayed_time": "15.93", "trialTime": 16394, "trial_type": "mouselab-mdp", "trial_index": 31, "time_elapsed": 781391, "internal_node_id": "0.0-6.0-1.0-22.0"}}, {"uniqueid": "w61292887:a70797613", "current_trial": 32, "dateTime": 1693580894408, "trialdata": {"revealed_states": [], "clicked_states": ["17", "29", "28", "33", "9", "6"], "num_clicks_accrued": [0, 0, 0, 0, 0, 0, 0, 0, 0, 0, 0, 0, 0], "stateRewards": ["", 2, 3, -3, 4, 72, -28, 34, -12, 57, -64, -15, 2, 1, -4, -15, 2, 49, 31, -1, -42, -58, 31, -2, 1, -2, -13, -75, -19, -22, -6, 61, 10, -56], "withholdReward": false, "trial_id": "mdp_trial_24", "block": "test", "trialIndex": 25, "score": 38.6, "costs": -8.4, "simulationMode": [null, null, null, null, null], "rewards": [2, 3, -3, -12, 57], "path": ["0", "0", "1", "2", "3", "8", "9"], "rt": [16030, 352, 142, 456, 346], "actions": ["up", "up", "up", "left", "up"], "actionTimes": [17396, 18277, 18932, 19908, 20766], "queries": {"click": {"state": {"target": ["17", "29", "28", "33", "9", "6"], "time": [2538, 4567, 6840, 9081, 10965, 15023]}, "edge": {"target": [], "time": []}}, "mouseover": {"state": {"target": ["15", "17", "15", "18", "1", "25", "29", "27", "28", "25", "33", "26", "11", "9", "8", "10", "3", "4", "6"], "time": [2149, 2361, 2799, 2816, 2846, 2910, 3279, 6460, 6662, 7693, 8961, 9373, 9409, 9991, 11822, 12174, 13903, 13940, 14858]}, "edge": {"target": [], "time": []}}, "mouseout": {"state": {"target": ["0", "15", "17", "15", "18", "1", "25", "29", "27", "28", "25", "33", "26", "11", "9", "8", "10", "3", "4", "6", "7", "0"], "time": [666, 2313, 2797, 2815, 2831, 2862, 2926, 5343, 6477, 7659, 7776, 9183, 9388, 9807, 11790, 11905, 13874, 13919, 13973, 21851, 21882, 22014]}, "edge": {"target": [], "time": []}}}, "displayed_time": "21.29", "trialTime": 22175, "trial_type": "mouselab-mdp", "trial_index": 32, "time_elapsed": 804567, "internal_node_id": "0.0-6.0-1.0-23.0"}}, {"uniqueid": "w61292887:a70797613", "current_trial": 33, "dateTime": 1693580929117, "trialdata": {"revealed_states": [], "clicked_states": ["5", "22", "21", "17", "18", "33", "29", "27", "28", "31", "32", "9", "11"], "num_clicks_accrued": [0, 0, 0, 0, 0, 0, 0, 0, 0, 0, 0, 0, 0], "stateRewards": ["", 1, 1, 1, 15, -76, 52, -32, 14, -57, 37, 49, 1, -4, -3, 6, 83, -76, 25, 9, 36, -1, -17, -1, 4, 4, -2, -22, -21, 58, -15, -57, 49, -24], "withholdReward": false, "trial_id": "mdp_trial_25", "block": "test", "trialIndex": 26, "score": 47.8, "costs": -18.2, "simulationMode": [null, null, null, null, null], "rewards": [1, 1, 1, 14, 49], "path": ["0", "0", "1", "2", "3", "8", "11"], "rt": [28391, 14, 101, 9, 92], "actions": ["up", "up", "up", "left", "left"], "actionTimes": [29803, 30334, 30967, 31488, 32113], "queries": {"click": {"state": {"target": ["5", "22", "21", "17", "18", "33", "29", "27", "28", "31", "32", "9", "11"], "time": [2451, 4350, 6278, 8153, 10096, 13043, 14983, 16868, 18747, 20681, 22604, 24806, 26713]}, "edge": {"target": [], "time": []}}, "mouseover": {"state": {"target": ["1", "2", "4", "5", "4", "14", "22", "21", "20", "17", "14", "15", "18", "24", "25", "33", "29", "29", "27", "28", "24", "31", "32", "30", "11", "9", "11", "10"], "time": [1951, 1978, 2067, 2219, 3134, 3231, 3931, 4714, 6661, 7115, 9575, 9620, 10060, 11944, 11978, 12561, 13440, 13806, 15391, 17401, 19185, 19253, 21855, 22970, 23033, 23917, 25149, 27186]}, "edge": {"target": [], "time": []}}, "mouseout": {"state": {"target": ["0", "1", "2", "4", "5", "4", "14", "22", "21", "20", "17", "14", "15", "18", "24", "25", "33", "29", "29", "27", "28", "24", "31", "32", "30", "11", "9", "11", "11", "10"], "time": [568, 1976, 2004, 2152, 3084, 3149, 3514, 4679, 6579, 6677, 8476, 9598, 9662, 11861, 11975, 12442, 13373, 13474, 15290, 17303, 19153, 19222, 21568, 22933, 22989, 23052, 25068, 26831, 27065, 33362]}, "edge": {"target": [], "time": []}}}, "displayed_time": "32.66", "trialTime": 33703, "trial_type": "mouselab-mdp", "trial_index": 33, "time_elapsed": 839274, "internal_node_id": "0.0-6.0-1.0-24.0"}}, {"uniqueid": "w61292887:a70797613", "current_trial": 34, "dateTime": 1693580953369, "trialdata": {"revealed_states": [], "clicked_states": ["6", "20", "22", "33", "21", "18", "16"], "num_clicks_accrued": [0, 0, 0, 0, 0, 0, 0, 0, 0, 0, 0, 0, 0], "stateRewards": ["", -2, 2, -5, -6, 10, -66, -58, -10, -11, -63, -70, -1, -4, -5, 7, 66, -64, -43, -3, 45, -37, 4, -2, -2, -6, -4, -30, 33, 43, 15, -32, -65, -59], "withholdReward": false, "trial_id": "mdp_trial_26", "block": "test", "trialIndex": 27, "score": 53.2, "costs": -9.8, "simulationMode": [null, null, null, null, null], "rewards": [-1, -4, -5, 7, 66], "path": ["0", "0", "12", "13", "14", "15", "16"], "rt": [17424, 9, 61, 63, 59], "actions": ["right", "right", "right", "up", "up"], "actionTimes": [19001, 19522, 20124, 20708, 21287], "queries": {"click": {"state": {"target": ["6", "20", "22", "33", "21", "18", "16"], "time": [2999, 4957, 7047, 9504, 11381, 14327, 16198]}, "edge": {"target": [], "time": []}}, "mouseover": {"state": {"target": ["1", "2", "4", "6", "15", "20", "19", "22", "25", "33", "30", "31", "21", "21", "20", "16", "18", "16", "16", "17"], "time": [2241, 2323, 2478, 2809, 3756, 4032, 5338, 5488, 7838, 8007, 9856, 9887, 10203, 10550, 12945, 13782, 14233, 14846, 15263, 16596]}, "edge": {"target": [], "time": []}}, "mouseout": {"state": {"target": ["0", "0", "1", "2", "4", "6", "15", "20", "19", "22", "25", "33", "30", "31", "21", "21", "20", "16", "18", "16", "16", "16", "17"], "time": [526, 1990, 2294, 2392, 2675, 3392, 3776, 5307, 5386, 7434, 7857, 9612, 9885, 9902, 10254, 12034, 13403, 14066, 14350, 14947, 16325, 16528, 22759]}, "edge": {"target": [], "time": []}}}, "displayed_time": "21.81", "trialTime": 23337, "trial_type": "mouselab-mdp", "trial_index": 34, "time_elapsed": 863527, "internal_node_id": "0.0-6.0-1.0-25.0"}}, {"uniqueid": "w61292887:a70797613", "current_trial": 35, "dateTime": 1693580970345, "trialdata": {"revealed_states": [], "clicked_states": ["5", "17", "18"], "num_clicks_accrued": [0, 0, 0, 0, 0, 0, 0, 0, 0, 0, 0, 0, 0], "stateRewards": ["", 2, 1, -3, 7, 46, 11, -36, 16, 71, 5, 1, 2, -2, -8, -3, -4, 6, 55, 7, 68, -54, 2, 1, 1, 6, -6, 42, -4, -84, -11, -65, 63, 25], "withholdReward": false, "trial_id": "mdp_trial_27", "block": "test", "trialIndex": 28, "score": 39.8, "costs": -4.199999999999999, "simulationMode": [null, null, null, null, null], "rewards": [2, -2, -8, -3, 55], "path": ["0", "0", "12", "13", "14", "15", "18"], "rt": [8041, 72, 164, 67, 82], "actions": ["right", "right", "right", "up", "left"], "actionTimes": [9443, 10037, 10716, 11300, 11899], "queries": {"click": {"state": {"target": ["5", "17", "18"], "time": [2442, 4563, 6620]}, "edge": {"target": [], "time": []}}, "mouseover": {"state": {"target": ["1", "3", "3", "5", "6", "16", "17", "15", "18", "16"], "time": [1889, 1941, 2170, 2305, 3016, 3385, 3600, 4984, 5034, 7766]}, "edge": {"target": [], "time": []}}, "mouseout": {"state": {"target": ["13", "12", "0", "1", "3", "3", "5", "6", "16", "17", "15", "18", "16", "15", "13", "22"], "time": [507, 620, 853, 1919, 1962, 2193, 2924, 3075, 3450, 4953, 5018, 7602, 12914, 12995, 13113, 13148]}, "edge": {"target": [], "time": []}}}, "displayed_time": "15.41", "trialTime": 16027, "trial_type": "mouselab-mdp", "trial_index": 35, "time_elapsed": 880504, "internal_node_id": "0.0-6.0-1.0-26.0"}}, {"uniqueid": "w61292887:a70797613", "current_trial": 36, "dateTime": 1693580987746, "trialdata": {"revealed_states": [], "clicked_states": ["29", "27", "28", "31", "5"], "num_clicks_accrued": [0, 0, 0, 0, 0, 0, 0, 0, 0, 0, 0, 0, 0], "stateRewards": ["", -1, 3, 1, -7, 56, 76, 57, 3, 11, -9, 14, 1, -2, 2, 8, -77, -3, 79, -5, 88, 24, -66, -2, -1, 7, -7, -30, 14, -76, 11, -36, 28, -6], "withholdReward": false, "trial_id": "mdp_trial_28", "block": "test", "trialIndex": 29, "score": 45, "costs": -7, "simulationMode": [null, null, null, null, null], "rewards": [-1, 3, 1, -7, 56], "path": ["0", "0", "1", "2", "3", "4", "5"], "rt": [11492, 54, 79, 82, 11], "actions": ["up", "up", "up", "right", "up"], "actionTimes": [12445, 13012, 13619, 14234, 14766], "queries": {"click": {"state": {"target": ["29", "27", "28", "31", "5"], "time": [1878, 3818, 5718, 7627, 9575]}, "edge": {"target": [], "time": []}}, "mouseover": {"state": {"target": ["28", "26", "29", "27", "28", "24", "30", "31", "24", "10", "3", "4", "5", "3", "10"], "time": [1416, 1464, 1746, 2371, 4191, 6041, 6142, 6471, 8055, 8105, 8157, 8329, 8494, 11506, 11690]}, "edge": {"target": [], "time": []}}, "mouseout": {"state": {"target": ["0", "28", "26", "29", "27", "28", "24", "30", "31", "24", "10", "3", "4", "5", "3", "10", "2", "7"], "time": [1049, 1445, 1486, 2283, 4109, 6025, 6058, 6439, 8021, 8074, 8122, 8207, 8398, 11459, 11591, 15806, 15936, 16102]}, "edge": {"target": [], "time": []}}}, "displayed_time": "15.30", "trialTime": 16430, "trial_type": "mouselab-mdp", "trial_index": 36, "time_elapsed": 897904, "internal_node_id": "0.0-6.0-1.0-27.0"}}, {"uniqueid": "w61292887:a70797613", "current_trial": 37, "dateTime": 1693581012448, "trialdata": {"revealed_states": [], "clicked_states": ["9", "7", "6", "29", "33", "28", "27", "31"], "num_clicks_accrued": [0, 0, 0, 0, 0, 0, 0, 0, 0, 0, 0, 0, 0], "stateRewards": ["", 2, 4, 7, 7, -79, -2, -21, -5, -53, 47, -21, 1, -3, -1, 7, 83, 7, 84, -7, 80, -37, 69, 2, -4, 5, 2, 4, -20, -30, 7, 71, 44, -81], "withholdReward": false, "trial_id": "mdp_trial_29", "block": "test", "trialIndex": 30, "score": 69.8, "costs": -11.200000000000001, "simulationMode": [null, null, null, null, null], "rewards": [2, -4, 5, 7, 71], "path": ["0", "0", "23", "24", "25", "30", "31"], "rt": [17997, 82, 89, 49, 68], "actions": ["left", "left", "left", "down", "right"], "actionTimes": [19670, 20258, 20867, 21441, 22055], "queries": {"click": {"state": {"target": ["9", "7", "6", "29", "33", "28", "27", "31"], "time": [2499, 4447, 6686, 9076, 11046, 12948, 14856, 16978]}, "edge": {"target": [], "time": []}}, "mouseover": {"state": {"target": ["3", "9", "3", "7", "7", "6", "4", "10", "28", "26", "29", "33", "25", "28", "27", "26", "24", "31", "32"], "time": [2072, 2340, 2934, 2987, 3370, 6384, 7502, 7537, 7575, 8549, 8871, 10482, 11432, 11750, 13538, 15143, 15213, 15427, 17449]}, "edge": {"target": [], "time": []}}, "mouseout": {"state": {"target": ["0", "3", "9", "3", "7", "7", "6", "4", "10", "28", "26", "29", "33", "25", "28", "27", "26", "24", "31", "32"], "time": [1698, 2122, 2887, 2951, 3057, 6301, 7485, 7519, 7558, 7593, 8800, 10115, 11378, 11447, 13401, 15112, 15171, 15345, 17383, 19160]}, "edge": {"target": [], "time": []}}}, "displayed_time": "22.58", "trialTime": 23754, "trial_type": "mouselab-mdp", "trial_index": 37, "time_elapsed": 922606, "internal_node_id": "0.0-6.0-1.0-28.0"}}, {"uniqueid": "w61292887:a70797613", "current_trial": 38, "dateTime": 1693581029759, "trialdata": {"revealed_states": [], "clicked_states": ["5", "11", "9", "10"], "num_clicks_accrued": [0, 0, 0, 0, 0, 0, 0, 0, 0, 0, 0, 0, 0], "stateRewards": ["", -1, -2, 4, 9, 10, -75, 39, 16, -43, 88, -19, -1, 1, 2, 4, -31, 10, 73, 12, 41, -64, -81, -2, 2, -6, 1, -81, -1, -26, 3, -59, -3, -20], "withholdReward": false, "trial_id": "mdp_trial_30", "block": "test", "trialIndex": 31, "score": 99.4, "costs": -5.6, "simulationMode": [null, null, null, null, null], "rewards": [-1, -2, 4, 16, 88], "path": ["0", "0", "1", "2", "3", "8", "10"], "rt": [10116, 42, 153, 1038, 227], "actions": ["up", "up", "up", "left", "down"], "actionTimes": [11109, 11679, 12371, 13930, 14673], "queries": {"click": {"state": {"target": ["5", "11", "9", "10"], "time": [2258, 4284, 6412, 8309]}, "edge": {"target": [], "time": []}}, "mouseover": {"state": {"target": ["1", "7", "4", "5", "9", "8", "11", "9", "9", "8", "10", "7"], "time": [1061, 1436, 1852, 2122, 2919, 3008, 3078, 4651, 4984, 6835, 6922, 8916]}, "edge": {"target": [], "time": []}}, "mouseout": {"state": {"target": ["0", "1", "7", "4", "5", "9", "8", "11", "9", "9", "9", "8", "10", "7", "1", "0"], "time": [1018, 1187, 1822, 1902, 2485, 2957, 3027, 4586, 4719, 6567, 6818, 6883, 8409, 15661, 15779, 15879]}, "edge": {"target": [], "time": []}}}, "displayed_time": "15.18", "trialTime": 16365, "trial_type": "mouselab-mdp", "trial_index": 38, "time_elapsed": 939917, "internal_node_id": "0.0-6.0-1.0-29.0"}}, {"uniqueid": "w61292887:a70797613", "current_trial": 39, "dateTime": 1693581052612, "trialdata": {"revealed_states": [], "clicked_states": ["20", "22", "21", "17", "18", "16", "6"], "num_clicks_accrued": [0, 0, 0, 0, 0, 0, 0, 0, 0, 0, 0, 0, 0], "stateRewards": ["", 1, 1, -6, -2, 7, 77, 3, 16, -16, 66, 31, -1, 3, -8, -6, 33, -50, -48, 7, -60, -66, 36, 2, -3, 3, -7, -12, -61, -79, -4, 8, 74, -70], "withholdReward": false, "trial_id": "mdp_trial_31", "block": "test", "trialIndex": 32, "score": 61.2, "costs": -9.8, "simulationMode": [null, null, null, null, null], "rewards": [1, 1, -6, -2, 77], "path": ["0", "0", "1", "2", "3", "4", "6"], "rt": [16802, 10, 26, 334, 92], "actions": ["up", "up", "up", "right", "right"], "actionTimes": [18062, 18598, 19156, 20002, 20611], "queries": {"click": {"state": {"target": ["20", "22", "21", "17", "18", "16", "6"], "time": [2760, 5267, 7375, 9250, 11126, 13079, 15284]}, "edge": {"target": [], "time": []}}, "mouseover": {"state": {"target": ["3", "3", "7", "13", "14", "19", "20", "19", "22", "21", "19", "14", "17", "15", "18", "16", "16", "6", "6"], "time": [1286, 1580, 1627, 1694, 1948, 2246, 2544, 4796, 4858, 5559, 7824, 7858, 8190, 9823, 9925, 11484, 11785, 13554, 13781]}, "edge": {"target": [], "time": []}}, "mouseout": {"state": {"target": ["0", "3", "3", "7", "13", "14", "19", "20", "19", "22", "21", "19", "14", "17", "15", "18", "16", "16", "6", "6", "18", "13", "22"], "time": [1284, 1306, 1603, 1649, 1813, 2111, 2294, 4744, 4825, 5512, 7761, 7856, 7923, 9789, 9872, 11419, 11540, 13469, 13621, 15755, 21399, 21449, 21649]}, "edge": {"target": [], "time": []}}}, "displayed_time": "21.13", "trialTime": 21905, "trial_type": "mouselab-mdp", "trial_index": 39, "time_elapsed": 962771, "internal_node_id": "0.0-6.0-1.0-30.0"}}, {"uniqueid": "w61292887:a70797613", "current_trial": 40, "dateTime": 1693581071110, "trialdata": {"revealed_states": [], "clicked_states": ["5", "11", "9", "31", "29"], "num_clicks_accrued": [0, 0, 0, 0, 0, 0, 0, 0, 0, 0, 0, 0, 0], "stateRewards": ["", -1, 4, 3, 12, -27, 34, -33, 3, -63, 1, 6, 2, 2, -6, -11, -77, -85, 68, -6, 51, 81, -60, -2, -2, 1, 15, 20, 15, 68, -10, -14, 6, -4], "withholdReward": false, "trial_id": "mdp_trial_32", "block": "test", "trialIndex": 33, "score": 73, "costs": -7, "simulationMode": [null, null, null, null, null], "rewards": [-2, -2, 1, 15, 68], "path": ["0", "0", "23", "24", "25", "26", "29"], "rt": [11672, 482, 162, 51, 463], "actions": ["left", "left", "left", "up", "left"], "actionTimes": [12835, 13837, 14517, 15072, 16079], "queries": {"click": {"state": {"target": ["5", "11", "9", "31", "29"], "time": [1909, 3792, 5770, 8151, 10032]}, "edge": {"target": [], "time": []}}, "mouseover": {"state": {"target": ["1", "4", "5", "8", "11", "9", "25", "30", "31", "31", "25", "29", "26", "28"], "time": [1496, 1562, 1615, 2293, 2660, 4161, 6376, 6460, 6685, 8058, 8828, 9150, 10392, 10748]}, "edge": {"target": [], "time": []}}, "mouseout": {"state": {"target": ["0", "1", "4", "5", "8", "11", "9", "9", "25", "30", "31", "31", "25", "29", "26", "28"], "time": [1380, 1529, 1594, 2211, 2608, 3922, 5923, 6290, 6403, 6501, 6827, 8738, 8866, 10357, 10429, 17237]}, "edge": {"target": [], "time": []}}}, "displayed_time": "16.60", "trialTime": 17486, "trial_type": "mouselab-mdp", "trial_index": 40, "time_elapsed": 981268, "internal_node_id": "0.0-6.0-1.0-31.0"}}, {"uniqueid": "w61292887:a70797613", "current_trial": 41, "dateTime": 1693581088106, "trialdata": {"revealed_states": [], "clicked_states": ["17"], "num_clicks_accrued": [0, 0, 0, 0, 0, 0, 0, 0, 0, 0, 0, 0, 0], "stateRewards": ["", -1, -3, -5, -14, -13, -47, 79, 8, -60, -64, 41, -1, 2, 3, 13, -46, 61, -79, -11, -64, -65, 23, 1, -2, 6, -14, 46, 32, 21, 7, 75, -66, 15], "withholdReward": false, "trial_id": "mdp_trial_33", "block": "test", "trialIndex": 34, "score": 76.6, "costs": -1.4, "simulationMode": [null, null, null, null, null], "rewards": [-1, 2, 3, 13, 61], "path": ["0", "0", "12", "13", "14", "15", "17"], "rt": [3729, 28, 65, 12, 26], "actions": ["right", "right", "right", "up", "right"], "actionTimes": [4944, 5494, 6086, 6604, 7166], "queries": {"click": {"state": {"target": ["17"], "time": [2257]}, "edge": {"target": [], "time": []}}, "mouseover": {"state": {"target": ["18", "15", "17", "20", "19", "22"], "time": [1695, 1760, 2125, 2998, 3796, 3927]}, "edge": {"target": [], "time": []}}, "mouseout": {"state": {"target": ["0", "18", "15", "17", "20", "19", "22"], "time": [693, 1720, 1960, 2898, 3730, 3858, 8437]}, "edge": {"target": [], "time": []}}}, "displayed_time": "15.23", "trialTime": 16007, "trial_type": "mouselab-mdp", "trial_index": 41, "time_elapsed": 998264, "internal_node_id": "0.0-6.0-1.0-32.0"}}, {"uniqueid": "w61292887:a70797613", "current_trial": 42, "dateTime": 1693581105337, "trialdata": {"revealed_states": [], "clicked_states": ["9", "6", "10"], "num_clicks_accrued": [0, 0, 0, 0, 0, 0, 0, 0, 0, 0, 0, 0, 0], "stateRewards": ["", 1, 3, 1, -13, 52, -28, 67, -14, 3, 63, -70, -1, -4, 7, -11, -10, 47, -18, 6, 69, -9, -61, 2, 3, -6, 10, 63, -34, 40, -6, -79, -35, -32], "withholdReward": false, "trial_id": "mdp_trial_34", "block": "test", "trialIndex": 35, "score": 49.8, "costs": -4.199999999999999, "simulationMode": [null, null, null, null, null], "rewards": [1, 3, 1, -14, 63], "path": ["0", "0", "1", "2", "3", "8", "10"], "rt": [7348, 79, 112, 54, 109], "actions": ["up", "up", "up", "left", "down"], "actionTimes": [8539, 9177, 9780, 10359, 10996], "queries": {"click": {"state": {"target": ["9", "6", "10"], "time": [1859, 3784, 5617]}, "edge": {"target": [], "time": []}}, "mouseover": {"state": {"target": ["2", "3", "9", "4", "6", "6", "4", "10", "5", "4"], "time": [1218, 1262, 1725, 2471, 3139, 3299, 4345, 4409, 6352, 7889]}, "edge": {"target": [], "time": []}}, "mouseout": {"state": {"target": ["23", "0", "2", "3", "9", "4", "6", "6", "4", "10", "5", "4", "7"], "time": [107, 1216, 1237, 1281, 2363, 3104, 3155, 4328, 4363, 5931, 7871, 7935, 12048]}, "edge": {"target": [], "time": []}}}, "displayed_time": "15.20", "trialTime": 16113, "trial_type": "mouselab-mdp", "trial_index": 42, "time_elapsed": 1015494, "internal_node_id": "0.0-6.0-1.0-33.0"}}, {"uniqueid": "w61292887:a70797613", "current_trial": 43, "dateTime": 1693581123322, "trialdata": {"revealed_states": [], "clicked_states": ["33", "32", "27"], "num_clicks_accrued": [0, 0, 0, 0, 0, 0, 0, 0, 0, 0, 0, 0, 0], "stateRewards": ["", 1, -1, 8, -3, 38, 85, -20, -4, 8, 23, 73, 2, -4, 6, -13, 44, 7, -28, -11, -77, 45, -69, 1, -1, -7, -11, 75, -51, -87, 7, 36, -53, -26], "withholdReward": false, "trial_id": "mdp_trial_35", "block": "test", "trialIndex": 36, "score": 52.8, "costs": -4.199999999999999, "simulationMode": [null, null, null, null, null], "rewards": [1, -1, -7, -11, 75], "path": ["0", "0", "23", "24", "25", "26", "27"], "rt": [7302, 12, 87, 430, 121], "actions": ["left", "left", "left", "up", "up"], "actionTimes": [9207, 9736, 10357, 11300, 11939], "queries": {"click": {"state": {"target": ["33", "32", "27"], "time": [2604, 4577, 6490]}, "edge": {"target": [], "time": []}}, "mouseover": {"state": {"target": ["33", "32", "30", "25", "26", "27", "28", "28"], "time": [2273, 3489, 5088, 5121, 5169, 5491, 6869, 7090]}, "edge": {"target": [], "time": []}}, "mouseout": {"state": {"target": ["25", "23", "0", "0", "33", "32", "30", "25", "26", "27", "28", "28"], "time": [792, 855, 922, 1927, 3404, 4716, 5103, 5152, 5218, 6822, 6939, 12883]}, "edge": {"target": [], "time": []}}}, "displayed_time": "15.91", "trialTime": 16945, "trial_type": "mouselab-mdp", "trial_index": 43, "time_elapsed": 1033480, "internal_node_id": "0.0-6.0-1.0-34.0"}}, {"uniqueid": "w61292887:a70797613", "current_trial": 44, "dateTime": 1693581140582, "trialdata": {"revealed_states": [], "clicked_states": ["5"], "num_clicks_accrued": [0, 0, 0, 0, 0, 0, 0, 0, 0, 0, 0, 0, 0], "stateRewards": ["", -2, -3, -3, 9, 79, 67, 22, -15, -56, 27, -85, -2, 4, -4, -15, -20, -32, 60, 15, 71, 57, 17, 1, 2, -8, 15, -37, -81, 82, 15, 21, -3, 2], "withholdReward": false, "trial_id": "mdp_trial_36", "block": "test", "trialIndex": 37, "score": 78.6, "costs": -1.4, "simulationMode": [null, null, null, null, null], "rewards": [-2, -3, -3, 9, 79], "path": ["0", "0", "1", "2", "3", "4", "5"], "rt": [3632, 67, 44, 21, 12], "actions": ["up", "up", "up", "right", "up"], "actionTimes": [5095, 5673, 6236, 6794, 7335], "queries": {"click": {"state": {"target": ["5"], "time": [2605]}, "edge": {"target": [], "time": []}}, "mouseover": {"state": {"target": ["7", "5", "6"], "time": [1762, 2241, 3536]}, "edge": {"target": [], "time": []}}, "mouseout": {"state": {"target": ["0", "7", "5", "6", "0"], "time": [873, 1785, 3420, 8602, 12982]}, "edge": {"target": [], "time": []}}}, "displayed_time": "15.47", "trialTime": 16218, "trial_type": "mouselab-mdp", "trial_index": 44, "time_elapsed": 1050741, "internal_node_id": "0.0-6.0-1.0-35.0"}}, {"uniqueid": "w61292887:a70797613", "current_trial": 45, "dateTime": 1693581163809, "trialdata": {"revealed_states": [], "clicked_states": ["5", "11", "29", "33", "31", "32", "20"], "num_clicks_accrued": [0, 0, 0, 0, 0, 0, 0, 0, 0, 0, 0, 0, 0], "stateRewards": ["", 1, -3, -1, 9, -34, -40, 22, -7, 45, 53, -11, 2, 4, 5, 15, 21, 37, -49, -3, 80, -28, -34, 1, -3, 1, 1, -40, -6, -5, -16, -85, -86, 59], "withholdReward": false, "trial_id": "mdp_trial_37", "block": "test", "trialIndex": 38, "score": 78.2, "costs": -9.8, "simulationMode": [null, null, null, null, null], "rewards": [2, 4, 5, -3, 80], "path": ["0", "0", "12", "13", "14", "19", "20"], "rt": [17571, 22, 30, 39, 128], "actions": ["right", "right", "right", "down", "right"], "actionTimes": [18733, 19255, 19814, 20373, 21012], "queries": {"click": {"state": {"target": ["5", "11", "29", "33", "31", "32", "20"], "time": [2297, 4759, 6655, 8562, 11160, 13222, 15898]}, "edge": {"target": [], "time": []}}, "mouseover": {"state": {"target": ["0", "4", "5", "9", "11", "27", "29", "33", "30", "31", "32", "12", "17", "20"], "time": [1282, 1976, 2045, 4393, 4593, 5357, 5441, 7057, 8889, 9172, 13004, 15184, 15238, 15736]}, "edge": {"target": [], "time": []}}, "mouseout": {"state": {"target": ["1", "0", "4", "5", "9", "11", "27", "29", "33", "30", "31", "32", "12", "17", "20", "20", "21"], "time": [464, 1895, 2012, 4325, 4494, 5322, 5392, 6923, 8855, 8940, 12424, 15103, 15204, 15257, 16015, 18117, 21817]}, "edge": {"target": [], "time": []}}}, "displayed_time": "21.53", "trialTime": 22229, "trial_type": "mouselab-mdp", "trial_index": 45, "time_elapsed": 1073967, "internal_node_id": "0.0-6.0-1.0-36.0"}}, {"uniqueid": "w61292887:a70797613", "current_trial": 46, "dateTime": 1693581181233, "trialdata": {"revealed_states": [], "clicked_states": ["33", "27", "5", "7"], "num_clicks_accrued": [0, 0, 0, 0, 0, 0, 0, 0, 0, 0, 0, 0, 0], "stateRewards": ["", 1, 1, -2, 7, -31, -6, 76, 1, -36, -16, -53, 2, 1, 7, 13, -47, -10, 47, -7, 72, 46, -56, -2, -2, -2, 11, -80, 44, 38, 16, 67, 85, -78], "withholdReward": false, "trial_id": "mdp_trial_38", "block": "test", "trialIndex": 39, "score": 77.4, "costs": -5.6, "simulationMode": [null, null, null, null, null], "rewards": [1, 1, -2, 7, 76], "path": ["0", "0", "1", "2", "3", "4", "7"], "rt": [10174, 11, 976, 38, 108], "actions": ["up", "up", "up", "right", "down"], "actionTimes": [11294, 11827, 13355, 13915, 14533], "queries": {"click": {"state": {"target": ["33", "27", "5", "7"], "time": [2527, 4694, 6586, 8460]}, "edge": {"target": [], "time": []}}, "mouseover": {"state": {"target": ["0", "23", "24", "30", "33", "26", "27", "11", "9", "5", "5", "4", "7", "7", "2", "10"], "time": [1254, 1858, 1906, 2099, 2398, 3333, 4448, 5130, 5165, 5314, 5510, 6944, 6977, 7328, 8809, 9214]}, "edge": {"target": [], "time": []}}, "mouseout": {"state": {"target": ["1", "0", "23", "24", "30", "33", "26", "27", "11", "9", "5", "5", "4", "7", "7", "2", "10", "1", "0"], "time": [402, 1832, 1884, 1935, 2284, 3229, 3379, 4715, 5148, 5182, 5412, 6928, 6961, 6994, 8777, 8836, 15522, 15572, 15593]}, "edge": {"target": [], "time": []}}}, "displayed_time": "15.13", "trialTime": 16390, "trial_type": "mouselab-mdp", "trial_index": 46, "time_elapsed": 1091391, "internal_node_id": "0.0-6.0-1.0-37.0"}}, {"uniqueid": "w61292887:a70797613", "current_trial": 47, "dateTime": 1693581198670, "trialdata": {"revealed_states": [], "clicked_states": ["6", "17"], "num_clicks_accrued": [0, 0, 0, 0, 0, 0, 0, 0, 0, 0, 0, 0, 0], "stateRewards": ["", 1, 2, 7, 13, 88, -71, 27, 3, 60, 5, -53, -2, 2, -6, -1, -30, 79, 47, -4, -14, 46, 68, 1, 1, 8, 10, -14, 86, 48, -11, -67, -44, 5], "withholdReward": false, "trial_id": "mdp_trial_39", "block": "test", "trialIndex": 40, "score": 69.2, "costs": -2.8, "simulationMode": [null, null, null, null, null], "rewards": [-2, 2, -6, -1, 79], "path": ["0", "0", "12", "13", "14", "15", "17"], "rt": [5364, 21, 27, 260, 74], "actions": ["right", "right", "right", "up", "right"], "actionTimes": [7066, 7590, 8147, 8909, 9509], "queries": {"click": {"state": {"target": ["6", "17"], "time": [2530, 4463]}, "edge": {"target": [], "time": []}}, "mouseover": {"state": {"target": ["7", "6", "16", "17", "15", "18"], "time": [1989, 2388, 2969, 3373, 4769, 4835]}, "edge": {"target": [], "time": []}}, "mouseout": {"state": {"target": ["0", "7", "6", "16", "17", "15", "18", "13"], "time": [1812, 2023, 2935, 2985, 4751, 4801, 11034, 11100]}, "edge": {"target": [], "time": []}}}, "displayed_time": "15.71", "trialTime": 16410, "trial_type": "mouselab-mdp", "trial_index": 47, "time_elapsed": 1108828, "internal_node_id": "0.0-6.0-1.0-38.0"}}, {"uniqueid": "w61292887:a70797613", "current_trial": 48, "dateTime": 1693581215535, "trialdata": {"revealed_states": [], "clicked_states": ["29", "33"], "num_clicks_accrued": [0, 0, 0, 0, 0, 0, 0, 0, 0, 0, 0, 0, 0], "stateRewards": ["", -2, -3, 4, 1, 33, -53, 15, 9, -12, 61, -6, -2, 4, 6, -11, 47, -43, -7, -11, 46, 23, -28, -1, -1, 3, -10, 11, 76, -76, 10, 18, -38, 87], "withholdReward": false, "trial_id": "mdp_trial_40", "block": "test", "trialIndex": 41, "score": 95.2, "costs": -2.8, "simulationMode": [null, null, null, null, null], "rewards": [-1, -1, 3, 10, 87], "path": ["0", "0", "23", "24", "25", "30", "33"], "rt": [5499, 63, 83, 61, 103], "actions": ["left", "left", "left", "down", "left"], "actionTimes": [6823, 7410, 8016, 8591, 9217], "queries": {"click": {"state": {"target": ["29", "33"], "time": [2255, 4215]}, "edge": {"target": [], "time": []}}, "mouseover": {"state": {"target": ["25", "29", "33", "30", "31"], "time": [1350, 2000, 2646, 4528, 4720]}, "edge": {"target": [], "time": []}}, "mouseout": {"state": {"target": ["0", "0", "25", "29", "33", "30", "31"], "time": [419, 1349, 1834, 2518, 4300, 4613, 10028]}, "edge": {"target": [], "time": []}}}, "displayed_time": "15.33", "trialTime": 15832, "trial_type": "mouselab-mdp", "trial_index": 48, "time_elapsed": 1125692, "internal_node_id": "0.0-6.0-1.0-39.0"}}, {"uniqueid": "w61292887:a70797613", "current_trial": 49, "dateTime": 1693581253366, "trialdata": {"rt": 37825, "response": {"Q0": "$-2 to $2", "Q1": "$-16 to $16", "Q2": "$-88 to $88", "Q3": "The cost was always $1.4.", "Q4": "Very motivated"}, "question_order": [0, 1, 2, 3, 4], "trial_id": "final_quiz_control", "trial_type": "survey-multi-choice", "trial_index": 49, "time_elapsed": 1163525, "internal_node_id": "0.0-6.0-2.0"}}, {"uniqueid": "w61292887:a70797613", "current_trial": 50, "dateTime": 1693581360895, "trialdata": {"rt": 107517, "response": {"Q0": "I started by trying to plan every step in my route but then it was costing me a lot to reveal each value. Then I started trying to find the highest number on the outside and realised my path to that would be a good one and I would likely have a higher amount of cash at the end.", "Q1": "Yes, I stopped trying to plan every step and started to trust that I could find a big number on the outside by revealing the outside nodes.", "Q2": "If I kept clicking on a negative number node then seeing my total balance getting worse because I had to keep clicking, that made me stress!"}, "trial_id": "self_report_control", "trial_type": "survey-text", "trial_index": 50, "time_elapsed": 1271054, "internal_node_id": "0.0-6.0-3.0"}}, {"uniqueid": "w61292887:a70797613", "current_trial": 51, "dateTime": 1693581383040, "trialdata": {"rt": 22138, "response": {"gender": "female", "age": "31", "colorblind": "0", "effort": "0"}, "trial_type": "survey-html-form", "trial_index": 51, "time_elapsed": 1293199, "internal_node_id": "0.0-6.0-4.0"}}, {"uniqueid": "w61292887:a70797613", "current_trial": 52, "dateTime": 1693581418057, "trialdata": {"rt": 35010, "response": {"Q0": "No - it was very well explained", "Q1": "No I have no done it before", "Q2": "I really enjoyed this survey and the 40 rounds flew by!"}, "trial_type": "survey-text", "trial_index": 52, "time_elapsed": 1328216, "internal_node_id": "0.0-6.0-5.0"}}, {"uniqueid": "w61292887:a70797613", "current_trial": 53, "dateTime": 1693581446261, "trialdata": {"rt": 28198, "stimulus": "<h1>Completion Code Instructions (1/2)</h1>\n<br><br><br><br>\nYou have reached the end of the experiment! The completion code consists of two parts: (1) a code with 2 characters (2) a code with 6 characters. On this page, you will receive the second part of the code. The first part of the completion code will be on the next page.\n<br><br>\nThe second part of your completion code is: <b>EWEK22</b>\n<br><br>\nPlease note this down. Then, press 'Next' in order to find the first part of your completion code. Once the data has been saved, you will receive this code either in this window or in the original browser window where you started the experiment.\n <br><br>\n<h2 style='color: red;'>Note: this is <strong>NOT</strong> the full completion code. Copy this down and click 'Next' to get the full completion code on the next page.</h2>", "response": 0, "trial_type": "html-button-response", "trial_index": 53, "time_elapsed": 1356419, "internal_node_id": "0.0-6.0-6.0"}}, {"uniqueid": "w61292887:a70797613", "current_trial": 54, "dateTime": 1693581447270, "trialdata": {"success": true, "trial_type": "fullscreen", "trial_index": 54, "time_elapsed": 1357429, "internal_node_id": "0.0-7.0"}}], "questiondata": {"params": {"CODE": "C6DMOQA6", "MIN_TIME": 14, "inspectCost": 1, "startTime": "Fri Sep 01 2023 15:54:49 GMT+0100 (British Summer Time)", "bonusRate": 0.002, "variance": "1_2_4_8_44", "branching": "31123"}, "final_score": 2577}, "eventdata": [{"eventtype": "initialized", "value": null, "timestamp": 1693580088685, "interval": 0}, {"eventtype": "window_resize", "value": [1440, 815], "timestamp": 1693580088685, "interval": 0}, {"eventtype": "window_resize", "value": [1440, 815], "timestamp": 1693580089032, "interval": 347}, {"eventtype": "window_resize", "value": [1440, 900], "timestamp": 1693580093159, "interval": 4127}, {"eventtype": "window_resize", "value": [1440, 815], "timestamp": 1693581446485, "interval": 1353326}], "useragent": "Mozilla/5.0 (Macintosh; Intel Mac OS X 10_15_7) AppleWebKit/537.36 (KHTML, like Gecko) Chrome/116.0.0.0 Safari/537.36", "mode": "live", "id": "w61292887:a70797613", "status": "user data saved", "Beginhit": "2023-09-01 14:54:47.556961", "Beginexp": "2023-09-01 14:54:54.075264", "Endhit": "2023-09-01 15:17:27.886269", "psiturkStatus": 3, "browser": "<redacted>", "platform": "macos", "language": "en-GB"}