{"condition": 1, "counterbalance": 0, "assignmentId": "a14666989", "workerId": "w42907931", "hitId": "h49038380", "currenttrial": 62, "bonus": 0, "data": [{"uniqueid": "w42907931:a14666989", "current_trial": 0, "dateTime": 1691142372536, "trialdata": {"success": true, "trial_type": "fullscreen", "trial_index": 0, "time_elapsed": 60018, "internal_node_id": "0.0-0.0"}}, {"uniqueid": "w42907931:a14666989", "current_trial": 1, "dateTime": 1691142448349, "trialdata": {"view_history": [{"page_index": 0, "viewing_time": 75810}], "rt": 75811, "trial_id": "exp_instructions_misaligned", "trial_type": "instructions", "trial_index": 1, "time_elapsed": 135831, "internal_node_id": "0.0-1.0"}}, {"uniqueid": "w42907931:a14666989", "current_trial": 2, "dateTime": 1691142453055, "trialdata": {"success": true, "trial_type": "fullscreen", "trial_index": 2, "time_elapsed": 140537, "internal_node_id": "0.0-2.0-0.0"}}, {"uniqueid": "w42907931:a14666989", "current_trial": 3, "dateTime": 1691143216719, "trialdata": {"view_history": [{"page_index": 0, "viewing_time": 247325}, {"page_index": 1, "viewing_time": 1456}, {"page_index": 0, "viewing_time": 29519}, {"page_index": 1, "viewing_time": 293570}, {"page_index": 0, "viewing_time": 13648}, {"page_index": 1, "viewing_time": 2846}, {"page_index": 2, "viewing_time": 77692}, {"page_index": 3, "viewing_time": 97606}], "rt": 763663, "trial_id": "mouselab_instructions_1_misaligned", "trial_type": "instructions", "trial_index": 3, "time_elapsed": 904201, "internal_node_id": "0.0-2.0-1.0"}}, {"uniqueid": "w42907931:a14666989", "current_trial": 4, "dateTime": 1691143249878, "trialdata": {"revealed_states": [], "clicked_states": ["25", "14", "15", "3", "26"], "num_clicks_accrued": [0, 0, 0, 0, 0, 0, 0, 0, 0, 0, 0, 0, 0], "stateRewards": ["", -10, 10, 10, 10, -10, -10, 10, -10, 10, -10, 10, 10, 10, 10, 10, 10, 10, -10, 10, 10, 10, 10, -10, -10, -10, -10, -10, 10, 10, -10, -10, -10, -10], "withholdReward": false, "trial_id": "practice_1", "block": "test", "trialIndex": 0, "score": 51, "costs": -2.5, "simulationMode": [null, null, null, null, null], "rewards": [10, 10, 10, 10, 10], "path": ["0", "0", "12", "13", "14", "15", "16"], "rt": [18044, 674, 347, 169, 542], "actions": ["right", "right", "right", "up", "up"], "actionTimes": [22494, 23685, 24541, 25214, 26254], "queries": {"click": {"state": {"target": ["25", "14", "15", "3", "26"], "time": [7745, 9291, 11775, 13255, 17287]}, "edge": {"target": [], "time": []}}, "mouseover": {"state": {"target": ["0", "23", "24", "25", "24", "14", "13", "12", "13", "15", "18", "2", "8", "3", "2", "24", "26", "27", "26", "24", "23"], "time": [5910, 6026, 6160, 6460, 8310, 8843, 9960, 10077, 10410, 10527, 12243, 12293, 12493, 12710, 13844, 15410, 15693, 15893, 16877, 17693, 17760]}, "edge": {"target": [], "time": []}}, "mouseout": {"state": {"target": ["0", "0", "23", "24", "25", "24", "14", "13", "12", "13", "15", "18", "2", "8", "3", "2", "24", "26", "27", "26", "24", "23"], "time": [5227, 5960, 6110, 6277, 8293, 8343, 9777, 10010, 10377, 10427, 12227, 12260, 12360, 12627, 13693, 13943, 15477, 15794, 16493, 17543, 17710, 17827]}, "edge": {"target": [], "time": []}}}, "displayed_time": "26.76", "trialTime": 32261, "trial_type": "mouselab-mdp", "trial_index": 4, "time_elapsed": 937360, "internal_node_id": "0.0-2.0-2.0-0.0"}}, {"uniqueid": "w42907931:a14666989", "current_trial": 5, "dateTime": 1691143289646, "trialdata": {"revealed_states": [], "clicked_states": ["25", "14", "16", "3", "8", "9", "4"], "num_clicks_accrued": [0, 0, 0, 0, 0, 0, 0, 0, 0, 0, 0, 0, 0], "stateRewards": ["", 10, 10, 10, 10, -10, -10, -10, -10, -10, 10, -10, 10, 10, -10, -10, 10, -10, -10, 10, 10, -10, -10, 10, 10, 10, 10, 10, 10, 10, -10, 10, 10, -10], "withholdReward": false, "trial_id": "practice_2", "block": "test", "trialIndex": 1, "score": 50, "costs": -3.5, "simulationMode": [null, null, null, null, null], "rewards": [10, 10, 10, 10, 10], "path": ["0", "0", "23", "24", "25", "26", "27"], "rt": [26118, 549, 339, 65, 178], "actions": ["left", "left", "left", "up", "up"], "actionTimes": [32068, 33123, 33979, 34555, 35251], "queries": {"click": {"state": {"target": ["25", "14", "16", "3", "8", "9", "4"], "time": [9972, 12803, 14798, 18404, 20085, 21525, 22676]}, "edge": {"target": [], "time": []}}, "mouseover": {"state": {"target": ["23", "24", "25", "28", "26", "28", "13", "14", "15", "16", "15", "18", "7", "3", "8", "9", "3", "8", "9", "9", "4", "4", "5", "7"], "time": [8706, 8939, 9039, 11390, 11506, 11673, 11906, 12156, 13623, 14223, 15323, 15539, 16523, 16756, 17006, 17123, 17839, 19356, 20473, 21273, 21906, 22306, 23006, 23973]}, "edge": {"target": [], "time": []}}, "mouseout": {"state": {"target": ["0", "23", "24", "25", "28", "26", "28", "13", "14", "15", "16", "15", "18", "7", "3", "8", "9", "3", "8", "9", "9", "4", "4", "5", "4", "7"], "time": [8556, 8906, 8989, 10756, 11439, 11623, 11706, 12039, 13506, 13823, 15206, 15373, 16356, 16556, 16789, 17056, 17723, 18773, 20106, 20973, 21756, 21989, 22939, 23873, 23956, 24006]}, "edge": {"target": [], "time": []}}}, "displayed_time": "35.74", "trialTime": 39675, "trial_type": "mouselab-mdp", "trial_index": 5, "time_elapsed": 977128, "internal_node_id": "0.0-2.0-2.0-1.0"}}, {"uniqueid": "w42907931:a14666989", "current_trial": 6, "dateTime": 1691143449443, "trialdata": {"view_history": [{"page_index": 0, "viewing_time": 111305}, {"page_index": 1, "viewing_time": 48489}], "rt": 159795, "trial_id": "mouselab_instructions_2_misaligned", "trial_type": "instructions", "trial_index": 6, "time_elapsed": 1136925, "internal_node_id": "0.0-2.0-3.0"}}, {"uniqueid": "w42907931:a14666989", "current_trial": 7, "dateTime": 1691143645582, "trialdata": {"rt": 196137, "response": {"Q0": "The cost for clicking on nodes may vary between nodes.", "Q1": "The better I perform the higher my bonus will be.", "Q2": "No, the structure of the web will be different each time.", "Q3": "To get the highest total score.", "Q4": "Only after moving the spider.", "Q5": "3 seconds"}, "question_order": [0, 1, 2, 3, 4, 5], "correct": {"Q0": "The cost for clicking on nodes may vary between nodes.", "Q1": "The better I perform the higher my bonus will be.", "Q2": "No, the amount of cash at each node of the web may be different each time.", "Q3": "To get the highest total score.", "Q4": "Only before moving the spider.", "Q5": "3 seconds"}, "trial_id": "mouselab_quiz_misaligned", "trial_type": "survey-multi-choice", "trial_index": 7, "time_elapsed": 1333063, "internal_node_id": "0.0-2.0-4.0"}}, {"uniqueid": "w42907931:a14666989", "current_trial": 8, "dateTime": 1691143662414, "trialdata": {"success": true, "trial_type": "fullscreen", "trial_index": 8, "time_elapsed": 1349896, "internal_node_id": "0.0-2.1-0.1"}}, {"uniqueid": "w42907931:a14666989", "current_trial": 9, "dateTime": 1691143842039, "trialdata": {"view_history": [{"page_index": 0, "viewing_time": 23222}, {"page_index": 1, "viewing_time": 31489}, {"page_index": 2, "viewing_time": 60669}, {"page_index": 3, "viewing_time": 64244}], "rt": 179624, "trial_id": "mouselab_instructions_1_misaligned", "trial_type": "instructions", "trial_index": 9, "time_elapsed": 1529521, "internal_node_id": "0.0-2.1-1.1"}}, {"uniqueid": "w42907931:a14666989", "current_trial": 10, "dateTime": 1691143942407, "trialdata": {"revealed_states": [], "clicked_states": ["13", "15", "16", "24", "26", "32", "30", "3", "8", "9"], "num_clicks_accrued": [0, 0, 0, 0, 0, 0, 0, 0, 0, 0, 0, 0, 0], "stateRewards": ["", -10, 10, 10, 10, -10, -10, 10, -10, 10, -10, 10, 10, 10, 10, 10, 10, 10, -10, 10, 10, 10, 10, -10, -10, -10, -10, -10, 10, 10, -10, -10, -10, -10], "withholdReward": false, "trial_id": "practice_1", "block": "test", "trialIndex": 2, "score": 8.5, "costs": -5, "simulationMode": [null, null, null, null, null], "rewards": [-10, 10, 10, 10, -10], "path": ["0", "0", "1", "2", "3", "4", "5"], "rt": [90138, 871, 208, 203, 86], "actions": ["up", "up", "up", "right", "up"], "actionTimes": [92272, 93648, 94368, 95079, 95680], "queries": {"click": {"state": {"target": ["13", "15", "16", "24", "26", "32", "30", "3", "8", "9"], "time": [5673, 7136, 9342, 13296, 15346, 17222, 20422, 23082, 26390, 28536]}, "edge": {"target": [], "time": []}}, "mouseover": {"state": {"target": ["12", "13", "14", "15", "14", "16", "16", "14", "19", "31", "24", "25", "26", "25", "30", "32", "30", "31", "13", "18", "7", "3", "2", "1", "0", "1", "2", "8", "11", "9", "3", "2", "12", "22", "20", "6", "2", "0", "23", "0", "12", "0"], "time": [3509, 4310, 6109, 6609, 7742, 8842, 9009, 9776, 9909, 12542, 12942, 14676, 14876, 15726, 15876, 16892, 17842, 20976, 21209, 21659, 21976, 22209, 23926, 24042, 25142, 25242, 25526, 26042, 26842, 27592, 28909, 28976, 29059, 29126, 84893, 86626, 86709, 87092, 87209, 87442, 88392, 90292]}, "edge": {"target": [], "time": []}}, "mouseout": {"state": {"target": ["12", "0", "0", "12", "13", "14", "15", "14", "15", "16", "16", "15", "14", "19", "31", "24", "25", "26", "25", "30", "32", "30", "31", "13", "18", "7", "3", "2", "1", "0", "1", "2", "8", "11", "9", "3", "2", "12", "22", "20", "6", "2", "0", "23", "0", "12"], "time": [881, 1130, 3392, 4128, 5992, 6559, 7659, 8576, 8692, 8859, 9592, 9726, 9842, 11209, 12759, 13742, 14776, 15676, 15826, 16109, 17726, 20959, 21009, 21526, 21859, 22009, 23809, 24009, 24159, 25159, 25359, 25792, 26742, 27326, 28842, 28942, 28992, 29076, 29209, 86362, 86642, 86810, 87109, 87259, 88026, 90176]}, "edge": {"target": [], "time": []}}}, "displayed_time": "96.19", "trialTime": 100272, "trial_type": "mouselab-mdp", "trial_index": 10, "time_elapsed": 1629889, "internal_node_id": "0.0-2.1-2.1-0.1"}}, {"uniqueid": "w42907931:a14666989", "current_trial": 11, "dateTime": 1691143961079, "trialdata": {"revealed_states": [], "clicked_states": ["13", "15", "16", "25", "27"], "num_clicks_accrued": [0, 0, 0, 0, 0, 0, 0, 0, 0, 0, 0, 0, 0], "stateRewards": ["", 10, 10, 10, 10, -10, -10, -10, -10, -10, 10, -10, 10, 10, -10, -10, 10, -10, -10, 10, 10, -10, -10, 10, 10, 10, 10, 10, 10, 10, -10, 10, 10, -10], "withholdReward": false, "trial_id": "practice_2", "block": "test", "trialIndex": 3, "score": 51, "costs": -2.5, "simulationMode": [null, null, null, null, null], "rewards": [10, 10, 10, 10, 10], "path": ["0", "0", "23", "24", "25", "26", "27"], "rt": [11150, 417, 228, 174, 227], "actions": ["left", "left", "left", "up", "up"], "actionTimes": [12050, 12970, 13714, 14394, 15130], "queries": {"click": {"state": {"target": ["13", "15", "16", "25", "27"], "time": [3068, 4656, 6182, 7446, 9303]}, "edge": {"target": [], "time": []}}, "mouseover": {"state": {"target": ["13", "14", "15", "16", "14", "19", "25", "26", "27", "31"], "time": [2635, 3468, 4252, 5435, 6502, 6568, 7235, 8318, 9002, 10152]}, "edge": {"target": [], "time": []}}, "mouseout": {"state": {"target": ["0", "13", "14", "15", "16", "15", "14", "19", "25", "26", "27", "27"], "time": [2268, 3285, 3918, 5318, 6418, 6485, 6552, 6602, 8185, 8885, 9335, 9568]}, "edge": {"target": [], "time": []}}}, "displayed_time": "15.62", "trialTime": 18570, "trial_type": "mouselab-mdp", "trial_index": 11, "time_elapsed": 1648560, "internal_node_id": "0.0-2.1-2.1-1.1"}}, {"uniqueid": "w42907931:a14666989", "current_trial": 12, "dateTime": 1691143968889, "trialdata": {"view_history": [{"page_index": 0, "viewing_time": 6392}, {"page_index": 1, "viewing_time": 1416}], "rt": 7809, "trial_id": "mouselab_instructions_2_misaligned", "trial_type": "instructions", "trial_index": 12, "time_elapsed": 1656371, "internal_node_id": "0.0-2.1-3.1"}}, {"uniqueid": "w42907931:a14666989", "current_trial": 13, "dateTime": 1691144071092, "trialdata": {"rt": 102201, "response": {"Q0": "The cost for clicking on nodes may vary between nodes.", "Q1": "The better I perform the higher my bonus will be.", "Q2": "No, the amount of cash at each node of the web may be different each time.", "Q3": "To get the highest total score.", "Q4": "Only before moving the spider.", "Q5": "3 seconds"}, "question_order": [0, 1, 2, 3, 4, 5], "correct": {"Q0": "The cost for clicking on nodes may vary between nodes.", "Q1": "The better I perform the higher my bonus will be.", "Q2": "No, the amount of cash at each node of the web may be different each time.", "Q3": "To get the highest total score.", "Q4": "Only before moving the spider.", "Q5": "3 seconds"}, "trial_id": "mouselab_quiz_misaligned", "trial_type": "survey-multi-choice", "trial_index": 13, "time_elapsed": 1758574, "internal_node_id": "0.0-2.1-4.1"}}, {"uniqueid": "w42907931:a14666989", "current_trial": 14, "dateTime": 1691144119375, "trialdata": {"rt": 48279, "stimulus": "\n<h1> Get ready to start the game! </h1>\n\nThank you for reading the instructions. Get ready start with the 40 rounds of this game.\n<br><br>\nIf you need to take a break, feel free to take one after the end of a round, before continuing to the next one.\n<br><br>\nRemember, the more money the spider gets, the bigger your bonus will be!\n<br><br>\n<div style='text-align: center;'>Press <code>space</code> to begin.</div>\n\n<br><br>\n(If, at any point, the <code>space</code> key does not take you to the next page, click once on the text and try again.)", "response": " ", "trial_id": "mdp_ready", "trial_type": "html-keyboard-response", "trial_index": 14, "time_elapsed": 1806857, "internal_node_id": "0.0-4.0-0.0"}}, {"uniqueid": "w42907931:a14666989", "current_trial": 15, "dateTime": 1691144141263, "trialdata": {"revealed_states": [], "clicked_states": ["14", "16"], "num_clicks_accrued": [0, 0, 0, 0, 0, 0, 0, 0, 0, 0, 0, 0, 0], "stateRewards": ["", -1, 4, -8, 12, 14, 69, -8, 5, -72, -14, 56, -1, -1, -1, 9, 67, 19, 11, -9, -88, -58, 3, 2, -4, -8, 4, 62, 77, -74, 5, -31, 65, 88], "withholdReward": false, "trial_id": "mdp_trial_1", "block": "test", "trialIndex": 4, "score": 69.9, "costs": -3.0999999999999996, "simulationMode": [null, null, null, null, null], "rewards": [-1, -1, -1, 9, 67], "path": ["0", "0", "12", "13", "14", "15", "16"], "rt": [8319, 433, 227, 190, 330], "actions": ["right", "right", "right", "up", "up"], "actionTimes": [13493, 14420, 15164, 15844, 16684], "queries": {"click": {"state": {"target": ["14", "16"], "time": [7160, 8396]}, "edge": {"target": [], "time": []}}, "mouseover": {"state": {"target": ["12", "13", "14", "15", "16", "18", "1", "2", "3", "7", "18"], "time": [5936, 6169, 6319, 7619, 7719, 9136, 11136, 11236, 11452, 12336, 12436]}, "edge": {"target": [], "time": []}}, "mouseout": {"state": {"target": ["0", "12", "13", "14", "15", "16", "18", "1", "2", "3", "7"], "time": [5836, 6086, 6219, 7486, 7686, 8869, 9469, 11169, 11302, 12302, 12386]}, "edge": {"target": [], "time": []}}}, "displayed_time": "19.18", "trialTime": 21788, "trial_type": "mouselab-mdp", "trial_index": 15, "time_elapsed": 1828744, "internal_node_id": "0.0-4.0-1.0-0.0"}}, {"uniqueid": "w42907931:a14666989", "current_trial": 16, "dateTime": 1691144169311, "trialdata": {"revealed_states": [], "clicked_states": [], "num_clicks_accrued": [0, 0, 0, 0, 0, 0, 0, 0, 0, 0, 0, 0, 0], "stateRewards": ["", -2, -1, -5, 10, -36, -70, 68, -9, 86, 71, -10, 2, -4, 7, -7, 66, 44, -66, -13, -69, 43, 15, -2, 2, 6, -13, 62, 57, 50, -10, -69, 42, -72], "withholdReward": false, "trial_id": "mdp_trial_2", "block": "test", "trialIndex": 5, "score": 55, "costs": 0, "simulationMode": [null, null, null, null, null], "rewards": [-2, 2, 6, -13, 62], "path": ["0", "0", "23", "24", "25", "26", "27"], "rt": [18282, 286, 375, 172, 178], "actions": ["left", "left", "left", "up", "up"], "actionTimes": [20649, 21424, 22296, 22975, 23648], "queries": {"click": {"state": {"target": [], "time": []}, "edge": {"target": [], "time": []}}, "mouseover": {"state": {"target": ["23", "25", "25", "31", "23", "23", "25", "24"], "time": [4686, 5386, 8017, 10253, 16288, 16922, 18586, 19002]}, "edge": {"target": [], "time": []}}, "mouseout": {"state": {"target": ["18", "12", "0", "23", "25", "25", "31", "23", "23", "25"], "time": [1735, 1835, 2119, 4786, 6319, 8186, 15669, 16419, 18103, 18952]}, "edge": {"target": [], "time": []}}}, "displayed_time": "24.14", "trialTime": 27936, "trial_type": "mouselab-mdp", "trial_index": 16, "time_elapsed": 1856792, "internal_node_id": "0.0-4.0-1.0-1.0"}}, {"uniqueid": "w42907931:a14666989", "current_trial": 17, "dateTime": 1691144189671, "trialdata": {"revealed_states": [], "clicked_states": [], "num_clicks_accrued": [0, 0, 0, 0, 0, 0, 0, 0, 0, 0, 0, 0, 0], "stateRewards": ["", 2, -1, 8, -2, -16, 69, -39, -7, -13, -27, -86, 2, -2, 2, 13, -34, -16, -20, -5, 19, 81, 32, -2, -1, 2, -14, 20, 80, 58, 4, 70, 12, 73], "withholdReward": false, "trial_id": "mdp_trial_3", "block": "test", "trialIndex": 6, "score": 16, "costs": 0, "simulationMode": [null, null, null, null, null], "rewards": [2, -2, 2, -5, 19], "path": ["0", "0", "12", "13", "14", "19", "20"], "rt": [2588, 44, 86, 206, 409], "actions": ["right", "right", "right", "down", "right"], "actionTimes": [6037, 6589, 7197, 7917, 8821], "queries": {"click": {"state": {"target": [], "time": []}, "edge": {"target": [], "time": []}}, "mouseover": {"state": {"target": ["23"], "time": [4327]}, "edge": {"target": [], "time": []}}, "mouseout": {"state": {"target": ["24", "23", "0", "23"], "time": [1210, 1243, 1593, 4447]}, "edge": {"target": [], "time": []}}}, "displayed_time": "17.45", "trialTime": 20237, "trial_type": "mouselab-mdp", "trial_index": 17, "time_elapsed": 1877153, "internal_node_id": "0.0-4.0-1.0-2.0"}}, {"uniqueid": "w42907931:a14666989", "current_trial": 18, "dateTime": 1691144212607, "trialdata": {"revealed_states": [], "clicked_states": [], "num_clicks_accrued": [0, 0, 0, 0, 0, 0, 0, 0, 0, 0, 0, 0, 0], "stateRewards": ["", -2, 2, -1, -6, 22, 6, 6, -5, 70, -42, 65, 1, 3, 5, -6, -67, -9, 3, 14, 7, -62, -13, -2, 4, 1, 16, 42, -21, -52, -8, 32, 53, 81], "withholdReward": false, "trial_id": "mdp_trial_4", "block": "test", "trialIndex": 7, "score": 30, "costs": 0, "simulationMode": [null, null, null, null, null], "rewards": [1, 3, 5, 14, 7], "path": ["0", "0", "12", "13", "14", "19", "20"], "rt": [2362, 502, 197, 97, 1097], "actions": ["right", "right", "right", "down", "right"], "actionTimes": [6647, 7647, 8359, 8943, 10559], "queries": {"click": {"state": {"target": [], "time": []}, "edge": {"target": [], "time": []}}, "mouseover": {"state": {"target": [], "time": []}, "edge": {"target": [], "time": []}}, "mouseout": {"state": {"target": [], "time": []}, "edge": {"target": [], "time": []}}}, "displayed_time": "18.29", "trialTime": 22807, "trial_type": "mouselab-mdp", "trial_index": 18, "time_elapsed": 1900089, "internal_node_id": "0.0-4.0-1.0-3.0"}}, {"uniqueid": "w42907931:a14666989", "current_trial": 19, "dateTime": 1691144233407, "trialdata": {"revealed_states": [], "clicked_states": ["25", "27"], "num_clicks_accrued": [0, 0, 0, 0, 0, 0, 0, 0, 0, 0, 0, 0, 0], "stateRewards": ["", -2, 1, -7, 9, 8, 25, 61, -7, -17, 69, -81, 1, 4, -4, -11, 16, 67, 44, 3, 6, -45, -54, -2, 3, 6, -11, -15, 32, -47, 3, -39, -6, -88], "withholdReward": false, "trial_id": "mdp_trial_5", "block": "test", "trialIndex": 8, "score": 2.9000000000000004, "costs": -3.0999999999999996, "simulationMode": [null, null, null, null, null], "rewards": [1, 4, -4, -11, 16], "path": ["0", "0", "12", "13", "14", "15", "16"], "rt": [7917, 469, 237, 128, 238], "actions": ["right", "right", "right", "up", "up"], "actionTimes": [10539, 11506, 12258, 12882, 13626], "queries": {"click": {"state": {"target": ["25", "27"], "time": [5306, 6277]}, "edge": {"target": [], "time": []}}, "mouseover": {"state": {"target": ["23", "25", "26", "27", "1"], "time": [4520, 5070, 5603, 5970, 6670]}, "edge": {"target": [], "time": []}}, "mouseout": {"state": {"target": ["0", "23", "25", "26", "27", "1"], "time": [2550, 4603, 5520, 5770, 6603, 6687]}, "edge": {"target": [], "time": []}}}, "displayed_time": "16.62", "trialTime": 20666, "trial_type": "mouselab-mdp", "trial_index": 19, "time_elapsed": 1920889, "internal_node_id": "0.0-4.0-1.0-4.0"}}, {"uniqueid": "w42907931:a14666989", "current_trial": 20, "dateTime": 1691144255046, "trialdata": {"revealed_states": [], "clicked_states": ["2", "5"], "num_clicks_accrued": [0, 0, 0, 0, 0, 0, 0, 0, 0, 0, 0, 0, 0], "stateRewards": ["", 1, 1, 1, 15, -76, 52, -32, 14, -57, 37, 49, 1, -4, -3, 6, 83, -76, 25, 9, 36, -1, -17, -1, 4, 4, -2, -22, -21, 58, -15, -57, 49, -24], "withholdReward": false, "trial_id": "mdp_trial_6", "block": "test", "trialIndex": 9, "score": -42.5, "costs": -2.5, "simulationMode": [null, null, null, null, null], "rewards": [1, 1, 1, 14, -57], "path": ["0", "0", "1", "2", "3", "8", "9"], "rt": [9979, 245, 255, 121, 192], "actions": ["up", "up", "up", "left", "up"], "actionTimes": [12522, 13265, 14009, 14641, 15345], "queries": {"click": {"state": {"target": ["2", "5"], "time": [5209, 7087]}, "edge": {"target": [], "time": []}}, "mouseover": {"state": {"target": ["2", "3", "4", "5", "5"], "time": [4519, 5769, 5935, 6236, 6552]}, "edge": {"target": [], "time": []}}, "mouseout": {"state": {"target": ["13", "12", "0", "0", "2", "3", "4", "5", "5"], "time": [1869, 1935, 2002, 2252, 5552, 5819, 6069, 6485, 7385]}, "edge": {"target": [], "time": []}}}, "displayed_time": "16.54", "trialTime": 21505, "trial_type": "mouselab-mdp", "trial_index": 20, "time_elapsed": 1942528, "internal_node_id": "0.0-4.0-1.0-5.0"}}, {"uniqueid": "w42907931:a14666989", "current_trial": 21, "dateTime": 1691144274855, "trialdata": {"revealed_states": [], "clicked_states": [], "num_clicks_accrued": [0, 0, 0, 0, 0, 0, 0, 0, 0, 0, 0, 0, 0], "stateRewards": ["", 2, 3, 3, 10, 19, -21, 6, 9, 54, 68, 16, 2, 2, -6, -8, 40, -2, -75, -2, -42, 55, 59, -1, 2, 4, -14, 11, -34, -30, -6, 61, -53, 13], "withholdReward": false, "trial_id": "mdp_trial_7", "block": "test", "trialIndex": 10, "score": 2, "costs": 0, "simulationMode": [null, null, null, null, null], "rewards": [-1, 2, 4, -14, 11], "path": ["0", "0", "23", "24", "25", "26", "27"], "rt": [2440, 428, 343, 141, 387], "actions": ["left", "left", "left", "up", "up"], "actionTimes": [4696, 5640, 6488, 7136, 8032], "queries": {"click": {"state": {"target": [], "time": []}, "edge": {"target": [], "time": []}}, "mouseover": {"state": {"target": [], "time": []}, "edge": {"target": [], "time": []}}, "mouseout": {"state": {"target": ["18", "13", "12", "0"], "time": [1427, 1660, 1744, 2160]}, "edge": {"target": [], "time": []}}}, "displayed_time": "16.26", "trialTime": 19688, "trial_type": "mouselab-mdp", "trial_index": 21, "time_elapsed": 1962337, "internal_node_id": "0.0-4.0-1.0-6.0"}}, {"uniqueid": "w42907931:a14666989", "current_trial": 22, "dateTime": 1691144296271, "trialdata": {"revealed_states": [], "clicked_states": ["25", "32", "21"], "num_clicks_accrued": [0, 0, 0, 0, 0, 0, 0, 0, 0, 0, 0, 0, 0], "stateRewards": ["", -2, -1, -1, 5, -54, -87, 35, 2, -8, 20, -22, 1, 3, 6, 13, -75, -32, -55, -3, 56, 62, -22, -1, -4, -1, -7, -51, 84, 70, 7, -15, 5, 55], "withholdReward": false, "trial_id": "mdp_trial_8", "block": "test", "trialIndex": 11, "score": 63.75, "costs": -5.25, "simulationMode": [null, null, null, null, null], "rewards": [1, 3, 6, -3, 62], "path": ["0", "0", "12", "13", "14", "19", "21"], "rt": [13117, 187, 199, 219, 263], "actions": ["right", "right", "right", "down", "down"], "actionTimes": [14106, 14810, 15522, 16242, 17002], "queries": {"click": {"state": {"target": ["25", "32", "21"], "time": [2608, 4551, 10120]}, "edge": {"target": [], "time": []}}, "mouseover": {"state": {"target": ["0", "23", "24", "25", "25", "30", "32", "22", "19", "19", "19", "14", "19", "21"], "time": [1422, 1505, 1788, 2039, 2276, 3222, 3572, 5073, 5505, 5839, 6105, 6439, 7822, 9688]}, "edge": {"target": [], "time": []}}, "mouseout": {"state": {"target": ["0", "0", "23", "24", "25", "25", "30", "32", "22", "19", "19", "19", "14", "19"], "time": [914, 1455, 1555, 1889, 2172, 3139, 3405, 4872, 5439, 5572, 5989, 6239, 7672, 9489]}, "edge": {"target": [], "time": []}}}, "displayed_time": "17.51", "trialTime": 21282, "trial_type": "mouselab-mdp", "trial_index": 22, "time_elapsed": 1983753, "internal_node_id": "0.0-4.0-1.0-7.0"}}, {"uniqueid": "w42907931:a14666989", "current_trial": 23, "dateTime": 1691144315943, "trialdata": {"revealed_states": [], "clicked_states": ["14", "16", "3", "5"], "num_clicks_accrued": [0, 0, 0, 0, 0, 0, 0, 0, 0, 0, 0, 0, 0], "stateRewards": ["", 1, 1, -7, -9, -44, 24, -83, -15, 44, -24, 72, -2, -3, 4, -5, 57, 55, 29, -11, 22, 12, -25, -1, 2, 7, 12, 33, -8, 47, -4, 8, 50, -4], "withholdReward": false, "trial_id": "mdp_trial_9", "block": "test", "trialIndex": 12, "score": 44.8, "costs": -6.199999999999999, "simulationMode": [null, null, null, null, null], "rewards": [-2, -3, 4, -5, 57], "path": ["0", "0", "12", "13", "14", "15", "16"], "rt": [10171, 311, 527, 237, 344], "actions": ["right", "right", "right", "up", "up"], "actionTimes": [12009, 12832, 13848, 14592, 15432], "queries": {"click": {"state": {"target": ["14", "16", "3", "5"], "time": [3264, 4379, 7157, 8175]}, "edge": {"target": [], "time": []}}, "mouseover": {"state": {"target": ["12", "13", "14", "15", "16", "15", "19", "13", "2", "3", "4", "5", "4", "12", "0", "31", "32", "30", "25"], "time": [2387, 2503, 2820, 3903, 4037, 4803, 5003, 6337, 6570, 6670, 7453, 7953, 8453, 8620, 8670, 8870, 9170, 9370, 9486]}, "edge": {"target": [], "time": []}}, "mouseout": {"state": {"target": ["21", "0", "12", "13", "14", "15", "16", "15", "14", "19", "13", "2", "3", "4", "5", "4", "12", "0", "31", "32", "30"], "time": [1036, 2353, 2453, 2637, 3820, 3953, 4770, 4870, 4970, 6137, 6403, 6603, 7420, 7503, 8420, 8470, 8637, 8687, 8936, 9287, 9437]}, "edge": {"target": [], "time": []}}}, "displayed_time": "15.92", "trialTime": 19552, "trial_type": "mouselab-mdp", "trial_index": 23, "time_elapsed": 2003425, "internal_node_id": "0.0-4.0-1.0-8.0"}}, {"uniqueid": "w42907931:a14666989", "current_trial": 24, "dateTime": 1691144333335, "trialdata": {"revealed_states": [], "clicked_states": ["25", "33", "27"], "num_clicks_accrued": [0, 0, 0, 0, 0, 0, 0, 0, 0, 0, 0, 0, 0], "stateRewards": ["", -1, -1, 4, -16, -75, 81, -51, -7, -84, 73, -30, -2, 1, -3, -16, -77, 33, 14, 1, 45, 87, -66, 2, 2, -5, -7, -19, -17, 79, -3, 8, 49, 47], "withholdReward": false, "trial_id": "mdp_trial_10", "block": "test", "trialIndex": 13, "score": 37.75, "costs": -5.25, "simulationMode": [null, null, null, null, null], "rewards": [2, 2, -5, -3, 47], "path": ["0", "0", "23", "24", "25", "30", "33"], "rt": [11051, 407, 195, 119, 190], "actions": ["left", "left", "left", "down", "left"], "actionTimes": [12516, 13427, 14131, 14755, 15443], "queries": {"click": {"state": {"target": ["25", "33", "27"], "time": [2647, 4001, 9263]}, "edge": {"target": [], "time": []}}, "mouseover": {"state": {"target": ["24", "25", "33", "33", "30", "31", "13", "14", "14", "13", "12", "28", "27", "28", "0"], "time": [1935, 2201, 3152, 3419, 4301, 4368, 4502, 4535, 4868, 6818, 6918, 7685, 8685, 9668, 9768]}, "edge": {"target": [], "time": []}}, "mouseout": {"state": {"target": ["25", "24", "0", "24", "25", "33", "33", "30", "31", "13", "14", "14", "13", "12", "28", "27", "28", "0"], "time": [801, 818, 1785, 1985, 3035, 3218, 4268, 4352, 4385, 4518, 4552, 6785, 6885, 6985, 8518, 9585, 9685, 9802]}, "edge": {"target": [], "time": []}}}, "displayed_time": "15.95", "trialTime": 17259, "trial_type": "mouselab-mdp", "trial_index": 24, "time_elapsed": 2020817, "internal_node_id": "0.0-4.0-1.0-9.0"}}, {"uniqueid": "w42907931:a14666989", "current_trial": 25, "dateTime": 1691144355447, "trialdata": {"revealed_states": [], "clicked_states": ["14", "16", "21"], "num_clicks_accrued": [0, 0, 0, 0, 0, 0, 0, 0, 0, 0, 0, 0, 0], "stateRewards": ["", -1, 3, -5, -2, -13, -9, -34, -7, -81, 32, 35, -2, -2, 1, -14, -32, 81, 7, 4, 82, 56, -8, -1, 3, -8, 6, -24, -24, -53, 2, 38, 61, 54], "withholdReward": false, "trial_id": "mdp_trial_11", "block": "test", "trialIndex": 14, "score": 51.75, "costs": -5.25, "simulationMode": [null, null, null, null, null], "rewards": [-2, -2, 1, 4, 56], "path": ["0", "0", "12", "13", "14", "19", "21"], "rt": [12334, 236, 70, 118, 438], "actions": ["right", "right", "right", "down", "down"], "actionTimes": [13644, 14380, 14964, 15596, 16532], "queries": {"click": {"state": {"target": ["14", "16", "21"], "time": [2750, 3675, 9382]}, "edge": {"target": [], "time": []}}, "mouseover": {"state": {"target": ["12", "13", "14", "15", "16", "15", "19", "21", "32", "30", "25", "31"], "time": [1777, 1926, 2277, 3060, 3277, 3960, 4077, 4910, 9843, 10610, 10960, 12860]}, "edge": {"target": [], "time": []}}, "mouseout": {"state": {"target": ["0", "12", "13", "14", "15", "16", "15", "19", "21", "32", "30", "25", "31"], "time": [1143, 1826, 2010, 2943, 3127, 3927, 3976, 4160, 9643, 10560, 10777, 12843, 12877]}, "edge": {"target": [], "time": []}}}, "displayed_time": "17.04", "trialTime": 21996, "trial_type": "mouselab-mdp", "trial_index": 25, "time_elapsed": 2042929, "internal_node_id": "0.0-4.0-1.0-10.0"}}, {"uniqueid": "w42907931:a14666989", "current_trial": 26, "dateTime": 1691144375167, "trialdata": {"revealed_states": [], "clicked_states": ["25", "27"], "num_clicks_accrued": [0, 0, 0, 0, 0, 0, 0, 0, 0, 0, 0, 0, 0], "stateRewards": ["", -1, -2, 8, -6, -79, -6, 87, 9, -5, -66, -38, 2, 2, 5, -6, -82, 74, 85, -8, 67, -30, -15, 1, -2, -2, -2, 87, 64, 49, 7, 2, -38, -9], "withholdReward": false, "trial_id": "mdp_trial_12", "block": "test", "trialIndex": 15, "score": 78.9, "costs": -3.0999999999999996, "simulationMode": [null, null, null, null, null], "rewards": [1, -2, -2, -2, 87], "path": ["0", "0", "23", "24", "25", "26", "27"], "rt": [7999, 360, 181, 66, 58], "actions": ["left", "left", "left", "up", "up"], "actionTimes": [9632, 10488, 11160, 11744, 12320], "queries": {"click": {"state": {"target": ["25", "27"], "time": [2618, 3746]}, "edge": {"target": [], "time": []}}, "mouseover": {"state": {"target": ["24", "25", "26", "27", "30", "32"], "time": [2044, 2377, 2961, 3327, 4177, 4527]}, "edge": {"target": [], "time": []}}, "mouseout": {"state": {"target": ["0", "24", "25", "26", "27", "27", "30"], "time": [1961, 2311, 2894, 3177, 3860, 4027, 4194]}, "edge": {"target": [], "time": []}}}, "displayed_time": "15.63", "trialTime": 19600, "trial_type": "mouselab-mdp", "trial_index": 26, "time_elapsed": 2062648, "internal_node_id": "0.0-4.0-1.0-11.0"}}, {"uniqueid": "w42907931:a14666989", "current_trial": 27, "dateTime": 1691144398463, "trialdata": {"revealed_states": [], "clicked_states": ["25", "27", "32", "14", "21"], "num_clicks_accrued": [0, 0, 0, 0, 0, 0, 0, 0, 0, 0, 0, 0, 0], "stateRewards": ["", 2, -4, 1, -12, -59, -53, -74, 16, -88, -66, 66, 1, -2, 8, -9, -14, 22, 25, -1, -39, 47, -14, -1, -1, -2, 1, -4, 52, -26, 15, -7, 46, 43], "withholdReward": false, "trial_id": "mdp_trial_13", "block": "test", "trialIndex": 16, "score": 44.65, "costs": -8.35, "simulationMode": [null, null, null, null, null], "rewards": [1, -2, 8, -1, 47], "path": ["0", "0", "12", "13", "14", "19", "21"], "rt": [14613, 309, 229, 168, 293], "actions": ["right", "right", "right", "down", "down"], "actionTimes": [17148, 17963, 18699, 19355, 20163], "queries": {"click": {"state": {"target": ["25", "27", "32", "14", "21"], "time": [3883, 4963, 8209, 11475, 13419]}, "edge": {"target": [], "time": []}}, "mouseover": {"state": {"target": ["23", "24", "25", "26", "27", "26", "32", "19", "20", "21", "19", "14", "21"], "time": [3086, 3369, 3469, 4202, 4436, 5319, 5619, 8702, 8736, 9052, 9186, 9319, 12052]}, "edge": {"target": [], "time": []}}, "mouseout": {"state": {"target": ["32", "0", "23", "24", "25", "26", "27", "26", "32", "19", "20", "21", "19", "14", "14", "21"], "time": [686, 3035, 3219, 3436, 4022, 4336, 5269, 5352, 8519, 8719, 8903, 9152, 9269, 11589, 11836, 14286]}, "edge": {"target": [], "time": []}}}, "displayed_time": "20.65", "trialTime": 23171, "trial_type": "mouselab-mdp", "trial_index": 27, "time_elapsed": 2085945, "internal_node_id": "0.0-4.0-1.0-12.0"}}, {"uniqueid": "w42907931:a14666989", "current_trial": 28, "dateTime": 1691144435926, "trialdata": {"revealed_states": [], "clicked_states": ["25", "27", "32", "14", "21", "16", "3", "5", "9"], "num_clicks_accrued": [0, 0, 0, 0, 0, 0, 0, 0, 0, 0, 0, 0, 0], "stateRewards": ["", 1, -2, -8, -13, 4, 34, -84, -4, -49, 88, -70, -1, 3, -4, 10, -77, 13, -34, 15, -21, -16, 27, 1, -2, 8, -8, -6, 38, -26, 6, -15, 66, -3], "withholdReward": false, "trial_id": "mdp_trial_14", "block": "test", "trialIndex": 17, "score": 63.25, "costs": -15.75, "simulationMode": [null, null, null, null, null], "rewards": [1, -2, 8, 6, 66], "path": ["0", "0", "23", "24", "25", "30", "32"], "rt": [26726, 389, 193, 54, 62], "actions": ["left", "left", "left", "down", "down"], "actionTimes": [29862, 30757, 31445, 32005, 32597], "queries": {"click": {"state": {"target": ["25", "27", "32", "14", "21", "16", "3", "5", "9"], "time": [4651, 5942, 9618, 12756, 15754, 18821, 21939, 23695, 26525]}, "edge": {"target": [], "time": []}}, "mouseover": {"state": {"target": ["0", "25", "26", "27", "31", "32", "21", "19", "14", "19", "21", "21", "19", "14", "15", "16", "18", "2", "2", "3", "3", "4", "6", "5", "4", "9"], "time": [3552, 3735, 4935, 5051, 6385, 6618, 10268, 10485, 10601, 13064, 13201, 13418, 16218, 16335, 16470, 16984, 19184, 19317, 19434, 19634, 20934, 22301, 22850, 23467, 24017, 24517]}, "edge": {"target": [], "time": []}}, "mouseout": {"state": {"target": ["21", "0", "0", "25", "26", "27", "31", "32", "21", "19", "14", "19", "21", "21", "19", "14", "15", "16", "18", "2", "2", "3", "3", "4", "6", "5", "4"], "time": [2301, 2884, 3602, 4789, 5001, 6201, 6468, 9835, 10435, 10551, 13018, 13118, 13251, 16151, 16301, 16385, 16567, 19150, 19200, 19350, 19451, 19834, 22234, 22367, 23267, 23901, 24150]}, "edge": {"target": [], "time": []}}}, "displayed_time": "33.09", "trialTime": 37333, "trial_type": "mouselab-mdp", "trial_index": 28, "time_elapsed": 2123408, "internal_node_id": "0.0-4.0-1.0-13.0"}}, {"uniqueid": "w42907931:a14666989", "current_trial": 29, "dateTime": 1691144463670, "trialdata": {"revealed_states": [], "clicked_states": ["25", "27", "14", "21", "16", "17"], "num_clicks_accrued": [0, 0, 0, 0, 0, 0, 0, 0, 0, 0, 0, 0, 0], "stateRewards": ["", 2, 4, 4, -8, -36, -33, 38, 16, -51, 57, 57, 1, 3, 4, -6, 45, 68, 87, 1, 63, 24, -55, -2, 2, -6, -13, -63, -50, 8, 2, 80, 6, 60], "withholdReward": false, "trial_id": "mdp_trial_15", "block": "test", "trialIndex": 18, "score": 59.5, "costs": -10.5, "simulationMode": [null, null, null, null, null], "rewards": [1, 3, 4, -6, 68], "path": ["0", "0", "12", "13", "14", "15", "17"], "rt": [19134, 271, 2, 122, 98], "actions": ["right", "right", "right", "up", "right"], "actionTimes": [21347, 22130, 22644, 23282, 23890], "queries": {"click": {"state": {"target": ["25", "27", "14", "21", "16", "17"], "time": [3400, 4247, 9978, 11144, 14790, 18110]}, "edge": {"target": [], "time": []}}, "mouseover": {"state": {"target": ["0", "23", "24", "25", "26", "27", "12", "32", "22", "19", "21", "19", "19", "14", "19", "21", "15", "16", "15", "17"], "time": [2708, 2791, 2841, 3108, 3675, 3841, 4641, 5725, 7492, 7541, 7941, 8575, 8725, 9025, 10441, 10558, 13091, 13275, 16325, 16508]}, "edge": {"target": [], "time": []}}, "mouseout": {"state": {"target": ["9", "8", "1", "0", "23", "24", "25", "26", "27", "12", "32", "22", "19", "21", "19", "19", "14", "19", "21", "15", "16", "15", "17"], "time": [1258, 1358, 1524, 2775, 2825, 2891, 3608, 3758, 4508, 4658, 7208, 7525, 7625, 8491, 8641, 8858, 10408, 10508, 12808, 13141, 15375, 16458, 25741]}, "edge": {"target": [], "time": []}}}, "displayed_time": "24.43", "trialTime": 27618, "trial_type": "mouselab-mdp", "trial_index": 29, "time_elapsed": 2151152, "internal_node_id": "0.0-4.0-1.0-14.0"}}, {"uniqueid": "w42907931:a14666989", "current_trial": 30, "dateTime": 1691144483423, "trialdata": {"revealed_states": [], "clicked_states": ["14", "16"], "num_clicks_accrued": [0, 0, 0, 0, 0, 0, 0, 0, 0, 0, 0, 0, 0], "stateRewards": ["", 2, 2, 3, -15, 23, -14, 73, -7, -32, -20, -6, 1, 1, -5, -12, 73, 6, -84, 11, -81, -57, 13, -2, -1, -4, -8, -52, -58, 49, 13, 5, -41, -41], "withholdReward": false, "trial_id": "mdp_trial_16", "block": "test", "trialIndex": 19, "score": 54.9, "costs": -3.0999999999999996, "simulationMode": [null, null, null, null, null], "rewards": [1, 1, -5, -12, 73], "path": ["0", "0", "12", "13", "14", "15", "16"], "rt": [6690, 111, 351, 500, 148], "actions": ["right", "right", "right", "up", "up"], "actionTimes": [9024, 9623, 10463, 11480, 12128], "queries": {"click": {"state": {"target": ["14", "16"], "time": [3593, 4317]}, "edge": {"target": [], "time": []}}, "mouseover": {"state": {"target": ["12", "13", "14", "15", "16", "15", "19", "21"], "time": [2994, 3061, 3278, 3845, 4011, 4594, 4761, 4811]}, "edge": {"target": [], "time": []}}, "mouseout": {"state": {"target": ["14", "13", "12", "0", "12", "13", "14", "15", "16", "15", "19", "21"], "time": [961, 994, 1044, 2978, 3028, 3144, 3761, 3911, 4546, 4611, 4778, 18329]}, "edge": {"target": [], "time": []}}}, "displayed_time": "16.34", "trialTime": 19624, "trial_type": "mouselab-mdp", "trial_index": 30, "time_elapsed": 2170905, "internal_node_id": "0.0-4.0-1.0-15.0"}}, {"uniqueid": "w42907931:a14666989", "current_trial": 31, "dateTime": 1691144509527, "trialdata": {"revealed_states": [], "clicked_states": ["25", "27", "32", "14", "16", "21"], "num_clicks_accrued": [0, 0, 0, 0, 0, 0, 0, 0, 0, 0, 0, 0, 0], "stateRewards": ["", -2, 2, 8, -6, -25, 3, 87, 2, -62, -2, 74, -2, -1, 2, -1, 79, 49, -37, -14, 5, 67, -9, -1, 2, -2, 5, 15, 38, 32, -14, -38, -38, 30], "withholdReward": false, "trial_id": "mdp_trial_17", "block": "test", "trialIndex": 20, "score": 66.5, "costs": -10.5, "simulationMode": [null, null, null, null, null], "rewards": [-2, -1, 2, -1, 79], "path": ["0", "0", "12", "13", "14", "15", "16"], "rt": [18521, 304, 96, 136, 342], "actions": ["right", "right", "right", "up", "up"], "actionTimes": [20623, 21438, 22046, 22670, 23526], "queries": {"click": {"state": {"target": ["25", "27", "32", "14", "16", "21"], "time": [3820, 4998, 8385, 12312, 13622, 16968]}, "edge": {"target": [], "time": []}}, "mouseover": {"state": {"target": ["23", "24", "25", "26", "27", "28", "23", "12", "13", "17", "15", "16", "18", "0", "32", "32", "14", "17", "15", "16", "15", "14", "15", "16", "15", "19", "21"], "time": [2899, 2966, 3266, 4316, 4666, 5416, 5499, 5549, 5585, 5683, 6033, 6099, 6416, 6466, 6583, 6933, 8766, 9249, 9333, 9616, 11466, 11866, 12633, 12966, 14133, 14299, 14416]}, "edge": {"target": [], "time": []}}, "mouseout": {"state": {"target": ["23", "0", "23", "24", "25", "26", "27", "28", "23", "12", "13", "17", "15", "16", "18", "0", "32", "32", "14", "17", "15", "16", "15", "14", "15", "16", "15", "14", "19", "21"], "time": [1749, 2883, 2933, 2999, 4199, 4499, 5349, 5466, 5516, 5566, 5599, 5999, 6052, 6400, 6433, 6501, 6616, 8616, 8783, 9299, 9416, 11449, 11499, 12549, 12783, 14099, 14183, 14266, 14349, 17070]}, "edge": {"target": [], "time": []}}}, "displayed_time": "24.03", "trialTime": 25982, "trial_type": "mouselab-mdp", "trial_index": 31, "time_elapsed": 2197009, "internal_node_id": "0.0-4.0-1.0-16.0"}}, {"uniqueid": "w42907931:a14666989", "current_trial": 32, "dateTime": 1691144551039, "trialdata": {"revealed_states": [], "clicked_states": ["14", "3", "5", "9", "11", "10", "6", "25"], "num_clicks_accrued": [0, 0, 0, 0, 0, 0, 0, 0, 0, 0, 0, 0, 0], "stateRewards": ["", -1, 3, 8, 9, -53, 20, -84, 2, -28, -62, -31, -1, -2, -7, 2, 51, 58, 45, -4, -17, -41, 36, 2, -2, -7, -15, 29, -54, -37, -16, -43, 65, -17], "withholdReward": false, "trial_id": "mdp_trial_18", "block": "test", "trialIndex": 21, "score": 25.4, "costs": -13.6, "simulationMode": [null, null, null, null, null], "rewards": [-1, 3, 8, 9, 20], "path": ["0", "0", "1", "2", "3", "4", "6"], "rt": [31694, 130, 81, 49, 171], "actions": ["up", "up", "up", "right", "right"], "actionTimes": [36466, 37106, 37690, 38258, 38930], "queries": {"click": {"state": {"target": ["14", "3", "5", "9", "11", "10", "6", "25"], "time": [7552, 9915, 11970, 15448, 18780, 21914, 25070, 27856]}, "edge": {"target": [], "time": []}}, "mouseover": {"state": {"target": ["12", "13", "14", "15", "15", "16", "4", "3", "2", "24", "25", "24", "1", "7", "6", "5", "4", "9", "8", "10", "10", "11", "10", "7", "2", "10", "2", "7", "6", "0", "31", "30", "25", "30", "31", "31", "32", "32"], "time": [5675, 5741, 5958, 7858, 8041, 8275, 9175, 9425, 10241, 10441, 10775, 11125, 11192, 11209, 11325, 11641, 12325, 12925, 15758, 15908, 16658, 18300, 19058, 19241, 19458, 19675, 22191, 22245, 22475, 25575, 25758, 26308, 26941, 28791, 29725, 30141, 30375, 30608]}, "edge": {"target": [], "time": []}}, "mouseout": {"state": {"target": ["21", "22", "0", "0", "12", "13", "14", "15", "15", "16", "4", "3", "2", "24", "25", "24", "1", "7", "6", "5", "4", "3", "9", "8", "10", "10", "11", "10", "7", "2", "10", "2", "7", "6", "0", "31", "30", "25", "30", "31", "31", "32", "32"], "time": [1775, 1974, 2141, 5113, 5708, 5908, 7795, 7875, 8091, 8941, 9225, 10175, 10291, 10458, 11109, 11141, 11208, 11225, 11441, 12258, 12458, 12608, 15708, 15808, 16141, 16844, 19008, 19091, 19425, 19475, 22158, 22208, 22258, 25358, 25608, 25941, 26875, 28675, 29658, 29925, 30208, 30458, 31241]}, "edge": {"target": [], "time": []}}}, "displayed_time": "39.43", "trialTime": 41386, "trial_type": "mouselab-mdp", "trial_index": 32, "time_elapsed": 2238521, "internal_node_id": "0.0-4.0-1.0-17.0"}}, {"uniqueid": "w42907931:a14666989", "current_trial": 33, "dateTime": 1691144576479, "trialdata": {"revealed_states": [], "clicked_states": ["14", "16", "21", "17", "18"], "num_clicks_accrued": [0, 0, 0, 0, 0, 0, 0, 0, 0, 0, 0, 0, 0], "stateRewards": ["", 1, 2, -3, -5, 66, -50, -47, -5, 1, 28, -27, 1, 1, -1, -6, 37, -25, 56, 1, -82, -66, -40, -1, -4, -7, 15, -61, -23, 26, 10, 14, -56, 29], "withholdReward": false, "trial_id": "mdp_trial_19", "block": "test", "trialIndex": 22, "score": 41.45, "costs": -9.55, "simulationMode": [null, null, null, null, null], "rewards": [1, 1, -1, -6, 56], "path": ["0", "0", "12", "13", "14", "15", "18"], "rt": [17081, 191, 227, 574, 274], "actions": ["right", "right", "right", "up", "left"], "actionTimes": [19016, 19711, 20447, 21527, 22311], "queries": {"click": {"state": {"target": ["14", "16", "21", "17", "18"], "time": [3091, 5067, 8309, 11537, 14639]}, "edge": {"target": [], "time": []}}, "mouseover": {"state": {"target": ["0", "22", "14", "17", "16", "19", "21", "17", "15", "18", "20"], "time": [2104, 2419, 2836, 3486, 3786, 5437, 5536, 8636, 12052, 12536, 15369]}, "edge": {"target": [], "time": []}}, "mouseout": {"state": {"target": ["0", "0", "22", "14", "17", "16", "14", "19", "21", "17", "15", "18", "20", "21"], "time": [1785, 2252, 2636, 3436, 3536, 5286, 5419, 5469, 8486, 11886, 12186, 14886, 24202, 24352]}, "edge": {"target": [], "time": []}}}, "displayed_time": "22.82", "trialTime": 25287, "trial_type": "mouselab-mdp", "trial_index": 33, "time_elapsed": 2263961, "internal_node_id": "0.0-4.0-1.0-18.0"}}, {"uniqueid": "w42907931:a14666989", "current_trial": 34, "dateTime": 1691144606495, "trialdata": {"revealed_states": [], "clicked_states": ["14", "16", "17", "18", "20", "21", "22"], "num_clicks_accrued": [0, 0, 0, 0, 0, 0, 0, 0, 0, 0, 0, 0, 0], "stateRewards": ["", 1, 1, -5, 8, -6, 45, 16, -6, -7, -22, -38, -1, -4, 8, -11, -16, 21, -45, -15, -59, -32, 42, -1, 3, 6, 11, -7, 34, -27, -8, 85, 43, -9], "withholdReward": false, "trial_id": "mdp_trial_20", "block": "test", "trialIndex": 23, "score": 16.15, "costs": -13.850000000000001, "simulationMode": [null, null, null, null, null], "rewards": [-1, -4, 8, -15, 42], "path": ["0", "0", "12", "13", "14", "19", "22"], "rt": [22140, 148, 497, 561, 260], "actions": ["right", "right", "right", "down", "left"], "actionTimes": [23880, 24527, 25543, 26591, 27359], "queries": {"click": {"state": {"target": ["14", "16", "17", "18", "20", "21", "22"], "time": [3013, 4335, 7549, 11121, 14305, 17497, 20590]}, "edge": {"target": [], "time": []}}, "mouseover": {"state": {"target": ["12", "13", "14", "13", "15", "16", "15", "17", "15", "18", "14", "21", "20", "21", "22"], "time": [2162, 2212, 2762, 3462, 3745, 3945, 4678, 4945, 7928, 8162, 11412, 11728, 12295, 15029, 18078]}, "edge": {"target": [], "time": []}}, "mouseout": {"state": {"target": ["0", "12", "13", "14", "13", "15", "16", "15", "17", "15", "18", "14", "21", "20", "21", "22"], "time": [2145, 2195, 2512, 3429, 3662, 3812, 4578, 4845, 7862, 7945, 11362, 11445, 12128, 14579, 17795, 28995]}, "edge": {"target": [], "time": []}}}, "displayed_time": "27.85", "trialTime": 29879, "trial_type": "mouselab-mdp", "trial_index": 34, "time_elapsed": 2293976, "internal_node_id": "0.0-4.0-1.0-19.0"}}, {"uniqueid": "w42907931:a14666989", "current_trial": 35, "dateTime": 1691144624623, "trialdata": {"revealed_states": [], "clicked_states": ["25", "27", "29"], "num_clicks_accrued": [0, 0, 0, 0, 0, 0, 0, 0, 0, 0, 0, 0, 0], "stateRewards": ["", -1, 1, 8, -8, -49, 62, -78, 16, 28, -81, 78, -2, -3, -1, -4, 67, 49, -2, -13, -16, -39, 83, 1, -4, 4, -5, -20, 7, 84, 7, -32, -59, 19], "withholdReward": false, "trial_id": "mdp_trial_21", "block": "test", "trialIndex": 24, "score": 74.75, "costs": -5.25, "simulationMode": [null, null, null, null, null], "rewards": [1, -4, 4, -5, 84], "path": ["0", "0", "23", "24", "25", "26", "29"], "rt": [10949, 258, 195, 111, 422], "actions": ["left", "left", "left", "up", "left"], "actionTimes": [12331, 13082, 13786, 14402, 15330], "queries": {"click": {"state": {"target": ["25", "27", "29"], "time": [2652, 3653, 7940]}, "edge": {"target": [], "time": []}}, "mouseover": {"state": {"target": ["0", "23", "24", "25", "26", "27", "26", "25", "30", "29", "33", "32"], "time": [1791, 1957, 2057, 2423, 2924, 3007, 3958, 6940, 7040, 7623, 8273, 8540]}, "edge": {"target": [], "time": []}}, "mouseout": {"state": {"target": ["0", "0", "23", "24", "25", "26", "27", "27", "26", "25", "30", "29", "33"], "time": [1190, 1890, 2023, 2240, 2824, 2957, 3758, 3907, 4057, 7007, 7390, 8157, 8290]}, "edge": {"target": [], "time": []}}}, "displayed_time": "15.84", "trialTime": 18002, "trial_type": "mouselab-mdp", "trial_index": 35, "time_elapsed": 2312104, "internal_node_id": "0.0-4.0-1.0-20.0"}}, {"uniqueid": "w42907931:a14666989", "current_trial": 36, "dateTime": 1691144643583, "trialdata": {"revealed_states": [], "clicked_states": ["25", "29", "27"], "num_clicks_accrued": [0, 0, 0, 0, 0, 0, 0, 0, 0, 0, 0, 0, 0], "stateRewards": ["", -1, -3, -6, -2, -7, 80, -45, -3, -38, -72, 76, 2, 1, 7, 4, -62, 14, -74, 14, -87, -21, -88, -2, 1, -7, -10, 66, 56, -76, 10, -29, -72, -70], "withholdReward": false, "trial_id": "mdp_trial_22", "block": "test", "trialIndex": 25, "score": 42.75, "costs": -5.25, "simulationMode": [null, null, null, null, null], "rewards": [-2, 1, -7, -10, 66], "path": ["0", "0", "23", "24", "25", "26", "27"], "rt": [11309, 395, 159, 164, 410], "actions": ["left", "left", "left", "up", "up"], "actionTimes": [12948, 13859, 14523, 15195, 16107], "queries": {"click": {"state": {"target": ["25", "29", "27"], "time": [3313, 4252, 7841]}, "edge": {"target": [], "time": []}}, "mouseover": {"state": {"target": ["24", "24", "23", "0", "12", "24", "25", "26", "29", "26", "27", "26", "25", "30", "32", "32"], "time": [2163, 2316, 2413, 2496, 2580, 2746, 3063, 3797, 3913, 4530, 6380, 8113, 8180, 8213, 8296, 8964]}, "edge": {"target": [], "time": []}}, "mouseout": {"state": {"target": ["32", "0", "24", "24", "23", "0", "12", "24", "25", "26", "29", "26", "27", "26", "25", "30", "32"], "time": [796, 1946, 2246, 2396, 2446, 2513, 2663, 2865, 3530, 3863, 4497, 6213, 8080, 8147, 8198, 8263, 8346]}, "edge": {"target": [], "time": []}}}, "displayed_time": "16.60", "trialTime": 18835, "trial_type": "mouselab-mdp", "trial_index": 36, "time_elapsed": 2331065, "internal_node_id": "0.0-4.0-1.0-21.0"}}, {"uniqueid": "w42907931:a14666989", "current_trial": 37, "dateTime": 1691144678486, "trialdata": {"revealed_states": [], "clicked_states": ["14", "16", "18", "17", "21", "20", "22"], "num_clicks_accrued": [0, 0, 0, 0, 0, 0, 0, 0, 0, 0, 0, 0, 0], "stateRewards": ["", -2, -3, 1, -7, 39, -67, 16, 5, -20, 73, 66, -1, 4, 5, -3, 23, -68, -87, -8, 3, -3, 17, 1, -4, -2, -13, -32, 34, 61, -5, -11, -18, 12], "withholdReward": false, "trial_id": "mdp_trial_23", "block": "test", "trialIndex": 26, "score": 14.149999999999999, "costs": -13.850000000000001, "simulationMode": [null, null, null, null, null], "rewards": [-1, 4, 5, -3, 23], "path": ["0", "0", "12", "13", "14", "15", "16"], "rt": [25257, 299, 322, 242, 36], "actions": ["right", "right", "right", "up", "up"], "actionTimes": [29001, 29792, 30632, 31368, 31896], "queries": {"click": {"state": {"target": ["14", "16", "18", "17", "21", "20", "22"], "time": [5463, 6409, 11019, 14410, 18910, 22538, 25764]}, "edge": {"target": [], "time": []}}, "mouseover": {"state": {"target": ["12", "13", "14", "14", "15", "16", "15", "18", "15", "17", "17", "20", "21", "20", "19", "22"], "time": [4676, 4760, 4993, 5210, 5843, 6093, 6860, 7193, 11310, 11359, 11676, 18042, 18359, 19709, 22992, 23142]}, "edge": {"target": [], "time": []}}, "mouseout": {"state": {"target": ["32", "0", "0", "12", "13", "14", "14", "15", "16", "15", "18", "15", "17", "17", "20", "21", "20", "19"], "time": [1226, 1676, 4660, 4710, 4943, 5043, 5704, 5943, 6693, 7045, 11276, 11342, 11376, 17959, 18092, 19509, 22959, 23059]}, "edge": {"target": [], "time": []}}}, "displayed_time": "32.43", "trialTime": 34769, "trial_type": "mouselab-mdp", "trial_index": 37, "time_elapsed": 2365968, "internal_node_id": "0.0-4.0-1.0-22.0"}}, {"uniqueid": "w42907931:a14666989", "current_trial": 38, "dateTime": 1691144703142, "trialdata": {"revealed_states": [], "clicked_states": ["25", "14", "21", "20", "22"], "num_clicks_accrued": [0, 0, 0, 0, 0, 0, 0, 0, 0, 0, 0, 0, 0], "stateRewards": ["", -1, -1, 7, -15, -43, -21, -84, -9, -45, -66, 2, 1, -2, 2, 8, -27, 44, -52, -5, -84, 11, 53, 1, 4, -4, 16, 83, -82, -15, -16, 68, -43, 81], "withholdReward": false, "trial_id": "mdp_trial_24", "block": "test", "trialIndex": 27, "score": 40.65, "costs": -8.35, "simulationMode": [null, null, null, null, null], "rewards": [1, -2, 2, -5, 53], "path": ["0", "0", "12", "13", "14", "19", "22"], "rt": [17140, 205, 161, 2, 162], "actions": ["right", "right", "right", "down", "left"], "actionTimes": [19606, 20317, 20973, 21497, 22189], "queries": {"click": {"state": {"target": ["25", "14", "21", "20", "22"], "time": [3596, 5803, 8425, 11873, 15189]}, "edge": {"target": [], "time": []}}, "mouseover": {"state": {"target": ["23", "24", "25", "26", "27", "1", "14", "15", "15", "17", "20", "21", "21", "20", "19", "22", "14", "17", "16"], "time": [3077, 3095, 3144, 3877, 4177, 4877, 5310, 6462, 7177, 7627, 7760, 7944, 8211, 8977, 12244, 12327, 15627, 15744, 16311]}, "edge": {"target": [], "time": []}}, "mouseout": {"state": {"target": ["22", "0", "23", "0", "23", "24", "25", "26", "27", "1", "14", "15", "15", "17", "20", "21", "21", "20", "19", "22", "14", "17"], "time": [1694, 1860, 2043, 3061, 3094, 3111, 3811, 3994, 4811, 4894, 6244, 6711, 7211, 7677, 7777, 8027, 8744, 12178, 12261, 15544, 15661, 15894]}, "edge": {"target": [], "time": []}}}, "displayed_time": "22.70", "trialTime": 24509, "trial_type": "mouselab-mdp", "trial_index": 38, "time_elapsed": 2390624, "internal_node_id": "0.0-4.0-1.0-23.0"}}, {"uniqueid": "w42907931:a14666989", "current_trial": 39, "dateTime": 1691144723320, "trialdata": {"revealed_states": [], "clicked_states": ["25"], "num_clicks_accrued": [0, 0, 0, 0, 0, 0, 0, 0, 0, 0, 0, 0, 0], "stateRewards": ["", 1, -3, -6, -5, 47, 80, -29, 11, -71, 10, -29, -2, 3, -6, 12, 2, -78, -6, 8, 34, -16, -5, -1, 3, 3, -13, 84, -36, -62, -3, -27, 66, 15], "withholdReward": false, "trial_id": "mdp_trial_25", "block": "test", "trialIndex": 28, "score": 16.05, "costs": -0.95, "simulationMode": [null, null, null, null, null], "rewards": [-1, 3, 3, -3, 15], "path": ["0", "0", "23", "24", "25", "30", "33"], "rt": [6815, 289, 121, 602, 166], "actions": ["left", "left", "left", "down", "left"], "actionTimes": [9663, 10447, 11063, 12160, 12824], "queries": {"click": {"state": {"target": ["25"], "time": [4937]}, "edge": {"target": [], "time": []}}, "mouseover": {"state": {"target": ["24", "25", "23", "28", "27", "26", "30", "33", "33", "30"], "time": [4007, 4273, 5373, 5623, 5857, 6740, 6923, 7173, 7474, 8673]}, "edge": {"target": [], "time": []}}, "mouseout": {"state": {"target": ["16", "18", "0", "24", "25", "23", "28", "27", "26", "25", "30", "33", "33", "30"], "time": [1756, 1840, 3840, 4107, 5029, 5573, 5657, 6690, 6773, 6857, 7123, 7240, 8640, 8707]}, "edge": {"target": [], "time": []}}}, "displayed_time": "16.85", "trialTime": 20033, "trial_type": "mouselab-mdp", "trial_index": 39, "time_elapsed": 2410801, "internal_node_id": "0.0-4.0-1.0-24.0"}}, {"uniqueid": "w42907931:a14666989", "current_trial": 40, "dateTime": 1691144746703, "trialdata": {"revealed_states": [], "clicked_states": ["25", "29", "27", "28", "32"], "num_clicks_accrued": [0, 0, 0, 0, 0, 0, 0, 0, 0, 0, 0, 0, 0], "stateRewards": ["", -1, 1, -6, -1, 80, 23, 2, -11, 73, -81, 59, 1, 3, 5, -1, -26, 28, -3, 16, -59, -13, -50, -2, -2, 2, 15, -50, 86, 17, -4, 37, 35, 44], "withholdReward": false, "trial_id": "mdp_trial_26", "block": "test", "trialIndex": 29, "score": 89.45, "costs": -9.55, "simulationMode": [null, null, null, null, null], "rewards": [-2, -2, 2, 15, 86], "path": ["0", "0", "23", "24", "25", "26", "28"], "rt": [16306, 146, 176, 30, 7], "actions": ["left", "left", "left", "up", "right"], "actionTimes": [18438, 19101, 19765, 20285, 20813], "queries": {"click": {"state": {"target": ["25", "29", "27", "28", "32"], "time": [3509, 5693, 8845, 12093, 15121]}, "edge": {"target": [], "time": []}}, "mouseover": {"state": {"target": ["23", "24", "25", "26", "29", "26", "27", "26", "25", "25", "28", "24", "32"], "time": [2971, 3038, 3188, 4321, 4721, 6204, 6704, 9238, 9338, 9788, 10454, 12338, 12521]}, "edge": {"target": [], "time": []}}, "mouseout": {"state": {"target": ["31", "0", "23", "24", "25", "26", "29", "26", "27", "26", "25", "25", "28", "24"], "time": [904, 2921, 3004, 3104, 3625, 4688, 6055, 6488, 9221, 9288, 9371, 9804, 12305, 12388]}, "edge": {"target": [], "time": []}}}, "displayed_time": "21.34", "trialTime": 23213, "trial_type": "mouselab-mdp", "trial_index": 40, "time_elapsed": 2434185, "internal_node_id": "0.0-4.0-1.0-25.0"}}, {"uniqueid": "w42907931:a14666989", "current_trial": 41, "dateTime": 1691144767975, "trialdata": {"revealed_states": [], "clicked_states": ["25", "27", "28", "29"], "num_clicks_accrued": [0, 0, 0, 0, 0, 0, 0, 0, 0, 0, 0, 0, 0], "stateRewards": ["", -2, -3, 8, 14, -73, 73, 84, -12, -2, -50, -17, 2, 1, -2, -9, -44, -27, -33, 16, -63, -47, -66, -2, 1, 4, -5, -33, -11, 50, 9, 38, -79, 31], "withholdReward": false, "trial_id": "mdp_trial_27", "block": "test", "trialIndex": 30, "score": 40.6, "costs": -7.4, "simulationMode": [null, null, null, null, null], "rewards": [-2, 1, 4, -5, 50], "path": ["0", "0", "23", "24", "25", "26", "29"], "rt": [13523, 8, 19, 28, 455], "actions": ["left", "left", "left", "up", "left"], "actionTimes": [15723, 16234, 16778, 17338, 18298], "queries": {"click": {"state": {"target": ["25", "27", "28", "29"], "time": [3678, 4670, 7946, 11128]}, "edge": {"target": [], "time": []}}, "mouseover": {"state": {"target": ["23", "24", "25", "26", "27", "28", "26", "29", "30", "32"], "time": [2758, 3008, 3241, 4025, 4275, 5458, 8377, 8625, 11508, 11608]}, "edge": {"target": [], "time": []}}, "mouseout": {"state": {"target": ["32", "0", "23", "24", "25", "26", "27", "28", "26", "29", "30", "32"], "time": [1041, 2709, 2975, 3125, 3875, 4142, 4908, 8308, 8475, 11358, 11558, 20192]}, "edge": {"target": [], "time": []}}}, "displayed_time": "18.81", "trialTime": 21122, "trial_type": "mouselab-mdp", "trial_index": 41, "time_elapsed": 2455457, "internal_node_id": "0.0-4.0-1.0-26.0"}}, {"uniqueid": "w42907931:a14666989", "current_trial": 42, "dateTime": 1691144788119, "trialdata": {"revealed_states": [], "clicked_states": ["25", "29", "27", "32"], "num_clicks_accrued": [0, 0, 0, 0, 0, 0, 0, 0, 0, 0, 0, 0, 0], "stateRewards": ["", -2, 2, -5, 1, 42, -63, -58, -6, 2, 16, 81, -2, 4, 7, -10, 33, 3, -33, -2, -52, -84, -27, 2, -3, -3, 15, -74, -14, -5, -5, -84, 79, -31], "withholdReward": false, "trial_id": "mdp_trial_28", "block": "test", "trialIndex": 31, "score": 62.6, "costs": -7.4, "simulationMode": [null, null, null, null, null], "rewards": [2, -3, -3, -5, 79], "path": ["0", "0", "23", "24", "25", "30", "32"], "rt": [12856, 200, 348, 441, 236], "actions": ["left", "left", "left", "down", "down"], "actionTimes": [14824, 15551, 16415, 17359, 18103], "queries": {"click": {"state": {"target": ["25", "29", "27", "32"], "time": [3399, 4771, 7607, 11027]}, "edge": {"target": [], "time": []}}, "mouseover": {"state": {"target": ["23", "24", "25", "26", "29", "27", "25", "30", "32", "33"], "time": [2466, 2600, 2800, 3950, 4350, 5383, 8316, 8416, 8816, 13133]}, "edge": {"target": [], "time": []}}, "mouseout": {"state": {"target": ["0", "23", "24", "25", "26", "29", "27", "25", "30", "32"], "time": [2433, 2533, 2666, 3764, 4167, 5100, 8133, 8367, 8650, 11417]}, "edge": {"target": [], "time": []}}}, "displayed_time": "18.62", "trialTime": 19991, "trial_type": "mouselab-mdp", "trial_index": 42, "time_elapsed": 2475600, "internal_node_id": "0.0-4.0-1.0-27.0"}}, {"uniqueid": "w42907931:a14666989", "current_trial": 43, "dateTime": 1691144813775, "trialdata": {"revealed_states": [], "clicked_states": ["25", "14", "16", "17", "18"], "num_clicks_accrued": [0, 0, 0, 0, 0, 0, 0, 0, 0, 0, 0, 0, 0], "stateRewards": ["", -2, 1, -7, -8, -37, -76, -87, 11, 30, -63, 80, -1, 4, 2, -1, 42, 17, 52, -3, -75, -80, -68, 2, -3, -5, -15, -48, 82, 24, -7, 5, -22, -71], "withholdReward": false, "trial_id": "mdp_trial_29", "block": "test", "trialIndex": 32, "score": 47.65, "costs": -8.35, "simulationMode": [null, null, null, null, null], "rewards": [-1, 4, 2, -1, 52], "path": ["0", "0", "12", "13", "14", "15", "18"], "rt": [14228, 41, 326, 493, 166], "actions": ["right", "right", "right", "up", "left"], "actionTimes": [20036, 20571, 21403, 22387, 23043], "queries": {"click": {"state": {"target": ["25", "14", "16", "17", "18"], "time": [6609, 7823, 9555, 13087, 16049]}, "edge": {"target": [], "time": []}}, "mouseover": {"state": {"target": ["23", "24", "25", "24", "23", "0", "12", "13", "14", "15", "16", "17", "15", "18", "18", "13", "19", "21"], "time": [6093, 6260, 6376, 6926, 6944, 6978, 7043, 7231, 7343, 8293, 8476, 10177, 13460, 15760, 15910, 16693, 16893, 17277]}, "edge": {"target": [], "time": []}}, "mouseout": {"state": {"target": ["33", "30", "24", "23", "0", "12", "0", "23", "24", "25", "24", "23", "0", "12", "13", "14", "15", "16", "17", "15", "18", "18", "18", "13", "19"], "time": [2360, 2593, 5160, 5210, 5243, 5377, 6043, 6193, 6343, 6910, 6943, 6977, 7010, 7093, 7293, 7914, 8310, 9877, 13426, 13510, 15810, 16198, 16593, 16743, 16910]}, "edge": {"target": [], "time": []}}}, "displayed_time": "23.56", "trialTime": 25507, "trial_type": "mouselab-mdp", "trial_index": 43, "time_elapsed": 2501257, "internal_node_id": "0.0-4.0-1.0-28.0"}}, {"uniqueid": "w42907931:a14666989", "current_trial": 44, "dateTime": 1691144832175, "trialdata": {"revealed_states": [], "clicked_states": ["14", "16", "17"], "num_clicks_accrued": [0, 0, 0, 0, 0, 0, 0, 0, 0, 0, 0, 0, 0], "stateRewards": ["", -1, -2, -8, 8, -27, -82, 19, -14, -62, 4, 1, -2, 2, 6, 10, 73, -51, -2, 2, 73, -48, 54, -1, 2, -4, 11, -25, 47, 86, 15, 33, 43, -42], "withholdReward": false, "trial_id": "mdp_trial_30", "block": "test", "trialIndex": 33, "score": 83.75, "costs": -5.25, "simulationMode": [null, null, null, null, null], "rewards": [-2, 2, 6, 10, 73], "path": ["0", "0", "12", "13", "14", "15", "16"], "rt": [8635, 306, 578, 151, 132], "actions": ["right", "right", "right", "up", "up"], "actionTimes": [10174, 10997, 12085, 12725, 13373], "queries": {"click": {"state": {"target": ["14", "16", "17"], "time": [2583, 3939, 7093]}, "edge": {"target": [], "time": []}}, "mouseover": {"state": {"target": ["12", "13", "14", "15", "16", "17"], "time": [2023, 2073, 2356, 2873, 3207, 4373]}, "edge": {"target": [], "time": []}}, "mouseout": {"state": {"target": ["21", "0", "12", "13", "14", "15", "16"], "time": [840, 2006, 2056, 2223, 2807, 2890, 4207]}, "edge": {"target": [], "time": []}}}, "displayed_time": "15.54", "trialTime": 18237, "trial_type": "mouselab-mdp", "trial_index": 44, "time_elapsed": 2519657, "internal_node_id": "0.0-4.0-1.0-29.0"}}, {"uniqueid": "w42907931:a14666989", "current_trial": 45, "dateTime": 1691144865751, "trialdata": {"revealed_states": [], "clicked_states": ["25", "14", "3", "16", "17", "18", "21", "20", "22"], "num_clicks_accrued": [0, 0, 0, 0, 0, 0, 0, 0, 0, 0, 0, 0, 0], "stateRewards": ["", -2, 2, 5, -14, -56, 64, 84, -5, 52, 39, 85, -2, 1, 7, 8, 21, 29, -78, -9, -10, -69, 10, -2, -1, -7, 15, 72, 20, 41, -2, 52, 80, 22], "withholdReward": false, "trial_id": "mdp_trial_31", "block": "test", "trialIndex": 34, "score": 27.25, "costs": -15.750000000000002, "simulationMode": [null, null, null, null, null], "rewards": [-2, 1, 7, 8, 29], "path": ["0", "0", "12", "13", "14", "15", "17"], "rt": [27010, 326, 84, 12, 39], "actions": ["right", "right", "right", "up", "right"], "actionTimes": [29115, 29938, 30530, 31058, 31602], "queries": {"click": {"state": {"target": ["25", "14", "3", "16", "17", "18", "21", "20", "22"], "time": [3180, 5676, 8684, 10254, 13316, 16633, 19828, 22942, 26000]}, "edge": {"target": [], "time": []}}, "mouseover": {"state": {"target": ["23", "24", "25", "26", "27", "28", "28", "12", "20", "14", "15", "16", "7", "2", "12", "12", "2", "8", "3", "4", "16", "17", "18", "14", "21", "20", "22"], "time": [2545, 2745, 2945, 3478, 3712, 4278, 4611, 4828, 4895, 5411, 6462, 6761, 7378, 7495, 7628, 7812, 7878, 7928, 8312, 8960, 9628, 10632, 14150, 16995, 17462, 20445, 23578]}, "edge": {"target": [], "time": []}}, "mouseout": {"state": {"target": ["17", "13", "23", "0", "23", "24", "25", "26", "27", "28", "28", "12", "20", "14", "15", "16", "7", "2", "12", "12", "2", "8", "3", "4", "16", "16", "17", "18", "14", "21", "20"], "time": [845, 894, 1211, 2528, 2645, 2878, 3282, 3595, 4178, 4361, 4762, 4845, 4912, 6378, 6495, 7163, 7461, 7545, 7712, 7828, 7895, 8045, 8950, 9012, 10334, 10528, 13778, 16912, 17069, 20112, 23228]}, "edge": {"target": [], "time": []}}}, "displayed_time": "32.11", "trialTime": 33418, "trial_type": "mouselab-mdp", "trial_index": 45, "time_elapsed": 2553233, "internal_node_id": "0.0-4.0-1.0-30.0"}}, {"uniqueid": "w42907931:a14666989", "current_trial": 46, "dateTime": 1691144884367, "trialdata": {"revealed_states": [], "clicked_states": ["25", "14", "3", "27", "28"], "num_clicks_accrued": [0, 0, 0, 0, 0, 0, 0, 0, 0, 0, 0, 0, 0], "stateRewards": ["", -2, -1, -4, -15, -14, -67, 32, -3, -59, 63, 31, 2, -1, -7, -15, 71, -66, -27, -3, -54, -39, 72, 2, 1, 1, -13, 77, -40, 35, -9, 35, 75, 57], "withholdReward": false, "trial_id": "mdp_trial_32", "block": "test", "trialIndex": 35, "score": 60.85, "costs": -7.15, "simulationMode": [null, null, null, null, null], "rewards": [2, 1, 1, -13, 77], "path": ["0", "0", "23", "24", "25", "26", "27"], "rt": [11807, 171, 112, 32, 134], "actions": ["left", "left", "left", "up", "up"], "actionTimes": [13365, 14053, 14660, 15196, 15836], "queries": {"click": {"state": {"target": ["25", "14", "3", "27", "28"], "time": [2672, 3718, 5314, 6662, 9994]}, "edge": {"target": [], "time": []}}, "mouseover": {"state": {"target": ["23", "24", "25", "28", "1", "14", "15", "16", "7", "3", "10", "28", "26", "27", "26", "28"], "time": [2080, 2130, 2381, 3097, 3147, 3264, 4130, 4480, 4764, 5030, 5930, 6064, 6247, 6447, 6930, 6980]}, "edge": {"target": [], "time": []}}, "mouseout": {"state": {"target": ["22", "12", "0", "23", "24", "25", "28", "1", "14", "15", "16", "7", "3", "10", "28", "26", "27", "26", "28", "24"], "time": [780, 980, 1113, 2097, 2247, 2897, 3114, 3180, 3997, 4314, 4597, 4797, 5830, 5964, 6197, 6297, 6880, 6947, 10330, 17164]}, "edge": {"target": [], "time": []}}}, "displayed_time": "16.35", "trialTime": 18436, "trial_type": "mouselab-mdp", "trial_index": 46, "time_elapsed": 2571849, "internal_node_id": "0.0-4.0-1.0-31.0"}}, {"uniqueid": "w42907931:a14666989", "current_trial": 47, "dateTime": 1691144904351, "trialdata": {"revealed_states": [], "clicked_states": ["25", "27", "29", "28"], "num_clicks_accrued": [0, 0, 0, 0, 0, 0, 0, 0, 0, 0, 0, 0, 0], "stateRewards": ["", 2, -1, 4, -9, -43, 7, 54, -13, 38, -40, -83, -1, 2, -8, -10, 34, -33, 11, -14, -79, 65, 26, 1, 2, 4, 10, 21, 1, 86, 4, -53, 28, -29], "withholdReward": false, "trial_id": "mdp_trial_33", "block": "test", "trialIndex": 36, "score": 95.6, "costs": -7.4, "simulationMode": [null, null, null, null, null], "rewards": [1, 2, 4, 10, 86], "path": ["0", "0", "23", "24", "25", "26", "29"], "rt": [13207, 346, 200, 60, 501], "actions": ["left", "left", "left", "up", "left"], "actionTimes": [14619, 15458, 16146, 16730, 17746], "queries": {"click": {"state": {"target": ["25", "27", "29", "28"], "time": [2640, 4836, 8408, 11447]}, "edge": {"target": [], "time": []}}, "mouseover": {"state": {"target": ["0", "23", "25", "24", "23", "0", "12", "13", "13", "0", "23", "24", "29", "26", "27", "26", "26", "29", "26", "28"], "time": [1829, 1878, 2178, 2928, 2995, 3045, 3112, 3278, 3461, 3545, 3578, 3613, 3678, 4262, 4528, 5145, 5578, 8228, 8662, 9112]}, "edge": {"target": [], "time": []}}, "mouseout": {"state": {"target": ["0", "0", "23", "25", "24", "23", "0", "12", "13", "13", "0", "23", "24", "29", "26", "27", "26", "26", "29", "26"], "time": [945, 1845, 1928, 2878, 2978, 3028, 3078, 3145, 3428, 3512, 3562, 3612, 3645, 3962, 4361, 5062, 5178, 8062, 8634, 8745]}, "edge": {"target": [], "time": []}}}, "displayed_time": "18.26", "trialTime": 19818, "trial_type": "mouselab-mdp", "trial_index": 47, "time_elapsed": 2591833, "internal_node_id": "0.0-4.0-1.0-32.0"}}, {"uniqueid": "w42907931:a14666989", "current_trial": 48, "dateTime": 1691144937327, "trialdata": {"revealed_states": [], "clicked_states": ["25", "14", "16", "3", "17", "18", "20", "21", "22"], "num_clicks_accrued": [0, 0, 0, 0, 0, 0, 0, 0, 0, 0, 0, 0, 0], "stateRewards": ["", 2, -1, 1, 10, -52, 86, -22, -2, -14, -63, 38, 1, 3, 7, -8, 11, -32, -27, 9, -71, 40, -87, -2, -1, 5, -7, 12, 31, -57, 13, 86, -58, 29], "withholdReward": false, "trial_id": "mdp_trial_34", "block": "test", "trialIndex": 37, "score": 44.25, "costs": -15.750000000000002, "simulationMode": [null, null, null, null, null], "rewards": [1, 3, 7, 9, 40], "path": ["0", "0", "12", "13", "14", "19", "21"], "rt": [25748, 190, 3, 94, 78], "actions": ["right", "right", "right", "down", "down"], "actionTimes": [28282, 28985, 29481, 30105, 30689], "queries": {"click": {"state": {"target": ["25", "14", "16", "3", "17", "18", "20", "21", "22"], "time": [3728, 5633, 6943, 10097, 12066, 15191, 18489, 21616, 25071]}, "edge": {"target": [], "time": []}}, "mouseover": {"state": {"target": ["23", "24", "25", "24", "23", "0", "14", "15", "16", "15", "7", "3", "7", "17", "15", "18", "14", "20", "20", "21", "22"], "time": [2993, 3093, 3459, 3993, 4027, 4060, 4493, 6410, 6627, 7243, 7827, 8093, 10410, 10960, 12727, 12827, 15610, 15778, 16060, 19110, 22193]}, "edge": {"target": [], "time": []}}, "mouseout": {"state": {"target": ["28", "23", "23", "24", "25", "24", "23", "0", "14", "14", "15", "16", "15", "14", "7", "3", "7", "16", "17", "15", "18", "14", "20", "20", "21"], "time": [460, 1243, 3027, 3210, 3943, 4010, 4043, 4077, 6027, 6248, 6527, 7193, 7310, 7577, 7893, 10327, 10443, 10643, 12693, 12777, 15493, 15677, 15960, 18827, 21910]}, "edge": {"target": [], "time": []}}}, "displayed_time": "31.20", "trialTime": 32809, "trial_type": "mouselab-mdp", "trial_index": 48, "time_elapsed": 2624809, "internal_node_id": "0.0-4.0-1.0-33.0"}}, {"uniqueid": "w42907931:a14666989", "current_trial": 49, "dateTime": 1691144970743, "trialdata": {"revealed_states": [], "clicked_states": ["25", "3", "14", "27", "28", "29", "32", "31", "33"], "num_clicks_accrued": [0, 0, 0, 0, 0, 0, 0, 0, 0, 0, 0, 0, 0], "stateRewards": ["", -1, 2, -2, 5, 80, -61, -27, 12, 44, -26, -75, -2, -4, 1, -16, 42, -49, -50, 4, -44, 2, 80, -2, -2, 5, -2, 59, 10, 24, 7, -48, -86, -44], "withholdReward": false, "trial_id": "mdp_trial_35", "block": "test", "trialIndex": 38, "score": 42.25, "costs": -15.750000000000002, "simulationMode": [null, null, null, null, null, null], "rewards": [-2, -2, 5, -2, 59], "path": ["0", "0", "23", "24", "25", "26", "27"], "rt": [23710, 1974, 265, 26, 61, 126], "actions": ["left", "left", "left", "left", "up", "up"], "actionTimes": [25308, 27283, 28059, 28587, 29139, 29771], "queries": {"click": {"state": {"target": ["25", "3", "14", "27", "28", "29", "32", "31", "33"], "time": [2873, 4519, 5703, 7679, 11305, 14553, 17846, 20949, 24059]}, "edge": {"target": [], "time": []}}, "mouseover": {"state": {"target": ["23", "24", "25", "27", "10", "2", "3", "7", "18", "14", "19", "22", "31", "30", "26", "27", "26", "28", "26", "29", "25", "30", "32", "31", "30", "33"], "time": [1927, 2127, 2411, 3411, 3677, 3944, 4210, 4811, 4911, 5061, 6311, 6427, 6561, 6683, 7244, 7360, 7927, 8377, 11544, 11644, 14811, 14911, 15227, 18377, 21177, 21577]}, "edge": {"target": [], "time": []}}, "mouseout": {"state": {"target": ["22", "0", "23", "24", "25", "27", "10", "2", "3", "7", "18", "14", "19", "22", "31", "30", "26", "27", "26", "28", "26", "29", "25", "30", "32", "31", "30", "33", "32"], "time": [794, 1894, 1977, 2177, 3094, 3511, 3727, 4044, 4694, 4827, 4944, 6144, 6411, 6461, 6594, 6877, 7311, 7861, 7977, 11511, 11611, 14744, 14861, 15094, 18094, 21127, 21194, 31177, 31361]}, "edge": {"target": [], "time": []}}}, "displayed_time": "30.28", "trialTime": 33259, "trial_type": "mouselab-mdp", "trial_index": 49, "time_elapsed": 2658225, "internal_node_id": "0.0-4.0-1.0-34.0"}}, {"uniqueid": "w42907931:a14666989", "current_trial": 50, "dateTime": 1691145005527, "trialdata": {"revealed_states": [], "clicked_states": ["14", "16", "25", "3", "18", "17", "20", "21", "22"], "num_clicks_accrued": [0, 0, 0, 0, 0, 0, 0, 0, 0, 0, 0, 0, 0], "stateRewards": ["", -2, -4, -2, -13, -15, 87, -19, -6, -80, 30, 12, 1, 1, -8, 2, 55, 56, 15, 11, -68, -7, 55, -2, 3, -3, -3, 48, 62, 4, 1, -3, 69, -33], "withholdReward": false, "trial_id": "mdp_trial_36", "block": "test", "trialIndex": 39, "score": 36.25, "costs": -15.750000000000002, "simulationMode": [null, null, null, null, null], "rewards": [1, 1, -8, 2, 56], "path": ["0", "0", "12", "13", "14", "15", "17"], "rt": [26010, 100, 675, 164, 25], "actions": ["right", "right", "right", "up", "right"], "actionTimes": [27780, 28387, 29579, 30235, 30763], "queries": {"click": {"state": {"target": ["14", "16", "25", "3", "18", "17", "20", "21", "22"], "time": [2687, 3725, 7158, 9373, 11318, 14501, 17892, 21169, 24455]}, "edge": {"target": [], "time": []}}, "mouseover": {"state": {"target": ["12", "13", "14", "15", "16", "15", "17", "17", "13", "12", "23", "24", "25", "26", "27", "3", "13", "19", "14", "18", "15", "17", "20", "20", "21", "22"], "time": [2037, 2120, 2370, 3103, 3370, 4003, 4187, 4337, 4970, 5003, 5137, 5253, 5320, 7753, 8037, 8753, 9887, 10037, 10887, 11137, 11653, 11770, 14887, 15453, 18503, 21703]}, "edge": {"target": [], "time": []}}, "mouseout": {"state": {"target": ["12", "12", "13", "14", "15", "16", "15", "17", "17", "13", "12", "23", "24", "25", "26", "27", "3", "13", "19", "14", "18", "15", "17", "20", "20", "21", "22"], "time": [1153, 2070, 2203, 3037, 3187, 3953, 4020, 4203, 4887, 4987, 5037, 5203, 5303, 7653, 7920, 8437, 9570, 9937, 10103, 10953, 11603, 11737, 14770, 14937, 18187, 21487, 33007]}, "edge": {"target": [], "time": []}}}, "displayed_time": "31.27", "trialTime": 34619, "trial_type": "mouselab-mdp", "trial_index": 50, "time_elapsed": 2693009, "internal_node_id": "0.0-4.0-1.0-35.0"}}, {"uniqueid": "w42907931:a14666989", "current_trial": 51, "dateTime": 1691145048136, "trialdata": {"revealed_states": [], "clicked_states": ["14", "25", "3", "18", "17", "16", "20", "21", "22", "32", "31"], "num_clicks_accrued": [0, 0, 0, 0, 0, 0, 0, 0, 0, 0, 0, 0, 0], "stateRewards": ["", 2, 3, -1, 16, -78, -11, 46, 2, -20, 79, -67, 2, 3, 2, 11, -83, -42, -58, -11, -67, -22, 55, 2, -1, -1, -16, -83, -82, 23, -11, -29, 13, 13], "withholdReward": false, "trial_id": "mdp_trial_37", "block": "test", "trialIndex": 40, "score": 30.95, "costs": -20.05, "simulationMode": [null, null, null, null, null], "rewards": [2, 3, 2, -11, 55], "path": ["0", "0", "12", "13", "14", "19", "22"], "rt": [32140, 94, 389, 2162, 383], "actions": ["right", "right", "right", "down", "left"], "actionTimes": [34367, 34950, 35846, 38519, 39390], "queries": {"click": {"state": {"target": ["14", "25", "3", "18", "17", "16", "20", "21", "22", "32", "31"], "time": [3801, 5174, 6378, 8242, 11310, 14394, 17474, 21248, 24390, 27969, 31214]}, "edge": {"target": [], "time": []}}, "mouseover": {"state": {"target": ["12", "13", "14", "15", "12", "23", "24", "25", "28", "2", "3", "7", "18", "15", "15", "15", "18", "15", "17", "16", "15", "21", "20", "21", "22", "19", "31", "32", "31", "33"], "time": [2639, 2739, 2972, 4556, 4639, 4689, 4722, 4922, 5572, 5822, 6072, 6756, 6856, 6972, 7231, 7722, 8022, 8506, 8589, 11906, 14706, 15289, 15623, 18139, 21889, 24722, 25656, 26089, 30439, 32139]}, "edge": {"target": [], "time": []}}, "mouseout": {"state": {"target": ["0", "12", "13", "14", "14", "15", "12", "23", "24", "25", "28", "2", "3", "7", "18", "15", "15", "15", "18", "15", "17", "16", "15", "21", "20", "20", "21", "22", "19", "22", "31", "32", "31", "31"], "time": [2622, 2689, 2839, 3918, 4039, 4606, 4656, 4706, 4856, 5422, 5706, 5922, 6706, 6807, 6922, 7072, 7389, 7872, 8456, 8539, 11606, 14672, 14756, 15522, 17590, 17756, 21606, 24689, 24739, 25455, 25772, 29956, 31318, 31739]}, "edge": {"target": [], "time": []}}}, "displayed_time": "39.89", "trialTime": 42447, "trial_type": "mouselab-mdp", "trial_index": 51, "time_elapsed": 2735617, "internal_node_id": "0.0-4.0-1.0-36.0"}}, {"uniqueid": "w42907931:a14666989", "current_trial": 52, "dateTime": 1691145081351, "trialdata": {"revealed_states": [], "clicked_states": ["25", "14", "3", "5", "6", "7", "9", "11", "10"], "num_clicks_accrued": [0, 0, 0, 0, 0, 0, 0, 0, 0, 0, 0, 0, 0], "stateRewards": ["", 2, 3, 8, 14, 69, -27, 17, 2, -71, -65, -10, 2, -3, 7, 8, 65, -10, 65, -12, 73, -12, 13, -2, -2, 6, 10, -79, -69, -18, 10, -85, 67, 74], "withholdReward": false, "trial_id": "mdp_trial_38", "block": "test", "trialIndex": 41, "score": 80.25, "costs": -15.750000000000002, "simulationMode": [null, null, null, null, null], "rewards": [2, 3, 8, 14, 69], "path": ["0", "0", "1", "2", "3", "4", "5"], "rt": [26803, 258, 179, 4, 100], "actions": ["up", "up", "up", "right", "up"], "actionTimes": [28423, 29198, 29887, 30378, 30990], "queries": {"click": {"state": {"target": ["25", "14", "3", "5", "6", "7", "9", "11", "10"], "time": [3762, 5532, 8299, 9579, 12903, 16113, 19229, 22282, 25310]}, "edge": {"target": [], "time": []}}, "mouseover": {"state": {"target": ["24", "26", "29", "24", "25", "24", "0", "12", "13", "13", "14", "15", "7", "16", "3", "7", "18", "15", "15", "4", "5", "6", "6", "7", "3", "9", "8", "10", "11", "10"], "time": [2323, 2556, 2756, 3140, 3323, 3973, 4173, 4273, 4356, 4656, 4923, 6140, 6673, 6923, 8023, 8540, 8623, 8656, 8873, 9106, 9340, 9906, 10806, 13673, 16440, 16656, 19557, 19873, 20073, 22690]}, "edge": {"target": [], "time": []}}, "mouseout": {"state": {"target": ["33", "30", "31", "0", "24", "26", "29", "24", "25", "24", "0", "12", "13", "13", "14", "15", "7", "16", "3", "7", "18", "15", "15", "4", "5", "6", "6", "7", "3", "9", "8", "10", "11"], "time": [1039, 1206, 1239, 1806, 2356, 2723, 2990, 3273, 3906, 4023, 4206, 4323, 4440, 4840, 6040, 6306, 6823, 7573, 8473, 8590, 8640, 8690, 8892, 9140, 9790, 9973, 13173, 16374, 16473, 19506, 19690, 19973, 22540]}, "edge": {"target": [], "time": []}}}, "displayed_time": "31.51", "trialTime": 33046, "trial_type": "mouselab-mdp", "trial_index": 52, "time_elapsed": 2768833, "internal_node_id": "0.0-4.0-1.0-37.0"}}, {"uniqueid": "w42907931:a14666989", "current_trial": 53, "dateTime": 1691145111623, "trialdata": {"revealed_states": [], "clicked_states": ["25", "14", "3", "16", "17", "18", "20", "21"], "num_clicks_accrued": [0, 0, 0, 0, 0, 0, 0, 0, 0, 0, 0, 0, 0], "stateRewards": ["", 1, -1, 4, -2, -75, -75, 84, -9, -60, -79, 59, 2, -4, 8, 9, -17, -82, 80, 14, -4, 49, 49, -1, 3, 6, -11, -33, 34, 55, 9, -57, 5, 59], "withholdReward": false, "trial_id": "mdp_trial_39", "block": "test", "trialIndex": 42, "score": 81.4, "costs": -13.600000000000001, "simulationMode": [null, null, null, null, null], "rewards": [2, -4, 8, 9, 80], "path": ["0", "0", "12", "13", "14", "15", "18"], "rt": [21628, 12, 392, 60, 309], "actions": ["right", "right", "right", "up", "left"], "actionTimes": [23545, 24048, 24960, 25512, 26344], "queries": {"click": {"state": {"target": ["25", "14", "3", "16", "17", "18", "20", "21"], "time": [2930, 4188, 6304, 7140, 10247, 13347, 16670, 20324]}, "edge": {"target": [], "time": []}}, "mouseover": {"state": {"target": ["23", "24", "25", "14", "15", "16", "7", "2", "3", "4", "16", "17", "18", "19", "20", "21"], "time": [2451, 2534, 2618, 3834, 4568, 5384, 5818, 5851, 6101, 6501, 6701, 7534, 10884, 13768, 14118, 17451]}, "edge": {"target": [], "time": []}}, "mouseout": {"state": {"target": ["10", "23", "24", "25", "14", "15", "16", "7", "2", "3", "4", "16", "17", "18", "19", "20"], "time": [934, 2518, 2584, 3134, 4468, 4584, 5784, 5834, 5901, 6451, 6518, 7418, 10484, 13618, 13834, 16934]}, "edge": {"target": [], "time": []}}}, "displayed_time": "26.85", "trialTime": 30096, "trial_type": "mouselab-mdp", "trial_index": 53, "time_elapsed": 2799105, "internal_node_id": "0.0-4.0-1.0-38.0"}}, {"uniqueid": "w42907931:a14666989", "current_trial": 54, "dateTime": 1691145143447, "trialdata": {"revealed_states": [], "clicked_states": ["14", "16", "3", "25", "17", "18", "20", "21", "22"], "num_clicks_accrued": [0, 0, 0, 0, 0, 0, 0, 0, 0, 0, 0, 0, 0], "stateRewards": ["", -2, -4, 2, 10, -17, 18, 73, 11, -32, 23, -13, -2, -4, 7, 12, -25, 66, -23, 15, 40, -76, -9, 1, 2, -7, -5, -20, 24, 3, -5, 16, -73, 70], "withholdReward": false, "trial_id": "mdp_trial_40", "block": "test", "trialIndex": 43, "score": 63.25, "costs": -15.750000000000002, "simulationMode": [null, null, null, null, null, null], "rewards": [-2, -4, 7, 12, 66], "path": ["0", "0", "12", "13", "14", "15", "17"], "rt": [22723, 1438, 406, 105, 73, 10], "actions": ["right", "right", "right", "right", "up", "right"], "actionTimes": [24785, 26225, 27145, 27761, 28344, 28848], "queries": {"click": {"state": {"target": ["14", "16", "3", "25", "17", "18", "20", "21", "22"], "time": [2965, 3965, 7103, 8849, 11317, 14374, 17539, 20694, 23707]}, "edge": {"target": [], "time": []}}, "mouseover": {"state": {"target": ["12", "13", "14", "15", "16", "16", "3", "4", "7", "24", "25", "24", "23", "20", "17", "18", "14", "19", "20", "20", "21", "22"], "time": [2255, 2321, 2638, 3271, 3371, 3688, 4405, 7638, 7905, 8138, 8238, 9272, 9338, 10205, 11021, 11621, 14805, 14938, 14988, 15321, 18138, 21405]}, "edge": {"target": [], "time": []}}, "mouseout": {"state": {"target": ["21", "22", "0", "0", "12", "13", "14", "15", "16", "16", "3", "3", "4", "7", "24", "25", "24", "23", "20", "17", "18", "14", "19", "20", "20", "21"], "time": [1038, 1121, 1304, 2221, 2305, 2405, 3188, 3321, 3521, 4171, 7245, 7555, 7855, 7921, 8205, 9255, 9305, 9355, 10888, 11521, 14705, 14855, 14955, 15038, 17821, 20972]}, "edge": {"target": [], "time": []}}}, "displayed_time": "29.37", "trialTime": 31657, "trial_type": "mouselab-mdp", "trial_index": 54, "time_elapsed": 2830928, "internal_node_id": "0.0-4.0-1.0-39.0"}}, {"uniqueid": "w42907931:a14666989", "current_trial": 55, "dateTime": 1691145299312, "trialdata": {"rt": 155863, "response": {"Q0": "$-16 to 16", "Q1": "$-16 to $16", "Q2": "$-88 to $88", "Q3": "The cost for clicking on nodes varied between nodes.", "Q4": "Very motivated"}, "question_order": [0, 1, 2, 3, 4], "trial_id": "final_quiz_control", "trial_type": "survey-multi-choice", "trial_index": 55, "time_elapsed": 2986794, "internal_node_id": "0.0-4.0-2.0"}}, {"uniqueid": "w42907931:a14666989", "current_trial": 56, "dateTime": 1691145667362, "trialdata": {"rt": 368045, "response": {"Q0": "To minimise cost on node inspector, inspector from third node and last node only.\nkeep an eye on green route.", "Q1": "Yes, inspect less, and understand cash range. ", "Q2": "No."}, "trial_id": "self_report_control", "trial_type": "survey-text", "trial_index": 56, "time_elapsed": 3354844, "internal_node_id": "0.0-4.0-3.0"}}, {"uniqueid": "w42907931:a14666989", "current_trial": 57, "dateTime": 1691145969635, "trialdata": {"rt": 302270, "response": {"Q0": "Disagree", "Q1": "Disagree", "Q2": "Neither disagree nor agree", "Q3": "Agree", "Q4": "Disagree", "Q5": "Agree", "Q6": "Disagree"}, "question_order": [0, 1, 2, 3, 4, 5, 6], "trial_id": "self_report_2", "trial_type": "survey-multi-choice", "trial_index": 57, "time_elapsed": 3657117, "internal_node_id": "0.0-4.0-4.0"}}, {"uniqueid": "w42907931:a14666989", "current_trial": 58, "dateTime": 1691146066511, "trialdata": {"rt": 96873, "response": {"gender": "female", "age": "31", "colorblind": "0", "effort": "0"}, "trial_type": "survey-html-form", "trial_index": 58, "time_elapsed": 3753993, "internal_node_id": "0.0-4.0-5.0"}}, {"uniqueid": "w42907931:a14666989", "current_trial": 59, "dateTime": 1691146444245, "trialdata": {"rt": 377730, "response": {"Q0": "Yes, what made the game hard was that I had to remember all the rules at the same time, keep checking time after every click(3sec), remember the cash amount and do some quick calculation in my head before taking a path. ", "Q1": "No, I don't remember taking part in web of cash game before. ", "Q2": "It was nice to participate in this game. I really enjoyed it.\n\nthank you "}, "trial_type": "survey-text", "trial_index": 59, "time_elapsed": 4131727, "internal_node_id": "0.0-4.0-6.0"}}, {"uniqueid": "w42907931:a14666989", "current_trial": 60, "dateTime": 1691146449939, "trialdata": {"rt": 5691, "stimulus": "Press 'Finish HIT' in order to reach the completion code. Once the data has been saved, you will receive the code either in this window or in the original browser window where you started the experiment.\n", "response": 0, "trial_type": "html-button-response", "trial_index": 60, "time_elapsed": 4137421, "internal_node_id": "0.0-5.0"}}, {"uniqueid": "w42907931:a14666989", "current_trial": 61, "dateTime": 1691146450942, "trialdata": {"success": true, "trial_type": "fullscreen", "trial_index": 61, "time_elapsed": 4138424, "internal_node_id": "0.0-6.0"}}], "questiondata": {"params": {"CODE": "C6DMOQA6", "MIN_TIME": 14, "inspectCost": 1, "startTime": "Fri Aug 04 2023 11:45:11 GMT+0200 (South Africa Standard Time)", "bonusRate": 0.002, "variance": "1_2_4_8_44", "branching": "31123"}, "final_score": 1856.75}, "eventdata": [{"eventtype": "initialized", "value": null, "timestamp": 1691142310436, "interval": 0}, {"eventtype": "window_resize", "value": [1024, 768], "timestamp": 1691142310436, "interval": 0}, {"eventtype": "window_resize", "value": [1024, 768], "timestamp": 1691142310907, "interval": 471}, {"eventtype": "window_resize", "value": [1920, 978], "timestamp": 1691142315065, "interval": 4158}, {"eventtype": "window_resize", "value": [1920, 1080], "timestamp": 1691142371746, "interval": 56681}, {"eventtype": "focus", "value": "off", "timestamp": 1691143660148, "interval": 1288402}, {"eventtype": "focus", "value": "on", "timestamp": 1691143660148, "interval": 0}, {"eventtype": "window_resize", "value": [1920, 978], "timestamp": 1691143660352, "interval": 204}, {"eventtype": "window_resize", "value": [1920, 1080], "timestamp": 1691143661632, "interval": 1280}, {"eventtype": "focus", "value": "off", "timestamp": 1691146378056, "interval": 2716424}, {"eventtype": "window_resize", "value": [1920, 1079], "timestamp": 1691146378262, "interval": 206}, {"eventtype": "window_resize", "value": [1920, 1080], "timestamp": 1691146378465, "interval": 203}, {"eventtype": "focus", "value": "on", "timestamp": 1691146380154, "interval": 1689}, {"eventtype": "focus", "value": "off", "timestamp": 1691146381703, "interval": 1549}, {"eventtype": "window_resize", "value": [1920, 1079], "timestamp": 1691146381911, "interval": 208}, {"eventtype": "focus", "value": "on", "timestamp": 1691146381913, "interval": 2}, {"eventtype": "window_resize", "value": [1920, 1080], "timestamp": 1691146382128, "interval": 215}, {"eventtype": "window_resize", "value": [1920, 978], "timestamp": 1691146450154, "interval": 68026}], "useragent": "Mozilla/5.0 (Windows NT 10.0; Win64; x64) AppleWebKit/537.36 (KHTML, like Gecko) Chrome/115.0.0.0 Safari/537.36 Edg/115.0.1901.188", "mode": "live", "id": "w42907931:a14666989", "status": "user data saved", "Beginhit": "2023-08-04 09:45:08.00054", "Beginexp": "2023-08-04 09:46:13.221246", "Endhit": "2023-08-04 10:54:12.255841", "psiturkStatus": 3, "browser": "<redacted>", "platform": "windows", "language": "en-GB"}