{"condition": 1, "counterbalance": 0, "assignmentId": "a98958019", "workerId": "w21301062", "hitId": "h94732154", "currenttrial": 41, "bonus": 0, "data": [{"uniqueid": "w21301062:a98958019", "current_trial": 0, "dateTime": 1693580265364, "trialdata": {"success": true, "trial_type": "fullscreen", "trial_index": 0, "time_elapsed": 5680, "internal_node_id": "0.0-0.0"}}, {"uniqueid": "w21301062:a98958019", "current_trial": 1, "dateTime": 1693580310143, "trialdata": {"view_history": [{"page_index": 0, "viewing_time": 44765}], "rt": 44768, "trial_id": "exp_instructions_misaligned", "trial_type": "instructions", "trial_index": 1, "time_elapsed": 50460, "internal_node_id": "0.0-1.0"}}, {"uniqueid": "w21301062:a98958019", "current_trial": 2, "dateTime": 1693580571080, "trialdata": {"view_history": [{"page_index": 0, "viewing_time": 90103}, {"page_index": 1, "viewing_time": 94302}, {"page_index": 2, "viewing_time": 37051}, {"page_index": 3, "viewing_time": 39473}], "rt": 260930, "trial_id": "mouselab_instructions_1_misaligned", "trial_type": "instructions", "trial_index": 2, "time_elapsed": 311396, "internal_node_id": "0.0-2.0-1.0"}}, {"uniqueid": "w21301062:a98958019", "current_trial": 3, "dateTime": 1693580606037, "trialdata": {"revealed_states": [], "clicked_states": ["26", "1"], "num_clicks_accrued": [0, 0, 0, 0, 0, 0, 0, 0, 0, 0, 0, 0, 0], "stateRewards": ["", 10, -10, 10, 10, -10, 10, -10, 10, -10, -10, -10, -10, 10, -10, 10, 10, 10, -10, 10, -10, 10, 10, -10, -10, -10, 10, -10, 10, -10, -10, 10, 10, 10], "withholdReward": false, "trial_id": "practice_1", "block": "test", "trialIndex": 0, "score": 12.5, "costs": -1, "simulationMode": [null, null, null, null, null], "rewards": [10, -10, 10, 10, -10], "path": ["0", "0", "1", "2", "3", "4", "5"], "rt": [8722, 7520, 2097, 1036, 211], "actions": ["up", "up", "up", "right", "up"], "actionTimes": [11229, 19284, 21891, 23461, 24205], "queries": {"click": {"state": {"target": ["26", "1"], "time": [4940, 8238]}, "edge": {"target": [], "time": []}}, "mouseover": {"state": {"target": ["23", "28", "26", "28", "1", "1"], "time": [4104, 4302, 4453, 6057, 6336, 7086]}, "edge": {"target": [], "time": []}}, "mouseout": {"state": {"target": ["0", "23", "28", "26", "28", "1", "1", "1", "15"], "time": [1136, 4141, 4323, 6017, 6135, 6355, 9502, 10000, 29995]}, "edge": {"target": [], "time": []}}}, "displayed_time": "24.73", "trialTime": 32905, "trial_type": "mouselab-mdp", "trial_index": 3, "time_elapsed": 346353, "internal_node_id": "0.0-2.0-2.0-0.0"}}, {"uniqueid": "w21301062:a98958019", "current_trial": 4, "dateTime": 1693580630574, "trialdata": {"revealed_states": [], "clicked_states": ["14"], "num_clicks_accrued": [0, 0, 0, 0, 0, 0, 0, 0, 0, 0, 0, 0, 0], "stateRewards": ["", -10, 10, 10, 10, -10, -10, -10, -10, -10, 10, 10, -10, 10, -10, -10, -10, 10, -10, 10, 10, -10, 10, 10, 10, -10, 10, 10, 10, 10, -10, 10, 10, 10], "withholdReward": false, "trial_id": "practice_2", "block": "test", "trialIndex": 1, "score": -7, "costs": -0.5, "simulationMode": [null, null, null, null, null], "rewards": [-10, 10, -10, -10, 10], "path": ["0", "0", "12", "13", "14", "15", "17"], "rt": [7094, 1357, 1710, 735, 648], "actions": ["right", "right", "right", "up", "right"], "actionTimes": [11242, 13195, 15450, 16720, 17891], "queries": {"click": {"state": {"target": ["14"], "time": [7828]}, "edge": {"target": [], "time": []}}, "mouseover": {"state": {"target": ["12", "13", "14", "13", "12"], "time": [5938, 6052, 6636, 10156, 10200]}, "edge": {"target": [], "time": []}}, "mouseout": {"state": {"target": ["0", "12", "13", "14", "13", "12", "15"], "time": [5903, 5986, 6319, 10136, 10188, 10218, 21549]}, "edge": {"target": [], "time": []}}}, "displayed_time": "18.42", "trialTime": 23017, "trial_type": "mouselab-mdp", "trial_index": 4, "time_elapsed": 370889, "internal_node_id": "0.0-2.0-2.0-1.0"}}, {"uniqueid": "w21301062:a98958019", "current_trial": 5, "dateTime": 1693580683991, "trialdata": {"view_history": [{"page_index": 0, "viewing_time": 40469}, {"page_index": 1, "viewing_time": 12940}], "rt": 53410, "trial_id": "mouselab_instructions_2_misaligned", "trial_type": "instructions", "trial_index": 5, "time_elapsed": 424308, "internal_node_id": "0.0-2.0-3.0"}}, {"uniqueid": "w21301062:a98958019", "current_trial": 6, "dateTime": 1693580773584, "trialdata": {"rt": 89580, "response": {"Q0": "The cost for clicking on nodes may vary between nodes.", "Q1": "The better I perform the higher my bonus will be.", "Q2": "No, the amount of cash at each node of the web may be different each time.", "Q3": "To get the highest total score.", "Q4": "Any time during the round.", "Q5": "3 seconds"}, "question_order": [0, 1, 2, 3, 4, 5], "correct": {"Q0": "The cost for clicking on nodes may vary between nodes.", "Q1": "The better I perform the higher my bonus will be.", "Q2": "No, the amount of cash at each node of the web may be different each time.", "Q3": "To get the highest total score.", "Q4": "Only before moving the spider.", "Q5": "3 seconds"}, "trial_id": "mouselab_quiz_misaligned", "trial_type": "survey-multi-choice", "trial_index": 6, "time_elapsed": 513900, "internal_node_id": "0.0-2.0-4.0"}}, {"uniqueid": "w21301062:a98958019", "current_trial": 7, "dateTime": 1693580791520, "trialdata": {"success": true, "trial_type": "fullscreen", "trial_index": 7, "time_elapsed": 531837, "internal_node_id": "0.0-2.1-0.1-0.1"}}, {"uniqueid": "w21301062:a98958019", "current_trial": 8, "dateTime": 1693580886789, "trialdata": {"view_history": [{"page_index": 0, "viewing_time": 23664}, {"page_index": 1, "viewing_time": 65410}, {"page_index": 2, "viewing_time": 3927}, {"page_index": 3, "viewing_time": 2261}], "rt": 95262, "trial_id": "mouselab_instructions_1_misaligned", "trial_type": "instructions", "trial_index": 8, "time_elapsed": 627106, "internal_node_id": "0.0-2.1-1.1"}}, {"uniqueid": "w21301062:a98958019", "current_trial": 9, "dateTime": 1693580908905, "trialdata": {"revealed_states": [], "clicked_states": ["1", "24", "2", "3", "13"], "num_clicks_accrued": [0, 0, 0, 0, 0, 0, 0, 0, 0, 0, 0, 0, 0], "stateRewards": ["", 10, -10, 10, 10, -10, 10, -10, 10, -10, -10, -10, -10, 10, -10, 10, 10, 10, -10, 10, -10, 10, 10, -10, -10, -10, 10, -10, 10, -10, -10, 10, 10, 10], "withholdReward": false, "trial_id": "practice_1", "block": "test", "trialIndex": 2, "score": -9, "costs": -2.5, "simulationMode": [null, null, null, null, null], "rewards": [-10, 10, -10, 10, -10], "path": ["0", "0", "12", "13", "14", "19", "20"], "rt": [11495, 351, 496, 545, 232], "actions": ["right", "right", "right", "down", "right"], "actionTimes": [14082, 14982, 16007, 17084, 17820], "queries": {"click": {"state": {"target": ["1", "24", "2", "3", "13"], "time": [3973, 5839, 7861, 9575, 11007]}, "edge": {"target": [], "time": []}}, "mouseover": {"state": {"target": ["1", "23", "24", "28", "2", "2", "7", "3", "18", "13", "14"], "time": [3333, 4498, 5417, 6335, 7255, 7502, 8291, 9211, 10153, 10625, 11505]}, "edge": {"target": [], "time": []}}, "mouseout": {"state": {"target": ["0", "1", "23", "24", "28", "2", "2", "7", "3", "18", "13", "14", "13"], "time": [3067, 4409, 5348, 6265, 7168, 7300, 8258, 9066, 10066, 10191, 11439, 13138, 13198]}, "edge": {"target": [], "time": []}}}, "displayed_time": "18.37", "trialTime": 20637, "trial_type": "mouselab-mdp", "trial_index": 9, "time_elapsed": 649221, "internal_node_id": "0.0-2.1-2.1-0.1"}}, {"uniqueid": "w21301062:a98958019", "current_trial": 10, "dateTime": 1693580943718, "trialdata": {"revealed_states": [], "clicked_states": ["1", "13", "7", "3", "8", "5", "6", "15", "14", "22", "31", "33", "25"], "num_clicks_accrued": [0, 0, 0, 0, 0, 0, 0, 0, 0, 0, 0, 0, 0], "stateRewards": ["", -10, 10, 10, 10, -10, -10, -10, -10, -10, 10, 10, -10, 10, -10, -10, -10, 10, -10, 10, 10, -10, 10, 10, 10, -10, 10, 10, 10, 10, -10, 10, 10, 10], "withholdReward": false, "trial_id": "practice_2", "block": "test", "trialIndex": 3, "score": 7, "costs": -6.5, "simulationMode": [null, null, null, null, null], "rewards": [10, 10, -10, -10, 10], "path": ["0", "0", "23", "24", "25", "30", "31"], "rt": [24619, 382, 660, 281, 272], "actions": ["left", "left", "left", "down", "right"], "actionTimes": [27651, 28578, 29769, 30580, 31380], "queries": {"click": {"state": {"target": ["1", "13", "7", "3", "8", "5", "6", "15", "14", "22", "31", "33", "25"], "time": [4131, 6003, 8349, 10408, 11504, 13267, 15024, 17003, 18635, 20346, 21683, 23479, 25527]}, "edge": {"target": [], "time": []}}, "mouseover": {"state": {"target": ["1", "12", "13", "18", "7", "7", "2", "3", "8", "9", "5", "4", "6", "16", "15", "17", "14", "19", "22", "31", "30", "33", "30", "32", "30", "25"], "time": [3541, 4716, 5575, 6570, 7388, 7956, 8848, 10005, 11056, 11920, 12837, 13872, 14622, 15644, 16570, 17344, 18205, 19090, 19922, 21381, 22135, 23099, 23925, 24124, 24917, 25035]}, "edge": {"target": [], "time": []}}, "mouseout": {"state": {"target": ["13", "17", "17", "12", "0", "1", "12", "13", "18", "7", "7", "2", "3", "8", "9", "5", "4", "6", "6", "16", "15", "15", "17", "14", "19", "22", "31", "30", "33", "30", "32", "30"], "time": [205, 322, 1137, 1223, 3084, 4548, 5539, 6452, 7306, 7456, 8789, 9873, 10916, 11853, 12755, 13722, 14587, 15234, 15518, 16486, 17215, 17297, 18120, 19045, 19885, 20829, 21889, 22967, 23865, 23980, 24872, 24967]}, "edge": {"target": [], "time": []}}}, "displayed_time": "31.95", "trialTime": 33344, "trial_type": "mouselab-mdp", "trial_index": 10, "time_elapsed": 684034, "internal_node_id": "0.0-2.1-2.1-1.1"}}, {"uniqueid": "w21301062:a98958019", "current_trial": 11, "dateTime": 1693580952459, "trialdata": {"view_history": [{"page_index": 0, "viewing_time": 6550}, {"page_index": 1, "viewing_time": 2182}], "rt": 8733, "trial_id": "mouselab_instructions_2_misaligned", "trial_type": "instructions", "trial_index": 11, "time_elapsed": 692776, "internal_node_id": "0.0-2.1-3.1"}}, {"uniqueid": "w21301062:a98958019", "current_trial": 12, "dateTime": 1693580983345, "trialdata": {"rt": 30878, "response": {"Q0": "The cost for clicking on nodes may vary between nodes.", "Q1": "The better I perform the higher my bonus will be.", "Q2": "No, the amount of cash at each node of the web may be different each time.", "Q3": "To get the highest total score.", "Q4": "Only before moving the spider.", "Q5": "3 seconds"}, "question_order": [0, 1, 2, 3, 4, 5], "correct": {"Q0": "The cost for clicking on nodes may vary between nodes.", "Q1": "The better I perform the higher my bonus will be.", "Q2": "No, the amount of cash at each node of the web may be different each time.", "Q3": "To get the highest total score.", "Q4": "Only before moving the spider.", "Q5": "3 seconds"}, "trial_id": "mouselab_quiz_misaligned", "trial_type": "survey-multi-choice", "trial_index": 12, "time_elapsed": 723662, "internal_node_id": "0.0-2.1-4.1"}}, {"uniqueid": "w21301062:a98958019", "current_trial": 13, "dateTime": 1693580993103, "trialdata": {"rt": 9735, "response": {"Q0": "No"}, "question_order": [0], "trial_id": "repeat_check", "trial_type": "survey-multi-choice", "trial_index": 13, "time_elapsed": 733419, "internal_node_id": "0.0-4.0-0.0"}}, {"uniqueid": "w21301062:a98958019", "current_trial": 14, "dateTime": 1693581015637, "trialdata": {"rt": 22518, "stimulus": "\n<h1> Get ready to start the game! </h1>\n\nThank you for reading the instructions. Get ready start with the 40 rounds of this game.\n<br><br>\nIf you need to take a break, feel free to take one after the end of a round, before continuing to the next one.\n<br><br>\nRemember, the more money the spider gets, the bigger your bonus will be!\n<br><br>\n<div style='text-align: center;'>Press <code>space</code> to begin.</div>\n\n<br><br>\n(If, at any point, the <code>space</code> key does not take you to the next page, click once on the text and try again.)", "response": " ", "trial_id": "mdp_ready", "trial_type": "html-keyboard-response", "trial_index": 14, "time_elapsed": 755954, "internal_node_id": "0.0-6.0-0.0"}}, {"uniqueid": "w21301062:a98958019", "current_trial": 15, "dateTime": 1693581037789, "trialdata": {"revealed_states": [], "clicked_states": ["24", "25", "26", "2"], "num_clicks_accrued": [0, 0, 0, 0, 0, 0, 0, 0, 0, 0, 0, 0, 0], "stateRewards": ["", -2, 2, -4, -4, -59, 88, 62, -3, 69, -15, -34, 1, -2, -5, 7, -54, -20, 78, -16, -74, -53, -21, 2, -4, 2, 13, -8, -44, 26, 9, 72, 4, 17], "withholdReward": false, "trial_id": "mdp_trial_1", "block": "test", "trialIndex": 4, "score": 1.8000000000000007, "costs": -3.1999999999999997, "simulationMode": [null, null, null, null, null], "rewards": [2, -4, 2, 13, -8], "path": ["0", "0", "23", "24", "25", "26", "27"], "rt": [5993, 663, 521, 312, 267], "actions": ["left", "left", "left", "up", "up"], "actionTimes": [8712, 9908, 10968, 11825, 12694], "queries": {"click": {"state": {"target": ["24", "25", "26", "2"], "time": [3957, 4870, 5781, 6878]}, "edge": {"target": [], "time": []}}, "mouseover": {"state": {"target": ["23", "24", "25", "26", "10", "2"], "time": [3226, 3520, 4508, 5350, 6212, 6319]}, "edge": {"target": [], "time": []}}, "mouseout": {"state": {"target": ["22", "22", "0", "23", "24", "25", "26", "10", "2", "6"], "time": [368, 1020, 3205, 3273, 4381, 5253, 6169, 6256, 19108, 19138]}, "edge": {"target": [], "time": []}}}, "displayed_time": "16.72", "trialTime": 20492, "trial_type": "mouselab-mdp", "trial_index": 15, "time_elapsed": 778105, "internal_node_id": "0.0-6.0-1.0-0.0"}}, {"uniqueid": "w21301062:a98958019", "current_trial": 16, "dateTime": 1693581058887, "trialdata": {"revealed_states": [], "clicked_states": ["1", "2", "7"], "num_clicks_accrued": [0, 0, 0, 0, 0, 0, 0, 0, 0, 0, 0, 0, 0], "stateRewards": ["", -2, 1, -8, 12, -65, -79, 16, 7, -80, -17, -45, -2, 2, -5, -2, -85, 23, -4, -7, 48, 27, -76, 2, 3, 5, 2, 43, 71, -13, 7, -49, 59, -31], "withholdReward": false, "trial_id": "mdp_trial_2", "block": "test", "trialIndex": 5, "score": 16.75, "costs": -2.25, "simulationMode": [null, null, null, null, null], "rewards": [-2, 1, -8, 12, 16], "path": ["0", "0", "1", "2", "3", "4", "7"], "rt": [7292, 412, 490, 534, 215], "actions": ["up", "up", "up", "right", "down"], "actionTimes": [10414, 11366, 12400, 13475, 14269], "queries": {"click": {"state": {"target": ["1", "2", "7"], "time": [4105, 5112, 6146]}, "edge": {"target": [], "time": []}}, "mouseover": {"state": {"target": ["1", "2", "7", "4", "6"], "time": [3657, 4714, 5600, 6615, 7636]}, "edge": {"target": [], "time": []}}, "mouseout": {"state": {"target": ["0", "1", "2", "7", "4", "6"], "time": [3590, 4617, 5566, 6580, 7570, 17053]}, "edge": {"target": [], "time": []}}}, "displayed_time": "17.13", "trialTime": 19497, "trial_type": "mouselab-mdp", "trial_index": 16, "time_elapsed": 799203, "internal_node_id": "0.0-6.0-1.0-1.0"}}, {"uniqueid": "w21301062:a98958019", "current_trial": 17, "dateTime": 1693581088365, "trialdata": {"revealed_states": [], "clicked_states": ["13", "14", "19", "15", "18", "3", "8", "10"], "num_clicks_accrued": [0, 0, 0, 0, 0, 0, 0, 0, 0, 0, 0, 0, 0], "stateRewards": ["", 2, -1, -2, -5, -47, -57, -33, -11, 31, -18, -72, -2, 1, -4, -8, -46, -53, -50, 15, -85, -9, 39, -2, -2, 1, 14, -1, -8, 53, -12, -41, -74, 62], "withholdReward": false, "trial_id": "mdp_trial_3", "block": "test", "trialIndex": 6, "score": 52.8, "costs": -11.2, "simulationMode": [null, null, null, null, null], "rewards": [-2, -2, 1, 14, 53], "path": ["0", "0", "23", "24", "25", "26", "29"], "rt": [14310, 547, 992, 1408, 277], "actions": ["left", "left", "left", "up", "left"], "actionTimes": [17091, 18156, 19676, 21635, 22447], "queries": {"click": {"state": {"target": ["13", "14", "19", "15", "18", "3", "8", "10"], "time": [3812, 5217, 6144, 7176, 8188, 11267, 12574, 13925]}, "edge": {"target": [], "time": []}}, "mouseover": {"state": {"target": ["12", "13", "14", "19", "15", "18", "7", "2", "3", "8", "10", "28", "25"], "time": [3293, 3375, 4534, 5770, 6784, 7757, 8668, 9795, 10833, 12158, 13498, 14605, 15013]}, "edge": {"target": [], "time": []}}, "mouseout": {"state": {"target": ["12", "0", "12", "13", "14", "19", "15", "18", "7", "2", "3", "8", "8", "10", "28", "25"], "time": [841, 3247, 3325, 4288, 5732, 6351, 7672, 8555, 9724, 10693, 12111, 12834, 13407, 14142, 14669, 15999]}, "edge": {"target": [], "time": []}}}, "displayed_time": "22.96", "trialTime": 27751, "trial_type": "mouselab-mdp", "trial_index": 17, "time_elapsed": 828681, "internal_node_id": "0.0-6.0-1.0-2.0"}}, {"uniqueid": "w21301062:a98958019", "current_trial": 18, "dateTime": 1693581112695, "trialdata": {"revealed_states": [], "clicked_states": ["23", "28", "4"], "num_clicks_accrued": [0, 0, 0, 0, 0, 0, 0, 0, 0, 0, 0, 0, 0], "stateRewards": ["", -2, -3, 7, -13, 60, 9, 37, -6, 37, 20, 1, 2, -2, -8, 6, -80, -31, -10, -7, 70, -65, -44, -1, 1, 7, 6, -11, 73, -85, 16, -21, 47, 34], "withholdReward": false, "trial_id": "mdp_trial_4", "block": "test", "trialIndex": 7, "score": 82.55, "costs": -3.45, "simulationMode": [null, null, null, null, null], "rewards": [-1, 1, 7, 6, 73], "path": ["0", "0", "23", "24", "25", "26", "28"], "rt": [6965, 939, 677, 387, 422], "actions": ["left", "left", "left", "up", "right"], "actionTimes": [9963, 11511, 12732, 13646, 14599], "queries": {"click": {"state": {"target": ["23", "28", "4"], "time": [3986, 5019, 8654]}, "edge": {"target": [], "time": []}}, "mouseover": {"state": {"target": ["23", "28", "10", "2", "3", "4"], "time": [3601, 4622, 5649, 5852, 6884, 8145]}, "edge": {"target": [], "time": []}}, "mouseout": {"state": {"target": ["0", "23", "28", "10", "2", "3"], "time": [3508, 4462, 5537, 5784, 6872, 8076]}, "edge": {"target": [], "time": []}}}, "displayed_time": "17.00", "trialTime": 22635, "trial_type": "mouselab-mdp", "trial_index": 18, "time_elapsed": 853011, "internal_node_id": "0.0-6.0-1.0-3.0"}}, {"uniqueid": "w21301062:a98958019", "current_trial": 19, "dateTime": 1693581138695, "trialdata": {"revealed_states": [], "clicked_states": ["1", "2", "7"], "num_clicks_accrued": [0, 0, 0, 0, 0, 0, 0, 0, 0, 0, 0, 0, 0], "stateRewards": ["", 2, 4, 7, -6, -76, -81, 2, 5, -66, -3, 36, -2, -4, 6, -2, -69, 4, -49, -6, 67, 38, -67, 2, 1, 1, 6, -68, -21, 52, -16, -16, 6, -70], "withholdReward": false, "trial_id": "mdp_trial_5", "block": "test", "trialIndex": 8, "score": 29.75, "costs": -2.25, "simulationMode": [null, null, null, null, null], "rewards": [-2, -4, 6, -6, 38], "path": ["0", "0", "12", "13", "14", "19", "21"], "rt": [9519, 1087, 984, 376, 413], "actions": ["right", "right", "right", "down", "down"], "actionTimes": [12797, 14461, 16046, 16971, 17936], "queries": {"click": {"state": {"target": ["1", "2", "7"], "time": [4685, 5914, 6968]}, "edge": {"target": [], "time": []}}, "mouseover": {"state": {"target": ["1", "2", "7", "4", "3"], "time": [4235, 5492, 6527, 7834, 9214]}, "edge": {"target": [], "time": []}}, "mouseout": {"state": {"target": ["4", "7", "1", "1", "2", "7", "4", "3"], "time": [984, 1083, 1284, 5400, 6455, 7610, 9104, 22048]}, "edge": {"target": [], "time": []}}}, "displayed_time": "18.46", "trialTime": 24237, "trial_type": "mouselab-mdp", "trial_index": 19, "time_elapsed": 879011, "internal_node_id": "0.0-6.0-1.0-4.0"}}, {"uniqueid": "w21301062:a98958019", "current_trial": 20, "dateTime": 1693581161384, "trialdata": {"revealed_states": [], "clicked_states": ["24", "26", "2", "3"], "num_clicks_accrued": [0, 0, 0, 0, 0, 0, 0, 0, 0, 0, 0, 0, 0], "stateRewards": ["", 1, 2, -3, -5, 66, -50, -47, -5, 1, 28, -27, 1, 1, -1, -6, 37, -25, 56, 1, -82, -66, -40, -1, -4, -7, 15, -61, -23, 26, 10, 14, -56, 29], "withholdReward": false, "trial_id": "mdp_trial_6", "block": "test", "trialIndex": 9, "score": 25.8, "costs": -3.2, "simulationMode": [null, null, null, null, null], "rewards": [-1, -4, -7, 15, 26], "path": ["0", "0", "23", "24", "25", "26", "29"], "rt": [6370, 630, 684, 370, 329], "actions": ["left", "left", "left", "up", "left"], "actionTimes": [9562, 10712, 11945, 12874, 13778], "queries": {"click": {"state": {"target": ["24", "26", "2", "3"], "time": [4347, 5547, 6752, 8136]}, "edge": {"target": [], "time": []}}, "mouseover": {"state": {"target": ["23", "24", "26", "10", "2", "2", "3"], "time": [3790, 4097, 5178, 6033, 6135, 6376, 7691]}, "edge": {"target": [], "time": []}}, "mouseout": {"state": {"target": ["14", "13", "12", "0", "0", "23", "24", "26", "10", "2", "2"], "time": [1023, 1173, 1398, 1540, 3757, 4087, 4885, 6020, 6121, 6173, 7518]}, "edge": {"target": [], "time": []}}}, "displayed_time": "17.19", "trialTime": 20571, "trial_type": "mouselab-mdp", "trial_index": 20, "time_elapsed": 901700, "internal_node_id": "0.0-6.0-1.0-5.0"}}, {"uniqueid": "w21301062:a98958019", "current_trial": 21, "dateTime": 1693581185870, "trialdata": {"revealed_states": [], "clicked_states": ["2", "3", "8", "26", "25", "30"], "num_clicks_accrued": [0, 0, 0, 0, 0, 0, 0, 0, 0, 0, 0, 0, 0], "stateRewards": ["", 1, 4, -8, -13, -13, -87, -77, -10, -44, 54, 42, 2, -3, -4, 12, -9, -80, 52, 9, 84, -2, -65, 1, -4, -5, -6, 8, 80, 32, 13, -59, -5, -13], "withholdReward": false, "trial_id": "mdp_trial_7", "block": "test", "trialIndex": 10, "score": -6.899999999999999, "costs": -6.8999999999999995, "simulationMode": [null, null, null, null, null], "rewards": [1, -4, -5, 13, -5], "path": ["0", "0", "23", "24", "25", "30", "32"], "rt": [9249, 775, 534, 264, 663], "actions": ["left", "left", "left", "down", "down"], "actionTimes": [12243, 13566, 14638, 15479, 16753], "queries": {"click": {"state": {"target": ["2", "3", "8", "26", "25", "30"], "time": [4190, 5375, 6494, 7950, 8982, 10049]}, "edge": {"target": [], "time": []}}, "mouseover": {"state": {"target": ["1", "2", "3", "8", "26", "25", "30", "31"], "time": [3557, 3824, 5106, 6104, 7541, 8580, 9592, 10999]}, "edge": {"target": [], "time": []}}, "mouseout": {"state": {"target": ["3", "1", "2", "3", "8", "26", "25", "30", "30"], "time": [1272, 3690, 4804, 6044, 7264, 8535, 9472, 10258, 10722]}, "edge": {"target": [], "time": []}}}, "displayed_time": "17.35", "trialTime": 22647, "trial_type": "mouselab-mdp", "trial_index": 21, "time_elapsed": 926186, "internal_node_id": "0.0-6.0-1.0-6.0"}}, {"uniqueid": "w21301062:a98958019", "current_trial": 22, "dateTime": 1693581209746, "trialdata": {"revealed_states": [], "clicked_states": ["14", "19", "22", "7"], "num_clicks_accrued": [0, 0, 0, 0, 0, 0, 0, 0, 0, 0, 0, 0, 0], "stateRewards": ["", -2, 2, 8, -6, -25, 3, 87, 2, -62, -2, 74, -2, -1, 2, -1, 79, 49, -37, -14, 5, 67, -9, -1, 2, -2, 5, 15, 38, 32, -14, -38, -38, 30], "withholdReward": false, "trial_id": "mdp_trial_8", "block": "test", "trialIndex": 11, "score": 82.2, "costs": -6.800000000000001, "simulationMode": [null, null, null, null, null], "rewards": [-2, 2, 8, -6, 87], "path": ["0", "0", "1", "2", "3", "4", "7"], "rt": [10591, 716, 561, 420, 390], "actions": ["up", "up", "up", "right", "down"], "actionTimes": [13523, 14777, 15971, 16928, 17856], "queries": {"click": {"state": {"target": ["14", "19", "22", "7"], "time": [4324, 5455, 6612, 9788]}, "edge": {"target": [], "time": []}}, "mouseover": {"state": {"target": ["14", "19", "22", "13", "18", "7", "3"], "time": [2997, 5035, 6092, 7210, 8419, 9372, 10791]}, "edge": {"target": [], "time": []}}, "mouseout": {"state": {"target": ["31", "23", "0", "14", "19", "22", "13", "18", "7"], "time": [624, 706, 2988, 4995, 6027, 7135, 8313, 9301, 10618]}, "edge": {"target": [], "time": []}}}, "displayed_time": "18.41", "trialTime": 21847, "trial_type": "mouselab-mdp", "trial_index": 22, "time_elapsed": 950062, "internal_node_id": "0.0-6.0-1.0-7.0"}}, {"uniqueid": "w21301062:a98958019", "current_trial": 23, "dateTime": 1693581238588, "trialdata": {"revealed_states": [], "clicked_states": ["24", "2", "13", "19", "15", "4", "8", "25", "30"], "num_clicks_accrued": [0, 0, 0, 0, 0, 0, 0, 0, 0, 0, 0, 0, 0], "stateRewards": ["", -1, -2, 8, -6, -79, -6, 87, 9, -5, -66, -38, 2, 2, 5, -6, -82, 74, 85, -8, 67, -30, -15, 1, -2, -2, -2, 87, 64, 49, 7, 2, -38, -9], "withholdReward": false, "trial_id": "mdp_trial_9", "block": "test", "trialIndex": 12, "score": -43.75, "costs": -9.75, "simulationMode": [null, null, null, null, null], "rewards": [1, -2, -2, 7, -38], "path": ["0", "0", "23", "24", "25", "30", "32"], "rt": [13909, 373, 525, 49, 263], "actions": ["left", "left", "left", "down", "down"], "actionTimes": [18121, 19035, 20095, 20683, 21507], "queries": {"click": {"state": {"target": ["24", "2", "13", "19", "15", "4", "8", "25", "30"], "time": [5348, 6558, 7909, 9101, 10401, 11917, 13344, 14560, 16129]}, "edge": {"target": [], "time": []}}, "mouseover": {"state": {"target": ["23", "24", "2", "13", "19", "15", "4", "3", "4", "3", "8", "26", "25", "30", "31"], "time": [4788, 5049, 6135, 7432, 8633, 9983, 11118, 11327, 11523, 12738, 12919, 14113, 14249, 15743, 16696]}, "edge": {"target": [], "time": []}}, "mouseout": {"state": {"target": ["3", "2", "1", "0", "23", "24", "2", "13", "19", "15", "4", "3", "4", "3", "8", "26", "25", "30", "31"], "time": [2419, 2486, 2686, 4754, 4882, 5917, 7019, 8416, 9919, 10618, 11206, 11487, 12657, 12852, 13823, 14161, 15719, 16683, 16733]}, "edge": {"target": [], "time": []}}}, "displayed_time": "22.03", "trialTime": 27259, "trial_type": "mouselab-mdp", "trial_index": 23, "time_elapsed": 978904, "internal_node_id": "0.0-6.0-1.0-8.0"}}, {"uniqueid": "w21301062:a98958019", "current_trial": 24, "dateTime": 1693581259302, "trialdata": {"revealed_states": [], "clicked_states": ["26", "3", "4", "15", "19", "30"], "num_clicks_accrued": [0, 0, 0, 0, 0, 0, 0, 0, 0, 0, 0, 0, 0], "stateRewards": ["", 2, -4, 1, -12, -59, -53, -74, 16, -88, -66, 66, 1, -2, 8, -9, -14, 22, 25, -1, -39, 47, -14, -1, -1, -2, 1, -4, 52, -26, 15, -7, 46, 43], "withholdReward": false, "trial_id": "mdp_trial_10", "block": "test", "trialIndex": 13, "score": -4.699999999999999, "costs": -8.7, "simulationMode": [null, null, null, null, null], "rewards": [-1, -1, -2, 15, -7], "path": ["0", "0", "23", "24", "25", "30", "31"], "rt": [9041, 428, 459, 254, 241], "actions": ["left", "left", "left", "down", "right"], "actionTimes": [11701, 12668, 13670, 14444, 15238], "queries": {"click": {"state": {"target": ["26", "3", "4", "15", "19", "30"], "time": [3785, 5105, 6194, 7393, 8621, 10097]}, "edge": {"target": [], "time": []}}, "mouseover": {"state": {"target": ["28", "26", "10", "3", "4", "15", "14", "19", "22", "30", "31"], "time": [2738, 3345, 4361, 4671, 5741, 7007, 7961, 8294, 9385, 9709, 10878]}, "edge": {"target": [], "time": []}}, "mouseout": {"state": {"target": ["0", "28", "26", "10", "3", "4", "15", "14", "19", "22", "30", "31"], "time": [2713, 2863, 4011, 4412, 5668, 6723, 7911, 8119, 9369, 9422, 10867, 10967]}, "edge": {"target": [], "time": []}}}, "displayed_time": "16.66", "trialTime": 18770, "trial_type": "mouselab-mdp", "trial_index": 24, "time_elapsed": 999618, "internal_node_id": "0.0-6.0-1.0-9.0"}}, {"uniqueid": "w21301062:a98958019", "current_trial": 25, "dateTime": 1693581292039, "trialdata": {"revealed_states": [], "clicked_states": ["26", "30", "3", "4"], "num_clicks_accrued": [0, 0, 0, 0, 0, 0, 0, 0, 0, 0, 0, 0, 0], "stateRewards": ["", -1, 3, 8, 9, -53, 20, -84, 2, -28, -62, -31, -1, -2, -7, 2, 51, 58, 45, -4, -17, -41, 36, 2, -2, -7, -15, 29, -54, -37, -16, -43, 65, -17], "withholdReward": false, "trial_id": "mdp_trial_11", "block": "test", "trialIndex": 14, "score": -39.6, "costs": -5.6, "simulationMode": [null, null, null, null, null], "rewards": [-1, 3, 8, 9, -53], "path": ["0", "0", "1", "2", "3", "4", "5"], "rt": [7009, 943, 875, 1131, 417], "actions": ["up", "up", "up", "right", "up"], "actionTimes": [20564, 22040, 23462, 25133, 26097], "queries": {"click": {"state": {"target": ["26", "30", "3", "4"], "time": [14819, 15923, 17304, 18331]}, "edge": {"target": [], "time": []}}, "mouseover": {"state": {"target": ["28", "26", "25", "30", "2", "3", "4", "6", "16"], "time": [14191, 14408, 15403, 15545, 16544, 16887, 17895, 18806, 19405]}, "edge": {"target": [], "time": []}}, "mouseout": {"state": {"target": ["0", "28", "26", "25", "30", "2", "3", "4", "6"], "time": [14052, 14240, 15351, 15442, 16364, 16753, 17833, 18767, 18889]}, "edge": {"target": [], "time": []}}}, "displayed_time": "27.56", "trialTime": 31028, "trial_type": "mouselab-mdp", "trial_index": 25, "time_elapsed": 1032355, "internal_node_id": "0.0-6.0-1.0-10.0"}}, {"uniqueid": "w21301062:a98958019", "current_trial": 26, "dateTime": 1693581317882, "trialdata": {"revealed_states": [], "clicked_states": ["12", "14", "19", "30", "26", "8", "4"], "num_clicks_accrued": [0, 0, 0, 0, 0, 0, 0, 0, 0, 0, 0, 0, 0], "stateRewards": ["", 2, -4, 7, 3, 23, -42, 4, 7, -81, -33, 7, -2, -4, 5, -1, 50, -57, -14, -13, -14, 44, 55, -2, -2, 5, -2, 33, 1, 57, -13, -7, 58, 87], "withholdReward": false, "trial_id": "mdp_trial_12", "block": "test", "trialIndex": 15, "score": 10.55, "costs": -8.45, "simulationMode": [null, null, null, null, null], "rewards": [2, -4, 7, 7, 7], "path": ["0", "0", "1", "2", "3", "8", "11"], "rt": [10423, 534, 371, 563, 216], "actions": ["up", "up", "up", "left", "left"], "actionTimes": [13210, 14273, 15191, 16279, 17043], "queries": {"click": {"state": {"target": ["12", "14", "19", "30", "26", "8", "4"], "time": [4315, 5524, 6577, 7971, 9142, 10470, 11533]}, "edge": {"target": [], "time": []}}, "mouseover": {"state": {"target": ["18", "12", "13", "14", "19", "30", "25", "26", "8", "3", "4"], "time": [3352, 3936, 4887, 5078, 6239, 7491, 8621, 8817, 10102, 10919, 11003]}, "edge": {"target": [], "time": []}}, "mouseout": {"state": {"target": ["16", "18", "0", "18", "12", "13", "14", "19", "30", "25", "26", "8", "3"], "time": [654, 717, 2874, 3469, 4837, 4975, 6086, 6806, 8215, 8699, 9600, 10880, 10970]}, "edge": {"target": [], "time": []}}}, "displayed_time": "17.59", "trialTime": 23939, "trial_type": "mouselab-mdp", "trial_index": 26, "time_elapsed": 1058198, "internal_node_id": "0.0-6.0-1.0-11.0"}}, {"uniqueid": "w21301062:a98958019", "current_trial": 27, "dateTime": 1693581342313, "trialdata": {"revealed_states": [], "clicked_states": ["14", "19"], "num_clicks_accrued": [0, 0, 0, 0, 0, 0, 0, 0, 0, 0, 0, 0, 0], "stateRewards": ["", -1, -2, -8, 8, -27, -82, 19, -14, -62, 4, 1, -2, 2, 6, 10, 73, -51, -2, 2, 73, -48, 54, -1, 2, -4, 11, -25, 47, 86, 15, 33, 43, -42], "withholdReward": false, "trial_id": "mdp_trial_13", "block": "test", "trialIndex": 16, "score": 59.5, "costs": -2.5, "simulationMode": [null, null, null, null, null], "rewards": [-2, 2, 6, 2, 54], "path": ["0", "0", "12", "13", "14", "19", "22"], "rt": [3651, 828, 265, 503, 372], "actions": ["right", "right", "right", "down", "left"], "actionTimes": [6126, 7488, 8314, 9362, 10271], "queries": {"click": {"state": {"target": ["14", "19"], "time": [3615, 4853]}, "edge": {"target": [], "time": []}}, "mouseover": {"state": {"target": ["14", "19"], "time": [3131, 4446]}, "edge": {"target": [], "time": []}}, "mouseout": {"state": {"target": ["4", "1", "14"], "time": [646, 963, 4177]}, "edge": {"target": [], "time": []}}}, "displayed_time": "16.48", "trialTime": 22523, "trial_type": "mouselab-mdp", "trial_index": 27, "time_elapsed": 1082629, "internal_node_id": "0.0-6.0-1.0-12.0"}}, {"uniqueid": "w21301062:a98958019", "current_trial": 28, "dateTime": 1693581365093, "trialdata": {"revealed_states": [], "clicked_states": ["2", "26", "30", "15", "19"], "num_clicks_accrued": [0, 0, 0, 0, 0, 0, 0, 0, 0, 0, 0, 0, 0], "stateRewards": ["", -1, -3, 3, 5, 56, 39, 50, -1, -80, 33, -46, 1, -2, -6, -8, 87, 48, 54, -11, -20, -64, -54, -2, 3, -7, -3, 12, 88, 35, -16, -46, -70, -3], "withholdReward": false, "trial_id": "mdp_trial_14", "block": "test", "trialIndex": 17, "score": 53.45, "costs": -6.55, "simulationMode": [null, null, null, null, null], "rewards": [-1, -3, 3, 5, 56], "path": ["0", "0", "1", "2", "3", "4", "5"], "rt": [8890, 142, 396, 138, 150], "actions": ["up", "up", "up", "right", "up"], "actionTimes": [11734, 12401, 13338, 14005, 14687], "queries": {"click": {"state": {"target": ["2", "26", "30", "15", "19"], "time": [3979, 5248, 6538, 8077, 9174]}, "edge": {"target": [], "time": []}}, "mouseover": {"state": {"target": ["23", "24", "2", "28", "26", "25", "30", "3", "6", "16", "15", "14", "19"], "time": [2932, 3074, 3456, 4675, 4816, 5914, 6228, 7112, 7325, 7431, 7651, 8646, 8864]}, "edge": {"target": [], "time": []}}, "mouseout": {"state": {"target": ["19", "22", "0", "23", "24", "2", "28", "26", "25", "30", "3", "6", "16", "15", "14"], "time": [820, 1219, 2920, 3023, 3306, 4502, 4772, 5873, 6041, 6984, 7186, 7365, 7517, 8606, 8767]}, "edge": {"target": [], "time": []}}}, "displayed_time": "16.85", "trialTime": 20999, "trial_type": "mouselab-mdp", "trial_index": 28, "time_elapsed": 1105409, "internal_node_id": "0.0-6.0-1.0-13.0"}}, {"uniqueid": "w21301062:a98958019", "current_trial": 29, "dateTime": 1693581389606, "trialdata": {"revealed_states": [], "clicked_states": ["24", "26", "30", "32"], "num_clicks_accrued": [0, 0, 0, 0, 0, 0, 0, 0, 0, 0, 0, 0, 0], "stateRewards": ["", -2, 3, 8, -9, 59, 41, -50, -1, 82, 66, 33, 2, -2, 7, 8, 1, -38, 12, -16, 24, -37, 67, 1, 4, -2, 5, 35, -83, 28, 8, -27, 69, -64], "withholdReward": false, "trial_id": "mdp_trial_15", "block": "test", "trialIndex": 18, "score": 74.4, "costs": -5.6, "simulationMode": [null, null, null, null, null, null], "rewards": [1, 4, -2, 8, 69], "path": ["0", "0", "23", "24", "25", "30", "32"], "rt": [7451, 2759, 248, 295, 139, 138], "actions": ["left", "left", "left", "left", "down", "down"], "actionTimes": [11214, 13984, 14761, 15625, 16306, 16996], "queries": {"click": {"state": {"target": ["24", "26", "30", "32"], "time": [5099, 6267, 7619, 9428]}, "edge": {"target": [], "time": []}}, "mouseover": {"state": {"target": ["23", "24", "26", "25", "30", "32"], "time": [4552, 4637, 5753, 6777, 7102, 8370]}, "edge": {"target": [], "time": []}}, "mouseout": {"state": {"target": ["19", "0", "23", "24", "26", "25", "30"], "time": [618, 4519, 4589, 5580, 6733, 6901, 8315]}, "edge": {"target": [], "time": []}}}, "displayed_time": "17.77", "trialTime": 22565, "trial_type": "mouselab-mdp", "trial_index": 29, "time_elapsed": 1129922, "internal_node_id": "0.0-6.0-1.0-14.0"}}, {"uniqueid": "w21301062:a98958019", "current_trial": 30, "dateTime": 1693581415931, "trialdata": {"revealed_states": [], "clicked_states": [], "num_clicks_accrued": [0, 0, 0, 0, 0, 0, 0, 0, 0, 0, 0, 0, 0], "stateRewards": ["", -2, -1, 3, -3, 71, -58, -21, 7, -10, -75, -37, 2, 4, -1, -12, -79, -29, -48, 3, -41, -10, -30, -1, -2, 1, -15, 13, 66, 22, -1, -42, -86, -55], "withholdReward": false, "trial_id": "mdp_trial_16", "block": "test", "trialIndex": 19, "score": 68, "costs": 0, "simulationMode": [null, null, null, null, null], "rewards": [-2, -1, 3, -3, 71], "path": ["0", "0", "1", "2", "3", "4", "5"], "rt": [11732, 46, 306, 310, 128], "actions": ["up", "up", "up", "right", "up"], "actionTimes": [15442, 16047, 16906, 17817, 18489], "queries": {"click": {"state": {"target": [], "time": []}, "edge": {"target": [], "time": []}}, "mouseover": {"state": {"target": ["23", "24"], "time": [10002, 10719]}, "edge": {"target": [], "time": []}}, "mouseout": {"state": {"target": ["32", "0", "23"], "time": [1749, 9953, 10651]}, "edge": {"target": [], "time": []}}}, "displayed_time": "19.05", "trialTime": 24196, "trial_type": "mouselab-mdp", "trial_index": 30, "time_elapsed": 1156247, "internal_node_id": "0.0-6.0-1.0-15.0"}}, {"uniqueid": "w21301062:a98958019", "current_trial": 31, "dateTime": 1693581441465, "trialdata": {"revealed_states": [], "clicked_states": ["25", "26", "3", "4"], "num_clicks_accrued": [0, 0, 0, 0, 0, 0, 0, 0, 0, 0, 0, 0, 0], "stateRewards": ["", 1, -2, 4, 7, -43, -83, -60, -5, -86, -80, 83, -1, -2, 6, 11, -15, 21, 13, 9, 29, -49, 11, -1, 4, -6, -11, 87, 40, 63, -8, -39, -11, 62], "withholdReward": false, "trial_id": "mdp_trial_17", "block": "test", "trialIndex": 20, "score": -78, "costs": -5, "simulationMode": [null, null, null, null, null], "rewards": [1, -2, 4, 7, -83], "path": ["0", "0", "1", "2", "3", "4", "6"], "rt": [5545, 293, 416, 211, 729], "actions": ["up", "up", "up", "right", "right"], "actionTimes": [10487, 11315, 12286, 13028, 14308], "queries": {"click": {"state": {"target": ["25", "26", "3", "4"], "time": [6012, 6986, 8098, 9072]}, "edge": {"target": [], "time": []}}, "mouseover": {"state": {"target": ["23", "24", "25", "26", "3", "4"], "time": [5137, 5291, 5553, 6555, 7622, 8674]}, "edge": {"target": [], "time": []}}, "mouseout": {"state": {"target": ["0", "23", "24", "25", "26", "3"], "time": [5103, 5205, 5446, 6451, 7382, 8569]}, "edge": {"target": [], "time": []}}}, "displayed_time": "18.95", "trialTime": 22589, "trial_type": "mouselab-mdp", "trial_index": 31, "time_elapsed": 1181781, "internal_node_id": "0.0-6.0-1.0-16.0"}}, {"uniqueid": "w21301062:a98958019", "current_trial": 32, "dateTime": 1693581469447, "trialdata": {"revealed_states": [], "clicked_states": ["14", "19", "2"], "num_clicks_accrued": [0, 0, 0, 0, 0, 0, 0, 0, 0, 0, 0, 0, 0], "stateRewards": ["", -1, 1, 6, -6, 70, 66, 67, -16, -75, -35, 37, -1, 4, 4, -6, 47, -9, 63, 15, 21, -63, 13, 1, 3, -6, 10, 79, -29, 18, -15, 9, -67, -19], "withholdReward": false, "trial_id": "mdp_trial_18", "block": "test", "trialIndex": 21, "score": -43.85, "costs": -2.85, "simulationMode": [null, null, null, null, null], "rewards": [-1, 4, 4, 15, -63], "path": ["0", "0", "12", "13", "14", "19", "21"], "rt": [6521, 1178, 1131, 314, 977], "actions": ["right", "right", "right", "down", "down"], "actionTimes": [9474, 11194, 12857, 13696, 15212], "queries": {"click": {"state": {"target": ["14", "19", "2"], "time": [4013, 5259, 8075]}, "edge": {"target": [], "time": []}}, "mouseover": {"state": {"target": ["14", "19", "12", "1", "2"], "time": [3558, 4820, 7390, 7525, 7690]}, "edge": {"target": [], "time": []}}, "mouseout": {"state": {"target": ["4", "2", "1", "14", "19", "12", "1", "2", "10", "0"], "time": [942, 1121, 1272, 4621, 7307, 7428, 7561, 24389, 24465, 25302]}, "edge": {"target": [], "time": []}}}, "displayed_time": "16.95", "trialTime": 26098, "trial_type": "mouselab-mdp", "trial_index": 32, "time_elapsed": 1209763, "internal_node_id": "0.0-6.0-1.0-17.0"}}, {"uniqueid": "w21301062:a98958019", "current_trial": 33, "dateTime": 1693581498023, "trialdata": {"revealed_states": [], "clicked_states": ["25", "30", "32", "28"], "num_clicks_accrued": [0, 0, 0, 0, 0, 0, 0, 0, 0, 0, 0, 0, 0], "stateRewards": ["", 2, 4, -3, 16, -58, 30, -35, 11, -60, 47, 27, -2, -1, -7, -16, 23, -70, 68, -10, -65, -43, -34, -2, 1, 7, 9, -63, 34, -31, -8, -12, -86, 59], "withholdReward": false, "trial_id": "mdp_trial_19", "block": "test", "trialIndex": 22, "score": 42.2, "costs": -6.800000000000001, "simulationMode": [null, null, null, null, null], "rewards": [-2, 1, 7, 9, 34], "path": ["0", "0", "23", "24", "25", "26", "28"], "rt": [11421, 494, 390, 137, 210], "actions": ["left", "left", "left", "up", "right"], "actionTimes": [17245, 18273, 19196, 19862, 20602], "queries": {"click": {"state": {"target": ["25", "30", "32", "28"], "time": [6840, 7903, 9080, 12094]}, "edge": {"target": [], "time": []}}, "mouseover": {"state": {"target": ["25", "30", "32", "31", "26", "28", "11", "9"], "time": [5917, 7484, 8963, 10141, 11462, 11604, 12993, 14164]}, "edge": {"target": [], "time": []}}, "mouseout": {"state": {"target": ["0", "25", "30", "32", "31", "26", "28", "11"], "time": [5884, 7401, 8565, 9597, 11191, 11514, 12725, 13997]}, "edge": {"target": [], "time": []}}}, "displayed_time": "21.16", "trialTime": 26322, "trial_type": "mouselab-mdp", "trial_index": 33, "time_elapsed": 1238339, "internal_node_id": "0.0-6.0-1.0-18.0"}}, {"uniqueid": "w21301062:a98958019", "current_trial": 34, "dateTime": 1693581524556, "trialdata": {"revealed_states": [], "clicked_states": ["25", "28", "6"], "num_clicks_accrued": [0, 0, 0, 0, 0, 0, 0, 0, 0, 0, 0, 0, 0], "stateRewards": ["", -2, -1, -1, 5, -54, -87, 35, 2, -8, 20, -22, 1, 3, 6, 13, -75, -32, -55, -3, 56, 62, -22, -1, -4, -1, -7, -51, 84, 70, 7, -15, 5, 55], "withholdReward": false, "trial_id": "mdp_trial_20", "block": "test", "trialIndex": 23, "score": 65.75, "costs": -5.25, "simulationMode": [null, null, null, null, null, null], "rewards": [-1, -4, -1, -7, 84], "path": ["0", "0", "23", "24", "25", "26", "28"], "rt": [7857, 2252, 316, 362, 330, 159], "actions": ["left", "left", "left", "left", "up", "right"], "actionTimes": [12407, 14669, 15508, 16424, 17296, 17982], "queries": {"click": {"state": {"target": ["25", "28", "6"], "time": [6189, 7322, 11144]}, "edge": {"target": [], "time": []}}, "mouseover": {"state": {"target": ["23", "24", "25", "28", "10", "11", "5", "6"], "time": [5586, 5690, 5937, 6860, 7847, 8120, 9144, 10668]}, "edge": {"target": [], "time": []}}, "mouseout": {"state": {"target": ["9", "3", "4", "1", "23", "24", "25", "28", "10", "11", "5"], "time": [1101, 1201, 1335, 2868, 5638, 5737, 6431, 7684, 7901, 8979, 10451]}, "edge": {"target": [], "time": []}}}, "displayed_time": "18.55", "trialTime": 24251, "trial_type": "mouselab-mdp", "trial_index": 34, "time_elapsed": 1264872, "internal_node_id": "0.0-6.0-1.0-19.0"}}, {"uniqueid": "w21301062:a98958019", "current_trial": 35, "dateTime": 1693581572564, "trialdata": {"revealed_states": [], "clicked_states": ["2", "4", "16"], "num_clicks_accrued": [0, 0, 0, 0, 0, 0, 0, 0, 0, 0, 0, 0, 0], "stateRewards": ["", 2, -3, -4, -1, 25, -16, 16, 10, -71, -20, -55, 1, 3, -4, -9, 1, 32, 11, -6, 32, -50, -41, -1, 4, 4, -8, 7, -81, 70, 2, -52, 45, -10], "withholdReward": false, "trial_id": "mdp_trial_21", "block": "test", "trialIndex": 24, "score": -51.05, "costs": -4.05, "simulationMode": [null, null, null, null, null], "rewards": [1, 3, -4, -6, -41], "path": ["0", "0", "12", "13", "14", "19", "22"], "rt": [8634, 706, 605, 157, 272], "actions": ["right", "right", "right", "down", "left"], "actionTimes": [36484, 37742, 38895, 39609, 40458], "queries": {"click": {"state": {"target": ["2", "4", "16"], "time": [28893, 29891, 31083]}, "edge": {"target": [], "time": []}}, "mouseover": {"state": {"target": ["1", "2", "4", "6", "16", "17", "20", "19"], "time": [28352, 28437, 29422, 30446, 30618, 31652, 33053, 34328]}, "edge": {"target": [], "time": []}}, "mouseout": {"state": {"target": ["6", "1", "2", "4", "6", "16", "17", "20", "19"], "time": [25850, 28401, 29350, 30115, 30533, 31540, 32786, 34292, 34521]}, "edge": {"target": [], "time": []}}}, "displayed_time": "41.87", "trialTime": 45904, "trial_type": "mouselab-mdp", "trial_index": 35, "time_elapsed": 1312880, "internal_node_id": "0.0-6.0-1.0-20.0"}}, {"uniqueid": "w21301062:a98958019", "current_trial": 36, "dateTime": 1693581610262, "trialdata": {"revealed_states": [], "clicked_states": ["2", "16", "24", "28", "32", "9"], "num_clicks_accrued": [0, 0, 0, 0, 0, 0, 0, 0, 0, 0, 0, 0, 0], "stateRewards": ["", -2, -3, 8, 14, -73, 73, 84, -12, -2, -50, -17, 2, 1, -2, -9, -44, -27, -33, 16, -63, -47, -66, -2, 1, 4, -5, -33, -11, 50, 9, 38, -79, 31], "withholdReward": false, "trial_id": "mdp_trial_22", "block": "test", "trialIndex": 25, "score": -65.3, "costs": -9.3, "simulationMode": [null, null, null, null, null], "rewards": [-2, -3, 8, 14, -73], "path": ["0", "0", "1", "2", "3", "4", "5"], "rt": [22240, 189, 717, 378, 9], "actions": ["up", "up", "up", "right", "up"], "actionTimes": [25121, 25932, 27194, 28136, 28713], "queries": {"click": {"state": {"target": ["2", "16", "24", "28", "32", "9"], "time": [4183, 5442, 9753, 10782, 13578, 17300]}, "edge": {"target": [], "time": []}}, "mouseover": {"state": {"target": ["1", "2", "7", "16", "18", "13", "22", "24", "28", "30", "33", "32", "31", "24", "11", "9", "5", "6", "15", "14"], "time": [3637, 3787, 4719, 5066, 6095, 7288, 7714, 9136, 10350, 11518, 11786, 13169, 14415, 15238, 15663, 16794, 18234, 19460, 21150, 21217]}, "edge": {"target": [], "time": []}}, "mouseout": {"state": {"target": ["0", "1", "2", "7", "16", "18", "13", "22", "24", "28", "30", "33", "32", "31", "24", "28", "11", "9", "5", "6", "15", "14"], "time": [3503, 3704, 4708, 4769, 5930, 7278, 7447, 8753, 10230, 11403, 11678, 12904, 14294, 15228, 15292, 15336, 16765, 17780, 19104, 20999, 21179, 21248]}, "edge": {"target": [], "time": []}}}, "displayed_time": "29.30", "trialTime": 35677, "trial_type": "mouselab-mdp", "trial_index": 36, "time_elapsed": 1350578, "internal_node_id": "0.0-6.0-1.0-21.0"}}, {"uniqueid": "w21301062:a98958019", "current_trial": 37, "dateTime": 1693581642955, "trialdata": {"revealed_states": [], "clicked_states": ["23", "24", "25", "32", "5"], "num_clicks_accrued": [0, 0, 0, 0, 0, 0, 0, 0, 0, 0, 0, 0, 0], "stateRewards": ["", 2, -3, 5, 11, -79, 54, 11, -9, -78, 33, 22, -2, -1, 2, 14, 43, 34, 1, 10, 49, -65, 39, -1, 1, -1, 3, -16, -2, 11, 2, 12, 48, -65], "withholdReward": false, "trial_id": "mdp_trial_23", "block": "test", "trialIndex": 26, "score": 41.65, "costs": -5.35, "simulationMode": [null, null, null, null, null], "rewards": [-2, -1, 2, 14, 34], "path": ["0", "0", "12", "13", "14", "15", "17"], "rt": [16596, 146, 284, 216, 19], "actions": ["right", "right", "right", "up", "right"], "actionTimes": [19806, 20656, 21494, 22251, 22870], "queries": {"click": {"state": {"target": ["23", "24", "25", "32", "5"], "time": [4633, 5849, 6970, 8357, 13756]}, "edge": {"target": [], "time": []}}, "mouseover": {"state": {"target": ["23", "24", "25", "30", "32", "30", "28", "11", "8", "5", "6", "16"], "time": [4200, 5461, 6546, 7828, 7995, 8851, 9134, 10351, 12798, 13181, 14730, 15009]}, "edge": {"target": [], "time": []}}, "mouseout": {"state": {"target": ["19", "22", "0", "23", "24", "25", "30", "32", "30", "28", "11", "8", "5", "6"], "time": [1301, 1398, 3880, 5199, 6476, 7779, 7941, 8836, 8901, 10051, 12763, 12835, 14606, 14817]}, "edge": {"target": [], "time": []}}}, "displayed_time": "23.40", "trialTime": 30109, "trial_type": "mouselab-mdp", "trial_index": 37, "time_elapsed": 1383271, "internal_node_id": "0.0-6.0-1.0-22.0"}}, {"uniqueid": "w21301062:a98958019", "current_trial": 38, "dateTime": 1693581665625, "trialdata": {"revealed_states": [], "clicked_states": ["25", "32"], "num_clicks_accrued": [0, 0, 0, 0, 0, 0, 0, 0, 0, 0, 0, 0, 0], "stateRewards": ["", -1, 3, -5, -2, -13, -9, -34, -7, -81, 32, 35, -2, -2, 1, -14, -32, 81, 7, 4, 82, 56, -8, -1, 3, -8, 6, -24, -24, -53, 2, 38, 61, 54], "withholdReward": false, "trial_id": "mdp_trial_24", "block": "test", "trialIndex": 27, "score": 53.9, "costs": -3.0999999999999996, "simulationMode": [null, null, null, null, null], "rewards": [-1, 3, -8, 2, 61], "path": ["0", "0", "23", "24", "25", "30", "32"], "rt": [7363, 275, 396, 260, 135], "actions": ["left", "left", "left", "down", "down"], "actionTimes": [11588, 12399, 13355, 14157, 14875], "queries": {"click": {"state": {"target": ["25", "32"], "time": [5746, 7090]}, "edge": {"target": [], "time": []}}, "mouseover": {"state": {"target": ["23", "24", "25", "30", "32", "21", "20"], "time": [5073, 5173, 5339, 6459, 6744, 7769, 9173]}, "edge": {"target": [], "time": []}}, "mouseout": {"state": {"target": ["16", "0", "23", "24", "25", "30", "32", "21", "20"], "time": [1039, 5007, 5122, 5256, 6352, 6655, 7493, 8967, 10389]}, "edge": {"target": [], "time": []}}}, "displayed_time": "18.23", "trialTime": 20545, "trial_type": "mouselab-mdp", "trial_index": 38, "time_elapsed": 1405941, "internal_node_id": "0.0-6.0-1.0-23.0"}}, {"uniqueid": "w21301062:a98958019", "current_trial": 39, "dateTime": 1693581689517, "trialdata": {"revealed_states": [], "clicked_states": ["4", "16"], "num_clicks_accrued": [0, 0, 0, 0, 0, 0, 0, 0, 0, 0, 0, 0, 0], "stateRewards": ["", -1, -4, -3, 1, -45, -67, -24, 14, 32, 22, 22, -1, 1, -5, -7, 72, 84, -79, -5, 19, -40, -2, -1, -2, 8, -3, 84, -25, -28, 11, 64, -66, 77], "withholdReward": false, "trial_id": "mdp_trial_25", "block": "test", "trialIndex": 28, "score": 56.3, "costs": -3.7, "simulationMode": [null, null, null, null, null], "rewards": [-1, 1, -5, -7, 72], "path": ["0", "0", "12", "13", "14", "15", "16"], "rt": [8890, 293, 210, 92, 54], "actions": ["right", "right", "right", "up", "up"], "actionTimes": [13060, 13912, 14680, 15429, 16030], "queries": {"click": {"state": {"target": ["4", "16"], "time": [7037, 8320]}, "edge": {"target": [], "time": []}}, "mouseover": {"state": {"target": ["1", "2", "4", "16", "17", "20"], "time": [4974, 5290, 6507, 7785, 8965, 10557]}, "edge": {"target": [], "time": []}}, "mouseout": {"state": {"target": ["1", "2", "4", "16", "17", "20"], "time": [5137, 6389, 7505, 8849, 10106, 11661]}, "edge": {"target": [], "time": []}}}, "displayed_time": "18.17", "trialTime": 21512, "trial_type": "mouselab-mdp", "trial_index": 39, "time_elapsed": 1429834, "internal_node_id": "0.0-6.0-1.0-24.0"}}, {"uniqueid": "w21301062:a98958019", "current_trial": 40, "dateTime": 1693581714547, "trialdata": {"revealed_states": [], "clicked_states": [], "num_clicks_accrued": [0, 0, 0, 0, 0, 0, 0, 0, 0, 0, 0, 0, 0], "stateRewards": ["", 2, -3, -5, 5, 11, -9, -33, 6, 67, 6, -30, -1, -2, -6, 13, 55, 13, 72, -14, 75, 21, -66, -2, -4, 6, 15, -1, -35, 60, 2, 51, -73, 12], "withholdReward": false, "trial_id": "mdp_trial_26", "block": "test", "trialIndex": 29, "score": 75, "costs": 0, "simulationMode": [null, null, null, null, null], "rewards": [-2, -4, 6, 15, 60], "path": ["0", "0", "23", "24", "25", "26", "29"], "rt": [6489, 91, 201, 985, 624], "actions": ["left", "left", "left", "up", "left"], "actionTimes": [10558, 11199, 11945, 13447, 14601], "queries": {"click": {"state": {"target": [], "time": []}, "edge": {"target": [], "time": []}}, "mouseover": {"state": {"target": ["28", "26", "27", "29", "28", "0"], "time": [4131, 6599, 7060, 8148, 9103, 9199]}, "edge": {"target": [], "time": []}}, "mouseout": {"state": {"target": ["21", "22", "12", "0", "28", "26", "27", "29", "28", "0"], "time": [1930, 1983, 2188, 4119, 6044, 6949, 8049, 9034, 9156, 9236]}, "edge": {"target": [], "time": []}}}, "displayed_time": "18.07", "trialTime": 23072, "trial_type": "mouselab-mdp", "trial_index": 40, "time_elapsed": 1454863, "internal_node_id": "0.0-6.0-1.0-25.0"}}], "questiondata": {"params": {"CODE": "C6DMOQA6", "MIN_TIME": 14, "inspectCost": 1, "startTime": "Fri Sep 01 2023 16:57:36 GMT+0200 (South Africa Standard Time)", "bonusRate": 0.002, "variance": "1_2_4_8_44", "branching": "31123"}}, "eventdata": [{"eventtype": "initialized", "value": null, "timestamp": 1693580255179, "interval": 0}, {"eventtype": "window_resize", "value": [1366, 670], "timestamp": 1693580255179, "interval": 0}, {"eventtype": "window_resize", "value": [1366, 670], "timestamp": 1693580255835, "interval": 656}, {"eventtype": "window_resize", "value": [1366, 768], "timestamp": 1693580266523, "interval": 10688}, {"eventtype": "focus", "value": "off", "timestamp": 1693580787893, "interval": 521370}, {"eventtype": "focus", "value": "on", "timestamp": 1693580787894, "interval": 1}, {"eventtype": "window_resize", "value": [1366, 670], "timestamp": 1693580788140, "interval": 246}, {"eventtype": "window_resize", "value": [1366, 768], "timestamp": 1693580790821, "interval": 2681}], "useragent": "Mozilla/5.0 (Windows NT 10.0; Win64; x64) AppleWebKit/537.36 (KHTML, like Gecko) Chrome/116.0.0.0 Safari/537.36", "mode": "live", "id": "w21301062:a98958019", "status": "user data saved", "Beginhit": "2023-09-01 14:57:27.651815", "Beginexp": "2023-09-01 14:57:44.800142", "Endhit": null, "psiturkStatus": 2, "browser": "<redacted>", "platform": "windows", "language": "en-ZA", "excludeReason": "dataincomplete"}