{"condition": 0, "counterbalance": 0, "assignmentId": "a16162362", "workerId": "w61775568", "hitId": "h50832771", "currenttrial": 28, "bonus": 0, "data": [{"uniqueid": "w61775568:a16162362", "current_trial": 0, "dateTime": 1693564956660, "trialdata": {"success": true, "trial_type": "fullscreen", "trial_index": 0, "time_elapsed": 5524, "internal_node_id": "0.0-0.0"}}, {"uniqueid": "w61775568:a16162362", "current_trial": 1, "dateTime": 1693564967218, "trialdata": {"view_history": [{"page_index": 0, "viewing_time": 10537}], "rt": 10538, "trial_id": "exp_instructions_control", "trial_type": "instructions", "trial_index": 1, "time_elapsed": 16083, "internal_node_id": "0.0-1.0"}}, {"uniqueid": "w61775568:a16162362", "current_trial": 2, "dateTime": 1693565107538, "trialdata": {"view_history": [{"page_index": 0, "viewing_time": 70912}, {"page_index": 1, "viewing_time": 54774}, {"page_index": 2, "viewing_time": 6470}, {"page_index": 3, "viewing_time": 8161}], "rt": 140317, "trial_id": "mouselab_instructions_1_control", "trial_type": "instructions", "trial_index": 2, "time_elapsed": 156403, "internal_node_id": "0.0-2.0-1.0"}}, {"uniqueid": "w61775568:a16162362", "current_trial": 3, "dateTime": 1693565231495, "trialdata": {"revealed_states": [], "clicked_states": ["1", "2", "3", "4", "6", "23", "24", "25", "30", "32", "12", "13", "14", "15", "16", "19", "21", "20", "22", "17", "18", "7", "8", "11", "10", "26", "28", "27", "29", "33", "31", "5", "9"], "num_clicks_accrued": [0, 0, 0, 0, 0, 0, 0, 0, 0, 0, 0, 0, 0], "stateRewards": ["", 10, -10, 10, -10, 10, -10, 10, 10, 10, 10, -10, -10, 10, 10, -10, 10, -10, -10, 10, 10, 10, 10, -10, -10, 10, 10, 10, -10, -10, -10, -10, -10, -10], "withholdReward": false, "trial_id": "practice_1", "block": "test", "trialIndex": 0, "score": -3, "costs": -16.5, "simulationMode": [null, null, null, null, null], "rewards": [-10, 10, 10, -10, 10], "path": ["0", "0", "12", "13", "14", "15", "16"], "rt": [105650, 552, 4116, 942, 207], "actions": ["right", "right", "right", "up", "up"], "actionTimes": [110593, 111657, 116311, 117775, 118493], "queries": {"click": {"state": {"target": ["1", "2", "3", "4", "6", "23", "24", "25", "30", "32", "12", "13", "14", "15", "16", "19", "21", "20", "22", "17", "18", "7", "8", "11", "10", "26", "28", "27", "29", "33", "31", "5", "9"], "time": [7067, 9153, 10910, 12750, 14763, 20481, 21958, 23315, 25652, 26925, 32002, 34743, 36067, 37889, 39191, 41133, 42248, 43920, 45936, 51308, 53151, 54344, 55834, 57329, 60235, 62009, 64145, 65644, 67454, 69786, 71700, 80158, 81610]}, "edge": {"target": [], "time": []}}, "mouseover": {"state": {"target": ["1", "2", "2", "3", "4", "6", "7", "12", "0", "23", "24", "24", "25", "30", "32", "12", "13", "13", "14", "15", "16", "14", "19", "21", "20", "22", "17", "17", "18", "7", "7", "3", "8", "11", "10", "26", "28", "27", "29", "33", "30", "31", "5", "9", "8", "10", "12", "13", "12", "23", "30", "24", "0", "1", "18", "15", "20", "19", "13", "12"], "time": [6152, 8048, 8681, 10006, 12094, 14043, 18213, 18647, 19608, 19911, 21329, 21589, 22895, 23930, 26524, 31391, 32523, 34288, 35591, 36532, 38600, 40250, 40331, 41856, 42798, 45198, 50113, 50541, 52695, 53694, 53861, 54925, 55225, 56632, 59237, 61453, 63201, 64791, 66609, 69304, 70668, 70849, 79499, 80826, 82844, 82884, 83365, 85729, 86069, 91694, 91823, 96649, 96887, 97437, 100030, 100062, 106420, 106482, 106582, 106866]}, "edge": {"target": [], "time": []}}, "mouseout": {"state": {"target": ["0", "1", "1", "2", "2", "3", "4", "6", "6", "7", "12", "0", "23", "24", "24", "24", "25", "30", "32", "12", "13", "13", "14", "15", "16", "15", "14", "19", "21", "20", "19", "22", "17", "17", "18", "7", "7", "3", "8", "11", "11", "10", "26", "26", "28", "27", "27", "29", "29", "33", "30", "31", "5", "9", "8", "10", "12", "13", "12", "23", "30", "24", "0", "1", "18", "15", "20", "19", "13", "12"], "time": [1871, 4053, 7720, 8200, 9235, 11817, 13893, 17130, 17880, 18247, 19579, 19641, 20513, 21458, 22021, 22661, 23840, 26461, 27060, 32457, 33068, 35458, 36166, 38019, 40119, 40199, 40284, 41765, 42401, 45082, 45180, 47026, 50330, 51983, 53181, 53713, 54884, 54945, 55940, 58856, 58988, 61197, 62107, 63118, 64740, 65701, 66443, 67540, 68937, 70624, 70755, 73983, 80696, 82798, 82863, 82910, 83397, 85745, 87889, 91710, 91889, 96684, 97338, 99979, 100056, 100086, 106438, 106498, 106785, 109038]}, "edge": {"target": [], "time": []}}}, "displayed_time": "119.02", "trialTime": 123165, "trial_type": "mouselab-mdp", "trial_index": 3, "time_elapsed": 280358, "internal_node_id": "0.0-2.0-2.0-0.0"}}, {"uniqueid": "w61775568:a16162362", "current_trial": 4, "dateTime": 1693565255592, "trialdata": {"revealed_states": [], "clicked_states": [], "num_clicks_accrued": [0, 0, 0, 0, 0, 0, 0, 0, 0, 0, 0, 0, 0], "stateRewards": ["", -10, 10, -10, 10, -10, -10, -10, -10, 10, -10, 10, -10, 10, 10, -10, -10, -10, -10, 10, -10, 10, 10, -10, 10, 10, 10, -10, -10, -10, -10, 10, 10, 10], "withholdReward": false, "trial_id": "practice_2", "block": "test", "trialIndex": 1, "score": -6.5, "costs": 0, "simulationMode": [null, null, null, null, null], "rewards": [-10, 10, 10, -10, -10], "path": ["0", "0", "12", "13", "14", "15", "16"], "rt": [1497, 7581, 1692, 288, 336], "actions": ["right", "right", "right", "up", "up"], "actionTimes": [7626, 15750, 17965, 18769, 19635], "queries": {"click": {"state": {"target": [], "time": []}, "edge": {"target": [], "time": []}}, "mouseover": {"state": {"target": [], "time": []}, "edge": {"target": [], "time": []}}, "mouseout": {"state": {"target": ["0", "12", "15"], "time": [11831, 13880, 13979]}, "edge": {"target": [], "time": []}}}, "displayed_time": "20.16", "trialTime": 23605, "trial_type": "mouselab-mdp", "trial_index": 4, "time_elapsed": 304455, "internal_node_id": "0.0-2.0-2.0-1.0"}}, {"uniqueid": "w61775568:a16162362", "current_trial": 5, "dateTime": 1693565272532, "trialdata": {"view_history": [{"page_index": 0, "viewing_time": 8589}, {"page_index": 1, "viewing_time": 8337}], "rt": 16927, "trial_id": "mouselab_instructions_2_control", "trial_type": "instructions", "trial_index": 5, "time_elapsed": 321397, "internal_node_id": "0.0-2.0-3.0"}}, {"uniqueid": "w61775568:a16162362", "current_trial": 6, "dateTime": 1693565314245, "trialdata": {"rt": 41705, "response": {"Q0": "There is no cost for clicking on nodes.", "Q1": "The better I perform the higher my bonus will be.", "Q2": "No, the structure of the web will be different each time.", "Q3": "To click on the least number of nodes.", "Q4": "Only after moving the spider.", "Q5": "10 seconds"}, "question_order": [0, 1, 2, 3, 4, 5], "correct": {"Q0": "The cost for clicking on nodes may vary between nodes.", "Q1": "The better I perform the higher my bonus will be.", "Q2": "No, the amount of cash at each node of the web may be different each time.", "Q3": "To get the highest total score.", "Q4": "Only before moving the spider.", "Q5": "3 seconds"}, "trial_id": "mouselab_quiz_control", "trial_type": "survey-multi-choice", "trial_index": 6, "time_elapsed": 363109, "internal_node_id": "0.0-2.0-4.0"}}, {"uniqueid": "w61775568:a16162362", "current_trial": 7, "dateTime": 1693565321675, "trialdata": {"success": true, "trial_type": "fullscreen", "trial_index": 7, "time_elapsed": 370539, "internal_node_id": "0.0-2.1-0.1-0.1"}}, {"uniqueid": "w61775568:a16162362", "current_trial": 8, "dateTime": 1693565348692, "trialdata": {"view_history": [{"page_index": 0, "viewing_time": 13066}, {"page_index": 1, "viewing_time": 9746}, {"page_index": 2, "viewing_time": 2205}, {"page_index": 3, "viewing_time": 1994}], "rt": 27012, "trial_id": "mouselab_instructions_1_control", "trial_type": "instructions", "trial_index": 8, "time_elapsed": 397557, "internal_node_id": "0.0-2.1-1.1"}}, {"uniqueid": "w61775568:a16162362", "current_trial": 9, "dateTime": 1693565369487, "trialdata": {"revealed_states": [], "clicked_states": [], "num_clicks_accrued": [0, 0, 0, 0, 0, 0, 0, 0, 0, 0, 0, 0, 0], "stateRewards": ["", 10, -10, 10, -10, 10, -10, 10, 10, 10, 10, -10, -10, 10, 10, -10, 10, -10, -10, 10, 10, 10, 10, -10, -10, 10, 10, 10, -10, -10, -10, -10, -10, -10], "withholdReward": false, "trial_id": "practice_1", "block": "test", "trialIndex": 2, "score": 13.5, "costs": 0, "simulationMode": [null, null, null, null, null], "rewards": [-10, 10, 10, -10, 10], "path": ["0", "0", "12", "13", "14", "15", "16"], "rt": [3233, 2592, 396, 1003, 22], "actions": ["right", "right", "right", "up", "up"], "actionTimes": [8283, 11423, 12365, 13895, 14428], "queries": {"click": {"state": {"target": [], "time": []}, "edge": {"target": [], "time": []}}, "mouseover": {"state": {"target": ["12"], "time": [6989]}, "edge": {"target": [], "time": []}}, "mouseout": {"state": {"target": ["23", "0", "12", "12", "7"], "time": [3819, 4035, 9463, 16848, 16930]}, "edge": {"target": [], "time": []}}}, "displayed_time": "14.96", "trialTime": 20278, "trial_type": "mouselab-mdp", "trial_index": 9, "time_elapsed": 418350, "internal_node_id": "0.0-2.1-2.1-0.1"}}, {"uniqueid": "w61775568:a16162362", "current_trial": 10, "dateTime": 1693565381574, "trialdata": {"revealed_states": [], "clicked_states": [], "num_clicks_accrued": [0, 0, 0, 0, 0, 0, 0, 0, 0, 0, 0, 0, 0], "stateRewards": ["", -10, 10, -10, 10, -10, -10, -10, -10, 10, -10, 10, -10, 10, 10, -10, -10, -10, -10, 10, -10, 10, 10, -10, 10, 10, 10, -10, -10, -10, -10, 10, 10, 10], "withholdReward": false, "trial_id": "practice_2", "block": "test", "trialIndex": 3, "score": 33.5, "costs": 0, "simulationMode": [null, null, null, null, null], "rewards": [-10, 10, 10, 10, 10], "path": ["0", "0", "12", "13", "14", "19", "21"], "rt": [1501, 233, 356, 943, 69], "actions": ["right", "right", "right", "down", "down"], "actionTimes": [5504, 6260, 7148, 8623, 9201], "queries": {"click": {"state": {"target": [], "time": []}, "edge": {"target": [], "time": []}}, "mouseover": {"state": {"target": [], "time": []}, "edge": {"target": [], "time": []}}, "mouseout": {"state": {"target": ["17", "1"], "time": [2303, 2987]}, "edge": {"target": [], "time": []}}}, "displayed_time": "9.74", "trialTime": 11558, "trial_type": "mouselab-mdp", "trial_index": 10, "time_elapsed": 430437, "internal_node_id": "0.0-2.1-2.1-1.1"}}, {"uniqueid": "w61775568:a16162362", "current_trial": 11, "dateTime": 1693565393218, "trialdata": {"view_history": [{"page_index": 0, "viewing_time": 8868}, {"page_index": 1, "viewing_time": 2765}], "rt": 11633, "trial_id": "mouselab_instructions_2_control", "trial_type": "instructions", "trial_index": 11, "time_elapsed": 442083, "internal_node_id": "0.0-2.1-3.1"}}, {"uniqueid": "w61775568:a16162362", "current_trial": 12, "dateTime": 1693565432529, "trialdata": {"rt": 39305, "response": {"Q0": "There is no cost for clicking on nodes.", "Q1": "The better I perform the higher my bonus will be.", "Q2": "No, the amount of cash at each node of the web may be different each time.", "Q3": "To get the highest total score.", "Q4": "Only after moving the spider.", "Q5": "10 seconds"}, "question_order": [0, 1, 2, 3, 4, 5], "correct": {"Q0": "The cost for clicking on nodes may vary between nodes.", "Q1": "The better I perform the higher my bonus will be.", "Q2": "No, the amount of cash at each node of the web may be different each time.", "Q3": "To get the highest total score.", "Q4": "Only before moving the spider.", "Q5": "3 seconds"}, "trial_id": "mouselab_quiz_control", "trial_type": "survey-multi-choice", "trial_index": 12, "time_elapsed": 481394, "internal_node_id": "0.0-2.1-4.1"}}, {"uniqueid": "w61775568:a16162362", "current_trial": 13, "dateTime": 1693565441699, "trialdata": {"success": true, "trial_type": "fullscreen", "trial_index": 13, "time_elapsed": 490564, "internal_node_id": "0.0-2.2-0.2-0.2"}}, {"uniqueid": "w61775568:a16162362", "current_trial": 14, "dateTime": 1693565462884, "trialdata": {"view_history": [{"page_index": 0, "viewing_time": 7126}, {"page_index": 1, "viewing_time": 9371}, {"page_index": 2, "viewing_time": 2717}, {"page_index": 3, "viewing_time": 1963}], "rt": 21178, "trial_id": "mouselab_instructions_1_control", "trial_type": "instructions", "trial_index": 14, "time_elapsed": 511749, "internal_node_id": "0.0-2.2-1.2"}}, {"uniqueid": "w61775568:a16162362", "current_trial": 15, "dateTime": 1693565479112, "trialdata": {"revealed_states": [], "clicked_states": [], "num_clicks_accrued": [0, 0, 0, 0, 0, 0, 0, 0, 0, 0, 0, 0, 0], "stateRewards": ["", 10, -10, 10, -10, 10, -10, 10, 10, 10, 10, -10, -10, 10, 10, -10, 10, -10, -10, 10, 10, 10, 10, -10, -10, 10, 10, 10, -10, -10, -10, -10, -10, -10], "withholdReward": false, "trial_id": "practice_1", "block": "test", "trialIndex": 4, "score": 13.5, "costs": 0, "simulationMode": [null, null, null, null, null], "rewards": [10, -10, 10, -10, 10], "path": ["0", "0", "1", "2", "3", "4", "5"], "rt": [2701, 26, 108, 1046, 845], "actions": ["up", "up", "up", "right", "up"], "actionTimes": [5631, 6204, 6827, 8401, 9748], "queries": {"click": {"state": {"target": [], "time": []}, "edge": {"target": [], "time": []}}, "mouseover": {"state": {"target": ["1"], "time": [4776]}, "edge": {"target": [], "time": []}}, "mouseout": {"state": {"target": ["0", "1", "16"], "time": [4406, 12289, 12340]}, "edge": {"target": [], "time": []}}}, "displayed_time": "10.25", "trialTime": 15667, "trial_type": "mouselab-mdp", "trial_index": 15, "time_elapsed": 527975, "internal_node_id": "0.0-2.2-2.2-0.2"}}, {"uniqueid": "w61775568:a16162362", "current_trial": 16, "dateTime": 1693565495783, "trialdata": {"revealed_states": [], "clicked_states": [], "num_clicks_accrued": [0, 0, 0, 0, 0, 0, 0, 0, 0, 0, 0, 0, 0], "stateRewards": ["", -10, 10, -10, 10, -10, -10, -10, -10, 10, -10, 10, -10, 10, 10, -10, -10, -10, -10, 10, -10, 10, 10, -10, 10, 10, 10, -10, -10, -10, -10, 10, 10, 10], "withholdReward": false, "trial_id": "practice_2", "block": "test", "trialIndex": 5, "score": 13.5, "costs": 0, "simulationMode": [null, null, null, null, null], "rewards": [-10, 10, 10, 10, -10], "path": ["0", "0", "23", "24", "25", "26", "27"], "rt": [2401, 117, 599, 509, 403], "actions": ["left", "left", "left", "up", "up"], "actionTimes": [6166, 6808, 7948, 8976, 9893], "queries": {"click": {"state": {"target": [], "time": []}, "edge": {"target": [], "time": []}}, "mouseover": {"state": {"target": ["23"], "time": [5345]}, "edge": {"target": [], "time": []}}, "mouseout": {"state": {"target": ["12", "23", "23", "0", "23", "15"], "time": [2294, 2342, 2662, 5109, 11591, 11641]}, "edge": {"target": [], "time": []}}}, "displayed_time": "10.42", "trialTime": 16060, "trial_type": "mouselab-mdp", "trial_index": 16, "time_elapsed": 544646, "internal_node_id": "0.0-2.2-2.2-1.2"}}, {"uniqueid": "w61775568:a16162362", "current_trial": 17, "dateTime": 1693565511732, "trialdata": {"view_history": [{"page_index": 0, "viewing_time": 12997}, {"page_index": 1, "viewing_time": 2937}], "rt": 15935, "trial_id": "mouselab_instructions_2_control", "trial_type": "instructions", "trial_index": 17, "time_elapsed": 560597, "internal_node_id": "0.0-2.2-3.2"}}, {"uniqueid": "w61775568:a16162362", "current_trial": 18, "dateTime": 1693565545798, "trialdata": {"rt": 34059, "response": {"Q0": "There is no cost for clicking on nodes.", "Q1": "The better I perform the higher my bonus will be.", "Q2": "No, the amount of cash at each node of the web may be different each time.", "Q3": "To get the highest total score.", "Q4": "Only after moving the spider.", "Q5": "3 seconds"}, "question_order": [0, 1, 2, 3, 4, 5], "correct": {"Q0": "The cost for clicking on nodes may vary between nodes.", "Q1": "The better I perform the higher my bonus will be.", "Q2": "No, the amount of cash at each node of the web may be different each time.", "Q3": "To get the highest total score.", "Q4": "Only before moving the spider.", "Q5": "3 seconds"}, "trial_id": "mouselab_quiz_control", "trial_type": "survey-multi-choice", "trial_index": 18, "time_elapsed": 594663, "internal_node_id": "0.0-2.2-4.2"}}, {"uniqueid": "w61775568:a16162362", "current_trial": 19, "dateTime": 1693565554268, "trialdata": {"success": true, "trial_type": "fullscreen", "trial_index": 19, "time_elapsed": 603133, "internal_node_id": "0.0-2.3-0.3-0.3"}}, {"uniqueid": "w61775568:a16162362", "current_trial": 20, "dateTime": 1693565575068, "trialdata": {"view_history": [{"page_index": 0, "viewing_time": 7718}, {"page_index": 1, "viewing_time": 7578}, {"page_index": 2, "viewing_time": 3473}, {"page_index": 3, "viewing_time": 2024}], "rt": 20794, "trial_id": "mouselab_instructions_1_control", "trial_type": "instructions", "trial_index": 20, "time_elapsed": 623933, "internal_node_id": "0.0-2.3-1.3"}}, {"uniqueid": "w61775568:a16162362", "current_trial": 21, "dateTime": 1693565589254, "trialdata": {"revealed_states": [], "clicked_states": [], "num_clicks_accrued": [0, 0, 0, 0, 0, 0, 0, 0, 0, 0, 0, 0, 0], "stateRewards": ["", 10, -10, 10, -10, 10, -10, 10, 10, 10, 10, -10, -10, 10, 10, -10, 10, -10, -10, 10, 10, 10, 10, -10, -10, 10, 10, 10, -10, -10, -10, -10, -10, -10], "withholdReward": false, "trial_id": "practice_1", "block": "test", "trialIndex": 6, "score": 13.5, "costs": 0, "simulationMode": [null, null, null, null, null], "rewards": [-10, 10, 10, -10, 10], "path": ["0", "0", "12", "13", "14", "15", "16"], "rt": [2811, 97, 216, 540, 172], "actions": ["right", "right", "right", "up", "up"], "actionTimes": [4912, 5532, 6277, 7348, 8031], "queries": {"click": {"state": {"target": [], "time": []}, "edge": {"target": [], "time": []}}, "mouseover": {"state": {"target": [], "time": []}, "edge": {"target": [], "time": []}}, "mouseout": {"state": {"target": ["0", "18", "20"], "time": [1134, 10300, 13198]}, "edge": {"target": [], "time": []}}}, "displayed_time": "8.56", "trialTime": 13521, "trial_type": "mouselab-mdp", "trial_index": 21, "time_elapsed": 638117, "internal_node_id": "0.0-2.3-2.3-0.3"}}, {"uniqueid": "w61775568:a16162362", "current_trial": 22, "dateTime": 1693565605923, "trialdata": {"revealed_states": [], "clicked_states": [], "num_clicks_accrued": [0, 0, 0, 0, 0, 0, 0, 0, 0, 0, 0, 0, 0], "stateRewards": ["", -10, 10, -10, 10, -10, -10, -10, -10, 10, -10, 10, -10, 10, 10, -10, -10, -10, -10, 10, -10, 10, 10, -10, 10, 10, 10, -10, -10, -10, -10, 10, 10, 10], "withholdReward": false, "trial_id": "practice_2", "block": "test", "trialIndex": 7, "score": -6.5, "costs": 0, "simulationMode": [null, null, null, null, null], "rewards": [-10, 10, -10, 10, -10], "path": ["0", "0", "1", "2", "3", "4", "5"], "rt": [2612, 260, 229, 1225, 1287], "actions": ["up", "up", "up", "right", "up"], "actionTimes": [4614, 5416, 6175, 7921, 9726], "queries": {"click": {"state": {"target": [], "time": []}, "edge": {"target": [], "time": []}}, "mouseover": {"state": {"target": ["1"], "time": [3442]}, "edge": {"target": [], "time": []}}, "mouseout": {"state": {"target": ["14", "13", "12", "12", "0", "1", "16", "17"], "time": [806, 842, 873, 1016, 1090, 10978, 11155, 11217]}, "edge": {"target": [], "time": []}}}, "displayed_time": "10.24", "trialTime": 16000, "trial_type": "mouselab-mdp", "trial_index": 22, "time_elapsed": 654787, "internal_node_id": "0.0-2.3-2.3-1.3"}}, {"uniqueid": "w61775568:a16162362", "current_trial": 23, "dateTime": 1693565623772, "trialdata": {"view_history": [{"page_index": 0, "viewing_time": 15189}, {"page_index": 1, "viewing_time": 2645}], "rt": 17835, "trial_id": "mouselab_instructions_2_control", "trial_type": "instructions", "trial_index": 23, "time_elapsed": 672637, "internal_node_id": "0.0-2.3-3.3"}}, {"uniqueid": "w61775568:a16162362", "current_trial": 24, "dateTime": 1693565654793, "trialdata": {"rt": 31015, "response": {"Q0": "There is no cost for clicking on nodes.", "Q1": "The better I perform the higher my bonus will be.", "Q2": "No, the amount of cash at each node of the web may be different each time.", "Q3": "To get the highest total score.", "Q4": "Only after moving the spider.", "Q5": "3 seconds"}, "question_order": [0, 1, 2, 3, 4, 5], "correct": {"Q0": "The cost for clicking on nodes may vary between nodes.", "Q1": "The better I perform the higher my bonus will be.", "Q2": "No, the amount of cash at each node of the web may be different each time.", "Q3": "To get the highest total score.", "Q4": "Only before moving the spider.", "Q5": "3 seconds"}, "trial_id": "mouselab_quiz_control", "trial_type": "survey-multi-choice", "trial_index": 24, "time_elapsed": 703658, "internal_node_id": "0.0-2.3-4.3"}}, {"uniqueid": "w61775568:a16162362", "current_trial": 25, "dateTime": 1693565702283, "trialdata": {"rt": 47469, "response": {"Q0": "So many instructions to be aware of ", "Q1": "61", "Q2": "male", "Q3": "no", "Q4": ""}, "trial_id": "finish_fail", "trial_type": "survey-text", "trial_index": 25, "time_elapsed": 751147, "internal_node_id": "0.0-3.0-0.0"}}, {"uniqueid": "w61775568:a16162362", "current_trial": 26, "dateTime": 1693565745793, "trialdata": {"rt": 43503, "stimulus": "<h1>Completion Code Instructions (1/2)</h1>\n<br><br><br><br>\nYou have reached the end of the experiment! The completion code consists of two parts: (1) a code with 2 characters (2) a code with 6 characters. On this page, you will receive the second part of the code. The first part of the completion code will be on the next page.\n<br><br>\nThe second part of your completion code is: <b>AYIWIP</b>\n<br><br>\nPlease note this down. Then, press 'Finish HIT' in order to find the first part of your completion code. Once the data has been saved, you will receive this code either in this window or in the original browser window where you started the experiment.\n", "response": 0, "trial_type": "html-button-response", "trial_index": 26, "time_elapsed": 794658, "internal_node_id": "0.0-3.0-1.0"}}, {"uniqueid": "w61775568:a16162362", "current_trial": 27, "dateTime": 1693565746803, "trialdata": {"success": true, "trial_type": "fullscreen", "trial_index": 27, "time_elapsed": 795668, "internal_node_id": "0.0-7.0"}}], "questiondata": {"params": {"CODE": "C6DMOQA6", "MIN_TIME": 14, "inspectCost": 1, "startTime": "Fri Sep 01 2023 11:42:30 GMT+0100 (British Summer Time)", "bonusRate": 0.002, "variance": "1_2_4_8_44", "branching": "31123"}, "final_score": 0}, "eventdata": [{"eventtype": "initialized", "value": null, "timestamp": 1693564949720, "interval": 0}, {"eventtype": "window_resize", "value": [1032, 652], "timestamp": 1693564949720, "interval": 0}, {"eventtype": "window_resize", "value": [1032, 652], "timestamp": 1693564950074, "interval": 354}, {"eventtype": "window_resize", "value": [1280, 720], "timestamp": 1693564955939, "interval": 5865}, {"eventtype": "focus", "value": "off", "timestamp": 1693565318370, "interval": 362431}, {"eventtype": "focus", "value": "on", "timestamp": 1693565318371, "interval": 1}, {"eventtype": "window_resize", "value": [1032, 652], "timestamp": 1693565318643, "interval": 272}, {"eventtype": "window_resize", "value": [1280, 720], "timestamp": 1693565320890, "interval": 2247}, {"eventtype": "focus", "value": "off", "timestamp": 1693565438306, "interval": 117416}, {"eventtype": "focus", "value": "on", "timestamp": 1693565438308, "interval": 2}, {"eventtype": "window_resize", "value": [1032, 652], "timestamp": 1693565438555, "interval": 247}, {"eventtype": "window_resize", "value": [1280, 720], "timestamp": 1693565440979, "interval": 2424}, {"eventtype": "focus", "value": "off", "timestamp": 1693565551260, "interval": 110281}, {"eventtype": "focus", "value": "on", "timestamp": 1693565551263, "interval": 3}, {"eventtype": "window_resize", "value": [1032, 652], "timestamp": 1693565551506, "interval": 243}, {"eventtype": "window_resize", "value": [1280, 720], "timestamp": 1693565553499, "interval": 1993}, {"eventtype": "window_resize", "value": [1600, 900], "timestamp": 1693565698475, "interval": 144976}, {"eventtype": "window_resize", "value": [1290, 815], "timestamp": 1693565746034, "interval": 47559}], "useragent": "Mozilla/5.0 (Windows NT 6.3; Win64; x64) AppleWebKit/537.36 (KHTML, like Gecko) Chrome/109.0.0.0 Safari/537.36 Edg/109.0.1518.115", "mode": "live", "id": "w61775568:a16162362", "status": "user data saved", "Beginhit": "2023-09-01 10:40:49.335685", "Beginexp": "2023-09-01 10:40:57.790566", "Endhit": "2023-09-01 10:54:08.450703", "psiturkStatus": 3, "browser": "<redacted>", "platform": "windows", "language": "en-US", "excludeReason": "quizfail"}