{"condition": 0, "counterbalance": 0, "assignmentId": "a45220070", "workerId": "w42199340", "hitId": "h56304668", "currenttrial": 73, "bonus": 0, "data": [{"uniqueid": "w42199340:a45220070", "current_trial": 0, "dateTime": 1693481032197, "trialdata": {"success": true, "trial_type": "fullscreen", "trial_index": 0, "time_elapsed": 11090, "internal_node_id": "0.0-0.0"}}, {"uniqueid": "w42199340:a45220070", "current_trial": 1, "dateTime": 1693481061876, "trialdata": {"view_history": [{"page_index": 0, "viewing_time": 29668}], "rt": 29669, "trial_id": "exp_instructions_control", "trial_type": "instructions", "trial_index": 1, "time_elapsed": 40769, "internal_node_id": "0.0-1.0"}}, {"uniqueid": "w42199340:a45220070", "current_trial": 2, "dateTime": 1693481323222, "trialdata": {"view_history": [{"page_index": 0, "viewing_time": 105515}, {"page_index": 1, "viewing_time": 88549}, {"page_index": 2, "viewing_time": 18327}, {"page_index": 3, "viewing_time": 48948}], "rt": 261342, "trial_id": "mouselab_instructions_1_control", "trial_type": "instructions", "trial_index": 2, "time_elapsed": 302115, "internal_node_id": "0.0-2.0-1.0"}}, {"uniqueid": "w42199340:a45220070", "current_trial": 3, "dateTime": 1693481367575, "trialdata": {"revealed_states": [], "clicked_states": [], "num_clicks_accrued": [0, 0, 0, 0, 0, 0, 0, 0, 0, 0, 0, 0, 0], "stateRewards": ["", 10, -10, 10, -10, -10, 10, -10, -10, -10, -10, -10, 10, -10, -10, -10, 10, -10, 10, -10, -10, -10, -10, 10, -10, -10, 10, -10, -10, 10, -10, -10, 10, 10], "withholdReward": false, "trial_id": "practice_1", "block": "test", "trialIndex": 0, "score": -26.5, "costs": 0, "simulationMode": [null, null, null, null, null], "rewards": [10, -10, -10, -10, -10], "path": ["0", "0", "12", "13", "14", "19", "22"], "rt": [3830, 1690, 2179, 1744, 1056], "actions": ["right", "right", "right", "down", "left"], "actionTimes": [10788, 13055, 15761, 18012, 19572], "queries": {"click": {"state": {"target": [], "time": []}, "edge": {"target": [], "time": []}}, "mouseover": {"state": {"target": [], "time": []}, "edge": {"target": [], "time": []}}, "mouseout": {"state": {"target": ["0", "0", "12", "19", "22", "14", "15", "1", "0", "19", "20"], "time": [3622, 31919, 32402, 32953, 33903, 35753, 36237, 39637, 39671, 39988, 40005]}, "edge": {"target": [], "time": []}}}, "displayed_time": "20.07", "trialTime": 42914, "trial_type": "mouselab-mdp", "trial_index": 3, "time_elapsed": 346466, "internal_node_id": "0.0-2.0-2.0-0.0"}}, {"uniqueid": "w42199340:a45220070", "current_trial": 4, "dateTime": 1693481392067, "trialdata": {"revealed_states": [], "clicked_states": ["2"], "num_clicks_accrued": [0, 0, 0, 0, 0, 0, 0, 0, 0, 0, 0, 0, 0], "stateRewards": ["", 10, 10, 10, 10, -10, 10, 10, -10, 10, -10, 10, 10, -10, -10, -10, -10, 10, -10, 10, -10, 10, -10, 10, -10, 10, 10, -10, -10, 10, 10, -10, -10, -10], "withholdReward": false, "trial_id": "practice_2", "block": "test", "trialIndex": 1, "score": 33, "costs": -0.5, "simulationMode": [null, null, null, null, null], "rewards": [10, 10, 10, 10, -10], "path": ["0", "0", "1", "2", "3", "4", "5"], "rt": [5671, 691, 392, 670, 390], "actions": ["up", "up", "up", "right", "up"], "actionTimes": [11047, 12240, 13156, 14334, 15231], "queries": {"click": {"state": {"target": ["2"], "time": [7730]}, "edge": {"target": [], "time": []}}, "mouseover": {"state": {"target": ["1", "2", "2"], "time": [6610, 6809, 7397]}, "edge": {"target": [], "time": []}}, "mouseout": {"state": {"target": ["12", "1", "2", "2"], "time": [4107, 6692, 6979, 7927]}, "edge": {"target": [], "time": []}}}, "displayed_time": "15.73", "trialTime": 23622, "trial_type": "mouselab-mdp", "trial_index": 4, "time_elapsed": 370958, "internal_node_id": "0.0-2.0-2.0-1.0"}}, {"uniqueid": "w42199340:a45220070", "current_trial": 5, "dateTime": 1693481432415, "trialdata": {"view_history": [{"page_index": 0, "viewing_time": 28937}, {"page_index": 1, "viewing_time": 11392}], "rt": 40331, "trial_id": "mouselab_instructions_2_control", "trial_type": "instructions", "trial_index": 5, "time_elapsed": 411308, "internal_node_id": "0.0-2.0-3.0"}}, {"uniqueid": "w42199340:a45220070", "current_trial": 6, "dateTime": 1693481500131, "trialdata": {"rt": 67690, "response": {"Q0": "The cost for clicking on nodes may vary between nodes.", "Q1": "The better I perform the higher my bonus will be.", "Q2": "Yes.", "Q3": "To get the highest total score.", "Q4": "Only before moving the spider.", "Q5": "3 seconds"}, "question_order": [0, 1, 2, 3, 4, 5], "correct": {"Q0": "The cost for clicking on nodes may vary between nodes.", "Q1": "The better I perform the higher my bonus will be.", "Q2": "No, the amount of cash at each node of the web may be different each time.", "Q3": "To get the highest total score.", "Q4": "Only before moving the spider.", "Q5": "3 seconds"}, "trial_id": "mouselab_quiz_control", "trial_type": "survey-multi-choice", "trial_index": 6, "time_elapsed": 479024, "internal_node_id": "0.0-2.0-4.0"}}, {"uniqueid": "w42199340:a45220070", "current_trial": 7, "dateTime": 1693481516408, "trialdata": {"success": true, "trial_type": "fullscreen", "trial_index": 7, "time_elapsed": 495300, "internal_node_id": "0.0-2.1-0.1-0.1"}}, {"uniqueid": "w42199340:a45220070", "current_trial": 8, "dateTime": 1693481637808, "trialdata": {"view_history": [{"page_index": 0, "viewing_time": 19759}, {"page_index": 1, "viewing_time": 19630}, {"page_index": 2, "viewing_time": 19632}, {"page_index": 3, "viewing_time": 62370}], "rt": 121392, "trial_id": "mouselab_instructions_1_control", "trial_type": "instructions", "trial_index": 8, "time_elapsed": 616701, "internal_node_id": "0.0-2.1-1.1"}}, {"uniqueid": "w42199340:a45220070", "current_trial": 9, "dateTime": 1693481654575, "trialdata": {"revealed_states": [], "clicked_states": [], "num_clicks_accrued": [0, 0, 0, 0, 0, 0, 0, 0, 0, 0, 0, 0, 0], "stateRewards": ["", 10, -10, 10, -10, -10, 10, -10, -10, -10, -10, -10, 10, -10, -10, -10, 10, -10, 10, -10, -10, -10, -10, 10, -10, -10, 10, -10, -10, 10, -10, -10, 10, 10], "withholdReward": false, "trial_id": "practice_1", "block": "test", "trialIndex": 2, "score": 13.5, "costs": 0, "simulationMode": [null, null, null, null, null], "rewards": [10, -10, -10, 10, 10], "path": ["0", "0", "23", "24", "25", "26", "29"], "rt": [2569, 322, 519, 292, 472], "actions": ["left", "left", "left", "up", "left"], "actionTimes": [6293, 7135, 8195, 8998, 9978], "queries": {"click": {"state": {"target": [], "time": []}, "edge": {"target": [], "time": []}}, "mouseover": {"state": {"target": [], "time": []}, "edge": {"target": [], "time": []}}, "mouseout": {"state": {"target": ["12"], "time": [348]}, "edge": {"target": [], "time": []}}}, "displayed_time": "10.51", "trialTime": 15837, "trial_type": "mouselab-mdp", "trial_index": 9, "time_elapsed": 633466, "internal_node_id": "0.0-2.1-2.1-0.1"}}, {"uniqueid": "w42199340:a45220070", "current_trial": 10, "dateTime": 1693481665250, "trialdata": {"revealed_states": [], "clicked_states": [], "num_clicks_accrued": [0, 0, 0, 0, 0, 0, 0, 0, 0, 0, 0, 0, 0], "stateRewards": ["", 10, 10, 10, 10, -10, 10, 10, -10, 10, -10, 10, 10, -10, -10, -10, -10, 10, -10, 10, -10, 10, -10, 10, -10, 10, 10, -10, -10, 10, 10, -10, -10, -10], "withholdReward": false, "trial_id": "practice_2", "block": "test", "trialIndex": 3, "score": 13.5, "costs": 0, "simulationMode": [null, null, null, null, null], "rewards": [10, -10, 10, 10, -10], "path": ["0", "0", "23", "24", "25", "30", "31"], "rt": [1069, 303, 88, 80, 172], "actions": ["left", "left", "left", "down", "right"], "actionTimes": [2939, 3760, 4362, 4966, 5664], "queries": {"click": {"state": {"target": [], "time": []}, "edge": {"target": [], "time": []}}, "mouseover": {"state": {"target": [], "time": []}, "edge": {"target": [], "time": []}}, "mouseout": {"state": {"target": ["0"], "time": [1418]}, "edge": {"target": [], "time": []}}}, "displayed_time": "6.18", "trialTime": 9894, "trial_type": "mouselab-mdp", "trial_index": 10, "time_elapsed": 644141, "internal_node_id": "0.0-2.1-2.1-1.1"}}, {"uniqueid": "w42199340:a45220070", "current_trial": 11, "dateTime": 1693481758233, "trialdata": {"view_history": [{"page_index": 0, "viewing_time": 89800}, {"page_index": 1, "viewing_time": 3170}], "rt": 92971, "trial_id": "mouselab_instructions_2_control", "trial_type": "instructions", "trial_index": 11, "time_elapsed": 737126, "internal_node_id": "0.0-2.1-3.1"}}, {"uniqueid": "w42199340:a45220070", "current_trial": 12, "dateTime": 1693481847418, "trialdata": {"rt": 89173, "response": {"Q0": "There is no cost for clicking on nodes.", "Q1": "The better I perform the higher my bonus will be.", "Q2": "No, the amount of cash at each node of the web may be different each time.", "Q3": "To finish the game in the shortest amount of time.", "Q4": "Only before moving the spider.", "Q5": "3 seconds"}, "question_order": [0, 1, 2, 3, 4, 5], "correct": {"Q0": "The cost for clicking on nodes may vary between nodes.", "Q1": "The better I perform the higher my bonus will be.", "Q2": "No, the amount of cash at each node of the web may be different each time.", "Q3": "To get the highest total score.", "Q4": "Only before moving the spider.", "Q5": "3 seconds"}, "trial_id": "mouselab_quiz_control", "trial_type": "survey-multi-choice", "trial_index": 12, "time_elapsed": 826311, "internal_node_id": "0.0-2.1-4.1"}}, {"uniqueid": "w42199340:a45220070", "current_trial": 13, "dateTime": 1693481867511, "trialdata": {"success": true, "trial_type": "fullscreen", "trial_index": 13, "time_elapsed": 846403, "internal_node_id": "0.0-2.2-0.2-0.2"}}, {"uniqueid": "w42199340:a45220070", "current_trial": 14, "dateTime": 1693481875195, "trialdata": {"view_history": [{"page_index": 0, "viewing_time": 4160}, {"page_index": 1, "viewing_time": 1367}, {"page_index": 2, "viewing_time": 926}, {"page_index": 3, "viewing_time": 1222}], "rt": 7676, "trial_id": "mouselab_instructions_1_control", "trial_type": "instructions", "trial_index": 14, "time_elapsed": 854088, "internal_node_id": "0.0-2.2-1.2"}}, {"uniqueid": "w42199340:a45220070", "current_trial": 15, "dateTime": 1693481887505, "trialdata": {"revealed_states": [], "clicked_states": [], "num_clicks_accrued": [0, 0, 0, 0, 0, 0, 0, 0, 0, 0, 0, 0, 0], "stateRewards": ["", 10, -10, 10, -10, -10, 10, -10, -10, -10, -10, -10, 10, -10, -10, -10, 10, -10, 10, -10, -10, -10, -10, 10, -10, -10, 10, -10, -10, 10, -10, -10, 10, 10], "withholdReward": false, "trial_id": "practice_1", "block": "test", "trialIndex": 4, "score": -6.5, "costs": 0, "simulationMode": [null, null, null, null, null], "rewards": [10, -10, 10, -10, -10], "path": ["0", "0", "1", "2", "3", "4", "5"], "rt": [481, 99, 128, 712, 656], "actions": ["up", "up", "up", "right", "up"], "actionTimes": [4893, 5497, 6134, 7345, 8505], "queries": {"click": {"state": {"target": [], "time": []}, "edge": {"target": [], "time": []}}, "mouseover": {"state": {"target": [], "time": []}, "edge": {"target": [], "time": []}}, "mouseout": {"state": {"target": ["14", "13", "12"], "time": [2689, 2721, 3205]}, "edge": {"target": [], "time": []}}}, "displayed_time": "9.06", "trialTime": 11499, "trial_type": "mouselab-mdp", "trial_index": 15, "time_elapsed": 866396, "internal_node_id": "0.0-2.2-2.2-0.2"}}, {"uniqueid": "w42199340:a45220070", "current_trial": 16, "dateTime": 1693481904829, "trialdata": {"revealed_states": [], "clicked_states": [], "num_clicks_accrued": [0, 0, 0, 0, 0, 0, 0, 0, 0, 0, 0, 0, 0], "stateRewards": ["", 10, 10, 10, 10, -10, 10, 10, -10, 10, -10, 10, 10, -10, -10, -10, -10, 10, -10, 10, -10, 10, -10, 10, -10, 10, 10, -10, -10, 10, 10, -10, -10, -10], "withholdReward": false, "trial_id": "practice_2", "block": "test", "trialIndex": 5, "score": 13.5, "costs": 0, "simulationMode": [null, null, null, null, null], "rewards": [10, -10, 10, 10, -10], "path": ["0", "0", "23", "24", "25", "30", "33"], "rt": [1125, 32, 85, 3, 48], "actions": ["left", "left", "left", "down", "left"], "actionTimes": [7432, 7979, 8570, 9102, 9677], "queries": {"click": {"state": {"target": [], "time": []}, "edge": {"target": [], "time": []}}, "mouseover": {"state": {"target": [], "time": []}, "edge": {"target": [], "time": []}}, "mouseout": {"state": {"target": [], "time": []}, "edge": {"target": [], "time": []}}}, "displayed_time": "10.19", "trialTime": 16465, "trial_type": "mouselab-mdp", "trial_index": 16, "time_elapsed": 883720, "internal_node_id": "0.0-2.2-2.2-1.2"}}, {"uniqueid": "w42199340:a45220070", "current_trial": 17, "dateTime": 1693481944491, "trialdata": {"view_history": [{"page_index": 0, "viewing_time": 36804}, {"page_index": 1, "viewing_time": 2843}], "rt": 39649, "trial_id": "mouselab_instructions_2_control", "trial_type": "instructions", "trial_index": 17, "time_elapsed": 923383, "internal_node_id": "0.0-2.2-3.2"}}, {"uniqueid": "w42199340:a45220070", "current_trial": 18, "dateTime": 1693482027913, "trialdata": {"rt": 83402, "response": {"Q0": "The cost for clicking on nodes may vary between nodes.", "Q1": "The better I perform the higher my bonus will be.", "Q2": "No, the amount of cash at each node of the web may be different each time.", "Q3": "To finish the game in the shortest amount of time.", "Q4": "Only before moving the spider.", "Q5": "3 seconds"}, "question_order": [0, 1, 2, 3, 4, 5], "correct": {"Q0": "The cost for clicking on nodes may vary between nodes.", "Q1": "The better I perform the higher my bonus will be.", "Q2": "No, the amount of cash at each node of the web may be different each time.", "Q3": "To get the highest total score.", "Q4": "Only before moving the spider.", "Q5": "3 seconds"}, "trial_id": "mouselab_quiz_control", "trial_type": "survey-multi-choice", "trial_index": 18, "time_elapsed": 1006806, "internal_node_id": "0.0-2.2-4.2"}}, {"uniqueid": "w42199340:a45220070", "current_trial": 19, "dateTime": 1693482036166, "trialdata": {"success": true, "trial_type": "fullscreen", "trial_index": 19, "time_elapsed": 1015059, "internal_node_id": "0.0-2.3-0.3-0.3"}}, {"uniqueid": "w42199340:a45220070", "current_trial": 20, "dateTime": 1693482044169, "trialdata": {"view_history": [{"page_index": 0, "viewing_time": 6995}, {"page_index": 1, "viewing_time": 364}, {"page_index": 2, "viewing_time": 323}, {"page_index": 3, "viewing_time": 306}], "rt": 7992, "trial_id": "mouselab_instructions_1_control", "trial_type": "instructions", "trial_index": 20, "time_elapsed": 1023062, "internal_node_id": "0.0-2.3-1.3"}}, {"uniqueid": "w42199340:a45220070", "current_trial": 21, "dateTime": 1693482057538, "trialdata": {"revealed_states": [], "clicked_states": [], "num_clicks_accrued": [0, 0, 0, 0, 0, 0, 0, 0, 0, 0, 0, 0, 0], "stateRewards": ["", 10, -10, 10, -10, -10, 10, -10, -10, -10, -10, -10, 10, -10, -10, -10, 10, -10, 10, -10, -10, -10, -10, 10, -10, -10, 10, -10, -10, 10, -10, -10, 10, 10], "withholdReward": false, "trial_id": "practice_1", "block": "test", "trialIndex": 6, "score": -6.5, "costs": 0, "simulationMode": [null, null, null, null, null], "rewards": [10, -10, 10, -10, -10], "path": ["0", "0", "1", "2", "3", "8", "11"], "rt": [1890, 566, 122, 740, 238], "actions": ["up", "up", "up", "left", "left"], "actionTimes": [5931, 7034, 7676, 8924, 9674], "queries": {"click": {"state": {"target": [], "time": []}, "edge": {"target": [], "time": []}}, "mouseover": {"state": {"target": [], "time": []}, "edge": {"target": [], "time": []}}, "mouseout": {"state": {"target": ["2", "1", "0"], "time": [2194, 2209, 2225]}, "edge": {"target": [], "time": []}}}, "displayed_time": "10.19", "trialTime": 12355, "trial_type": "mouselab-mdp", "trial_index": 21, "time_elapsed": 1036429, "internal_node_id": "0.0-2.3-2.3-0.3"}}, {"uniqueid": "w42199340:a45220070", "current_trial": 22, "dateTime": 1693482072706, "trialdata": {"revealed_states": [], "clicked_states": [], "num_clicks_accrued": [0, 0, 0, 0, 0, 0, 0, 0, 0, 0, 0, 0, 0], "stateRewards": ["", 10, 10, 10, 10, -10, 10, 10, -10, 10, -10, 10, 10, -10, -10, -10, -10, 10, -10, 10, -10, 10, -10, 10, -10, 10, 10, -10, -10, 10, 10, -10, -10, -10], "withholdReward": false, "trial_id": "practice_2", "block": "test", "trialIndex": 7, "score": 13.5, "costs": 0, "simulationMode": [null, null, null, null, null], "rewards": [10, -10, 10, 10, -10], "path": ["0", "0", "23", "24", "25", "30", "31"], "rt": [793, 83, 36, 112, 127], "actions": ["left", "left", "left", "down", "right"], "actionTimes": [4577, 5215, 5773, 6382, 7031], "queries": {"click": {"state": {"target": [], "time": []}, "edge": {"target": [], "time": []}}, "mouseover": {"state": {"target": [], "time": []}, "edge": {"target": [], "time": []}}, "mouseout": {"state": {"target": [], "time": []}, "edge": {"target": [], "time": []}}}, "displayed_time": "7.57", "trialTime": 14240, "trial_type": "mouselab-mdp", "trial_index": 22, "time_elapsed": 1051597, "internal_node_id": "0.0-2.3-2.3-1.3"}}, {"uniqueid": "w42199340:a45220070", "current_trial": 23, "dateTime": 1693482120897, "trialdata": {"view_history": [{"page_index": 0, "viewing_time": 47223}, {"page_index": 1, "viewing_time": 954}], "rt": 48178, "trial_id": "mouselab_instructions_2_control", "trial_type": "instructions", "trial_index": 23, "time_elapsed": 1099790, "internal_node_id": "0.0-2.3-3.3"}}, {"uniqueid": "w42199340:a45220070", "current_trial": 24, "dateTime": 1693482168007, "trialdata": {"rt": 47096, "response": {"Q0": "The cost for clicking on nodes may vary between nodes.", "Q1": "The better I perform the higher my bonus will be.", "Q2": "No, the amount of cash at each node of the web may be different each time.", "Q3": "To get the highest total score.", "Q4": "Only before moving the spider.", "Q5": "3 seconds"}, "question_order": [0, 1, 2, 3, 4, 5], "correct": {"Q0": "The cost for clicking on nodes may vary between nodes.", "Q1": "The better I perform the higher my bonus will be.", "Q2": "No, the amount of cash at each node of the web may be different each time.", "Q3": "To get the highest total score.", "Q4": "Only before moving the spider.", "Q5": "3 seconds"}, "trial_id": "mouselab_quiz_control", "trial_type": "survey-multi-choice", "trial_index": 24, "time_elapsed": 1146900, "internal_node_id": "0.0-2.3-4.3"}}, {"uniqueid": "w42199340:a45220070", "current_trial": 25, "dateTime": 1693482182075, "trialdata": {"rt": 14027, "response": {"Q0": "No"}, "question_order": [0], "trial_id": "repeat_check", "trial_type": "survey-multi-choice", "trial_index": 25, "time_elapsed": 1160965, "internal_node_id": "0.0-4.0-0.0"}}, {"uniqueid": "w42199340:a45220070", "current_trial": 26, "dateTime": 1693482198787, "trialdata": {"rt": 16671, "stimulus": "\n<h1> Get ready to start the game! </h1>\n\nThank you for reading the instructions. Get ready start with the 40 rounds of this game.\n<br><br>\nIf you need to take a break, feel free to take one after the end of a round, before continuing to the next one.\n<br><br>\nRemember, the more money the spider gets, the bigger your bonus will be!\n<br><br>\n<div style='text-align: center;'>Press <code>space</code> to begin.</div>\n\n<br><br>\n(If, at any point, the <code>space</code> key does not take you to the next page, click once on the text and try again.)", "response": " ", "trial_id": "mdp_ready", "trial_type": "html-keyboard-response", "trial_index": 26, "time_elapsed": 1177680, "internal_node_id": "0.0-6.0-0.0"}}, {"uniqueid": "w42199340:a45220070", "current_trial": 27, "dateTime": 1693482221782, "trialdata": {"revealed_states": [], "clicked_states": [], "num_clicks_accrued": [0, 0, 0, 0, 0, 0, 0, 0, 0, 0, 0, 0, 0], "stateRewards": ["", 1, 1, -5, 10, -31, 73, 14, -8, -23, 63, -70, -1, 2, 8, 7, 25, -59, 27, -10, -40, -71, -15, -2, 3, -8, -5, -19, 77, -34, 7, 67, 63, 19], "withholdReward": false, "trial_id": "mdp_trial_1", "block": "test", "trialIndex": 8, "score": 67, "costs": 0, "simulationMode": [null, null, null, null, null], "rewards": [-2, 3, -8, 7, 67], "path": ["0", "0", "23", "24", "25", "30", "31"], "rt": [750, 166, 129, 66, 1873], "actions": ["left", "left", "left", "down", "right"], "actionTimes": [3594, 4271, 4916, 5505, 7903], "queries": {"click": {"state": {"target": [], "time": []}, "edge": {"target": [], "time": []}}, "mouseover": {"state": {"target": [], "time": []}, "edge": {"target": [], "time": []}}, "mouseout": {"state": {"target": ["3", "2", "0", "0", "23", "31"], "time": [1415, 1465, 6301, 6485, 6521, 11670]}, "edge": {"target": [], "time": []}}}, "displayed_time": "16.85", "trialTime": 22219, "trial_type": "mouselab-mdp", "trial_index": 27, "time_elapsed": 1200674, "internal_node_id": "0.0-6.0-1.0-0.0"}}, {"uniqueid": "w42199340:a45220070", "current_trial": 28, "dateTime": 1693482243610, "trialdata": {"revealed_states": [], "clicked_states": [], "num_clicks_accrued": [0, 0, 0, 0, 0, 0, 0, 0, 0, 0, 0, 0, 0], "stateRewards": ["", 1, -4, -4, 8, 1, -79, 68, -10, -79, 8, -74, -1, -3, -6, 14, 43, 23, 9, 5, -51, 63, 61, -2, 4, 6, -10, 69, -32, 57, 15, -80, -80, -77], "withholdReward": false, "trial_id": "mdp_trial_2", "block": "test", "trialIndex": 9, "score": 55, "costs": 0, "simulationMode": [null, null, null, null, null], "rewards": [-2, 4, 6, -10, 57], "path": ["0", "0", "23", "24", "25", "26", "29"], "rt": [591, 163, 30, 357, 349], "actions": ["left", "left", "left", "up", "left"], "actionTimes": [3795, 4503, 5065, 5969, 6839], "queries": {"click": {"state": {"target": [], "time": []}, "edge": {"target": [], "time": []}}, "mouseover": {"state": {"target": [], "time": []}, "edge": {"target": [], "time": []}}, "mouseout": {"state": {"target": ["19", "12", "0", "21"], "time": [1632, 1748, 11104, 11152]}, "edge": {"target": [], "time": []}}}, "displayed_time": "17.21", "trialTime": 20950, "trial_type": "mouselab-mdp", "trial_index": 28, "time_elapsed": 1222501, "internal_node_id": "0.0-6.0-1.0-1.0"}}, {"uniqueid": "w42199340:a45220070", "current_trial": 29, "dateTime": 1693482266409, "trialdata": {"revealed_states": [], "clicked_states": [], "num_clicks_accrued": [0, 0, 0, 0, 0, 0, 0, 0, 0, 0, 0, 0, 0], "stateRewards": ["", -1, 4, -3, 3, 57, -61, 5, -11, 23, -1, 34, -2, -4, -1, -13, 27, 38, -36, 4, -45, 21, 88, 1, -2, -1, 1, -69, -5, -78, -12, -9, 38, -54], "withholdReward": false, "trial_id": "mdp_trial_3", "block": "test", "trialIndex": 10, "score": -12, "costs": 0, "simulationMode": [null, null, null, null, null], "rewards": [-1, 4, -3, -11, -1], "path": ["0", "0", "1", "2", "3", "8", "10"], "rt": [778, 127, 76, 127, 1018], "actions": ["up", "up", "up", "left", "down"], "actionTimes": [3006, 3646, 4243, 4879, 6420], "queries": {"click": {"state": {"target": [], "time": []}, "edge": {"target": [], "time": []}}, "mouseover": {"state": {"target": [], "time": []}, "edge": {"target": [], "time": []}}, "mouseout": {"state": {"target": ["21", "0", "0", "12", "19", "20"], "time": [866, 994, 19606, 19637, 19655, 19672]}, "edge": {"target": [], "time": []}}}, "displayed_time": "16.23", "trialTime": 21888, "trial_type": "mouselab-mdp", "trial_index": 29, "time_elapsed": 1245300, "internal_node_id": "0.0-6.0-1.0-2.0"}}, {"uniqueid": "w42199340:a45220070", "current_trial": 30, "dateTime": 1693482285787, "trialdata": {"revealed_states": [], "clicked_states": [], "num_clicks_accrued": [0, 0, 0, 0, 0, 0, 0, 0, 0, 0, 0, 0, 0], "stateRewards": ["", 2, -3, -4, -1, 25, -16, 16, 10, -71, -20, -55, 1, 3, -4, -9, 1, 32, 11, -6, 32, -50, -41, -1, 4, 4, -8, 7, -81, 70, 2, -52, 45, -10], "withholdReward": false, "trial_id": "mdp_trial_4", "block": "test", "trialIndex": 11, "score": 54, "costs": 0, "simulationMode": [null, null, null, null, null], "rewards": [-1, 4, 4, 2, 45], "path": ["0", "0", "23", "24", "25", "30", "32"], "rt": [2573, 301, 546, 481, 3251], "actions": ["left", "left", "left", "down", "down"], "actionTimes": [5279, 6083, 7163, 8167, 11951], "queries": {"click": {"state": {"target": [], "time": []}, "edge": {"target": [], "time": []}}, "mouseover": {"state": {"target": [], "time": []}, "edge": {"target": [], "time": []}}, "mouseout": {"state": {"target": ["0"], "time": [14662]}, "edge": {"target": [], "time": []}}}, "displayed_time": "16.71", "trialTime": 17940, "trial_type": "mouselab-mdp", "trial_index": 30, "time_elapsed": 1264679, "internal_node_id": "0.0-6.0-1.0-3.0"}}, {"uniqueid": "w42199340:a45220070", "current_trial": 31, "dateTime": 1693482309489, "trialdata": {"revealed_states": [], "clicked_states": [], "num_clicks_accrued": [0, 0, 0, 0, 0, 0, 0, 0, 0, 0, 0, 0, 0], "stateRewards": ["", 1, 1, -3, 7, 49, 78, 26, -5, 26, 48, -43, -1, -3, 2, -5, 4, -1, -60, 10, -35, 51, 81, -2, 1, -7, -5, -39, -86, -54, 4, -3, 74, 77], "withholdReward": false, "trial_id": "mdp_trial_5", "block": "test", "trialIndex": 12, "score": -52, "costs": 0, "simulationMode": [null, null, null, null, null], "rewards": [-2, 1, -7, -5, -39], "path": ["0", "0", "23", "24", "25", "26", "27"], "rt": [857, 95, 437, 51, 3199], "actions": ["left", "left", "left", "up", "up"], "actionTimes": [5916, 6554, 7504, 8071, 11785], "queries": {"click": {"state": {"target": [], "time": []}, "edge": {"target": [], "time": []}}, "mouseover": {"state": {"target": [], "time": []}, "edge": {"target": [], "time": []}}, "mouseout": {"state": {"target": ["0", "0"], "time": [4211, 13471]}, "edge": {"target": [], "time": []}}}, "displayed_time": "19.06", "trialTime": 21602, "trial_type": "mouselab-mdp", "trial_index": 31, "time_elapsed": 1288381, "internal_node_id": "0.0-6.0-1.0-4.0"}}, {"uniqueid": "w42199340:a45220070", "current_trial": 32, "dateTime": 1693482331159, "trialdata": {"revealed_states": [], "clicked_states": [], "num_clicks_accrued": [0, 0, 0, 0, 0, 0, 0, 0, 0, 0, 0, 0, 0], "stateRewards": ["", -2, 1, 6, -2, -10, -78, -69, 14, -15, 7, -1, 1, -1, -2, 13, 77, 32, 87, 5, -74, 30, -26, 1, 3, 4, 12, 39, 54, -43, 2, 10, 23, 13], "withholdReward": false, "trial_id": "mdp_trial_6", "block": "test", "trialIndex": 13, "score": -23, "costs": 0, "simulationMode": [null, null, null, null, null], "rewards": [1, -1, -2, 5, -26], "path": ["0", "0", "12", "13", "14", "19", "22"], "rt": [1800, 193, 159, 36, 283], "actions": ["right", "right", "right", "down", "left"], "actionTimes": [6454, 7160, 7844, 8404, 9223], "queries": {"click": {"state": {"target": [], "time": []}, "edge": {"target": [], "time": []}}, "mouseover": {"state": {"target": [], "time": []}, "edge": {"target": [], "time": []}}, "mouseout": {"state": {"target": ["22", "0"], "time": [3127, 5180]}, "edge": {"target": [], "time": []}}}, "displayed_time": "18.66", "trialTime": 20728, "trial_type": "mouselab-mdp", "trial_index": 32, "time_elapsed": 1310050, "internal_node_id": "0.0-6.0-1.0-5.0"}}, {"uniqueid": "w42199340:a45220070", "current_trial": 33, "dateTime": 1693482352238, "trialdata": {"revealed_states": [], "clicked_states": [], "num_clicks_accrued": [0, 0, 0, 0, 0, 0, 0, 0, 0, 0, 0, 0, 0], "stateRewards": ["", 2, -1, -3, 16, -3, -16, -62, -1, 13, -26, 43, -1, 4, 3, -9, -54, -37, -3, -12, -71, -68, -57, 1, -3, 2, -9, 2, -2, -9, -11, 84, -52, 55], "withholdReward": false, "trial_id": "mdp_trial_7", "block": "test", "trialIndex": 14, "score": -63, "costs": 0, "simulationMode": [null, null, null, null, null], "rewards": [1, -3, 2, -11, -52], "path": ["0", "0", "23", "24", "25", "30", "32"], "rt": [1069, 642, 2235, 5939, 1131], "actions": ["left", "left", "left", "down", "down"], "actionTimes": [4961, 6124, 8885, 15339, 17022], "queries": {"click": {"state": {"target": [], "time": []}, "edge": {"target": [], "time": []}}, "mouseover": {"state": {"target": [], "time": []}, "edge": {"target": [], "time": []}}, "mouseout": {"state": {"target": ["0", "10", "8", "27", "26", "25", "30", "31"], "time": [9666, 9763, 9914, 11349, 13981, 14419, 17834, 17852]}, "edge": {"target": [], "time": []}}}, "displayed_time": "17.89", "trialTime": 20230, "trial_type": "mouselab-mdp", "trial_index": 33, "time_elapsed": 1331129, "internal_node_id": "0.0-6.0-1.0-6.0"}}, {"uniqueid": "w42199340:a45220070", "current_trial": 34, "dateTime": 1693482373527, "trialdata": {"revealed_states": [], "clicked_states": [], "num_clicks_accrued": [0, 0, 0, 0, 0, 0, 0, 0, 0, 0, 0, 0, 0], "stateRewards": ["", 1, -3, -6, -5, 47, 80, -29, 11, -71, 10, -29, -2, 3, -6, 12, 2, -78, -6, 8, 34, -16, -5, -1, 3, 3, -13, 84, -36, -62, -3, -27, 66, 15], "withholdReward": false, "trial_id": "mdp_trial_8", "block": "test", "trialIndex": 15, "score": 34, "costs": 0, "simulationMode": [null, null, null, null, null], "rewards": [1, -3, -6, -5, 47], "path": ["0", "0", "1", "2", "3", "4", "5"], "rt": [2816, 496, 302, 90, 670], "actions": ["up", "up", "up", "right", "up"], "actionTimes": [5243, 6262, 7086, 7711, 8888], "queries": {"click": {"state": {"target": [], "time": []}, "edge": {"target": [], "time": []}}, "mouseover": {"state": {"target": [], "time": []}, "edge": {"target": [], "time": []}}, "mouseout": {"state": {"target": ["19", "0", "0", "19", "22", "22", "19"], "time": [1166, 1292, 15618, 17668, 17687, 18087, 18105]}, "edge": {"target": [], "time": []}}}, "displayed_time": "16.43", "trialTime": 20310, "trial_type": "mouselab-mdp", "trial_index": 34, "time_elapsed": 1352417, "internal_node_id": "0.0-6.0-1.0-7.0"}}, {"uniqueid": "w42199340:a45220070", "current_trial": 35, "dateTime": 1693482395051, "trialdata": {"revealed_states": [], "clicked_states": [], "num_clicks_accrued": [0, 0, 0, 0, 0, 0, 0, 0, 0, 0, 0, 0, 0], "stateRewards": ["", 1, 3, -2, 15, 51, 15, -19, 11, 67, -45, -73, 2, 4, -2, -13, 36, 9, -28, 10, -30, 31, 16, 1, 2, -1, -16, 14, -22, 36, -1, 88, -5, 45], "withholdReward": false, "trial_id": "mdp_trial_9", "block": "test", "trialIndex": 16, "score": 32, "costs": 0, "simulationMode": [null, null, null, null, null], "rewards": [1, 3, -2, 15, 15], "path": ["0", "0", "1", "2", "3", "4", "6"], "rt": [3467, 234, 2206, 2145, 1117], "actions": ["up", "up", "up", "right", "right"], "actionTimes": [7964, 8722, 11445, 14200, 15842], "queries": {"click": {"state": {"target": [], "time": []}, "edge": {"target": [], "time": []}}, "mouseover": {"state": {"target": [], "time": []}, "edge": {"target": [], "time": []}}, "mouseout": {"state": {"target": ["0", "14"], "time": [16745, 16790]}, "edge": {"target": [], "time": []}}}, "displayed_time": "18.50", "trialTime": 20632, "trial_type": "mouselab-mdp", "trial_index": 35, "time_elapsed": 1373942, "internal_node_id": "0.0-6.0-1.0-8.0"}}, {"uniqueid": "w42199340:a45220070", "current_trial": 36, "dateTime": 1693482415287, "trialdata": {"revealed_states": [], "clicked_states": [], "num_clicks_accrued": [0, 0, 0, 0, 0, 0, 0, 0, 0, 0, 0, 0, 0], "stateRewards": ["", 1, -1, 4, 5, -32, 18, 20, 6, -88, -74, 9, -2, 1, -2, -14, 34, -77, -38, -1, 80, -36, 73, 2, 3, -8, 10, -48, -73, -71, -11, -22, 20, 54], "withholdReward": false, "trial_id": "mdp_trial_10", "block": "test", "trialIndex": 17, "score": 6, "costs": 0, "simulationMode": [null, null, null, null, null], "rewards": [2, 3, -8, -11, 20], "path": ["0", "0", "23", "24", "25", "30", "32"], "rt": [2909, 617, 851, 936, 1360], "actions": ["left", "left", "left", "down", "down"], "actionTimes": [5948, 7464, 8832, 10284, 12171], "queries": {"click": {"state": {"target": [], "time": []}, "edge": {"target": [], "time": []}}, "mouseover": {"state": {"target": [], "time": []}, "edge": {"target": [], "time": []}}, "mouseout": {"state": {"target": ["22", "13", "0"], "time": [1343, 1491, 1723]}, "edge": {"target": [], "time": []}}}, "displayed_time": "17.05", "trialTime": 19173, "trial_type": "mouselab-mdp", "trial_index": 36, "time_elapsed": 1394180, "internal_node_id": "0.0-6.0-1.0-9.0"}}, {"uniqueid": "w42199340:a45220070", "current_trial": 37, "dateTime": 1693482435627, "trialdata": {"revealed_states": [], "clicked_states": [], "num_clicks_accrued": [0, 0, 0, 0, 0, 0, 0, 0, 0, 0, 0, 0, 0], "stateRewards": ["", -2, -1, -4, -15, -14, -67, 32, -3, -59, 63, 31, 2, -1, -7, -15, 71, -66, -27, -3, -54, -39, 72, 2, 1, 1, -13, 77, -40, 35, -9, 35, 75, 57], "withholdReward": false, "trial_id": "mdp_trial_11", "block": "test", "trialIndex": 18, "score": -48, "costs": 0, "simulationMode": [null, null, null, null, null], "rewards": [2, -1, -7, -15, -27], "path": ["0", "0", "12", "13", "14", "15", "18"], "rt": [2611, 470, 501, 222, 260], "actions": ["right", "right", "right", "up", "left"], "actionTimes": [5904, 6903, 7961, 8739, 9512], "queries": {"click": {"state": {"target": [], "time": []}, "edge": {"target": [], "time": []}}, "mouseover": {"state": {"target": [], "time": []}, "edge": {"target": [], "time": []}}, "mouseout": {"state": {"target": ["0"], "time": [3515]}, "edge": {"target": [], "time": []}}}, "displayed_time": "17.29", "trialTime": 18741, "trial_type": "mouselab-mdp", "trial_index": 37, "time_elapsed": 1414520, "internal_node_id": "0.0-6.0-1.0-10.0"}}, {"uniqueid": "w42199340:a45220070", "current_trial": 38, "dateTime": 1693482454101, "trialdata": {"revealed_states": [], "clicked_states": [], "num_clicks_accrued": [0, 0, 0, 0, 0, 0, 0, 0, 0, 0, 0, 0, 0], "stateRewards": ["", 1, 1, -3, 2, 22, -25, -11, -5, 50, 49, 3, 1, -1, 8, 14, -85, -30, 57, -6, -39, -16, 59, -2, -1, 5, 5, 59, -16, 8, 4, 67, 56, -9], "withholdReward": false, "trial_id": "mdp_trial_12", "block": "test", "trialIndex": 19, "score": 73, "costs": 0, "simulationMode": [null, null, null, null, null], "rewards": [-2, -1, 5, 4, 67], "path": ["0", "0", "23", "24", "25", "30", "31"], "rt": [1833, 659, 1842, 267, 983], "actions": ["left", "left", "left", "down", "right"], "actionTimes": [3870, 5052, 7475, 8266, 9786], "queries": {"click": {"state": {"target": [], "time": []}, "edge": {"target": [], "time": []}}, "mouseover": {"state": {"target": [], "time": []}, "edge": {"target": [], "time": []}}, "mouseout": {"state": {"target": ["0"], "time": [1280]}, "edge": {"target": [], "time": []}}}, "displayed_time": "16.04", "trialTime": 17350, "trial_type": "mouselab-mdp", "trial_index": 38, "time_elapsed": 1432993, "internal_node_id": "0.0-6.0-1.0-11.0"}}, {"uniqueid": "w42199340:a45220070", "current_trial": 39, "dateTime": 1693482479080, "trialdata": {"revealed_states": [], "clicked_states": [], "num_clicks_accrued": [0, 0, 0, 0, 0, 0, 0, 0, 0, 0, 0, 0, 0], "stateRewards": ["", -1, 2, -2, 5, 80, -61, -27, 12, 44, -26, -75, -2, -4, 1, -16, 42, -49, -50, 4, -44, 2, 80, -2, -2, 5, -2, 59, 10, 24, 7, -48, -86, -44], "withholdReward": false, "trial_id": "mdp_trial_13", "block": "test", "trialIndex": 20, "score": -78, "costs": 0, "simulationMode": [null, null, null, null, null], "rewards": [-2, -2, 5, 7, -86], "path": ["0", "0", "23", "24", "25", "30", "32"], "rt": [2466, 591, 473, 645, 3037], "actions": ["left", "left", "left", "down", "down"], "actionTimes": [11372, 12561, 13547, 14719, 18279], "queries": {"click": {"state": {"target": [], "time": []}, "edge": {"target": [], "time": []}}, "mouseover": {"state": {"target": [], "time": []}, "edge": {"target": [], "time": []}}, "mouseout": {"state": {"target": ["0"], "time": [7883]}, "edge": {"target": [], "time": []}}}, "displayed_time": "22.91", "trialTime": 23967, "trial_type": "mouselab-mdp", "trial_index": 39, "time_elapsed": 1457972, "internal_node_id": "0.0-6.0-1.0-12.0"}}, {"uniqueid": "w42199340:a45220070", "current_trial": 40, "dateTime": 1693482503131, "trialdata": {"revealed_states": [], "clicked_states": [], "num_clicks_accrued": [0, 0, 0, 0, 0, 0, 0, 0, 0, 0, 0, 0, 0], "stateRewards": ["", 1, -2, -8, -3, 31, -84, -55, -14, 15, -58, 17, -2, -3, 7, 7, -12, 48, 67, 4, -44, -68, 46, 2, 3, -5, -7, 76, 27, 5, 11, 57, 52, 59], "withholdReward": false, "trial_id": "mdp_trial_14", "block": "test", "trialIndex": 21, "score": -67, "costs": 0, "simulationMode": [null, null, null, null, null], "rewards": [1, -2, -8, -3, -55], "path": ["0", "0", "1", "2", "3", "4", "7"], "rt": [746, 296, 123, 61, 8], "actions": ["up", "up", "up", "right", "down"], "actionTimes": [8309, 9128, 9772, 10361, 10873], "queries": {"click": {"state": {"target": [], "time": []}, "edge": {"target": [], "time": []}}, "mouseover": {"state": {"target": [], "time": []}, "edge": {"target": [], "time": []}}, "mouseout": {"state": {"target": ["0"], "time": [6954]}, "edge": {"target": [], "time": []}}}, "displayed_time": "21.57", "trialTime": 22928, "trial_type": "mouselab-mdp", "trial_index": 40, "time_elapsed": 1482022, "internal_node_id": "0.0-6.0-1.0-13.0"}}, {"uniqueid": "w42199340:a45220070", "current_trial": 41, "dateTime": 1693482534587, "trialdata": {"revealed_states": [], "clicked_states": [], "num_clicks_accrued": [0, 0, 0, 0, 0, 0, 0, 0, 0, 0, 0, 0, 0], "stateRewards": ["", 2, -4, 7, 3, 23, -42, 4, 7, -81, -33, 7, -2, -4, 5, -1, 50, -57, -14, -13, -14, 44, 55, -2, -2, 5, -2, 33, 1, 57, -13, -7, 58, 87], "withholdReward": false, "trial_id": "mdp_trial_15", "block": "test", "trialIndex": 22, "score": 0, "costs": 0, "simulationMode": [null, null, null, null, null], "rewards": [-2, -2, 5, -2, 1], "path": ["0", "0", "23", "24", "25", "26", "28"], "rt": [1925, 815, 360, 4960, 15384], "actions": ["left", "left", "left", "up", "right"], "actionTimes": [3633, 4973, 5853, 11336, 27246], "queries": {"click": {"state": {"target": [], "time": []}, "edge": {"target": [], "time": []}}, "mouseover": {"state": {"target": [], "time": []}, "edge": {"target": [], "time": []}}, "mouseout": {"state": {"target": ["0", "0", "12", "14"], "time": [1064, 7838, 7860, 7905]}, "edge": {"target": [], "time": []}}}, "displayed_time": "27.77", "trialTime": 30443, "trial_type": "mouselab-mdp", "trial_index": 41, "time_elapsed": 1513479, "internal_node_id": "0.0-6.0-1.0-14.0"}}, {"uniqueid": "w42199340:a45220070", "current_trial": 42, "dateTime": 1693482554243, "trialdata": {"revealed_states": [], "clicked_states": [], "num_clicks_accrued": [0, 0, 0, 0, 0, 0, 0, 0, 0, 0, 0, 0, 0], "stateRewards": ["", 2, 4, 7, 7, -79, -2, -21, -5, -53, 47, -21, 1, -3, -1, 7, 83, 7, 84, -7, 80, -37, 69, 2, -4, 5, 2, 4, -20, -30, 7, 71, 44, -81], "withholdReward": false, "trial_id": "mdp_trial_16", "block": "test", "trialIndex": 23, "score": -45, "costs": 0, "simulationMode": [null, null, null, null, null], "rewards": [2, 4, 7, -5, -53], "path": ["0", "0", "1", "2", "3", "8", "9"], "rt": [1640, 281, 54, 5, 356], "actions": ["up", "up", "up", "left", "up"], "actionTimes": [4855, 5659, 6230, 6732, 7617], "queries": {"click": {"state": {"target": [], "time": []}, "edge": {"target": [], "time": []}}, "mouseover": {"state": {"target": [], "time": []}, "edge": {"target": [], "time": []}}, "mouseout": {"state": {"target": ["14", "13", "12"], "time": [1671, 1705, 1770]}, "edge": {"target": [], "time": []}}}, "displayed_time": "17.22", "trialTime": 18586, "trial_type": "mouselab-mdp", "trial_index": 42, "time_elapsed": 1533134, "internal_node_id": "0.0-6.0-1.0-15.0"}}, {"uniqueid": "w42199340:a45220070", "current_trial": 43, "dateTime": 1693482574596, "trialdata": {"revealed_states": [], "clicked_states": [], "num_clicks_accrued": [0, 0, 0, 0, 0, 0, 0, 0, 0, 0, 0, 0, 0], "stateRewards": ["", 1, -4, -6, 11, -20, 8, -30, 1, -38, 88, 42, 2, 3, 5, -12, -8, -74, 30, -8, 67, -19, 42, 2, -1, 4, 13, 50, -68, 2, -8, -15, 87, -46], "withholdReward": false, "trial_id": "mdp_trial_17", "block": "test", "trialIndex": 24, "score": -17, "costs": 0, "simulationMode": [null, null, null, null, null], "rewards": [2, 3, 5, -8, -19], "path": ["0", "0", "12", "13", "14", "19", "21"], "rt": [728, 368, 321, 297, 1020], "actions": ["right", "right", "right", "down", "down"], "actionTimes": [4863, 5759, 6594, 7404, 8661], "queries": {"click": {"state": {"target": [], "time": []}, "edge": {"target": [], "time": []}}, "mouseover": {"state": {"target": [], "time": []}, "edge": {"target": [], "time": []}}, "mouseout": {"state": {"target": ["0"], "time": [4434]}, "edge": {"target": [], "time": []}}}, "displayed_time": "18.14", "trialTime": 19246, "trial_type": "mouselab-mdp", "trial_index": 43, "time_elapsed": 1553488, "internal_node_id": "0.0-6.0-1.0-16.0"}}, {"uniqueid": "w42199340:a45220070", "current_trial": 44, "dateTime": 1693482595593, "trialdata": {"revealed_states": [], "clicked_states": [], "num_clicks_accrued": [0, 0, 0, 0, 0, 0, 0, 0, 0, 0, 0, 0, 0], "stateRewards": ["", 2, 4, 4, 9, -88, -10, 44, 16, -54, 64, 78, 1, 2, 5, 16, 80, 36, 7, -4, 9, -47, -70, -1, -3, 6, -16, 11, 80, 28, 8, -1, 34, -17], "withholdReward": false, "trial_id": "mdp_trial_18", "block": "test", "trialIndex": 25, "score": 14, "costs": 0, "simulationMode": [null, null, null, null, null], "rewards": [-1, -3, 6, -16, 28], "path": ["0", "0", "23", "24", "25", "26", "29"], "rt": [1642, 54, 111, 36, 575], "actions": ["left", "left", "left", "up", "left"], "actionTimes": [3615, 4186, 4811, 5368, 6463], "queries": {"click": {"state": {"target": [], "time": []}, "edge": {"target": [], "time": []}}, "mouseover": {"state": {"target": [], "time": []}, "edge": {"target": [], "time": []}}, "mouseout": {"state": {"target": ["0"], "time": [1059]}, "edge": {"target": [], "time": []}}}, "displayed_time": "15.97", "trialTime": 19309, "trial_type": "mouselab-mdp", "trial_index": 44, "time_elapsed": 1574484, "internal_node_id": "0.0-6.0-1.0-17.0"}}, {"uniqueid": "w42199340:a45220070", "current_trial": 45, "dateTime": 1693482614627, "trialdata": {"revealed_states": [], "clicked_states": [], "num_clicks_accrued": [0, 0, 0, 0, 0, 0, 0, 0, 0, 0, 0, 0, 0], "stateRewards": ["", -1, -4, -1, -11, 43, 69, 39, 4, 17, -20, -82, -2, -1, 4, 8, -79, 24, -79, 11, 36, 64, 41, 2, 4, -1, 11, -79, -47, 75, -3, 63, -36, -19], "withholdReward": false, "trial_id": "mdp_trial_19", "block": "test", "trialIndex": 26, "score": -63, "costs": 0, "simulationMode": [null, null, null, null, null], "rewards": [2, 4, -1, 11, -79], "path": ["0", "0", "23", "24", "25", "26", "27"], "rt": [3597, 351, 724, 163, 297], "actions": ["left", "left", "left", "up", "up"], "actionTimes": [5950, 6817, 8074, 8746, 9564], "queries": {"click": {"state": {"target": [], "time": []}, "edge": {"target": [], "time": []}}, "mouseover": {"state": {"target": [], "time": []}, "edge": {"target": [], "time": []}}, "mouseout": {"state": {"target": ["0"], "time": [1328]}, "edge": {"target": [], "time": []}}}, "displayed_time": "16.36", "trialTime": 17551, "trial_type": "mouselab-mdp", "trial_index": 45, "time_elapsed": 1593518, "internal_node_id": "0.0-6.0-1.0-18.0"}}, {"uniqueid": "w42199340:a45220070", "current_trial": 46, "dateTime": 1693482633347, "trialdata": {"revealed_states": [], "clicked_states": [], "num_clicks_accrued": [0, 0, 0, 0, 0, 0, 0, 0, 0, 0, 0, 0, 0], "stateRewards": ["", -2, 2, 2, -6, 9, 37, 50, -13, -7, -18, -75, -2, -4, 4, 7, 23, -57, -66, -7, -81, -48, -76, 1, 1, -8, 1, 51, -2, 70, 14, 59, 71, -37], "withholdReward": false, "trial_id": "mdp_trial_20", "block": "test", "trialIndex": 27, "score": -7, "costs": 0, "simulationMode": [null, null, null, null, null], "rewards": [1, 1, -8, 1, -2], "path": ["0", "0", "23", "24", "25", "26", "28"], "rt": [1314, 39, 20, 589, 430], "actions": ["left", "left", "left", "up", "right"], "actionTimes": [3105, 3684, 4227, 5313, 6255], "queries": {"click": {"state": {"target": [], "time": []}, "edge": {"target": [], "time": []}}, "mouseover": {"state": {"target": [], "time": []}, "edge": {"target": [], "time": []}}, "mouseout": {"state": {"target": ["0"], "time": [1157]}, "edge": {"target": [], "time": []}}}, "displayed_time": "15.80", "trialTime": 17529, "trial_type": "mouselab-mdp", "trial_index": 46, "time_elapsed": 1612240, "internal_node_id": "0.0-6.0-1.0-19.0"}}, {"uniqueid": "w42199340:a45220070", "current_trial": 47, "dateTime": 1693482653048, "trialdata": {"revealed_states": [], "clicked_states": [], "num_clicks_accrued": [0, 0, 0, 0, 0, 0, 0, 0, 0, 0, 0, 0, 0], "stateRewards": ["", 2, -1, -2, -5, -47, -57, -33, -11, 31, -18, -72, -2, 1, -4, -8, -46, -53, -50, 15, -85, -9, 39, -2, -2, 1, 14, -1, -8, 53, -12, -41, -74, 62], "withholdReward": false, "trial_id": "mdp_trial_21", "block": "test", "trialIndex": 28, "score": -30, "costs": 0, "simulationMode": [null, null, null, null, null], "rewards": [2, -1, -2, -11, -18], "path": ["0", "0", "1", "2", "3", "8", "10"], "rt": [1311, 104, 52, 191, 188], "actions": ["up", "up", "up", "left", "down"], "actionTimes": [3119, 3743, 4293, 4998, 5698], "queries": {"click": {"state": {"target": [], "time": []}, "edge": {"target": [], "time": []}}, "mouseover": {"state": {"target": [], "time": []}, "edge": {"target": [], "time": []}}, "mouseout": {"state": {"target": ["0"], "time": [1029]}, "edge": {"target": [], "time": []}}}, "displayed_time": "15.81", "trialTime": 18001, "trial_type": "mouselab-mdp", "trial_index": 47, "time_elapsed": 1631940, "internal_node_id": "0.0-6.0-1.0-20.0"}}, {"uniqueid": "w42199340:a45220070", "current_trial": 48, "dateTime": 1693482672640, "trialdata": {"revealed_states": [], "clicked_states": [], "num_clicks_accrued": [0, 0, 0, 0, 0, 0, 0, 0, 0, 0, 0, 0, 0], "stateRewards": ["", 1, 2, -3, 6, -88, 74, -45, 7, -46, 40, -77, 1, -4, 4, 3, 22, -25, -59, 8, -83, 19, -60, -1, -1, -1, -8, 26, -29, 64, -7, -88, -51, -55], "withholdReward": false, "trial_id": "mdp_trial_22", "block": "test", "trialIndex": 29, "score": -21, "costs": 0, "simulationMode": [null, null, null, null, null], "rewards": [1, -4, 4, 3, -25], "path": ["0", "0", "12", "13", "14", "15", "17"], "rt": [2221, 7, 325, 33, 237], "actions": ["right", "right", "right", "up", "right"], "actionTimes": [4378, 4956, 5812, 6369, 7308], "queries": {"click": {"state": {"target": [], "time": []}, "edge": {"target": [], "time": []}}, "mouseover": {"state": {"target": [], "time": []}, "edge": {"target": [], "time": []}}, "mouseout": {"state": {"target": ["0"], "time": [1397]}, "edge": {"target": [], "time": []}}}, "displayed_time": "16.16", "trialTime": 17462, "trial_type": "mouselab-mdp", "trial_index": 48, "time_elapsed": 1651531, "internal_node_id": "0.0-6.0-1.0-21.0"}}, {"uniqueid": "w42199340:a45220070", "current_trial": 49, "dateTime": 1693482691502, "trialdata": {"revealed_states": [], "clicked_states": [], "num_clicks_accrued": [0, 0, 0, 0, 0, 0, 0, 0, 0, 0, 0, 0, 0], "stateRewards": ["", -1, -3, -6, 14, 41, 18, 63, -14, 80, 21, 17, -2, -4, -2, -5, 13, 70, 8, -4, -64, -10, -20, 2, -1, 4, -1, -17, -55, 42, -7, 47, 54, 15], "withholdReward": false, "trial_id": "mdp_trial_23", "block": "test", "trialIndex": 30, "score": -51, "costs": 0, "simulationMode": [null, null, null, null, null], "rewards": [2, -1, 4, -1, -55], "path": ["0", "0", "23", "24", "25", "26", "28"], "rt": [532, 102, 22, 93, 538], "actions": ["left", "left", "left", "up", "right"], "actionTimes": [2811, 3441, 3960, 4564, 5626], "queries": {"click": {"state": {"target": [], "time": []}, "edge": {"target": [], "time": []}}, "mouseover": {"state": {"target": [], "time": []}, "edge": {"target": [], "time": []}}, "mouseout": {"state": {"target": ["0"], "time": [1623]}, "edge": {"target": [], "time": []}}}, "displayed_time": "16.29", "trialTime": 17601, "trial_type": "mouselab-mdp", "trial_index": 49, "time_elapsed": 1670395, "internal_node_id": "0.0-6.0-1.0-22.0"}}, {"uniqueid": "w42199340:a45220070", "current_trial": 50, "dateTime": 1693482721103, "trialdata": {"revealed_states": [], "clicked_states": [], "num_clicks_accrued": [0, 0, 0, 0, 0, 0, 0, 0, 0, 0, 0, 0, 0], "stateRewards": ["", -2, 3, -1, -9, 44, 48, -37, -3, 71, -39, 87, -1, 3, -4, 4, -21, 59, -15, -8, -1, 28, -38, 2, 4, 4, 8, -85, -72, -63, 14, 58, 63, -46], "withholdReward": false, "trial_id": "mdp_trial_24", "block": "test", "trialIndex": 31, "score": 68, "costs": 0, "simulationMode": [null, null, null, null, null], "rewards": [-2, 3, -1, -3, 71], "path": ["0", "0", "1", "2", "3", "8", "9"], "rt": [688, 8, 38, 2026, 6], "actions": ["up", "up", "up", "left", "up"], "actionTimes": [8370, 8912, 9561, 12108, 12635], "queries": {"click": {"state": {"target": [], "time": []}, "edge": {"target": [], "time": []}}, "mouseover": {"state": {"target": [], "time": []}, "edge": {"target": [], "time": []}}, "mouseout": {"state": {"target": ["0", "0"], "time": [6956, 23580]}, "edge": {"target": [], "time": []}}}, "displayed_time": "21.68", "trialTime": 28086, "trial_type": "mouselab-mdp", "trial_index": 50, "time_elapsed": 1699995, "internal_node_id": "0.0-6.0-1.0-23.0"}}, {"uniqueid": "w42199340:a45220070", "current_trial": 51, "dateTime": 1693482741404, "trialdata": {"revealed_states": [], "clicked_states": [], "num_clicks_accrued": [0, 0, 0, 0, 0, 0, 0, 0, 0, 0, 0, 0, 0], "stateRewards": ["", 2, -1, 3, -12, -83, 6, -33, 9, 28, 24, -50, -2, -1, -2, -5, -87, 37, 82, 12, 80, -5, 10, -2, -3, -6, 9, 22, -1, 16, 9, 77, -62, 58], "withholdReward": false, "trial_id": "mdp_trial_25", "block": "test", "trialIndex": 32, "score": -37, "costs": 0, "simulationMode": [null, null, null, null, null], "rewards": [2, -1, 3, 9, -50], "path": ["0", "0", "1", "2", "3", "8", "11"], "rt": [2135, 66, 68, 1027, 835], "actions": ["up", "up", "up", "left", "left"], "actionTimes": [5258, 5846, 6418, 7953, 9300], "queries": {"click": {"state": {"target": [], "time": []}, "edge": {"target": [], "time": []}}, "mouseover": {"state": {"target": [], "time": []}, "edge": {"target": [], "time": []}}, "mouseout": {"state": {"target": [], "time": []}, "edge": {"target": [], "time": []}}}, "displayed_time": "17.13", "trialTime": 18716, "trial_type": "mouselab-mdp", "trial_index": 51, "time_elapsed": 1720297, "internal_node_id": "0.0-6.0-1.0-24.0"}}, {"uniqueid": "w42199340:a45220070", "current_trial": 52, "dateTime": 1693482764525, "trialdata": {"revealed_states": [], "clicked_states": [], "num_clicks_accrued": [0, 0, 0, 0, 0, 0, 0, 0, 0, 0, 0, 0, 0], "stateRewards": ["", -1, 4, -8, 12, 14, 69, -8, 5, -72, -14, 56, -1, -1, -1, 9, 67, 19, 11, -9, -88, -58, 3, 2, -4, -8, 4, 62, 77, -74, 5, -31, 65, 88], "withholdReward": false, "trial_id": "mdp_trial_26", "block": "test", "trialIndex": 33, "score": 56, "costs": 0, "simulationMode": [null, null, null, null, null], "rewards": [2, -4, -8, 4, 62], "path": ["0", "0", "23", "24", "25", "26", "27"], "rt": [1114, 372, 1935, 170, 17], "actions": ["left", "left", "left", "up", "up"], "actionTimes": [3831, 4800, 7246, 7958, 8476], "queries": {"click": {"state": {"target": [], "time": []}, "edge": {"target": [], "time": []}}, "mouseover": {"state": {"target": [], "time": []}, "edge": {"target": [], "time": []}}, "mouseout": {"state": {"target": ["0"], "time": [21123]}, "edge": {"target": [], "time": []}}}, "displayed_time": "16.72", "trialTime": 21839, "trial_type": "mouselab-mdp", "trial_index": 52, "time_elapsed": 1743417, "internal_node_id": "0.0-6.0-1.0-25.0"}}, {"uniqueid": "w42199340:a45220070", "current_trial": 53, "dateTime": 1693482784408, "trialdata": {"revealed_states": [], "clicked_states": [], "num_clicks_accrued": [0, 0, 0, 0, 0, 0, 0, 0, 0, 0, 0, 0, 0], "stateRewards": ["", -2, -1, -5, 10, -36, -70, 68, -9, 86, 71, -10, 2, -4, 7, -7, 66, 44, -66, -13, -69, 43, 15, -2, 2, 6, -13, 62, 57, 50, -10, -69, 42, -72], "withholdReward": false, "trial_id": "mdp_trial_27", "block": "test", "trialIndex": 34, "score": 55, "costs": 0, "simulationMode": [null, null, null, null, null], "rewards": [-2, 2, 6, -13, 62], "path": ["0", "0", "23", "24", "25", "26", "27"], "rt": [1475, 456, 188, 186, 416], "actions": ["left", "left", "left", "up", "up"], "actionTimes": [4191, 5163, 5874, 6589, 7624], "queries": {"click": {"state": {"target": [], "time": []}, "edge": {"target": [], "time": []}}, "mouseover": {"state": {"target": [], "time": []}, "edge": {"target": [], "time": []}}, "mouseout": {"state": {"target": [], "time": []}, "edge": {"target": [], "time": []}}}, "displayed_time": "16.72", "trialTime": 18435, "trial_type": "mouselab-mdp", "trial_index": 53, "time_elapsed": 1763299, "internal_node_id": "0.0-6.0-1.0-26.0"}}, {"uniqueid": "w42199340:a45220070", "current_trial": 54, "dateTime": 1693482804875, "trialdata": {"revealed_states": [], "clicked_states": [], "num_clicks_accrued": [0, 0, 0, 0, 0, 0, 0, 0, 0, 0, 0, 0, 0], "stateRewards": ["", 1, -3, -2, 14, 49, -40, -39, 2, 26, -61, 73, 1, -4, -8, 12, 79, 29, -65, -13, 55, -26, 27, -1, 3, 3, 9, -17, -60, -18, -8, 35, -88, 69], "withholdReward": false, "trial_id": "mdp_trial_28", "block": "test", "trialIndex": 35, "score": 59, "costs": 0, "simulationMode": [null, null, null, null, null], "rewards": [1, -3, -2, 14, 49], "path": ["0", "0", "1", "2", "3", "4", "5"], "rt": [2152, 32, 143, 264, 1013], "actions": ["up", "up", "up", "right", "up"], "actionTimes": [4569, 5154, 5823, 6659, 8193], "queries": {"click": {"state": {"target": [], "time": []}, "edge": {"target": [], "time": []}}, "mouseover": {"state": {"target": [], "time": []}, "edge": {"target": [], "time": []}}, "mouseout": {"state": {"target": ["19", "12"], "time": [1190, 1224]}, "edge": {"target": [], "time": []}}}, "displayed_time": "16.46", "trialTime": 19261, "trial_type": "mouselab-mdp", "trial_index": 54, "time_elapsed": 1783768, "internal_node_id": "0.0-6.0-1.0-27.0"}}, {"uniqueid": "w42199340:a45220070", "current_trial": 55, "dateTime": 1693482825711, "trialdata": {"revealed_states": [], "clicked_states": [], "num_clicks_accrued": [0, 0, 0, 0, 0, 0, 0, 0, 0, 0, 0, 0, 0], "stateRewards": ["", 1, 4, 7, -16, -84, -6, -46, -12, -7, -49, -26, -1, 2, -4, 2, 22, 37, -64, 1, 88, -13, -10, 1, -4, -2, 5, 2, -10, -34, 9, 66, 55, 38], "withholdReward": false, "trial_id": "mdp_trial_29", "block": "test", "trialIndex": 36, "score": -49, "costs": 0, "simulationMode": [null, null, null, null, null], "rewards": [1, 4, 7, -12, -49], "path": ["0", "0", "1", "2", "3", "8", "10"], "rt": [1604, 9, 42, 595, 178], "actions": ["up", "up", "up", "left", "down"], "actionTimes": [5737, 6269, 6840, 7955, 8660], "queries": {"click": {"state": {"target": [], "time": []}, "edge": {"target": [], "time": []}}, "mouseover": {"state": {"target": [], "time": []}, "edge": {"target": [], "time": []}}, "mouseout": {"state": {"target": ["0", "0", "0"], "time": [2415, 2770, 3301]}, "edge": {"target": [], "time": []}}}, "displayed_time": "18.13", "trialTime": 19318, "trial_type": "mouselab-mdp", "trial_index": 55, "time_elapsed": 1804603, "internal_node_id": "0.0-6.0-1.0-28.0"}}, {"uniqueid": "w42199340:a45220070", "current_trial": 56, "dateTime": 1693482846177, "trialdata": {"revealed_states": [], "clicked_states": [], "num_clicks_accrued": [0, 0, 0, 0, 0, 0, 0, 0, 0, 0, 0, 0, 0], "stateRewards": ["", -2, 3, 8, -9, 59, 41, -50, -1, 82, 66, 33, 2, -2, 7, 8, 1, -38, 12, -16, 24, -37, 67, 1, 4, -2, 5, 35, -83, 28, 8, -27, 69, -64], "withholdReward": false, "trial_id": "mdp_trial_30", "block": "test", "trialIndex": 37, "score": -46, "costs": 0, "simulationMode": [null, null, null, null, null], "rewards": [2, -2, 7, -16, -37], "path": ["0", "0", "12", "13", "14", "19", "21"], "rt": [760, 8, 49, 31, 746], "actions": ["right", "right", "right", "down", "down"], "actionTimes": [4397, 4927, 5517, 6065, 7314], "queries": {"click": {"state": {"target": [], "time": []}, "edge": {"target": [], "time": []}}, "mouseover": {"state": {"target": [], "time": []}, "edge": {"target": [], "time": []}}, "mouseout": {"state": {"target": ["0"], "time": [18974]}, "edge": {"target": [], "time": []}}}, "displayed_time": "17.64", "trialTime": 19382, "trial_type": "mouselab-mdp", "trial_index": 56, "time_elapsed": 1825068, "internal_node_id": "0.0-6.0-1.0-29.0"}}, {"uniqueid": "w42199340:a45220070", "current_trial": 57, "dateTime": 1693482865888, "trialdata": {"revealed_states": [], "clicked_states": [], "num_clicks_accrued": [0, 0, 0, 0, 0, 0, 0, 0, 0, 0, 0, 0, 0], "stateRewards": ["", -1, 4, -6, -5, -22, -38, -38, -2, -56, 88, 14, -1, -1, -7, -6, 61, -60, 21, 11, 57, 31, -30, -2, -2, 6, -9, -44, -70, -44, -15, 34, 16, -78], "withholdReward": false, "trial_id": "mdp_trial_31", "block": "test", "trialIndex": 38, "score": -51, "costs": 0, "simulationMode": [null, null, null, null, null], "rewards": [-2, -2, 6, -9, -44], "path": ["0", "0", "23", "24", "25", "26", "27"], "rt": [1359, 319, 297, 250, 1285], "actions": ["left", "left", "left", "up", "up"], "actionTimes": [3714, 4540, 5359, 6128, 7930], "queries": {"click": {"state": {"target": [], "time": []}, "edge": {"target": [], "time": []}}, "mouseover": {"state": {"target": [], "time": []}, "edge": {"target": [], "time": []}}, "mouseout": {"state": {"target": ["0"], "time": [1307]}, "edge": {"target": [], "time": []}}}, "displayed_time": "16.36", "trialTime": 18477, "trial_type": "mouselab-mdp", "trial_index": 57, "time_elapsed": 1844779, "internal_node_id": "0.0-6.0-1.0-30.0"}}, {"uniqueid": "w42199340:a45220070", "current_trial": 58, "dateTime": 1693482884987, "trialdata": {"revealed_states": [], "clicked_states": [], "num_clicks_accrued": [0, 0, 0, 0, 0, 0, 0, 0, 0, 0, 0, 0, 0], "stateRewards": ["", 2, 3, 8, 14, 69, -27, 17, 2, -71, -65, -10, 2, -3, 7, 8, 65, -10, 65, -12, 73, -12, 13, -2, -2, 6, 10, -79, -69, -18, 10, -85, 67, 74], "withholdReward": false, "trial_id": "mdp_trial_32", "block": "test", "trialIndex": 39, "score": 86, "costs": 0, "simulationMode": [null, null, null, null, null], "rewards": [-2, -2, 6, 10, 74], "path": ["0", "0", "23", "24", "25", "30", "33"], "rt": [3121, 231, 106, 91, 1279], "actions": ["left", "left", "left", "down", "left"], "actionTimes": [5286, 6021, 6697, 7376, 9194], "queries": {"click": {"state": {"target": [], "time": []}, "edge": {"target": [], "time": []}}, "mouseover": {"state": {"target": [], "time": []}, "edge": {"target": [], "time": []}}, "mouseout": {"state": {"target": ["0"], "time": [1205]}, "edge": {"target": [], "time": []}}}, "displayed_time": "16.17", "trialTime": 17417, "trial_type": "mouselab-mdp", "trial_index": 58, "time_elapsed": 1863880, "internal_node_id": "0.0-6.0-1.0-31.0"}}, {"uniqueid": "w42199340:a45220070", "current_trial": 59, "dateTime": 1693482908874, "trialdata": {"revealed_states": [], "clicked_states": [], "num_clicks_accrued": [0, 0, 0, 0, 0, 0, 0, 0, 0, 0, 0, 0, 0], "stateRewards": ["", 1, 4, -8, -5, -15, -7, 21, 13, -30, 40, -65, 1, 1, 5, -14, 35, 27, -38, -11, 36, -58, -47, -2, 4, -3, 13, -16, -49, 22, 15, -56, -44, -10], "withholdReward": false, "trial_id": "mdp_trial_33", "block": "test", "trialIndex": 40, "score": -30, "costs": 0, "simulationMode": [null, null, null, null, null], "rewards": [-2, 4, -3, 15, -44], "path": ["0", "0", "23", "24", "25", "30", "32"], "rt": [1571, 271, 100, 349, 743], "actions": ["left", "left", "left", "down", "down"], "actionTimes": [8688, 9485, 10114, 10962, 12225], "queries": {"click": {"state": {"target": [], "time": []}, "edge": {"target": [], "time": []}}, "mouseover": {"state": {"target": [], "time": []}, "edge": {"target": [], "time": []}}, "mouseout": {"state": {"target": ["0"], "time": [6471]}, "edge": {"target": [], "time": []}}}, "displayed_time": "21.12", "trialTime": 22631, "trial_type": "mouselab-mdp", "trial_index": 59, "time_elapsed": 1887765, "internal_node_id": "0.0-6.0-1.0-32.0"}}, {"uniqueid": "w42199340:a45220070", "current_trial": 60, "dateTime": 1693482928858, "trialdata": {"revealed_states": [], "clicked_states": [], "num_clicks_accrued": [0, 0, 0, 0, 0, 0, 0, 0, 0, 0, 0, 0, 0], "stateRewards": ["", 1, 1, 1, 15, -76, 52, -32, 14, -57, 37, 49, 1, -4, -3, 6, 83, -76, 25, 9, 36, -1, -17, -1, 4, 4, -2, -22, -21, 58, -15, -57, 49, -24], "withholdReward": false, "trial_id": "mdp_trial_34", "block": "test", "trialIndex": 41, "score": 66, "costs": 0, "simulationMode": [null, null, null, null, null], "rewards": [1, 1, 1, 14, 49], "path": ["0", "0", "1", "2", "3", "8", "11"], "rt": [1603, 399, 32, 707, 1782], "actions": ["up", "up", "up", "left", "left"], "actionTimes": [3919, 4833, 5381, 6591, 8900], "queries": {"click": {"state": {"target": [], "time": []}, "edge": {"target": [], "time": []}}, "mouseover": {"state": {"target": [], "time": []}, "edge": {"target": [], "time": []}}, "mouseout": {"state": {"target": [], "time": []}, "edge": {"target": [], "time": []}}}, "displayed_time": "16.32", "trialTime": 18582, "trial_type": "mouselab-mdp", "trial_index": 60, "time_elapsed": 1907750, "internal_node_id": "0.0-6.0-1.0-33.0"}}, {"uniqueid": "w42199340:a45220070", "current_trial": 61, "dateTime": 1693482950663, "trialdata": {"revealed_states": [], "clicked_states": [], "num_clicks_accrued": [0, 0, 0, 0, 0, 0, 0, 0, 0, 0, 0, 0, 0], "stateRewards": ["", 2, -1, 5, 6, 10, 86, 55, 10, -45, 63, -71, 1, -2, 5, -8, -50, -72, 36, 15, 61, 12, 33, -1, -4, 6, 5, 79, -56, -21, -16, -87, 60, -81], "withholdReward": false, "trial_id": "mdp_trial_35", "block": "test", "trialIndex": 42, "score": 22, "costs": 0, "simulationMode": [null, null, null, null, null], "rewards": [2, -1, 5, 6, 10], "path": ["0", "0", "1", "2", "3", "4", "5"], "rt": [1360, 303, 71, 126, 30], "actions": ["up", "up", "up", "right", "up"], "actionTimes": [3772, 4588, 5173, 5795, 6335], "queries": {"click": {"state": {"target": [], "time": []}, "edge": {"target": [], "time": []}}, "mouseover": {"state": {"target": [], "time": []}, "edge": {"target": [], "time": []}}, "mouseout": {"state": {"target": ["0"], "time": [1773]}, "edge": {"target": [], "time": []}}}, "displayed_time": "16.41", "trialTime": 20600, "trial_type": "mouselab-mdp", "trial_index": 61, "time_elapsed": 1929556, "internal_node_id": "0.0-6.0-1.0-34.0"}}, {"uniqueid": "w42199340:a45220070", "current_trial": 62, "dateTime": 1693482969808, "trialdata": {"revealed_states": [], "clicked_states": [], "num_clicks_accrued": [0, 0, 0, 0, 0, 0, 0, 0, 0, 0, 0, 0, 0], "stateRewards": ["", -1, 3, -5, -2, -13, -9, -34, -7, -81, 32, 35, -2, -2, 1, -14, -32, 81, 7, 4, 82, 56, -8, -1, 3, -8, 6, -24, -24, -53, 2, 38, 61, 54], "withholdReward": false, "trial_id": "mdp_trial_36", "block": "test", "trialIndex": 43, "score": -24, "costs": 0, "simulationMode": [null, null, null, null, null], "rewards": [-1, 3, -8, 6, -24], "path": ["0", "0", "23", "24", "25", "26", "27"], "rt": [616, 302, 78, 674, 358], "actions": ["left", "left", "left", "up", "up"], "actionTimes": [3154, 4003, 4620, 5815, 6715], "queries": {"click": {"state": {"target": [], "time": []}, "edge": {"target": [], "time": []}}, "mouseover": {"state": {"target": [], "time": []}, "edge": {"target": [], "time": []}}, "mouseout": {"state": {"target": ["0"], "time": [1419]}, "edge": {"target": [], "time": []}}}, "displayed_time": "16.54", "trialTime": 17871, "trial_type": "mouselab-mdp", "trial_index": 62, "time_elapsed": 1948700, "internal_node_id": "0.0-6.0-1.0-35.0"}}, {"uniqueid": "w42199340:a45220070", "current_trial": 63, "dateTime": 1693482989396, "trialdata": {"revealed_states": [], "clicked_states": [], "num_clicks_accrued": [0, 0, 0, 0, 0, 0, 0, 0, 0, 0, 0, 0, 0], "stateRewards": ["", -1, 3, -4, -14, 78, 67, 2, 13, -32, 28, 39, -2, 1, -4, -4, -4, -42, -86, 11, 64, -29, -32, -1, -4, 2, -7, 5, 68, -61, 2, -21, 85, 50], "withholdReward": false, "trial_id": "mdp_trial_37", "block": "test", "trialIndex": 44, "score": -22, "costs": 0, "simulationMode": [null, null, null, null, null], "rewards": [-1, -4, 2, 2, -21], "path": ["0", "0", "23", "24", "25", "30", "31"], "rt": [1425, 458, 725, 25, 885], "actions": ["left", "left", "left", "down", "right"], "actionTimes": [3234, 4216, 5453, 6000, 7396], "queries": {"click": {"state": {"target": [], "time": []}, "edge": {"target": [], "time": []}}, "mouseover": {"state": {"target": [], "time": []}, "edge": {"target": [], "time": []}}, "mouseout": {"state": {"target": ["0"], "time": [1214]}, "edge": {"target": [], "time": []}}}, "displayed_time": "15.82", "trialTime": 17724, "trial_type": "mouselab-mdp", "trial_index": 63, "time_elapsed": 1968288, "internal_node_id": "0.0-6.0-1.0-36.0"}}, {"uniqueid": "w42199340:a45220070", "current_trial": 64, "dateTime": 1693483008017, "trialdata": {"revealed_states": [], "clicked_states": [], "num_clicks_accrued": [0, 0, 0, 0, 0, 0, 0, 0, 0, 0, 0, 0, 0], "stateRewards": ["", -2, 4, -3, -13, 63, -36, 62, 11, 78, 34, -51, 2, -2, 8, -6, -40, -18, 31, 9, 64, 39, 79, 1, 4, -4, 15, -12, 76, 73, -10, -77, 86, -4], "withholdReward": false, "trial_id": "mdp_trial_38", "block": "test", "trialIndex": 45, "score": 44, "costs": 0, "simulationMode": [null, null, null, null, null], "rewards": [-2, 4, -3, 11, 34], "path": ["0", "0", "1", "2", "3", "8", "10"], "rt": [807, 166, 109, 63, 1499], "actions": ["up", "up", "up", "left", "down"], "actionTimes": [2470, 3151, 3904, 4464, 6503], "queries": {"click": {"state": {"target": [], "time": []}, "edge": {"target": [], "time": []}}, "mouseover": {"state": {"target": [], "time": []}, "edge": {"target": [], "time": []}}, "mouseout": {"state": {"target": ["0"], "time": [1133]}, "edge": {"target": [], "time": []}}}, "displayed_time": "15.67", "trialTime": 16630, "trial_type": "mouselab-mdp", "trial_index": 64, "time_elapsed": 1986910, "internal_node_id": "0.0-6.0-1.0-37.0"}}, {"uniqueid": "w42199340:a45220070", "current_trial": 65, "dateTime": 1693483030093, "trialdata": {"revealed_states": [], "clicked_states": [], "num_clicks_accrued": [0, 0, 0, 0, 0, 0, 0, 0, 0, 0, 0, 0, 0], "stateRewards": ["", -1, 4, -5, 9, 29, -75, -42, -16, 24, -28, -41, 2, -3, 1, 10, 60, 47, 55, -1, -53, 22, -40, 2, -3, -6, 4, -26, 44, 54, 15, -76, 42, 14], "withholdReward": false, "trial_id": "mdp_trial_39", "block": "test", "trialIndex": 46, "score": -68, "costs": 0, "simulationMode": [null, null, null, null, null], "rewards": [-1, 4, -5, 9, -75], "path": ["0", "0", "1", "2", "3", "4", "6"], "rt": [924, 114, 71, 47, 163], "actions": ["up", "up", "up", "right", "right"], "actionTimes": [5278, 5919, 6510, 7129, 7800], "queries": {"click": {"state": {"target": [], "time": []}, "edge": {"target": [], "time": []}}, "mouseover": {"state": {"target": [], "time": []}, "edge": {"target": [], "time": []}}, "mouseout": {"state": {"target": ["0"], "time": [3456]}, "edge": {"target": [], "time": []}}}, "displayed_time": "18.36", "trialTime": 20483, "trial_type": "mouselab-mdp", "trial_index": 65, "time_elapsed": 2008985, "internal_node_id": "0.0-6.0-1.0-38.0"}}, {"uniqueid": "w42199340:a45220070", "current_trial": 66, "dateTime": 1693483050524, "trialdata": {"revealed_states": [], "clicked_states": [], "num_clicks_accrued": [0, 0, 0, 0, 0, 0, 0, 0, 0, 0, 0, 0, 0], "stateRewards": ["", -2, -3, -7, 7, -54, -69, -4, -14, -77, 22, 40, -2, -1, 5, 6, -35, 50, -60, 10, -28, 75, 57, 1, -4, -2, 2, 68, 34, -18, 12, 3, -21, -43], "withholdReward": false, "trial_id": "mdp_trial_40", "block": "test", "trialIndex": 47, "score": -103, "costs": 0, "simulationMode": [null, null, null, null, null], "rewards": [-2, -3, -7, -14, -77], "path": ["0", "0", "1", "2", "3", "8", "9"], "rt": [941, 20, 25, 1056, 917], "actions": ["up", "up", "up", "left", "up"], "actionTimes": [3129, 3676, 4246, 5818, 7247], "queries": {"click": {"state": {"target": [], "time": []}, "edge": {"target": [], "time": []}}, "mouseover": {"state": {"target": [], "time": []}, "edge": {"target": [], "time": []}}, "mouseout": {"state": {"target": ["0"], "time": [870]}, "edge": {"target": [], "time": []}}}, "displayed_time": "16.19", "trialTime": 18475, "trial_type": "mouselab-mdp", "trial_index": 66, "time_elapsed": 2029415, "internal_node_id": "0.0-6.0-1.0-39.0"}}, {"uniqueid": "w42199340:a45220070", "current_trial": 67, "dateTime": 1693483170197, "trialdata": {"rt": 119614, "response": {"Q0": "$-88 to $88", "Q1": "$-4 to $4", "Q2": "$-32 to $32", "Q3": "The cost for clicking on nodes varied between nodes.", "Q4": "Slightly motivated"}, "question_order": [0, 1, 2, 3, 4], "trial_id": "final_quiz_control", "trial_type": "survey-multi-choice", "trial_index": 67, "time_elapsed": 2149087, "internal_node_id": "0.0-6.0-2.0"}}, {"uniqueid": "w42199340:a45220070", "current_trial": 68, "dateTime": 1693483319561, "trialdata": {"rt": 149312, "response": {"Q0": "I used the guess-touch is move strategy ", "Q1": "No I didn't", "Q2": "It was difficult, because moving to the next node not knowing what it carries was the problem which decreased my overall score."}, "trial_id": "self_report_control", "trial_type": "survey-text", "trial_index": 68, "time_elapsed": 2298452, "internal_node_id": "0.0-6.0-3.0"}}, {"uniqueid": "w42199340:a45220070", "current_trial": 69, "dateTime": 1693483381750, "trialdata": {"rt": 62161, "response": {"gender": "male", "age": "26", "colorblind": "0", "effort": "0"}, "trial_type": "survey-html-form", "trial_index": 69, "time_elapsed": 2360640, "internal_node_id": "0.0-6.0-4.0"}}, {"uniqueid": "w42199340:a45220070", "current_trial": 70, "dateTime": 1693483415296, "trialdata": {"rt": 33363, "response": {"Q0": "No", "Q1": "No", "Q2": ""}, "trial_type": "survey-text", "trial_index": 70, "time_elapsed": 2394188, "internal_node_id": "0.0-6.0-5.0"}}, {"uniqueid": "w42199340:a45220070", "current_trial": 71, "dateTime": 1693483426708, "trialdata": {"rt": 11361, "stimulus": "<h1>Completion Code Instructions (1/2)</h1>\n<br><br><br><br>\nYou have reached the end of the experiment! The completion code consists of two parts: (1) a code with 2 characters (2) a code with 6 characters. On this page, you will receive the second part of the code. The first part of the completion code will be on the next page.\n<br><br>\nThe second part of your completion code is: <b>EWEK22</b>\n<br><br>\nPlease note this down. Then, press 'Finish HIT' in order to find the first part of your completion code. Once the data has been saved, you will receive this code either in this window or in the original browser window where you started the experiment.\n", "response": 0, "trial_type": "html-button-response", "trial_index": 71, "time_elapsed": 2405600, "internal_node_id": "0.0-6.0-6.0"}}, {"uniqueid": "w42199340:a45220070", "current_trial": 72, "dateTime": 1693483427714, "trialdata": {"success": true, "trial_type": "fullscreen", "trial_index": 72, "time_elapsed": 2406607, "internal_node_id": "0.0-7.0"}}], "questiondata": {"params": {"CODE": "C6DMOQA6", "MIN_TIME": 14, "inspectCost": 1, "startTime": "Thu Aug 31 2023 13:23:36 GMT+0200 (South Africa Standard Time)", "bonusRate": 0.002, "variance": "1_2_4_8_44", "branching": "31123"}, "final_score": -216}, "eventdata": [{"eventtype": "initialized", "value": null, "timestamp": 1693481014804, "interval": 0}, {"eventtype": "window_resize", "value": [1024, 646], "timestamp": 1693481014804, "interval": 0}, {"eventtype": "focus", "value": "off", "timestamp": 1693481015172, "interval": 368}, {"eventtype": "window_resize", "value": [1024, 646], "timestamp": 1693481016008, "interval": 836}, {"eventtype": "focus", "value": "on", "timestamp": 1693481020521, "interval": 4513}, {"eventtype": "window_resize", "value": [1366, 662], "timestamp": 1693481023959, "interval": 3438}, {"eventtype": "window_resize", "value": [1366, 768], "timestamp": 1693481031506, "interval": 7547}, {"eventtype": "focus", "value": "off", "timestamp": 1693481511416, "interval": 479910}, {"eventtype": "focus", "value": "on", "timestamp": 1693481511417, "interval": 1}, {"eventtype": "window_resize", "value": [1366, 662], "timestamp": 1693481511717, "interval": 300}, {"eventtype": "window_resize", "value": [1366, 768], "timestamp": 1693481515703, "interval": 3986}, {"eventtype": "focus", "value": "off", "timestamp": 1693481864633, "interval": 348930}, {"eventtype": "focus", "value": "on", "timestamp": 1693481864633, "interval": 0}, {"eventtype": "window_resize", "value": [1366, 662], "timestamp": 1693481864858, "interval": 225}, {"eventtype": "window_resize", "value": [1366, 768], "timestamp": 1693481866804, "interval": 1946}, {"eventtype": "focus", "value": "off", "timestamp": 1693482033143, "interval": 166339}, {"eventtype": "focus", "value": "on", "timestamp": 1693482033144, "interval": 1}, {"eventtype": "window_resize", "value": [1366, 662], "timestamp": 1693482033365, "interval": 221}, {"eventtype": "window_resize", "value": [1366, 768], "timestamp": 1693482035473, "interval": 2108}, {"eventtype": "window_resize", "value": [1366, 662], "timestamp": 1693483427056, "interval": 1391583}], "useragent": "Mozilla/5.0 (Windows NT 10.0; Win64; x64) AppleWebKit/537.36 (KHTML, like Gecko) Chrome/116.0.0.0 Safari/537.36", "mode": "live", "id": "w42199340:a45220070", "status": "user data saved", "Beginhit": "2023-08-31 11:23:03.134418", "Beginexp": "2023-08-31 11:23:50.990274", "Endhit": "2023-08-31 12:04:26.639926", "psiturkStatus": 3, "browser": "<redacted>", "platform": "windows", "language": "en-US"}