{"condition": 0, "counterbalance": 0, "assignmentId": "a11702825", "workerId": "w81016367", "hitId": "h16647326", "currenttrial": 30, "bonus": 0, "data": [{"uniqueid": "w81016367:a11702825", "current_trial": 0, "dateTime": 1693482636954, "trialdata": {"success": true, "trial_type": "fullscreen", "trial_index": 0, "time_elapsed": 1460721, "internal_node_id": "0.0-0.0"}}, {"uniqueid": "w81016367:a11702825", "current_trial": 1, "dateTime": 1693482643147, "trialdata": {"view_history": [{"page_index": 0, "viewing_time": 6045}], "rt": 6051, "trial_id": "exp_instructions_control", "trial_type": "instructions", "trial_index": 1, "time_elapsed": 1466919, "internal_node_id": "0.0-1.0"}}, {"uniqueid": "w81016367:a11702825", "current_trial": 2, "dateTime": 1693482655990, "trialdata": {"view_history": [{"page_index": 0, "viewing_time": 4611}, {"page_index": 1, "viewing_time": 3376}, {"page_index": 2, "viewing_time": 2959}, {"page_index": 3, "viewing_time": 1880}], "rt": 12828, "trial_id": "mouselab_instructions_1_control", "trial_type": "instructions", "trial_index": 2, "time_elapsed": 1479762, "internal_node_id": "0.0-2.0-1.0"}}, {"uniqueid": "w81016367:a11702825", "current_trial": 3, "dateTime": 1693482683117, "trialdata": {"revealed_states": [], "clicked_states": ["17", "16"], "num_clicks_accrued": [0, 0, 0, 0, 0, 0, 0, 0, 0, 0, 0, 0, 0], "stateRewards": ["", -10, -10, -10, -10, 10, 10, -10, -10, 10, 10, -10, 10, -10, -10, 10, 10, -10, 10, 10, 10, 10, 10, 10, -10, 10, -10, -10, 10, -10, 10, 10, 10, 10], "withholdReward": false, "trial_id": "practice_1", "block": "test", "trialIndex": 0, "score": 12.5, "costs": -1, "simulationMode": [null, null, null, null, null], "rewards": [10, -10, -10, 10, 10], "path": ["0", "0", "12", "13", "14", "15", "16"], "rt": [7737, 2261, 430, 386, 249], "actions": ["right", "right", "right", "up", "up"], "actionTimes": [12014, 15249, 16434, 17610, 18649], "queries": {"click": {"state": {"target": ["17", "16"], "time": [6423, 8374]}, "edge": {"target": [], "time": []}}, "mouseover": {"state": {"target": ["14", "14", "17", "16", "14", "20"], "time": [4866, 5449, 6072, 8074, 8814, 9168]}, "edge": {"target": [], "time": []}}, "mouseout": {"state": {"target": ["0", "14", "14", "17", "16", "14", "20"], "time": [760, 5111, 5806, 7045, 8744, 9125, 21940]}, "edge": {"target": [], "time": []}}}, "displayed_time": "19.41", "trialTime": 22427, "trial_type": "mouselab-mdp", "trial_index": 3, "time_elapsed": 1506885, "internal_node_id": "0.0-2.0-2.0-0.0"}}, {"uniqueid": "w81016367:a11702825", "current_trial": 4, "dateTime": 1693482708771, "trialdata": {"revealed_states": [], "clicked_states": ["9", "5"], "num_clicks_accrued": [0, 0, 0, 0, 0, 0, 0, 0, 0, 0, 0, 0, 0], "stateRewards": ["", 10, 10, 10, -10, 10, 10, 10, -10, -10, 10, -10, 10, -10, 10, -10, 10, -10, -10, -10, 10, 10, 10, -10, -10, -10, -10, -10, 10, 10, 10, -10, 10, 10], "withholdReward": false, "trial_id": "practice_2", "block": "test", "trialIndex": 1, "score": 32.5, "costs": -1, "simulationMode": [null, null, null, null, null], "rewards": [10, 10, 10, -10, 10], "path": ["0", "0", "1", "2", "3", "4", "5"], "rt": [7484, 253, 168, 266, 305], "actions": ["up", "up", "up", "right", "up"], "actionTimes": [11541, 12575, 13769, 14826, 15894], "queries": {"click": {"state": {"target": ["9", "5"], "time": [6862, 8957]}, "edge": {"target": [], "time": []}}, "mouseover": {"state": {"target": ["0", "1", "9", "5"], "time": [5544, 6066, 6578, 8129]}, "edge": {"target": [], "time": []}}, "mouseout": {"state": {"target": ["12", "0", "1", "9", "5"], "time": [965, 5796, 6329, 7164, 10602]}, "edge": {"target": [], "time": []}}}, "displayed_time": "16.73", "trialTime": 22422, "trial_type": "mouselab-mdp", "trial_index": 4, "time_elapsed": 1532542, "internal_node_id": "0.0-2.0-2.0-1.0"}}, {"uniqueid": "w81016367:a11702825", "current_trial": 5, "dateTime": 1693482716918, "trialdata": {"view_history": [{"page_index": 0, "viewing_time": 4046}, {"page_index": 1, "viewing_time": 4078}], "rt": 8126, "trial_id": "mouselab_instructions_2_control", "trial_type": "instructions", "trial_index": 5, "time_elapsed": 1540690, "internal_node_id": "0.0-2.0-3.0"}}, {"uniqueid": "w81016367:a11702825", "current_trial": 6, "dateTime": 1693482744743, "trialdata": {"rt": 27771, "response": {"Q0": "The cost for clicking on nodes may vary between nodes.", "Q1": "The better I perform the higher my bonus will be.", "Q2": "No, the amount of cash at each node of the web may be different each time.", "Q3": "To get the highest total score.", "Q4": "Only before moving the spider.", "Q5": "3 seconds"}, "question_order": [0, 1, 2, 3, 4, 5], "correct": {"Q0": "The cost for clicking on nodes may vary between nodes.", "Q1": "The better I perform the higher my bonus will be.", "Q2": "No, the amount of cash at each node of the web may be different each time.", "Q3": "To get the highest total score.", "Q4": "Only before moving the spider.", "Q5": "3 seconds"}, "trial_id": "mouselab_quiz_control", "trial_type": "survey-multi-choice", "trial_index": 6, "time_elapsed": 1568515, "internal_node_id": "0.0-2.0-4.0"}}, {"uniqueid": "w81016367:a11702825", "current_trial": 7, "dateTime": 1693482750193, "trialdata": {"rt": 5366, "response": {"Q0": "No"}, "question_order": [0], "trial_id": "repeat_check", "trial_type": "survey-multi-choice", "trial_index": 7, "time_elapsed": 1573963, "internal_node_id": "0.0-4.0-0.0"}}, {"uniqueid": "w81016367:a11702825", "current_trial": 8, "dateTime": 1693482753406, "trialdata": {"rt": 3156, "stimulus": "\n<h1> Get ready to start the game! </h1>\n\nThank you for reading the instructions. Get ready start with the 40 rounds of this game.\n<br><br>\nIf you need to take a break, feel free to take one after the end of a round, before continuing to the next one.\n<br><br>\nRemember, the more money the spider gets, the bigger your bonus will be!\n<br><br>\n<div style='text-align: center;'>Press <code>space</code> to begin.</div>\n\n<br><br>\n(If, at any point, the <code>space</code> key does not take you to the next page, click once on the text and try again.)", "response": " ", "trial_id": "mdp_ready", "trial_type": "html-keyboard-response", "trial_index": 8, "time_elapsed": 1577177, "internal_node_id": "0.0-6.0-0.0"}}, {"uniqueid": "w81016367:a11702825", "current_trial": 9, "dateTime": 1693482796704, "trialdata": {"revealed_states": [], "clicked_states": ["33", "32", "31", "28", "27", "29", "16", "18", "17"], "num_clicks_accrued": [0, 0, 0, 0, 0, 0, 0, 0, 0, 0, 0, 0, 0], "stateRewards": ["", -2, -1, -3, -1, -78, -6, 2, -1, 22, -88, 32, 2, 2, -7, -8, -51, -17, 54, 2, -44, 54, 75, 2, -2, -8, -15, -29, 12, -67, 15, -1, -47, -47], "withholdReward": false, "trial_id": "mdp_trial_1", "block": "test", "trialIndex": 2, "score": 30.4, "costs": -12.600000000000001, "simulationMode": [null, null, null, null, null], "rewards": [2, 2, -7, -8, 54], "path": ["0", "0", "12", "13", "14", "15", "18"], "rt": [24847, 251, 234, 362, 265], "actions": ["right", "right", "right", "up", "left"], "actionTimes": [29567, 30593, 31761, 32880, 33905], "queries": {"click": {"state": {"target": ["33", "32", "31", "28", "27", "29", "16", "18", "17"], "time": [6269, 8820, 11186, 13540, 16247, 18762, 21220, 23666, 26232]}, "edge": {"target": [], "time": []}}, "mouseover": {"state": {"target": ["33", "32", "31", "28", "27", "29", "15", "16", "18", "17"], "time": [5846, 6616, 9162, 11754, 15612, 16894, 19325, 19649, 22235, 24655]}, "edge": {"target": [], "time": []}}, "mouseout": {"state": {"target": ["12", "0", "33", "32", "31", "28", "27", "29", "15", "16", "18", "17", "18", "15"], "time": [1512, 5556, 6581, 9129, 11718, 15339, 16588, 19287, 19614, 22197, 24619, 26961, 39143, 40038]}, "edge": {"target": [], "time": []}}}, "displayed_time": "34.66", "trialTime": 40198, "trial_type": "mouselab-mdp", "trial_index": 9, "time_elapsed": 1620473, "internal_node_id": "0.0-6.0-1.0-0.0"}}, {"uniqueid": "w81016367:a11702825", "current_trial": 10, "dateTime": 1693482850019, "trialdata": {"revealed_states": [], "clicked_states": ["9", "5", "7", "10", "11", "6", "27", "28", "29", "33", "31", "32"], "num_clicks_accrued": [0, 0, 0, 0, 0, 0, 0, 0, 0, 0, 0, 0, 0], "stateRewards": ["", -1, 3, -7, 16, -32, -74, -48, 2, 10, 15, -30, 1, 1, -2, 10, 12, -83, 67, 13, -66, 47, 65, -2, 4, 2, -14, -8, -57, 24, 9, 65, 12, 46], "withholdReward": false, "trial_id": "mdp_trial_2", "block": "test", "trialIndex": 3, "score": 61.2, "costs": -16.8, "simulationMode": [null, null, null, null, null], "rewards": [-2, 4, 2, 9, 65], "path": ["0", "0", "23", "24", "25", "30", "31"], "rt": [33212, 161, 507, 157, 643], "actions": ["left", "left", "left", "down", "right"], "actionTimes": [38747, 39667, 40875, 41881, 43277], "queries": {"click": {"state": {"target": ["9", "5", "7", "10", "11", "6", "27", "28", "29", "33", "31", "32"], "time": [7302, 9644, 11977, 14642, 16932, 19219, 22382, 24946, 27402, 30001, 32506, 35109]}, "edge": {"target": [], "time": []}}, "mouseover": {"state": {"target": ["9", "5", "4", "7", "10", "11", "6", "2", "27", "28", "24", "29", "33", "31", "32"], "time": [6690, 8507, 9974, 10281, 12724, 15224, 17515, 21781, 22299, 22796, 25940, 26696, 28147, 30556, 33069]}, "edge": {"target": [], "time": []}}, "mouseout": {"state": {"target": ["0", "0", "9", "5", "4", "7", "10", "11", "6", "6", "2", "27", "28", "24", "29", "33", "31", "32", "31"], "time": [529, 5819, 8473, 9936, 10248, 12692, 14941, 17223, 20127, 21742, 22040, 22712, 25906, 26215, 27693, 30294, 32795, 35395, 47658]}, "edge": {"target": [], "time": []}}}, "displayed_time": "44.02", "trialTime": 49948, "trial_type": "mouselab-mdp", "trial_index": 10, "time_elapsed": 1673788, "internal_node_id": "0.0-6.0-1.0-1.0"}}, {"uniqueid": "w81016367:a11702825", "current_trial": 11, "dateTime": 1693482887929, "trialdata": {"revealed_states": [], "clicked_states": ["17", "20", "22", "18"], "num_clicks_accrued": [0, 0, 0, 0, 0, 0, 0, 0, 0, 0, 0, 0, 0], "stateRewards": ["", 1, 1, -3, 2, 22, -25, -11, -5, 50, 49, 3, 1, -1, 8, 14, -85, -30, 57, -6, -39, -16, 59, -2, -1, 5, 5, 59, -16, 8, 4, 67, 56, -9], "withholdReward": false, "trial_id": "mdp_trial_3", "block": "test", "trialIndex": 4, "score": 55.4, "costs": -5.6, "simulationMode": [null, null, null, null, null], "rewards": [1, -1, 8, -6, 59], "path": ["0", "0", "12", "13", "14", "19", "22"], "rt": [13647, 365, 1297, 587, 565], "actions": ["right", "right", "right", "down", "left"], "actionTimes": [26239, 27380, 29224, 30432, 31760], "queries": {"click": {"state": {"target": ["17", "20", "22", "18"], "time": [14508, 16959, 19533, 22354]}, "edge": {"target": [], "time": []}}, "mouseover": {"state": {"target": ["1", "17", "20", "22", "18"], "time": [13046, 13970, 15315, 17628, 21386]}, "edge": {"target": [], "time": []}}, "mouseout": {"state": {"target": ["12", "0", "1", "17", "20", "22", "18", "22"], "time": [9542, 9773, 13570, 15026, 17262, 20931, 22640, 34192]}, "edge": {"target": [], "time": []}}}, "displayed_time": "32.52", "trialTime": 34808, "trial_type": "mouselab-mdp", "trial_index": 11, "time_elapsed": 1711698, "internal_node_id": "0.0-6.0-1.0-2.0"}}, {"uniqueid": "w81016367:a11702825", "current_trial": 12, "dateTime": 1693482926980, "trialdata": {"revealed_states": [], "clicked_states": ["9", "5", "7", "10", "11", "6"], "num_clicks_accrued": [0, 0, 0, 0, 0, 0, 0, 0, 0, 0, 0, 0, 0], "stateRewards": ["", -2, -1, -6, -14, -55, 78, -13, 11, 14, -71, 59, 2, 2, 6, -6, 9, 38, 14, 7, 85, 11, 68, 1, -4, -1, -3, -63, -85, 9, -2, 63, -86, -10], "withholdReward": false, "trial_id": "mdp_trial_4", "block": "test", "trialIndex": 5, "score": 46.6, "costs": -8.4, "simulationMode": [null, null, null, null, null], "rewards": [-2, -1, -6, -14, 78], "path": ["0", "0", "1", "2", "3", "4", "6"], "rt": [21324, 392, 355, 234, 404], "actions": ["up", "up", "up", "right", "right"], "actionTimes": [26356, 27540, 28693, 29676, 30822], "queries": {"click": {"state": {"target": ["9", "5", "7", "10", "11", "6"], "time": [6780, 9213, 11559, 14214, 16416, 18774]}, "edge": {"target": [], "time": []}}, "mouseover": {"state": {"target": ["2", "9", "5", "7", "10", "11", "6"], "time": [5312, 6442, 7140, 9771, 12411, 14792, 16986]}, "edge": {"target": [], "time": []}}, "mouseout": {"state": {"target": ["2", "9", "5", "7", "10", "11", "6", "11", "6"], "time": [6192, 7109, 9732, 11860, 14512, 16704, 19471, 21428, 33758]}, "edge": {"target": [], "time": []}}}, "displayed_time": "31.57", "trialTime": 35613, "trial_type": "mouselab-mdp", "trial_index": 12, "time_elapsed": 1750748, "internal_node_id": "0.0-6.0-1.0-3.0"}}, {"uniqueid": "w81016367:a11702825", "current_trial": 13, "dateTime": 1693482956306, "trialdata": {"revealed_states": [], "clicked_states": ["9", "17", "16"], "num_clicks_accrued": [0, 0, 0, 0, 0, 0, 0, 0, 0, 0, 0, 0, 0], "stateRewards": ["", -2, -4, -2, 10, -8, -15, -47, 7, -84, 53, 5, -1, 2, -7, 3, 83, 31, 47, -1, 30, -8, 69, 2, -4, -1, 8, -7, 12, -8, -8, -13, 30, -84], "withholdReward": false, "trial_id": "mdp_trial_5", "block": "test", "trialIndex": 6, "score": 75.8, "costs": -4.199999999999999, "simulationMode": [null, null, null, null, null], "rewards": [-1, 2, -7, 3, 83], "path": ["0", "0", "12", "13", "14", "15", "16"], "rt": [12157, 387, 303, 294, 285], "actions": ["right", "right", "right", "up", "up"], "actionTimes": [17788, 18733, 19789, 20837, 21877], "queries": {"click": {"state": {"target": ["9", "17", "16"], "time": [8137, 10476, 12950]}, "edge": {"target": [], "time": []}}, "mouseover": {"state": {"target": ["1", "0", "9", "17", "16", "18"], "time": [6829, 7319, 7843, 8936, 11849, 13700]}, "edge": {"target": [], "time": []}}, "mouseout": {"state": {"target": ["18", "12", "0", "1", "0", "9", "17", "16", "18"], "time": [1840, 2119, 5967, 7077, 7580, 8632, 11508, 13251, 23448]}, "edge": {"target": [], "time": []}}}, "displayed_time": "22.63", "trialTime": 25861, "trial_type": "mouselab-mdp", "trial_index": 13, "time_elapsed": 1780074, "internal_node_id": "0.0-6.0-1.0-4.0"}}, {"uniqueid": "w81016367:a11702825", "current_trial": 14, "dateTime": 1693482987741, "trialdata": {"revealed_states": [], "clicked_states": ["9", "5", "7", "10"], "num_clicks_accrued": [0, 0, 0, 0, 0, 0, 0, 0, 0, 0, 0, 0, 0], "stateRewards": ["", 1, 1, -2, 7, -31, -6, 76, 1, -36, -16, -53, 2, 1, 7, 13, -47, -10, 47, -7, 72, 46, -56, -2, -2, -2, 11, -80, 44, 38, 16, 67, 85, -78], "withholdReward": false, "trial_id": "mdp_trial_6", "block": "test", "trialIndex": 7, "score": 77.4, "costs": -5.6, "simulationMode": [null, null, null, null, null], "rewards": [1, 1, -2, 7, 76], "path": ["0", "0", "1", "2", "3", "4", "7"], "rt": [13693, 269, 322, 258, 319], "actions": ["up", "up", "up", "right", "down"], "actionTimes": [19587, 20811, 21898, 22930, 24020], "queries": {"click": {"state": {"target": ["9", "5", "7", "10"], "time": [7728, 10373, 12744, 15405]}, "edge": {"target": [], "time": []}}, "mouseover": {"state": {"target": ["2", "9", "5", "7", "10", "6", "7"], "time": [7045, 7338, 8802, 10944, 13395, 16216, 17804]}, "edge": {"target": [], "time": []}}, "mouseout": {"state": {"target": ["0", "2", "9", "5", "7", "10", "6", "7"], "time": [2777, 7301, 8274, 10609, 13319, 15920, 17359, 26857]}, "edge": {"target": [], "time": []}}}, "displayed_time": "24.95", "trialTime": 27905, "trial_type": "mouselab-mdp", "trial_index": 14, "time_elapsed": 1811513, "internal_node_id": "0.0-6.0-1.0-5.0"}}, {"uniqueid": "w81016367:a11702825", "current_trial": 15, "dateTime": 1693483027100, "trialdata": {"revealed_states": [], "clicked_states": ["9", "5", "6", "11"], "num_clicks_accrued": [0, 0, 0, 0, 0, 0, 0, 0, 0, 0, 0, 0, 0], "stateRewards": ["", 2, 3, -6, -5, -3, 55, 40, 11, 61, 11, 51, 2, -4, -6, 9, -25, 29, -15, -6, 7, -77, -2, -2, -4, 1, 14, -43, -1, 56, -12, -54, 41, -74], "withholdReward": false, "trial_id": "mdp_trial_7", "block": "test", "trialIndex": 8, "score": 65.4, "costs": -5.6, "simulationMode": [null, null, null, null, null], "rewards": [2, 3, -6, 11, 61], "path": ["0", "0", "1", "2", "3", "8", "9"], "rt": [13209, 329, 590, 306, 490], "actions": ["up", "up", "up", "left", "up"], "actionTimes": [25882, 26979, 28275, 29331, 30572], "queries": {"click": {"state": {"target": ["9", "5", "6", "11"], "time": [14562, 16874, 19749, 22403]}, "edge": {"target": [], "time": []}}, "mouseover": {"state": {"target": ["9", "5", "6", "11", "9"], "time": [13605, 15151, 19271, 21647, 22962]}, "edge": {"target": [], "time": []}}, "mouseout": {"state": {"target": ["7", "0", "9", "5", "6", "11", "9", "9"], "time": [5062, 5523, 14856, 18677, 20695, 22928, 33965, 34208]}, "edge": {"target": [], "time": []}}}, "displayed_time": "31.41", "trialTime": 35869, "trial_type": "mouselab-mdp", "trial_index": 15, "time_elapsed": 1850869, "internal_node_id": "0.0-6.0-1.0-6.0"}}, {"uniqueid": "w81016367:a11702825", "current_trial": 16, "dateTime": 1693483058270, "trialdata": {"revealed_states": [], "clicked_states": ["9", "5", "6"], "num_clicks_accrued": [0, 0, 0, 0, 0, 0, 0, 0, 0, 0, 0, 0, 0], "stateRewards": ["", 2, -1, 5, 8, 75, -35, -77, 1, -9, -81, -58, 1, 2, -7, 5, 77, -16, 19, 16, -10, -18, 40, -2, 3, 7, -5, 64, 1, -62, 10, 27, 10, 65], "withholdReward": false, "trial_id": "mdp_trial_8", "block": "test", "trialIndex": 9, "score": 84.8, "costs": -4.199999999999999, "simulationMode": [null, null, null, null, null], "rewards": [2, -1, 5, 8, 75], "path": ["0", "0", "1", "2", "3", "4", "5"], "rt": [10558, 368, 704, 300, 542], "actions": ["up", "up", "up", "right", "up"], "actionTimes": [16161, 17301, 18538, 19586, 20884], "queries": {"click": {"state": {"target": ["9", "5", "6"], "time": [6848, 9362, 12187]}, "edge": {"target": [], "time": []}}, "mouseover": {"state": {"target": ["9", "5", "6"], "time": [6489, 7453, 9903]}, "edge": {"target": [], "time": []}}, "mouseout": {"state": {"target": ["9", "0", "9", "5", "6"], "time": [2112, 2578, 7148, 9871, 14152]}, "edge": {"target": [], "time": []}}}, "displayed_time": "21.66", "trialTime": 27540, "trial_type": "mouselab-mdp", "trial_index": 16, "time_elapsed": 1882038, "internal_node_id": "0.0-6.0-1.0-7.0"}}, {"uniqueid": "w81016367:a11702825", "current_trial": 17, "dateTime": 1693483100140, "trialdata": {"revealed_states": [], "clicked_states": ["9", "5", "6", "7", "10", "11", "16", "17"], "num_clicks_accrued": [0, 0, 0, 0, 0, 0, 0, 0, 0, 0, 0, 0, 0], "stateRewards": ["", -2, 1, 6, -2, -10, -78, -69, 14, -15, 7, -1, 1, -1, -2, 13, 77, 32, 87, 5, -74, 30, -26, 1, 3, 4, 12, 39, 54, -43, 2, 10, 23, 13], "withholdReward": false, "trial_id": "mdp_trial_9", "block": "test", "trialIndex": 10, "score": 76.8, "costs": -11.200000000000001, "simulationMode": [null, null, null, null, null], "rewards": [1, -1, -2, 13, 77], "path": ["0", "0", "12", "13", "14", "15", "16"], "rt": [22092, 436, 563, 257, 542], "actions": ["right", "right", "right", "up", "up"], "actionTimes": [28426, 29612, 30700, 31714, 32893], "queries": {"click": {"state": {"target": ["9", "5", "6", "7", "10", "11", "16", "17"], "time": [7787, 10225, 12531, 15228, 17584, 20074, 22353, 24818]}, "edge": {"target": [], "time": []}}, "mouseover": {"state": {"target": ["10", "9", "5", "6", "7", "10", "11", "16", "17"], "time": [6945, 7475, 8372, 11460, 13287, 15801, 17911, 20413, 23481]}, "edge": {"target": [], "time": []}}, "mouseout": {"state": {"target": ["16", "12", "0", "10", "9", "5", "6", "7", "10", "11", "16", "17", "16"], "time": [2962, 3263, 6654, 7210, 8089, 11187, 12826, 15513, 17878, 20376, 23080, 25720, 36618]}, "edge": {"target": [], "time": []}}}, "displayed_time": "33.65", "trialTime": 38227, "trial_type": "mouselab-mdp", "trial_index": 17, "time_elapsed": 1923909, "internal_node_id": "0.0-6.0-1.0-8.0"}}, {"uniqueid": "w81016367:a11702825", "current_trial": 18, "dateTime": 1693483157044, "trialdata": {"revealed_states": [], "clicked_states": ["9", "5", "6", "7", "10", "11", "27", "28", "29", "31", "32"], "num_clicks_accrued": [0, 0, 0, 0, 0, 0, 0, 0, 0, 0, 0, 0, 0], "stateRewards": ["", -1, 3, -5, -2, -13, -9, -34, -7, -81, 32, 35, -2, -2, 1, -14, -32, 81, 7, 4, 82, 56, -8, -1, 3, -8, 6, -24, -24, -53, 2, 38, 61, 54], "withholdReward": false, "trial_id": "mdp_trial_10", "block": "test", "trialIndex": 11, "score": 41.599999999999994, "costs": -15.400000000000002, "simulationMode": [null, null, null, null, null], "rewards": [-1, 3, -8, 2, 61], "path": ["0", "0", "23", "24", "25", "30", "32"], "rt": [32833, 599, 400, 285, 362], "actions": ["left", "left", "left", "down", "down"], "actionTimes": [43085, 44612, 45756, 46787, 47892], "queries": {"click": {"state": {"target": ["9", "5", "6", "7", "10", "11", "27", "28", "29", "31", "32"], "time": [12020, 14658, 17109, 19733, 22261, 24637, 27032, 29399, 32222, 35200, 38501]}, "edge": {"target": [], "time": []}}, "mouseover": {"state": {"target": ["11", "9", "5", "5", "6", "7", "2", "10", "11", "27", "28", "29", "25", "33", "31", "32", "32"], "time": [10555, 11563, 12591, 13157, 16162, 17448, 20311, 20628, 23063, 25628, 27955, 30826, 33246, 34586, 34880, 37540, 38035]}, "edge": {"target": [], "time": []}}, "mouseout": {"state": {"target": ["0", "0", "11", "9", "5", "5", "6", "7", "2", "10", "11", "27", "28", "29", "25", "33", "31", "32", "32", "0"], "time": [6903, 7234, 11249, 12306, 12869, 15624, 17414, 20023, 20594, 22775, 25591, 27915, 30321, 32970, 33522, 34844, 35719, 37790, 39666, 52251]}, "edge": {"target": [], "time": []}}}, "displayed_time": "48.82", "trialTime": 53094, "trial_type": "mouselab-mdp", "trial_index": 18, "time_elapsed": 1980813, "internal_node_id": "0.0-6.0-1.0-9.0"}}, {"uniqueid": "w81016367:a11702825", "current_trial": 19, "dateTime": 1693483186075, "trialdata": {"revealed_states": [], "clicked_states": ["9", "5"], "num_clicks_accrued": [0, 0, 0, 0, 0, 0, 0, 0, 0, 0, 0, 0, 0], "stateRewards": ["", -2, -3, 8, -4, -30, 31, 69, 9, 66, 87, 64, -2, 2, 8, 5, 47, 16, -39, -8, -54, 51, -19, 1, -2, -2, -11, -25, -26, 43, -9, 19, -84, 86], "withholdReward": false, "trial_id": "mdp_trial_11", "block": "test", "trialIndex": 12, "score": 75.2, "costs": -2.8, "simulationMode": [null, null, null, null, null], "rewards": [-2, -3, 8, 9, 66], "path": ["0", "0", "1", "2", "3", "8", "9"], "rt": [9729, 738, 371, 681, 684], "actions": ["up", "up", "up", "left", "up"], "actionTimes": [15075, 16547, 17916, 19346, 20795], "queries": {"click": {"state": {"target": ["9", "5"], "time": [7886, 10524]}, "edge": {"target": [], "time": []}}, "mouseover": {"state": {"target": ["0", "9", "5", "9"], "time": [6684, 7567, 8213, 13781]}, "edge": {"target": [], "time": []}}, "mouseout": {"state": {"target": ["0", "0", "9", "5", "9", "6"], "time": [2106, 7104, 8183, 13537, 23105, 23888]}, "edge": {"target": [], "time": []}}}, "displayed_time": "21.55", "trialTime": 25132, "trial_type": "mouselab-mdp", "trial_index": 19, "time_elapsed": 2009844, "internal_node_id": "0.0-6.0-1.0-10.0"}}, {"uniqueid": "w81016367:a11702825", "current_trial": 20, "dateTime": 1693483219283, "trialdata": {"revealed_states": [], "clicked_states": ["5", "9", "11"], "num_clicks_accrued": [0, 0, 0, 0, 0, 0, 0, 0, 0, 0, 0, 0, 0], "stateRewards": ["", 1, -3, -4, -11, -56, 61, -47, -16, -28, -9, 69, -2, -3, -4, -8, 40, -86, 59, -4, 80, 27, 54, -1, 3, -1, 8, 67, 23, 50, 6, 83, -43, -29], "withholdReward": false, "trial_id": "mdp_trial_12", "block": "test", "trialIndex": 13, "score": 42.8, "costs": -4.199999999999999, "simulationMode": [null, null, null, null, null], "rewards": [1, -3, -4, -16, 69], "path": ["0", "0", "1", "2", "3", "8", "11"], "rt": [11961, 451, 343, 348, 629], "actions": ["up", "up", "up", "left", "left"], "actionTimes": [20255, 21471, 22575, 23671, 25055], "queries": {"click": {"state": {"target": ["5", "9", "11"], "time": [10071, 12511, 15242]}, "edge": {"target": [], "time": []}}, "mouseover": {"state": {"target": ["5", "9", "11", "10"], "time": [9624, 11122, 14421, 16053]}, "edge": {"target": [], "time": []}}, "mouseout": {"state": {"target": ["8", "11", "11", "0", "5", "9", "11", "10", "11"], "time": [2847, 3032, 3979, 8609, 10577, 12746, 15773, 18143, 28356]}, "edge": {"target": [], "time": []}}}, "displayed_time": "25.82", "trialTime": 29267, "trial_type": "mouselab-mdp", "trial_index": 20, "time_elapsed": 2043052, "internal_node_id": "0.0-6.0-1.0-11.0"}}, {"uniqueid": "w81016367:a11702825", "current_trial": 21, "dateTime": 1693483259788, "trialdata": {"revealed_states": [], "clicked_states": ["5", "16", "17", "20", "21", "22"], "num_clicks_accrued": [0, 0, 0, 0, 0, 0, 0, 0, 0, 0, 0, 0, 0], "stateRewards": ["", 1, 1, -3, 7, 49, 78, 26, -5, 26, 48, -43, -1, -3, 2, -5, 4, -1, -60, 10, -35, 51, 81, -2, 1, -7, -5, -39, -86, -54, 4, -3, 74, 77], "withholdReward": false, "trial_id": "mdp_trial_13", "block": "test", "trialIndex": 14, "score": 80.6, "costs": -8.4, "simulationMode": [null, null, null, null, null], "rewards": [-1, -3, 2, 10, 81], "path": ["0", "0", "12", "13", "14", "19", "22"], "rt": [19440, 838, 591, 523, 549], "actions": ["right", "right", "right", "down", "left"], "actionTimes": [24904, 26629, 27973, 29246, 30549], "queries": {"click": {"state": {"target": ["5", "16", "17", "20", "21", "22"], "time": [7164, 9786, 12396, 15503, 18182, 20901]}, "edge": {"target": [], "time": []}}, "mouseover": {"state": {"target": ["4", "5", "16", "17", "20", "21", "22"], "time": [6511, 6802, 7720, 11286, 14315, 16084, 18745]}, "edge": {"target": [], "time": []}}, "mouseout": {"state": {"target": ["1", "4", "5", "16", "17", "20", "21", "22", "22", "12"], "time": [1931, 6767, 7687, 11012, 13697, 15795, 18709, 23211, 32943, 33295]}, "edge": {"target": [], "time": []}}}, "displayed_time": "31.31", "trialTime": 36254, "trial_type": "mouselab-mdp", "trial_index": 21, "time_elapsed": 2083556, "internal_node_id": "0.0-6.0-1.0-12.0"}}, {"uniqueid": "w81016367:a11702825", "current_trial": 22, "dateTime": 1693483300429, "trialdata": {"revealed_states": [], "clicked_states": ["9", "5", "11", "6", "7", "10"], "num_clicks_accrued": [0, 0, 0, 0, 0, 0, 0, 0, 0, 0, 0, 0, 0], "stateRewards": ["", -1, 3, 1, -11, -22, -36, 19, -5, -70, -52, 50, -2, -4, 4, -2, -41, -83, 29, -2, 22, 10, -6, -2, 3, -2, 14, 54, 44, 77, -9, -65, -37, -40], "withholdReward": false, "trial_id": "mdp_trial_14", "block": "test", "trialIndex": 15, "score": 39.6, "costs": -8.4, "simulationMode": [null, null, null, null, null], "rewards": [-1, 3, 1, -5, 50], "path": ["0", "0", "1", "2", "3", "8", "11"], "rt": [18262, 744, 404, 375, 869], "actions": ["up", "up", "up", "left", "left"], "actionTimes": [26218, 27737, 28995, 30126, 31754], "queries": {"click": {"state": {"target": ["9", "5", "11", "6", "7", "10"], "time": [9546, 12168, 14676, 17190, 19846, 22373]}, "edge": {"target": [], "time": []}}, "mouseover": {"state": {"target": ["9", "5", "11", "6", "7", "10", "11"], "time": [9178, 10392, 13027, 15596, 18478, 20640, 23160]}, "edge": {"target": [], "time": []}}, "mouseout": {"state": {"target": ["0", "9", "5", "11", "6", "7", "10", "11", "4", "4"], "time": [8305, 9802, 12717, 15306, 18199, 20360, 22872, 35392, 35662, 36155]}, "edge": {"target": [], "time": []}}}, "displayed_time": "32.51", "trialTime": 36396, "trial_type": "mouselab-mdp", "trial_index": 22, "time_elapsed": 2124196, "internal_node_id": "0.0-6.0-1.0-13.0"}}, {"uniqueid": "w81016367:a11702825", "current_trial": 23, "dateTime": 1693483332191, "trialdata": {"revealed_states": [], "clicked_states": ["29", "28", "27"], "num_clicks_accrued": [0, 0, 0, 0, 0, 0, 0, 0, 0, 0, 0, 0, 0], "stateRewards": ["", -1, 2, -2, 13, -56, -28, 10, 14, 53, -80, -29, 1, -3, -3, -14, 14, 9, -40, -9, 18, 18, 48, 1, 1, 1, -9, 64, -39, -9, 7, -52, -78, 7], "withholdReward": false, "trial_id": "mdp_trial_15", "block": "test", "trialIndex": 16, "score": 53.8, "costs": -4.199999999999999, "simulationMode": [null, null, null, null, null], "rewards": [1, 1, 1, -9, 64], "path": ["0", "0", "23", "24", "25", "26", "27"], "rt": [10730, 585, 387, 293, 392], "actions": ["left", "left", "left", "up", "up"], "actionTimes": [17875, 19196, 20347, 21396, 22555], "queries": {"click": {"state": {"target": ["29", "28", "27"], "time": [8910, 11618, 14061]}, "edge": {"target": [], "time": []}}, "mouseover": {"state": {"target": ["29", "26", "28", "27", "32"], "time": [8498, 10143, 10464, 12651, 14880]}, "edge": {"target": [], "time": []}}, "mouseout": {"state": {"target": ["18", "0", "29", "26", "28", "27", "32", "18"], "time": [624, 7564, 10106, 10428, 12124, 14591, 16649, 25266]}, "edge": {"target": [], "time": []}}}, "displayed_time": "23.31", "trialTime": 27427, "trial_type": "mouselab-mdp", "trial_index": 23, "time_elapsed": 2155963, "internal_node_id": "0.0-6.0-1.0-14.0"}}, {"uniqueid": "w81016367:a11702825", "current_trial": 24, "dateTime": 1693483367699, "trialdata": {"revealed_states": [], "clicked_states": ["5", "6", "7", "11"], "num_clicks_accrued": [0, 0, 0, 0, 0, 0, 0, 0, 0, 0, 0, 0, 0], "stateRewards": ["", 1, 1, 1, 15, -76, 52, -32, 14, -57, 37, 49, 1, -4, -3, 6, 83, -76, 25, 9, 36, -1, -17, -1, 4, 4, -2, -22, -21, 58, -15, -57, 49, -24], "withholdReward": false, "trial_id": "mdp_trial_16", "block": "test", "trialIndex": 17, "score": 64.4, "costs": -5.6, "simulationMode": [null, null, null, null, null], "rewards": [1, 1, 1, 15, 52], "path": ["0", "0", "1", "2", "3", "4", "6"], "rt": [14502, 409, 765, 337, 367], "actions": ["up", "up", "up", "right", "right"], "actionTimes": [20264, 21638, 22998, 24122, 25270], "queries": {"click": {"state": {"target": ["5", "6", "7", "11"], "time": [7714, 10487, 13121, 15807]}, "edge": {"target": [], "time": []}}, "mouseover": {"state": {"target": ["18", "6", "5", "6", "7", "10", "11", "6"], "time": [6338, 6891, 7192, 8741, 11068, 14154, 14490, 16613]}, "edge": {"target": [], "time": []}}, "mouseout": {"state": {"target": ["1", "23", "0", "18", "6", "5", "6", "7", "10", "11", "6"], "time": [1726, 1980, 6283, 6605, 7157, 8705, 10780, 14114, 14455, 16333, 27719]}, "edge": {"target": [], "time": []}}}, "displayed_time": "26.04", "trialTime": 31230, "trial_type": "mouselab-mdp", "trial_index": 24, "time_elapsed": 2191468, "internal_node_id": "0.0-6.0-1.0-15.0"}}, {"uniqueid": "w81016367:a11702825", "current_trial": 25, "dateTime": 1693483398191, "trialdata": {"revealed_states": [], "clicked_states": ["5"], "num_clicks_accrued": [0, 0, 0, 0, 0, 0, 0, 0, 0, 0, 0, 0, 0], "stateRewards": ["", 2, -4, -8, -15, 71, -43, -41, 7, -17, 20, 67, -1, -1, -4, 6, 37, -24, -47, 9, 34, 57, 45, 1, 2, -4, -5, -23, 88, -5, 13, -40, 43, 44], "withholdReward": false, "trial_id": "mdp_trial_17", "block": "test", "trialIndex": 18, "score": 44.6, "costs": -1.4, "simulationMode": [null, null, null, null, null], "rewards": [2, -4, -8, -15, 71], "path": ["0", "0", "1", "2", "3", "4", "5"], "rt": [5665, 1149, 765, 888, 905], "actions": ["up", "up", "up", "right", "up"], "actionTimes": [12621, 14719, 16254, 17910, 19790], "queries": {"click": {"state": {"target": ["5"], "time": [8462]}, "edge": {"target": [], "time": []}}, "mouseover": {"state": {"target": ["4", "5", "9"], "time": [7905, 8185, 10916]}, "edge": {"target": [], "time": []}}, "mouseout": {"state": {"target": ["18", "0", "4", "5", "5", "5", "9"], "time": [2926, 7254, 8153, 8535, 9502, 10251, 11418]}, "edge": {"target": [], "time": []}}}, "displayed_time": "20.97", "trialTime": 25954, "trial_type": "mouselab-mdp", "trial_index": 25, "time_elapsed": 2221959, "internal_node_id": "0.0-6.0-1.0-16.0"}}, {"uniqueid": "w81016367:a11702825", "current_trial": 26, "dateTime": 1693483456852, "trialdata": {"revealed_states": [], "clicked_states": ["9", "5", "6", "7", "10", "11", "16", "18", "17", "20", "21", "22", "31"], "num_clicks_accrued": [0, 0, 0, 0, 0, 0, 0, 0, 0, 0, 0, 0, 0], "stateRewards": ["", -2, -2, -3, -6, -15, -11, 41, -12, -63, -76, 2, -2, -3, 8, 9, -36, -2, -18, -16, -32, -85, -17, -2, 1, 5, -16, 82, 35, -88, -1, 80, -82, -20], "withholdReward": false, "trial_id": "mdp_trial_18", "block": "test", "trialIndex": 19, "score": 64.8, "costs": -18.2, "simulationMode": [null, null, null, null, null], "rewards": [-2, 1, 5, -1, 80], "path": ["0", "0", "23", "24", "25", "30", "31"], "rt": [38867, 374, 257, 276, 558], "actions": ["left", "left", "left", "down", "right"], "actionTimes": [45292, 46428, 47451, 48679, 49987], "queries": {"click": {"state": {"target": ["9", "5", "6", "7", "10", "11", "16", "18", "17", "20", "21", "22", "31"], "time": [8551, 11079, 13621, 15842, 18474, 20805, 24357, 27089, 29841, 32719, 35857, 38411, 41489]}, "edge": {"target": [], "time": []}}, "mouseover": {"state": {"target": ["7", "9", "5", "6", "7", "10", "11", "7", "16", "18", "17", "20", "21", "22", "31"], "time": [7043, 8066, 9815, 11652, 14218, 16278, 19051, 21595, 23996, 25979, 27884, 32419, 33559, 36221, 41152]}, "edge": {"target": [], "time": []}}, "mouseout": {"state": {"target": ["18", "0", "7", "9", "5", "6", "7", "10", "11", "7", "16", "18", "17", "20", "21", "22", "31", "31", "15"], "time": [3029, 7009, 7750, 9533, 11618, 13931, 16205, 19015, 21320, 23752, 25541, 27608, 32124, 33020, 36150, 40588, 43795, 52071, 52383]}, "edge": {"target": [], "time": []}}}, "displayed_time": "50.73", "trialTime": 54316, "trial_type": "mouselab-mdp", "trial_index": 26, "time_elapsed": 2280621, "internal_node_id": "0.0-6.0-1.0-17.0"}}, {"uniqueid": "w81016367:a11702825", "current_trial": 27, "dateTime": 1693483494917, "trialdata": {"revealed_states": [], "clicked_states": ["9", "5", "7", "10", "6"], "num_clicks_accrued": [0, 0, 0, 0, 0, 0, 0, 0, 0, 0, 0, 0, 0], "stateRewards": ["", 1, 1, -6, -2, 7, 77, 3, 16, -16, 66, 31, -1, 3, -8, -6, 33, -50, -48, 7, -60, -66, 36, 2, -3, 3, -7, -12, -61, -79, -4, 8, 74, -70], "withholdReward": false, "trial_id": "mdp_trial_19", "block": "test", "trialIndex": 20, "score": 64, "costs": -7, "simulationMode": [null, null, null, null, null], "rewards": [1, 1, -6, -2, 77], "path": ["0", "0", "1", "2", "3", "4", "6"], "rt": [17831, 636, 348, 311, 362], "actions": ["up", "up", "up", "right", "right"], "actionTimes": [23826, 25012, 26109, 27180, 28317], "queries": {"click": {"state": {"target": ["9", "5", "7", "10", "6"], "time": [8052, 10729, 13222, 16056, 18995]}, "edge": {"target": [], "time": []}}, "mouseover": {"state": {"target": ["2", "9", "5", "7", "10", "6", "11"], "time": [7456, 7763, 9292, 11513, 14067, 17128, 19852]}, "edge": {"target": [], "time": []}}, "mouseout": {"state": {"target": ["12", "0", "2", "9", "5", "7", "10", "6", "11", "6"], "time": [1969, 6655, 7728, 9016, 11480, 13521, 16461, 19383, 21658, 31052]}, "edge": {"target": [], "time": []}}}, "displayed_time": "29.12", "trialTime": 33270, "trial_type": "mouselab-mdp", "trial_index": 27, "time_elapsed": 2318686, "internal_node_id": "0.0-6.0-1.0-18.0"}}, {"uniqueid": "w81016367:a11702825", "current_trial": 28, "dateTime": 1693483529613, "trialdata": {"revealed_states": [], "clicked_states": ["5", "9", "11", "10"], "num_clicks_accrued": [0, 0, 0, 0, 0, 0, 0, 0, 0, 0, 0, 0, 0], "stateRewards": ["", 2, 3, -1, 16, -78, -11, 46, 2, -20, 79, -67, 2, 3, 2, 11, -83, -42, -58, -11, -67, -22, 55, 2, -1, -1, -16, -83, -82, 23, -11, -29, 13, 13], "withholdReward": false, "trial_id": "mdp_trial_20", "block": "test", "trialIndex": 21, "score": 79.4, "costs": -5.6, "simulationMode": [null, null, null, null, null], "rewards": [2, 3, -1, 2, 79], "path": ["0", "0", "1", "2", "3", "8", "10"], "rt": [13396, 229, 889, 570, 671], "actions": ["up", "up", "up", "left", "down"], "actionTimes": [19768, 20945, 22611, 23954, 25410], "queries": {"click": {"state": {"target": ["5", "9", "11", "10"], "time": [8310, 10739, 13311, 15753]}, "edge": {"target": [], "time": []}}, "mouseover": {"state": {"target": ["4", "5", "9", "11", "10", "7"], "time": [7729, 8020, 8635, 11541, 13654, 16389]}, "edge": {"target": [], "time": []}}, "mouseout": {"state": {"target": ["18", "12", "0", "4", "5", "9", "11", "10", "7", "10"], "time": [2030, 2831, 7462, 7985, 8604, 11251, 13616, 16323, 18311, 28044]}, "edge": {"target": [], "time": []}}}, "displayed_time": "26.17", "trialTime": 29783, "trial_type": "mouselab-mdp", "trial_index": 28, "time_elapsed": 2353385, "internal_node_id": "0.0-6.0-1.0-19.0"}}, {"uniqueid": "w81016367:a11702825", "current_trial": 29, "dateTime": 1693483721837, "trialdata": {"revealed_states": [], "clicked_states": ["5"], "num_clicks_accrued": [0, 0, 0, 0, 0, 0, 0, 0, 0, 0, 0, 0, 0], "stateRewards": ["", -2, 4, -3, -13, 63, -36, 62, 11, 78, 34, -51, 2, -2, 8, -6, -40, -18, 31, 9, 64, 39, 79, 1, 4, -4, 15, -12, 76, 73, -10, -77, 86, -4], "withholdReward": false, "trial_id": "mdp_trial_21", "block": "test", "trialIndex": 22, "score": -51.4, "costs": -1.4, "simulationMode": [null, null, null, null, null], "rewards": [-2, 4, -3, -13, -36], "path": ["0", "0", "1", "2", "3", "4", "6"], "rt": [12526, 36086, 80287, 14492, 25966], "actions": ["up", "up", "up", "right", "right"], "actionTimes": [19524, 56434, 137379, 152554, 179188], "queries": {"click": {"state": {"target": ["5"], "time": [8723]}, "edge": {"target": [], "time": []}}, "mouseover": {"state": {"target": ["12", "5", "6", "2", "19", "9", "3"], "time": [7328, 8254, 10645, 14201, 16056, 16688, 16895]}, "edge": {"target": [], "time": []}}, "mouseout": {"state": {"target": ["0", "12", "5", "6", "5", "2", "19", "9", "3", "19", "7", "6", "12", "0", "13", "9", "1", "12", "0", "12", "22", "1", "0", "0", "16", "0", "0", "12"], "time": [7291, 7953, 10574, 12053, 13689, 14361, 16232, 16855, 17057, 49552, 92286, 93855, 94850, 107132, 108152, 109055, 111518, 112167, 154981, 155733, 158078, 173415, 174830, 175233, 177232, 177530, 182293, 182556]}, "edge": {"target": [], "time": []}}}, "displayed_time": "179.86", "trialTime": 187537, "trial_type": "mouselab-mdp", "trial_index": 29, "time_elapsed": 2545594, "internal_node_id": "0.0-6.0-1.0-20.0"}}], "questiondata": {"params": {"CODE": "C6DMOQA6", "MIN_TIME": 14, "inspectCost": 1, "startTime": "Thu Aug 31 2023 13:26:13 GMT+0200 (South Africa Standard Time)", "bonusRate": 0.002, "variance": "1_2_4_8_44", "branching": "31123"}}, "eventdata": [{"eventtype": "initialized", "value": null, "timestamp": 1693481171751, "interval": 0}, {"eventtype": "window_resize", "value": [1016, 503], "timestamp": 1693481171752, "interval": 1}, {"eventtype": "window_resize", "value": [1016, 503], "timestamp": 1693481172701, "interval": 949}, {"eventtype": "focus", "value": "off", "timestamp": 1693481184764, "interval": 12063}, {"eventtype": "window_resize", "value": [1280, 635], "timestamp": 1693482602850, "interval": 1418086}, {"eventtype": "focus", "value": "on", "timestamp": 1693482635776, "interval": 32926}, {"eventtype": "window_resize", "value": [1280, 750], "timestamp": 1693482636481, "interval": 705}], "useragent": "Mozilla/5.0 (Windows NT 10.0; Win64; x64) AppleWebKit/537.36 (KHTML, like Gecko) Chrome/109.0.0.0 Safari/537.36", "mode": "live", "id": "w81016367:a11702825", "status": "user data saved", "Beginhit": "2023-08-31 11:26:02.773584", "Beginexp": "2023-08-31 11:50:35.358943", "Endhit": null, "psiturkStatus": 2, "browser": "<redacted>", "platform": "windows", "language": "en-US", "excludeReason": "dataincomplete"}