{"condition": 0, "counterbalance": 0, "assignmentId": "a28985032", "workerId": "w39104304", "hitId": "h86851484", "currenttrial": 55, "bonus": 0, "data": [{"uniqueid": "w39104304:a28985032", "current_trial": 0, "dateTime": 1693660312178, "trialdata": {"success": true, "trial_type": "fullscreen", "trial_index": 0, "time_elapsed": 2762, "internal_node_id": "0.0-0.0"}}, {"uniqueid": "w39104304:a28985032", "current_trial": 1, "dateTime": 1693660328762, "trialdata": {"view_history": [{"page_index": 0, "viewing_time": 16571}], "rt": 16572, "trial_id": "exp_instructions_control", "trial_type": "instructions", "trial_index": 1, "time_elapsed": 19346, "internal_node_id": "0.0-1.0"}}, {"uniqueid": "w39104304:a28985032", "current_trial": 2, "dateTime": 1693660528938, "trialdata": {"view_history": [{"page_index": 0, "viewing_time": 47119}, {"page_index": 1, "viewing_time": 78525}, {"page_index": 2, "viewing_time": 26642}, {"page_index": 3, "viewing_time": 47889}], "rt": 200175, "trial_id": "mouselab_instructions_1_control", "trial_type": "instructions", "trial_index": 2, "time_elapsed": 219522, "internal_node_id": "0.0-2.0-1.0"}}, {"uniqueid": "w39104304:a28985032", "current_trial": 3, "dateTime": 1693660549571, "trialdata": {"revealed_states": [], "clicked_states": ["1"], "num_clicks_accrued": [0, 0, 0, 0, 0, 0, 0, 0, 0, 0, 0, 0, 0], "stateRewards": ["", -10, -10, 10, -10, 10, 10, 10, 10, 10, 10, 10, 10, 10, -10, -10, -10, -10, 10, -10, -10, 10, -10, -10, -10, 10, 10, 10, 10, -10, 10, -10, -10, -10], "withholdReward": false, "trial_id": "practice_1", "block": "test", "trialIndex": 0, "score": -7, "costs": -0.5, "simulationMode": [null, null, null, null, null], "rewards": [10, 10, -10, -10, -10], "path": ["0", "0", "12", "13", "14", "19", "20"], "rt": [5767, 1048, 787, 741, 184], "actions": ["right", "right", "right", "down", "right"], "actionTimes": [8286, 9845, 11134, 12372, 13049], "queries": {"click": {"state": {"target": ["1"], "time": [6367]}, "edge": {"target": [], "time": []}}, "mouseover": {"state": {"target": ["1", "1", "2", "2", "12"], "time": [3446, 3778, 6899, 7981, 8048]}, "edge": {"target": [], "time": []}}, "mouseout": {"state": {"target": ["0", "1", "1", "2", "2", "12", "22", "19", "20"], "time": [2979, 3478, 6849, 7433, 8013, 8064, 14745, 14895, 15328]}, "edge": {"target": [], "time": []}}}, "displayed_time": "13.55", "trialTime": 20115, "trial_type": "mouselab-mdp", "trial_index": 3, "time_elapsed": 240154, "internal_node_id": "0.0-2.0-2.0-0.0"}}, {"uniqueid": "w39104304:a28985032", "current_trial": 4, "dateTime": 1693660563848, "trialdata": {"revealed_states": [], "clicked_states": ["15"], "num_clicks_accrued": [0, 0, 0, 0, 0, 0, 0, 0, 0, 0, 0, 0, 0], "stateRewards": ["", 10, 10, 10, -10, 10, -10, -10, -10, -10, 10, -10, -10, -10, 10, 10, -10, -10, 10, -10, 10, -10, 10, 10, -10, 10, 10, -10, -10, 10, 10, -10, -10, -10], "withholdReward": false, "trial_id": "practice_2", "block": "test", "trialIndex": 1, "score": 13, "costs": -0.5, "simulationMode": [null, null, null, null, null], "rewards": [10, 10, 10, -10, -10], "path": ["0", "0", "1", "2", "3", "8", "11"], "rt": [4040, 110, 355, 225, 1198], "actions": ["up", "up", "up", "left", "left"], "actionTimes": [5414, 6015, 6859, 7582, 9285], "queries": {"click": {"state": {"target": ["15"], "time": [3736]}, "edge": {"target": [], "time": []}}, "mouseover": {"state": {"target": ["12", "19", "14", "18", "15"], "time": [1770, 1854, 2171, 2204, 2937]}, "edge": {"target": [], "time": []}}, "mouseout": {"state": {"target": ["0", "12", "19", "14", "18", "15", "18", "11", "11", "11", "2", "7"], "time": [1757, 1805, 1920, 2202, 2218, 8169, 8184, 8584, 11249, 11285, 11352, 11385]}, "edge": {"target": [], "time": []}}}, "displayed_time": "9.80", "trialTime": 14047, "trial_type": "mouselab-mdp", "trial_index": 4, "time_elapsed": 254430, "internal_node_id": "0.0-2.0-2.0-1.0"}}, {"uniqueid": "w39104304:a28985032", "current_trial": 5, "dateTime": 1693660677384, "trialdata": {"view_history": [{"page_index": 0, "viewing_time": 102277}, {"page_index": 1, "viewing_time": 11253}], "rt": 113530, "trial_id": "mouselab_instructions_2_control", "trial_type": "instructions", "trial_index": 5, "time_elapsed": 367968, "internal_node_id": "0.0-2.0-3.0"}}, {"uniqueid": "w39104304:a28985032", "current_trial": 6, "dateTime": 1693660719117, "trialdata": {"rt": 41728, "response": {"Q0": "The cost for clicking on nodes may vary between nodes.", "Q1": "The better I perform the higher my bonus will be.", "Q2": "No, the amount of cash at each node of the web may be different each time.", "Q3": "To get the highest total score.", "Q4": "Only before moving the spider.", "Q5": "3 seconds"}, "question_order": [0, 1, 2, 3, 4, 5], "correct": {"Q0": "The cost for clicking on nodes may vary between nodes.", "Q1": "The better I perform the higher my bonus will be.", "Q2": "No, the amount of cash at each node of the web may be different each time.", "Q3": "To get the highest total score.", "Q4": "Only before moving the spider.", "Q5": "3 seconds"}, "trial_id": "mouselab_quiz_control", "trial_type": "survey-multi-choice", "trial_index": 6, "time_elapsed": 409701, "internal_node_id": "0.0-2.0-4.0"}}, {"uniqueid": "w39104304:a28985032", "current_trial": 7, "dateTime": 1693660723931, "trialdata": {"rt": 4797, "response": {"Q0": "No"}, "question_order": [0], "trial_id": "repeat_check", "trial_type": "survey-multi-choice", "trial_index": 7, "time_elapsed": 414514, "internal_node_id": "0.0-4.0-0.0"}}, {"uniqueid": "w39104304:a28985032", "current_trial": 8, "dateTime": 1693660797193, "trialdata": {"rt": 73252, "stimulus": "\n<h1> Get ready to start the game! </h1>\n\nThank you for reading the instructions. Get ready start with the 40 rounds of this game.\n<br><br>\nIf you need to take a break, feel free to take one after the end of a round, before continuing to the next one.\n<br><br>\nRemember, the more money the spider gets, the bigger your bonus will be!\n<br><br>\n<div style='text-align: center;'>Press <code>space</code> to begin.</div>\n\n<br><br>\n(If, at any point, the <code>space</code> key does not take you to the next page, click once on the text and try again.)", "response": " ", "trial_id": "mdp_ready", "trial_type": "html-keyboard-response", "trial_index": 8, "time_elapsed": 487777, "internal_node_id": "0.0-6.0-0.0"}}, {"uniqueid": "w39104304:a28985032", "current_trial": 9, "dateTime": 1693660819718, "trialdata": {"revealed_states": [], "clicked_states": ["1"], "num_clicks_accrued": [0, 0, 0, 0, 0, 0, 0, 0, 0, 0, 0, 0, 0], "stateRewards": ["", -2, -3, -3, 9, 79, 67, 22, -15, -56, 27, -85, -2, 4, -4, -15, -20, -32, 60, 15, 71, 57, 17, 1, 2, -8, 15, -37, -81, 82, 15, 21, -3, 2], "withholdReward": false, "trial_id": "mdp_trial_1", "block": "test", "trialIndex": 2, "score": 28.6, "costs": -1.4, "simulationMode": [null, null, null, null, null, null], "rewards": [-2, 4, -4, 15, 17], "path": ["0", "0", "12", "13", "14", "19", "22"], "rt": [2102, 958, 1371, 1404, 222, 155], "actions": ["right", "right", "right", "right", "down", "left"], "actionTimes": [6403, 7364, 9256, 11188, 11909, 12561], "queries": {"click": {"state": {"target": ["1"], "time": [5240]}, "edge": {"target": [], "time": []}}, "mouseover": {"state": {"target": ["1", "2", "1", "2", "12"], "time": [4549, 4866, 5132, 5383, 6935]}, "edge": {"target": [], "time": []}}, "mouseout": {"state": {"target": ["0", "1", "2", "1", "2", "1", "12", "13"], "time": [4516, 4582, 5049, 5319, 6668, 6886, 8400, 9332]}, "edge": {"target": [], "time": []}}}, "displayed_time": "18.30", "trialTime": 22255, "trial_type": "mouselab-mdp", "trial_index": 9, "time_elapsed": 510301, "internal_node_id": "0.0-6.0-1.0-0.0"}}, {"uniqueid": "w39104304:a28985032", "current_trial": 10, "dateTime": 1693660845526, "trialdata": {"revealed_states": [], "clicked_states": ["23"], "num_clicks_accrued": [0, 0, 0, 0, 0, 0, 0, 0, 0, 0, 0, 0, 0], "stateRewards": ["", 1, -3, -1, 9, -34, -40, 22, -7, 45, 53, -11, 2, 4, 5, 15, 21, 37, -49, -3, 80, -28, -34, 1, -3, 1, 1, -40, -6, -5, -16, -85, -86, 59], "withholdReward": false, "trial_id": "mdp_trial_2", "block": "test", "trialIndex": 3, "score": 40.6, "costs": -1.4, "simulationMode": [null, null, null, null, null, null], "rewards": [1, -3, 1, -16, 59], "path": ["0", "0", "23", "24", "25", "30", "33"], "rt": [2366, 533, 955, 568, 313, 572], "actions": ["left", "left", "left", "left", "down", "left"], "actionTimes": [4960, 5496, 6972, 8052, 8861, 9937], "queries": {"click": {"state": {"target": ["23"], "time": [3875]}, "edge": {"target": [], "time": []}}, "mouseover": {"state": {"target": ["23", "23", "23", "24"], "time": [3003, 3219, 3404, 4181]}, "edge": {"target": [], "time": []}}, "mouseout": {"state": {"target": ["0", "23", "23", "23", "24", "21", "21", "22", "12", "13", "14"], "time": [2969, 3035, 3252, 4148, 10498, 17298, 20081, 20233, 23214, 23414, 23529]}, "edge": {"target": [], "time": []}}}, "displayed_time": "16.60", "trialTime": 25543, "trial_type": "mouselab-mdp", "trial_index": 10, "time_elapsed": 536109, "internal_node_id": "0.0-6.0-1.0-1.0"}}, {"uniqueid": "w39104304:a28985032", "current_trial": 11, "dateTime": 1693660863755, "trialdata": {"revealed_states": [], "clicked_states": ["1"], "num_clicks_accrued": [0, 0, 0, 0, 0, 0, 0, 0, 0, 0, 0, 0, 0], "stateRewards": ["", 2, -2, 7, -11, -76, -65, -23, 16, -58, 30, 81, 1, 2, 7, 14, 9, 55, -2, 6, 11, -15, 31, -1, -1, -3, 2, 15, 2, 46, 15, 18, 45, -34], "withholdReward": false, "trial_id": "mdp_trial_3", "block": "test", "trialIndex": 4, "score": -2.4000000000000004, "costs": -1.4, "simulationMode": [null, null, null, null, null, null], "rewards": [-1, -1, -3, 2, 2], "path": ["0", "0", "23", "24", "25", "26", "28"], "rt": [2456, 451, 364, 1327, 217, 102], "actions": ["left", "left", "left", "left", "up", "right"], "actionTimes": [5490, 5944, 6810, 8655, 9365, 9962], "queries": {"click": {"state": {"target": ["1"], "time": [4379]}, "edge": {"target": [], "time": []}}, "mouseover": {"state": {"target": ["1"], "time": [3512]}, "edge": {"target": [], "time": []}}, "mouseout": {"state": {"target": ["14", "13", "12", "0", "0", "1"], "time": [264, 296, 378, 2211, 3380, 5011]}, "edge": {"target": [], "time": []}}}, "displayed_time": "17.04", "trialTime": 17919, "trial_type": "mouselab-mdp", "trial_index": 11, "time_elapsed": 554338, "internal_node_id": "0.0-6.0-1.0-2.0"}}, {"uniqueid": "w39104304:a28985032", "current_trial": 12, "dateTime": 1693660881487, "trialdata": {"revealed_states": [], "clicked_states": ["1"], "num_clicks_accrued": [0, 0, 0, 0, 0, 0, 0, 0, 0, 0, 0, 0, 0], "stateRewards": ["", -1, -2, 8, -6, -79, -6, 87, 9, -5, -66, -38, 2, 2, 5, -6, -82, 74, 85, -8, 67, -30, -15, 1, -2, -2, -2, 87, 64, 49, 7, 2, -38, -9], "withholdReward": false, "trial_id": "mdp_trial_4", "block": "test", "trialIndex": 5, "score": -15.4, "costs": -1.4, "simulationMode": [null, null, null, null, null], "rewards": [2, 2, 5, -8, -15], "path": ["0", "0", "12", "13", "14", "19", "22"], "rt": [2939, 587, 725, 1220, 405], "actions": ["right", "right", "right", "down", "left"], "actionTimes": [5171, 6253, 7475, 9204, 10107], "queries": {"click": {"state": {"target": ["1"], "time": [2942]}, "edge": {"target": [], "time": []}}, "mouseover": {"state": {"target": ["1", "12"], "time": [2567, 4049]}, "edge": {"target": [], "time": []}}, "mouseout": {"state": {"target": ["12", "1", "12", "12"], "time": [1298, 4016, 4082, 11786]}, "edge": {"target": [], "time": []}}}, "displayed_time": "16.24", "trialTime": 17474, "trial_type": "mouselab-mdp", "trial_index": 12, "time_elapsed": 572069, "internal_node_id": "0.0-6.0-1.0-3.0"}}, {"uniqueid": "w39104304:a28985032", "current_trial": 13, "dateTime": 1693660898824, "trialdata": {"revealed_states": [], "clicked_states": ["23"], "num_clicks_accrued": [0, 0, 0, 0, 0, 0, 0, 0, 0, 0, 0, 0, 0], "stateRewards": ["", 1, 1, 1, -3, -7, -1, -41, -10, 20, -72, -63, 1, -4, -2, 2, -66, 30, -84, -2, 49, 23, 71, -1, -4, 4, -12, 67, 5, 18, -16, 88, 56, -5], "withholdReward": false, "trial_id": "mdp_trial_5", "block": "test", "trialIndex": 6, "score": -42.4, "costs": -1.4, "simulationMode": [null, null, null, null, null], "rewards": [1, 1, 1, -3, -41], "path": ["0", "0", "1", "2", "3", "4", "7"], "rt": [3608, 2067, 982, 2186, 190], "actions": ["up", "up", "up", "right", "down"], "actionTimes": [5672, 8233, 9732, 12415, 13102], "queries": {"click": {"state": {"target": ["23"], "time": [3094]}, "edge": {"target": [], "time": []}}, "mouseover": {"state": {"target": ["23"], "time": [2594]}, "edge": {"target": [], "time": []}}, "mouseout": {"state": {"target": ["12", "12", "0", "23", "24", "1", "7", "23"], "time": [745, 1177, 1493, 3233, 11080, 11179, 11412, 14945]}, "edge": {"target": [], "time": []}}}, "displayed_time": "16.07", "trialTime": 17090, "trial_type": "mouselab-mdp", "trial_index": 13, "time_elapsed": 589407, "internal_node_id": "0.0-6.0-1.0-4.0"}}, {"uniqueid": "w39104304:a28985032", "current_trial": 14, "dateTime": 1693660923781, "trialdata": {"revealed_states": [], "clicked_states": ["23", "24"], "num_clicks_accrued": [0, 0, 0, 0, 0, 0, 0, 0, 0, 0, 0, 0, 0], "stateRewards": ["", -1, 1, 3, -8, -23, -15, -14, -11, -23, 58, 68, 1, 3, 5, 12, -17, -41, -7, -10, -4, 82, 10, 1, 4, -4, 11, 73, 55, -55, -1, -86, -86, 54], "withholdReward": false, "trial_id": "mdp_trial_6", "block": "test", "trialIndex": 7, "score": 64.2, "costs": -2.8, "simulationMode": [null, null, null, null, null], "rewards": [1, 4, -4, 11, 55], "path": ["0", "0", "23", "24", "25", "26", "28"], "rt": [3980, 137, 799, 789, 217], "actions": ["left", "left", "left", "up", "right"], "actionTimes": [5618, 6249, 7544, 8832, 9545], "queries": {"click": {"state": {"target": ["23", "24"], "time": [2152, 3823]}, "edge": {"target": [], "time": []}}, "mouseover": {"state": {"target": ["23", "24", "25", "24"], "time": [1898, 2411, 2928, 3243]}, "edge": {"target": [], "time": []}}, "mouseout": {"state": {"target": ["23", "23", "24", "25", "24"], "time": [930, 2273, 2847, 3210, 10860]}, "edge": {"target": [], "time": []}}}, "displayed_time": "15.64", "trialTime": 24732, "trial_type": "mouselab-mdp", "trial_index": 14, "time_elapsed": 614365, "internal_node_id": "0.0-6.0-1.0-5.0"}}, {"uniqueid": "w39104304:a28985032", "current_trial": 15, "dateTime": 1693660943140, "trialdata": {"revealed_states": [], "clicked_states": ["23", "26"], "num_clicks_accrued": [0, 0, 0, 0, 0, 0, 0, 0, 0, 0, 0, 0, 0], "stateRewards": ["", 1, -1, 8, -3, 38, 85, -20, -4, 8, 23, 73, 2, -4, 6, -13, 44, 7, -28, -11, -77, 45, -69, 1, -1, -7, -11, 75, -51, -87, 7, 36, -53, -26], "withholdReward": false, "trial_id": "mdp_trial_7", "block": "test", "trialIndex": 8, "score": 33.2, "costs": -2.8, "simulationMode": [null, null, null, null, null], "rewards": [1, -1, -7, 7, 36], "path": ["0", "0", "23", "24", "25", "30", "31"], "rt": [4624, 304, 225, 216, 184], "actions": ["left", "left", "left", "down", "right"], "actionTimes": [6209, 7027, 7749, 8456, 9157], "queries": {"click": {"state": {"target": ["23", "26"], "time": [2207, 4449]}, "edge": {"target": [], "time": []}}, "mouseover": {"state": {"target": ["23", "24", "26", "24"], "time": [1908, 3526, 4240, 4939]}, "edge": {"target": [], "time": []}}, "mouseout": {"state": {"target": ["24", "23", "23", "23", "24", "26", "24"], "time": [104, 555, 2300, 2457, 4058, 4823, 5039]}, "edge": {"target": [], "time": []}}}, "displayed_time": "15.59", "trialTime": 19085, "trial_type": "mouselab-mdp", "trial_index": 15, "time_elapsed": 633723, "internal_node_id": "0.0-6.0-1.0-6.0"}}, {"uniqueid": "w39104304:a28985032", "current_trial": 16, "dateTime": 1693660965277, "trialdata": {"revealed_states": [], "clicked_states": ["23", "30", "12"], "num_clicks_accrued": [0, 0, 0, 0, 0, 0, 0, 0, 0, 0, 0, 0, 0], "stateRewards": ["", -2, -3, 1, -14, 48, -49, 67, -1, -35, -48, 3, -2, 1, -4, -5, 86, -84, 39, 1, 48, 41, -42, -1, -4, 2, -7, 18, -86, 17, 7, -9, 57, -69], "withholdReward": false, "trial_id": "mdp_trial_8", "block": "test", "trialIndex": 9, "score": 56.8, "costs": -4.199999999999999, "simulationMode": [null, null, null, null, null, null], "rewards": [-1, -4, 2, 7, 57], "path": ["0", "0", "23", "24", "25", "30", "32"], "rt": [5235, 462, 268, 152, 63, 82], "actions": ["left", "left", "left", "left", "down", "down"], "actionTimes": [8075, 8540, 9329, 9994, 10586, 11186], "queries": {"click": {"state": {"target": ["23", "30", "12"], "time": [3425, 5455, 7653]}, "edge": {"target": [], "time": []}}, "mouseover": {"state": {"target": ["23", "24", "30", "31", "13", "12", "12"], "time": [2887, 3789, 4305, 5954, 6308, 6689, 7456]}, "edge": {"target": [], "time": []}}, "mouseout": {"state": {"target": ["0", "0", "23", "24", "30", "31", "13", "12", "12"], "time": [939, 2853, 3739, 3823, 5582, 5972, 6656, 6921, 8824]}, "edge": {"target": [], "time": []}}}, "displayed_time": "16.84", "trialTime": 21871, "trial_type": "mouselab-mdp", "trial_index": 16, "time_elapsed": 655860, "internal_node_id": "0.0-6.0-1.0-7.0"}}, {"uniqueid": "w39104304:a28985032", "current_trial": 17, "dateTime": 1693660984927, "trialdata": {"revealed_states": [], "clicked_states": ["23", "26"], "num_clicks_accrued": [0, 0, 0, 0, 0, 0, 0, 0, 0, 0, 0, 0, 0], "stateRewards": ["", -1, 3, 1, -11, -22, -36, 19, -5, -70, -52, 50, -2, -4, 4, -2, -41, -83, 29, -2, 22, 10, -6, -2, 3, -2, 14, 54, 44, 77, -9, -65, -37, -40], "withholdReward": false, "trial_id": "mdp_trial_9", "block": "test", "trialIndex": 10, "score": 87.2, "costs": -2.8, "simulationMode": [null, null, null, null, null], "rewards": [-2, 3, -2, 14, 77], "path": ["0", "0", "23", "24", "25", "26", "29"], "rt": [4392, 260, 163, 53, 165], "actions": ["left", "left", "left", "up", "left"], "actionTimes": [6974, 7730, 8397, 8972, 9634], "queries": {"click": {"state": {"target": ["23", "26"], "time": [3397, 5194]}, "edge": {"target": [], "time": []}}, "mouseover": {"state": {"target": ["23", "24", "25", "26"], "time": [3251, 3633, 3699, 4083]}, "edge": {"target": [], "time": []}}, "mouseout": {"state": {"target": ["0", "0", "23", "24", "25", "26", "31"], "time": [1417, 2965, 3621, 3666, 3990, 5418, 12451]}, "edge": {"target": [], "time": []}}}, "displayed_time": "16.58", "trialTime": 19352, "trial_type": "mouselab-mdp", "trial_index": 17, "time_elapsed": 675511, "internal_node_id": "0.0-6.0-1.0-8.0"}}, {"uniqueid": "w39104304:a28985032", "current_trial": 18, "dateTime": 1693661002723, "trialdata": {"revealed_states": [], "clicked_states": ["26", "30"], "num_clicks_accrued": [0, 0, 0, 0, 0, 0, 0, 0, 0, 0, 0, 0, 0], "stateRewards": ["", -1, 3, -5, -2, -13, -9, -34, -7, -81, 32, 35, -2, -2, 1, -14, -32, 81, 7, 4, 82, 56, -8, -1, 3, -8, 6, -24, -24, -53, 2, 38, 61, 54], "withholdReward": false, "trial_id": "mdp_trial_10", "block": "test", "trialIndex": 11, "score": -26.8, "costs": -2.8, "simulationMode": [null, null, null, null, null, null], "rewards": [-1, 3, -8, 6, -24], "path": ["0", "0", "23", "24", "25", "26", "28"], "rt": [3074, 1032, 179, 120, 215, 548], "actions": ["left", "left", "left", "left", "up", "right"], "actionTimes": [5548, 6583, 7256, 7877, 8589, 9657], "queries": {"click": {"state": {"target": ["26", "30"], "time": [2969, 4769]}, "edge": {"target": [], "time": []}}, "mouseover": {"state": {"target": ["28", "26", "25", "30"], "time": [2558, 2809, 3123, 3207]}, "edge": {"target": [], "time": []}}, "mouseout": {"state": {"target": ["24", "28", "23", "28", "26", "25", "30"], "time": [740, 1739, 1905, 2674, 3091, 3157, 8972]}, "edge": {"target": [], "time": []}}}, "displayed_time": "16.48", "trialTime": 17502, "trial_type": "mouselab-mdp", "trial_index": 18, "time_elapsed": 693306, "internal_node_id": "0.0-6.0-1.0-9.0"}}, {"uniqueid": "w39104304:a28985032", "current_trial": 19, "dateTime": 1693661024028, "trialdata": {"revealed_states": [], "clicked_states": ["23", "26"], "num_clicks_accrued": [0, 0, 0, 0, 0, 0, 0, 0, 0, 0, 0, 0, 0], "stateRewards": ["", -1, 4, 3, 12, -27, 34, -33, 3, -63, 1, 6, 2, 2, -6, -11, -77, -85, 68, -6, 51, 81, -60, -2, -2, 1, 15, 20, 15, 68, -10, -14, 6, -4], "withholdReward": false, "trial_id": "mdp_trial_11", "block": "test", "trialIndex": 12, "score": 77.2, "costs": -2.8, "simulationMode": [null, null, null, null, null], "rewards": [-2, -2, 1, 15, 68], "path": ["0", "0", "23", "24", "25", "26", "29"], "rt": [4072, 131, 282, 142, 32], "actions": ["left", "left", "left", "up", "left"], "actionTimes": [9446, 10090, 10874, 11517, 12056], "queries": {"click": {"state": {"target": ["23", "26"], "time": [5962, 7525]}, "edge": {"target": [], "time": []}}, "mouseover": {"state": {"target": ["23", "28", "26", "25", "30"], "time": [5540, 6275, 6474, 8172, 8522]}, "edge": {"target": [], "time": []}}, "mouseout": {"state": {"target": ["12", "0", "0", "23", "0", "0", "0", "23", "28", "26", "25", "30", "31"], "time": [808, 1639, 2247, 3373, 4805, 5023, 5474, 6123, 6289, 8040, 8339, 13122, 13205]}, "edge": {"target": [], "time": []}}}, "displayed_time": "19.38", "trialTime": 21009, "trial_type": "mouselab-mdp", "trial_index": 19, "time_elapsed": 714612, "internal_node_id": "0.0-6.0-1.0-10.0"}}, {"uniqueid": "w39104304:a28985032", "current_trial": 20, "dateTime": 1693661044693, "trialdata": {"revealed_states": [], "clicked_states": ["23", "26", "30"], "num_clicks_accrued": [0, 0, 0, 0, 0, 0, 0, 0, 0, 0, 0, 0, 0], "stateRewards": ["", 2, -1, -1, 7, 11, -40, -22, -2, 69, 37, 8, -2, 4, -8, -12, -2, -72, -3, -12, 17, 63, 12, 1, 3, -7, 6, 25, 61, 61, -9, 28, -17, 27], "withholdReward": false, "trial_id": "mdp_trial_12", "block": "test", "trialIndex": 13, "score": 59.8, "costs": -4.199999999999999, "simulationMode": [null, null, null, null, null, null], "rewards": [1, 3, -7, 6, 61], "path": ["0", "0", "23", "24", "25", "26", "28"], "rt": [4797, 696, 286, 78, 89, 227], "actions": ["left", "left", "left", "left", "up", "right"], "actionTimes": [7576, 8279, 9073, 9648, 10240, 10982], "queries": {"click": {"state": {"target": ["23", "26", "30"], "time": [3328, 5067, 6830]}, "edge": {"target": [], "time": []}}, "mouseover": {"state": {"target": ["23", "24", "26", "25", "30"], "time": [2787, 3468, 3668, 5338, 5487]}, "edge": {"target": [], "time": []}}, "mouseout": {"state": {"target": ["23", "23", "24", "26", "25", "30"], "time": [250, 3451, 3485, 5254, 5437, 11401]}, "edge": {"target": [], "time": []}}}, "displayed_time": "16.78", "trialTime": 20353, "trial_type": "mouselab-mdp", "trial_index": 20, "time_elapsed": 735276, "internal_node_id": "0.0-6.0-1.0-11.0"}}, {"uniqueid": "w39104304:a28985032", "current_trial": 21, "dateTime": 1693661063813, "trialdata": {"revealed_states": [], "clicked_states": ["23", "26", "30", "29"], "num_clicks_accrued": [0, 0, 0, 0, 0, 0, 0, 0, 0, 0, 0, 0, 0], "stateRewards": ["", -2, 2, -1, -6, 22, 6, 6, -5, 70, -42, 65, 1, 3, 5, -6, -67, -9, 3, 14, 7, -62, -13, -2, 4, 1, 16, 42, -21, -52, -8, 32, 53, 81], "withholdReward": false, "trial_id": "mdp_trial_13", "block": "test", "trialIndex": 14, "score": 55.4, "costs": -5.6, "simulationMode": [null, null, null, null, null], "rewards": [-2, 4, 1, 16, 42], "path": ["0", "0", "23", "24", "25", "26", "27"], "rt": [9880, 139, 117, 157, 126], "actions": ["left", "left", "left", "up", "up"], "actionTimes": [13719, 14362, 14992, 15646, 16267], "queries": {"click": {"state": {"target": ["23", "26", "30", "29"], "time": [5154, 6889, 8814, 11920]}, "edge": {"target": [], "time": []}}, "mouseover": {"state": {"target": ["0", "23", "24", "25", "26", "25", "30", "25", "27", "28", "26", "29"], "time": [4624, 4723, 5373, 5623, 5839, 7371, 7938, 10278, 10840, 11456, 11579, 11608]}, "edge": {"target": [], "time": []}}, "mouseout": {"state": {"target": ["0", "0", "23", "24", "25", "26", "25", "30", "25", "26", "27", "28", "26", "29", "29"], "time": [4239, 4640, 5339, 5572, 5806, 7256, 7879, 10190, 10325, 10406, 11423, 11576, 11595, 11983, 12277]}, "edge": {"target": [], "time": []}}}, "displayed_time": "17.84", "trialTime": 18792, "trial_type": "mouselab-mdp", "trial_index": 21, "time_elapsed": 754396, "internal_node_id": "0.0-6.0-1.0-12.0"}}, {"uniqueid": "w39104304:a28985032", "current_trial": 22, "dateTime": 1693661082246, "trialdata": {"revealed_states": [], "clicked_states": ["23", "26", "30", "1"], "num_clicks_accrued": [0, 0, 0, 0, 0, 0, 0, 0, 0, 0, 0, 0, 0], "stateRewards": ["", 1, 1, -5, 10, -31, 73, 14, -8, -23, 63, -70, -1, 2, 8, 7, 25, -59, 27, -10, -40, -71, -15, -2, 3, -8, -5, -19, 77, -34, 7, 67, 63, 19], "withholdReward": false, "trial_id": "mdp_trial_14", "block": "test", "trialIndex": 15, "score": 57.4, "costs": -5.6, "simulationMode": [null, null, null, null, null], "rewards": [-2, 3, -8, 7, 63], "path": ["0", "0", "23", "24", "25", "30", "32"], "rt": [9165, 26, 155, 47, 40], "actions": ["left", "left", "left", "down", "down"], "actionTimes": [12427, 12970, 13617, 14176, 14736], "queries": {"click": {"state": {"target": ["23", "26", "30", "1"], "time": [4072, 5917, 7841, 9900]}, "edge": {"target": [], "time": []}}, "mouseover": {"state": {"target": ["23", "24", "25", "26", "25", "30", "1", "0", "31"], "time": [3846, 4478, 4779, 5147, 6229, 6564, 8293, 10210, 12059]}, "edge": {"target": [], "time": []}}, "mouseout": {"state": {"target": ["26", "24", "0", "23", "24", "25", "26", "25", "30", "23", "1", "0", "31", "31"], "time": [730, 2543, 3279, 4366, 4646, 5081, 6197, 6313, 8077, 8212, 10143, 10259, 13586, 15977]}, "edge": {"target": [], "time": []}}}, "displayed_time": "17.26", "trialTime": 18165, "trial_type": "mouselab-mdp", "trial_index": 22, "time_elapsed": 772829, "internal_node_id": "0.0-6.0-1.0-13.0"}}, {"uniqueid": "w39104304:a28985032", "current_trial": 23, "dateTime": 1693661100204, "trialdata": {"revealed_states": [], "clicked_states": ["23", "26", "30", "29"], "num_clicks_accrued": [0, 0, 0, 0, 0, 0, 0, 0, 0, 0, 0, 0, 0], "stateRewards": ["", -1, -4, -6, -15, 21, -67, -63, 9, 51, 69, -14, -1, 3, 8, -8, 39, 72, 63, 15, 19, 47, 15, 1, 4, 5, 16, -18, 34, 35, -14, -80, 40, 1], "withholdReward": false, "trial_id": "mdp_trial_15", "block": "test", "trialIndex": 16, "score": 55.4, "costs": -5.6, "simulationMode": [null, null, null, null, null], "rewards": [1, 4, 5, 16, 35], "path": ["0", "0", "23", "24", "25", "26", "29"], "rt": [8149, 73, 64, 84, 60], "actions": ["left", "left", "left", "up", "left"], "actionTimes": [10827, 11400, 11972, 12562, 13143], "queries": {"click": {"state": {"target": ["23", "26", "30", "29"], "time": [3236, 5045, 6851, 8670]}, "edge": {"target": [], "time": []}}, "mouseover": {"state": {"target": ["23", "24", "26", "25", "30", "25", "29", "28"], "time": [3056, 3490, 3973, 5241, 5457, 7624, 8006, 8958]}, "edge": {"target": [], "time": []}}, "mouseout": {"state": {"target": ["23", "23", "24", "26", "25", "30", "25", "26", "29", "26", "28"], "time": [1688, 3423, 3790, 5207, 5306, 7558, 7675, 7891, 8824, 8924, 15456]}, "edge": {"target": [], "time": []}}}, "displayed_time": "16.68", "trialTime": 17652, "trial_type": "mouselab-mdp", "trial_index": 23, "time_elapsed": 790787, "internal_node_id": "0.0-6.0-1.0-14.0"}}, {"uniqueid": "w39104304:a28985032", "current_trial": 24, "dateTime": 1693661118362, "trialdata": {"revealed_states": [], "clicked_states": ["23", "26", "30", "32"], "num_clicks_accrued": [0, 0, 0, 0, 0, 0, 0, 0, 0, 0, 0, 0, 0], "stateRewards": ["", 1, -2, -8, -13, 4, 34, -84, -4, -49, 88, -70, -1, 3, -4, 10, -77, 13, -34, 15, -21, -16, 27, 1, -2, 8, -8, -6, 38, -26, 6, -15, 66, -3], "withholdReward": false, "trial_id": "mdp_trial_16", "block": "test", "trialIndex": 17, "score": 73.4, "costs": -5.6, "simulationMode": [null, null, null, null, null], "rewards": [1, -2, 8, 6, 66], "path": ["0", "0", "23", "24", "25", "30", "32"], "rt": [8995, 554, 120, 129, 118], "actions": ["left", "left", "left", "down", "down"], "actionTimes": [11739, 12796, 13412, 14040, 14661], "queries": {"click": {"state": {"target": ["23", "26", "30", "32"], "time": [3299, 5167, 7144, 9445]}, "edge": {"target": [], "time": []}}, "mouseover": {"state": {"target": ["23", "24", "26", "30", "32", "33"], "time": [3010, 3975, 4128, 5941, 9161, 10425]}, "edge": {"target": [], "time": []}}, "mouseout": {"state": {"target": ["28", "23", "0", "23", "24", "26", "30", "30", "32", "33"], "time": [1473, 2059, 2752, 3908, 4008, 5392, 7409, 8731, 9460, 11490]}, "edge": {"target": [], "time": []}}}, "displayed_time": "16.75", "trialTime": 17896, "trial_type": "mouselab-mdp", "trial_index": 24, "time_elapsed": 808945, "internal_node_id": "0.0-6.0-1.0-15.0"}}, {"uniqueid": "w39104304:a28985032", "current_trial": 25, "dateTime": 1693661148283, "trialdata": {"revealed_states": [], "clicked_states": ["23", "30", "26", "1", "12", "19", "15", "16", "18", "17"], "num_clicks_accrued": [0, 0, 0, 0, 0, 0, 0, 0, 0, 0, 0, 0, 0], "stateRewards": ["", -2, -4, -8, 8, 63, -50, -19, -7, -17, -31, 31, 1, 3, -5, 12, -35, -63, -29, -4, -17, -75, -79, -2, -3, -2, 8, -3, -85, 10, -2, -82, -82, 56], "withholdReward": false, "trial_id": "mdp_trial_17", "block": "test", "trialIndex": 18, "score": -98, "costs": -14.000000000000002, "simulationMode": [null, null, null, null, null], "rewards": [-2, -3, -2, 8, -85], "path": ["0", "0", "23", "24", "25", "26", "28"], "rt": [22365, 295, 77, 99, 74], "actions": ["left", "left", "left", "up", "right"], "actionTimes": [24619, 25436, 26018, 26624, 27196], "queries": {"click": {"state": {"target": ["23", "30", "26", "1", "12", "19", "15", "16", "18", "17"], "time": [2909, 4839, 6756, 8683, 11441, 13581, 15515, 17942, 20250, 22368]}, "edge": {"target": [], "time": []}}, "mouseover": {"state": {"target": ["23", "30", "25", "26", "28", "1", "7", "4", "7", "13", "13", "12", "13", "19", "14", "15", "16", "18", "15", "17"], "time": [2341, 3191, 5355, 5858, 6971, 7372, 10238, 10455, 10621, 10906, 11113, 11154, 13237, 13371, 14522, 14689, 17771, 20089, 20421, 21305]}, "edge": {"target": [], "time": []}}, "mouseout": {"state": {"target": ["30", "31", "0", "23", "30", "25", "26", "28", "1", "7", "4", "7", "13", "13", "12", "13", "19", "14", "15", "16", "15", "15", "18", "15", "17"], "time": [1355, 1455, 1838, 3076, 5255, 5457, 6954, 6988, 8956, 10340, 10604, 10655, 10982, 11138, 13221, 13275, 14422, 14605, 15773, 18121, 18371, 19806, 20405, 20541, 23072]}, "edge": {"target": [], "time": []}}}, "displayed_time": "27.71", "trialTime": 29664, "trial_type": "mouselab-mdp", "trial_index": 25, "time_elapsed": 838866, "internal_node_id": "0.0-6.0-1.0-16.0"}}, {"uniqueid": "w39104304:a28985032", "current_trial": 26, "dateTime": 1693661165935, "trialdata": {"revealed_states": [], "clicked_states": ["23", "26", "28"], "num_clicks_accrued": [0, 0, 0, 0, 0, 0, 0, 0, 0, 0, 0, 0, 0], "stateRewards": ["", -1, 4, -8, 12, 14, 69, -8, 5, -72, -14, 56, -1, -1, -1, 9, 67, 19, 11, -9, -88, -58, 3, 2, -4, -8, 4, 62, 77, -74, 5, -31, 65, 88], "withholdReward": false, "trial_id": "mdp_trial_18", "block": "test", "trialIndex": 19, "score": 66.8, "costs": -4.199999999999999, "simulationMode": [null, null, null, null, null], "rewards": [2, -4, -8, 4, 77], "path": ["0", "0", "23", "24", "25", "26", "28"], "rt": [7941, 31, 92, 119, 110], "actions": ["left", "left", "left", "up", "right"], "actionTimes": [9596, 10144, 10735, 11367, 11974], "queries": {"click": {"state": {"target": ["23", "26", "28"], "time": [2210, 4282, 6956]}, "edge": {"target": [], "time": []}}, "mouseover": {"state": {"target": ["23", "28", "26", "25", "30", "25", "28", "29"], "time": [1726, 3643, 3909, 4742, 5593, 6259, 6628, 8258]}, "edge": {"target": [], "time": []}}, "mouseout": {"state": {"target": ["15", "18", "18", "23", "28", "26", "25", "30", "25", "26", "28", "26", "29", "26", "28"], "time": [558, 858, 925, 2291, 3692, 4659, 4925, 6244, 6308, 6492, 7892, 8125, 12929, 14442, 14675]}, "edge": {"target": [], "time": []}}}, "displayed_time": "15.66", "trialTime": 17238, "trial_type": "mouselab-mdp", "trial_index": 26, "time_elapsed": 856519, "internal_node_id": "0.0-6.0-1.0-17.0"}}, {"uniqueid": "w39104304:a28985032", "current_trial": 27, "dateTime": 1693661185008, "trialdata": {"revealed_states": [], "clicked_states": ["23", "26", "28", "29", "27"], "num_clicks_accrued": [0, 0, 0, 0, 0, 0, 0, 0, 0, 0, 0, 0, 0], "stateRewards": ["", 2, 4, 7, 7, -79, -2, -21, -5, -53, 47, -21, 1, -3, -1, 7, 83, 7, 84, -7, 80, -37, 69, 2, -4, 5, 2, 4, -20, -30, 7, 71, 44, -81], "withholdReward": false, "trial_id": "mdp_trial_19", "block": "test", "trialIndex": 20, "score": 2, "costs": -7, "simulationMode": [null, null, null, null, null], "rewards": [2, -4, 5, 2, 4], "path": ["0", "0", "23", "24", "25", "26", "27"], "rt": [12554, 368, 125, 45, 102], "actions": ["left", "left", "left", "up", "up"], "actionTimes": [13657, 14531, 15155, 15709, 16332], "queries": {"click": {"state": {"target": ["23", "26", "28", "29", "27"], "time": [1793, 4099, 6891, 8824, 11146]}, "edge": {"target": [], "time": []}}, "mouseover": {"state": {"target": ["0", "23", "24", "26", "25", "30", "25", "28", "29", "26", "27", "26", "25", "30"], "time": [1114, 1507, 2030, 2329, 5664, 5863, 6530, 6630, 8163, 10879, 10944, 11430, 11679, 11848]}, "edge": {"target": [], "time": []}}, "mouseout": {"state": {"target": ["10", "1", "0", "23", "24", "26", "25", "30", "25", "28", "26", "29", "26", "27", "26", "25", "30"], "time": [280, 611, 1314, 1995, 2130, 5595, 5763, 6497, 6547, 7899, 8065, 9263, 10895, 11346, 11529, 11812, 18195]}, "edge": {"target": [], "time": []}}}, "displayed_time": "16.83", "trialTime": 18781, "trial_type": "mouselab-mdp", "trial_index": 27, "time_elapsed": 875592, "internal_node_id": "0.0-6.0-1.0-18.0"}}, {"uniqueid": "w39104304:a28985032", "current_trial": 28, "dateTime": 1693661204566, "trialdata": {"revealed_states": [], "clicked_states": ["23", "30", "26"], "num_clicks_accrued": [0, 0, 0, 0, 0, 0, 0, 0, 0, 0, 0, 0, 0], "stateRewards": ["", 2, -1, -2, -5, -47, -57, -33, -11, 31, -18, -72, -2, 1, -4, -8, -46, -53, -50, 15, -85, -9, 39, -2, -2, 1, 14, -1, -8, 53, -12, -41, -74, 62], "withholdReward": false, "trial_id": "mdp_trial_20", "block": "test", "trialIndex": 21, "score": -1.1999999999999993, "costs": -4.199999999999999, "simulationMode": [null, null, null, null, null], "rewards": [-2, -2, 1, 14, -8], "path": ["0", "0", "23", "24", "25", "26", "28"], "rt": [7312, 117, 57, 96, 48], "actions": ["left", "left", "left", "up", "right"], "actionTimes": [11607, 12221, 12777, 13384, 13936], "queries": {"click": {"state": {"target": ["23", "30", "26"], "time": [4783, 7390, 9443]}, "edge": {"target": [], "time": []}}, "mouseover": {"state": {"target": ["23", "24", "26", "25", "30", "25", "26"], "time": [4554, 5021, 5437, 6819, 7168, 7652, 7851]}, "edge": {"target": [], "time": []}}, "mouseout": {"state": {"target": ["24", "23", "0", "0", "23", "24", "26", "25", "30", "25", "26", "28", "0", "12"], "time": [723, 1637, 3620, 4336, 4988, 5119, 6803, 6869, 7552, 7737, 11986, 15140, 15788, 16037]}, "edge": {"target": [], "time": []}}}, "displayed_time": "18.30", "trialTime": 19262, "trial_type": "mouselab-mdp", "trial_index": 28, "time_elapsed": 895149, "internal_node_id": "0.0-6.0-1.0-19.0"}}, {"uniqueid": "w39104304:a28985032", "current_trial": 29, "dateTime": 1693661223104, "trialdata": {"revealed_states": [], "clicked_states": ["23", "26", "28", "29", "27"], "num_clicks_accrued": [0, 0, 0, 0, 0, 0, 0, 0, 0, 0, 0, 0, 0], "stateRewards": ["", -1, -2, -1, -10, -57, 73, -72, -16, 75, -14, -46, -2, -3, -7, -1, -61, -60, 76, -4, 50, 4, 14, 2, 2, -7, 12, -65, -32, 15, -8, -76, -25, -61], "withholdReward": false, "trial_id": "mdp_trial_21", "block": "test", "trialIndex": 22, "score": 17, "costs": -7, "simulationMode": [null, null, null, null, null], "rewards": [2, 2, -7, 12, 15], "path": ["0", "0", "23", "24", "25", "26", "29"], "rt": [11041, 346, 69, 88, 11], "actions": ["left", "left", "left", "up", "left"], "actionTimes": [12583, 13429, 14001, 14587, 15093], "queries": {"click": {"state": {"target": ["23", "26", "28", "29", "27"], "time": [2236, 4180, 6327, 8295, 10650]}, "edge": {"target": [], "time": []}}, "mouseover": {"state": {"target": ["23", "24", "26", "25", "28", "29", "26", "27", "26"], "time": [2020, 2965, 3099, 4782, 6098, 7668, 10298, 10450, 10915]}, "edge": {"target": [], "time": []}}, "mouseout": {"state": {"target": ["12", "23", "24", "26", "25", "26", "28", "26", "29", "26", "27", "26"], "time": [816, 2934, 2998, 4715, 5965, 6065, 6601, 7534, 8384, 10315, 10815, 12083]}, "edge": {"target": [], "time": []}}}, "displayed_time": "15.62", "trialTime": 18230, "trial_type": "mouselab-mdp", "trial_index": 29, "time_elapsed": 913687, "internal_node_id": "0.0-6.0-1.0-20.0"}}, {"uniqueid": "w39104304:a28985032", "current_trial": 30, "dateTime": 1693661247462, "trialdata": {"revealed_states": [], "clicked_states": ["23", "26", "30", "1", "12", "15", "19"], "num_clicks_accrued": [0, 0, 0, 0, 0, 0, 0, 0, 0, 0, 0, 0, 0], "stateRewards": ["", -1, -4, 8, 8, -68, 47, 24, -7, -61, 49, -69, -1, -1, 8, -7, 42, 1, -45, -11, 10, -63, -6, 1, 4, 6, -16, 79, -37, -58, -12, 81, 18, -53], "withholdReward": false, "trial_id": "mdp_trial_22", "block": "test", "trialIndex": 23, "score": 70.2, "costs": -9.8, "simulationMode": [null, null, null, null, null], "rewards": [1, 4, 6, -12, 81], "path": ["0", "0", "23", "24", "25", "30", "31"], "rt": [17382, 46, 40, 426, 12], "actions": ["left", "left", "left", "down", "right"], "actionTimes": [18856, 19419, 19975, 20912, 21431], "queries": {"click": {"state": {"target": ["23", "26", "30", "1", "12", "15", "19"], "time": [1961, 3910, 5880, 8589, 11474, 13615, 16106]}, "edge": {"target": [], "time": []}}, "mouseover": {"state": {"target": ["23", "24", "26", "25", "30", "23", "1", "12", "13", "15", "19", "20", "13", "3", "3", "2"], "time": [1786, 2270, 2353, 4218, 4336, 8051, 8401, 11168, 13186, 13384, 14120, 17568, 18118, 18188, 18453, 18586]}, "edge": {"target": [], "time": []}}, "mouseout": {"state": {"target": ["29", "26", "28", "23", "24", "26", "25", "30", "23", "1", "12", "13", "15", "15", "19", "20", "19", "13", "3", "3", "2"], "time": [252, 319, 369, 2220, 2289, 4186, 4268, 5975, 8068, 8689, 13051, 13285, 13696, 13819, 17402, 18041, 18084, 18134, 18220, 18520, 23151]}, "edge": {"target": [], "time": []}}}, "displayed_time": "21.95", "trialTime": 24058, "trial_type": "mouselab-mdp", "trial_index": 30, "time_elapsed": 938045, "internal_node_id": "0.0-6.0-1.0-21.0"}}, {"uniqueid": "w39104304:a28985032", "current_trial": 31, "dateTime": 1693661267287, "trialdata": {"revealed_states": [], "clicked_states": ["23", "26", "30", "31", "25", "32"], "num_clicks_accrued": [0, 0, 0, 0, 0, 0, 0, 0, 0, 0, 0, 0, 0], "stateRewards": ["", -2, -3, 8, -4, -30, 31, 69, 9, 66, 87, 64, -2, 2, 8, 5, 47, 16, -39, -8, -54, 51, -19, 1, -2, -2, -11, -25, -26, 43, -9, 19, -84, 86], "withholdReward": false, "trial_id": "mdp_trial_23", "block": "test", "trialIndex": 24, "score": -1.3999999999999986, "costs": -8.4, "simulationMode": [null, null, null, null, null], "rewards": [1, -2, -2, -9, 19], "path": ["0", "0", "23", "24", "25", "30", "31"], "rt": [13418, 280, 35, 35, 64], "actions": ["left", "left", "left", "down", "right"], "actionTimes": [15506, 16280, 16817, 17382, 17962], "queries": {"click": {"state": {"target": ["23", "26", "30", "31", "25", "32"], "time": [2542, 4487, 6652, 8840, 11573, 13653]}, "edge": {"target": [], "time": []}}, "mouseover": {"state": {"target": ["23", "26", "25", "30", "31", "32", "25", "30", "32"], "time": [2328, 3019, 4715, 4864, 8578, 9345, 11365, 11812, 11928]}, "edge": {"target": [], "time": []}}, "mouseout": {"state": {"target": ["0", "23", "26", "25", "30", "31", "32", "30", "25", "30", "32"], "time": [1047, 2573, 4680, 4797, 8511, 9003, 11095, 11190, 11745, 11862, 14078]}, "edge": {"target": [], "time": []}}}, "displayed_time": "18.48", "trialTime": 19545, "trial_type": "mouselab-mdp", "trial_index": 31, "time_elapsed": 957870, "internal_node_id": "0.0-6.0-1.0-22.0"}}, {"uniqueid": "w39104304:a28985032", "current_trial": 32, "dateTime": 1693661283502, "trialdata": {"revealed_states": [], "clicked_states": ["23", "30", "33"], "num_clicks_accrued": [0, 0, 0, 0, 0, 0, 0, 0, 0, 0, 0, 0, 0], "stateRewards": ["", -2, 1, 6, -2, -10, -78, -69, 14, -15, 7, -1, 1, -1, -2, 13, 77, 32, 87, 5, -74, 30, -26, 1, 3, 4, 12, 39, 54, -43, 2, 10, 23, 13], "withholdReward": false, "trial_id": "mdp_trial_24", "block": "test", "trialIndex": 25, "score": 18.8, "costs": -4.199999999999999, "simulationMode": [null, null, null, null, null], "rewards": [1, 3, 4, 2, 13], "path": ["0", "0", "23", "24", "25", "30", "33"], "rt": [8299, 136, 131, 78, 131], "actions": ["left", "left", "left", "down", "left"], "actionTimes": [9605, 10235, 10862, 11459, 12092], "queries": {"click": {"state": {"target": ["23", "30", "33"], "time": [1884, 4719, 7140]}, "edge": {"target": [], "time": []}}, "mouseover": {"state": {"target": ["0", "23", "24", "30", "33", "32"], "time": [1315, 1763, 3926, 4509, 6959, 7727]}, "edge": {"target": [], "time": []}}, "mouseout": {"state": {"target": ["0", "0", "0", "23", "23", "24", "30", "33", "32"], "time": [626, 893, 1382, 2260, 3893, 3943, 6828, 7412, 13275]}, "edge": {"target": [], "time": []}}}, "displayed_time": "15.31", "trialTime": 15925, "trial_type": "mouselab-mdp", "trial_index": 32, "time_elapsed": 974086, "internal_node_id": "0.0-6.0-1.0-23.0"}}, {"uniqueid": "w39104304:a28985032", "current_trial": 33, "dateTime": 1693661299899, "trialdata": {"revealed_states": [], "clicked_states": ["23", "30", "33"], "num_clicks_accrued": [0, 0, 0, 0, 0, 0, 0, 0, 0, 0, 0, 0, 0], "stateRewards": ["", -1, 1, -5, -6, -78, 47, -13, 12, 48, -88, 20, 2, -3, -2, 13, -20, 37, -57, 14, -38, 30, 31, -2, -2, 8, 2, -23, 78, 28, 12, -74, -88, 8], "withholdReward": false, "trial_id": "mdp_trial_25", "block": "test", "trialIndex": 26, "score": 19.8, "costs": -4.199999999999999, "simulationMode": [null, null, null, null, null], "rewards": [-2, -2, 8, 12, 8], "path": ["0", "0", "23", "24", "25", "30", "33"], "rt": [7905, 59, 40, 78, 33], "actions": ["left", "left", "left", "down", "left"], "actionTimes": [9203, 9762, 10308, 10895, 11435], "queries": {"click": {"state": {"target": ["23", "30", "33"], "time": [1836, 3798, 6911]}, "edge": {"target": [], "time": []}}, "mouseover": {"state": {"target": ["23", "24", "25", "30", "25", "24", "1", "1", "24", "33", "33"], "time": [1633, 2782, 3033, 3150, 4300, 4418, 4616, 5001, 6034, 6254, 6757]}, "edge": {"target": [], "time": []}}, "mouseout": {"state": {"target": ["0", "23", "24", "25", "30", "25", "24", "1", "1", "24", "33", "33", "31"], "time": [1366, 2749, 2916, 3083, 4100, 4368, 4467, 4633, 5951, 6067, 6404, 7302, 12032]}, "edge": {"target": [], "time": []}}}, "displayed_time": "15.30", "trialTime": 16112, "trial_type": "mouselab-mdp", "trial_index": 33, "time_elapsed": 990483, "internal_node_id": "0.0-6.0-1.0-24.0"}}, {"uniqueid": "w39104304:a28985032", "current_trial": 34, "dateTime": 1693661317289, "trialdata": {"revealed_states": [], "clicked_states": ["23", "1", "8", "4", "7"], "num_clicks_accrued": [0, 0, 0, 0, 0, 0, 0, 0, 0, 0, 0, 0, 0], "stateRewards": ["", 2, -4, -4, 13, -80, 62, 13, -11, 57, -13, -44, 1, 4, 3, -4, -29, -88, 15, 16, -58, 68, -45, -1, -3, -1, -9, -44, -86, -19, -7, -36, 59, 66], "withholdReward": false, "trial_id": "mdp_trial_26", "block": "test", "trialIndex": 27, "score": 13, "costs": -7, "simulationMode": [null, null, null, null, null], "rewards": [2, -4, -4, 13, 13], "path": ["0", "0", "1", "2", "3", "4", "7"], "rt": [11416, 12, 22, 58, 28], "actions": ["up", "up", "up", "right", "down"], "actionTimes": [12784, 13301, 13841, 14395, 14931], "queries": {"click": {"state": {"target": ["23", "1", "8", "4", "7"], "time": [1812, 4055, 6491, 8362, 10421]}, "edge": {"target": [], "time": []}}, "mouseover": {"state": {"target": ["23", "24", "24", "1", "10", "8", "3", "4", "7"], "time": [1637, 2153, 3656, 3823, 6052, 6371, 6935, 7068, 10186]}, "edge": {"target": [], "time": []}}, "mouseout": {"state": {"target": ["23", "0", "23", "24", "24", "1", "10", "8", "3", "4", "7"], "time": [419, 736, 2069, 2287, 3689, 4272, 6085, 6834, 7018, 10137, 16403]}, "edge": {"target": [], "time": []}}}, "displayed_time": "15.44", "trialTime": 17086, "trial_type": "mouselab-mdp", "trial_index": 34, "time_elapsed": 1007872, "internal_node_id": "0.0-6.0-1.0-25.0"}}, {"uniqueid": "w39104304:a28985032", "current_trial": 35, "dateTime": 1693661335531, "trialdata": {"revealed_states": [], "clicked_states": ["23", "26", "29", "28"], "num_clicks_accrued": [0, 0, 0, 0, 0, 0, 0, 0, 0, 0, 0, 0, 0], "stateRewards": ["", 1, 4, 5, -5, 58, -80, 75, 6, 25, -39, 46, 2, -2, 4, 2, 59, 31, -22, -12, -61, 15, 72, 1, -2, -7, 8, 77, 76, -23, -7, 71, -15, -3], "withholdReward": false, "trial_id": "mdp_trial_27", "block": "test", "trialIndex": 28, "score": 70.4, "costs": -5.6, "simulationMode": [null, null, null, null, null], "rewards": [1, -2, -7, 8, 76], "path": ["0", "0", "23", "24", "25", "26", "28"], "rt": [9674, 22, 80, 61, 164], "actions": ["left", "left", "left", "up", "right"], "actionTimes": [11256, 11773, 12381, 12964, 13629], "queries": {"click": {"state": {"target": ["23", "26", "29", "28"], "time": [2588, 4846, 7289, 9343]}, "edge": {"target": [], "time": []}}, "mouseover": {"state": {"target": ["23", "28", "26", "25", "25", "29", "28"], "time": [2431, 4548, 4648, 6382, 6898, 7099, 9134]}, "edge": {"target": [], "time": []}}, "mouseout": {"state": {"target": ["7", "1", "23", "28", "26", "25", "25", "26", "29", "26", "28", "28"], "time": [898, 1047, 4383, 4565, 6350, 6480, 6931, 6981, 7481, 7551, 9429, 9631]}, "edge": {"target": [], "time": []}}}, "displayed_time": "15.58", "trialTime": 17891, "trial_type": "mouselab-mdp", "trial_index": 35, "time_elapsed": 1026114, "internal_node_id": "0.0-6.0-1.0-26.0"}}, {"uniqueid": "w39104304:a28985032", "current_trial": 36, "dateTime": 1693661353334, "trialdata": {"revealed_states": [], "clicked_states": ["23", "26", "30", "28", "29"], "num_clicks_accrued": [0, 0, 0, 0, 0, 0, 0, 0, 0, 0, 0, 0, 0], "stateRewards": ["", 1, 1, 6, -14, -40, 37, 16, -13, 33, -68, 49, 2, 4, 3, 6, 55, 27, 32, 10, -65, 20, -87, 2, 1, -6, -5, -42, 12, 29, -8, 16, 76, -33], "withholdReward": false, "trial_id": "mdp_trial_28", "block": "test", "trialIndex": 29, "score": 14, "costs": -7, "simulationMode": [null, null, null, null, null], "rewards": [2, 1, -6, -5, 29], "path": ["0", "0", "23", "24", "25", "26", "29"], "rt": [11108, 561, 87, 67, 82], "actions": ["left", "left", "left", "up", "left"], "actionTimes": [12673, 13737, 14315, 14880, 15462], "queries": {"click": {"state": {"target": ["23", "26", "30", "28", "29"], "time": [1896, 3927, 5957, 8341, 10588]}, "edge": {"target": [], "time": []}}, "mouseover": {"state": {"target": ["23", "26", "25", "30", "31", "24", "28", "26", "29", "29", "26"], "time": [1711, 3561, 4261, 4777, 6463, 8078, 8161, 8727, 9945, 10461, 10843]}, "edge": {"target": [], "time": []}}, "mouseout": {"state": {"target": ["28", "23", "26", "25", "30", "31", "24", "28", "26", "29", "29", "26", "28"], "time": [460, 3060, 4211, 4395, 6378, 8046, 8112, 8661, 8844, 10242, 10743, 10926, 16427]}, "edge": {"target": [], "time": []}}}, "displayed_time": "15.96", "trialTime": 17407, "trial_type": "mouselab-mdp", "trial_index": 36, "time_elapsed": 1043918, "internal_node_id": "0.0-6.0-1.0-27.0"}}, {"uniqueid": "w39104304:a28985032", "current_trial": 37, "dateTime": 1693661370033, "trialdata": {"revealed_states": [], "clicked_states": ["23", "26", "29"], "num_clicks_accrued": [0, 0, 0, 0, 0, 0, 0, 0, 0, 0, 0, 0, 0], "stateRewards": ["", -1, 4, -5, 9, 29, -75, -42, -16, 24, -28, -41, 2, -3, 1, 10, 60, 47, 55, -1, -53, 22, -40, 2, -3, -6, 4, -26, 44, 54, 15, -76, 42, 14], "withholdReward": false, "trial_id": "mdp_trial_29", "block": "test", "trialIndex": 30, "score": 46.8, "costs": -4.199999999999999, "simulationMode": [null, null, null, null, null], "rewards": [2, -3, -6, 4, 54], "path": ["0", "0", "23", "24", "25", "26", "29"], "rt": [7385, 450, 146, 120, 71], "actions": ["left", "left", "left", "up", "left"], "actionTimes": [9017, 9983, 10629, 11268, 11854], "queries": {"click": {"state": {"target": ["23", "26", "29"], "time": [2087, 4576, 6829]}, "edge": {"target": [], "time": []}}, "mouseover": {"state": {"target": ["23", "24", "25", "26", "29", "27"], "time": [1905, 3847, 3933, 4382, 6631, 8647]}, "edge": {"target": [], "time": []}}, "mouseout": {"state": {"target": ["1", "23", "24", "25", "26", "29", "27"], "time": [882, 3831, 3899, 4350, 6551, 6920, 14001]}, "edge": {"target": [], "time": []}}}, "displayed_time": "15.63", "trialTime": 16379, "trial_type": "mouselab-mdp", "trial_index": 37, "time_elapsed": 1060617, "internal_node_id": "0.0-6.0-1.0-28.0"}}, {"uniqueid": "w39104304:a28985032", "current_trial": 38, "dateTime": 1693661392948, "trialdata": {"revealed_states": [], "clicked_states": ["23", "1", "12", "15", "19", "20", "22"], "num_clicks_accrued": [0, 0, 0, 0, 0, 0, 0, 0, 0, 0, 0, 0, 0], "stateRewards": ["", -1, 1, -6, -1, 80, 23, 2, -11, 73, -81, 59, 1, 3, 5, -1, -26, 28, -3, 16, -59, -13, -50, -2, -2, 2, 15, -50, 86, 17, -4, 37, 35, 44], "withholdReward": false, "trial_id": "mdp_trial_30", "block": "test", "trialIndex": 31, "score": 2.1999999999999993, "costs": -9.8, "simulationMode": [null, null, null, null, null], "rewards": [1, 3, 5, 16, -13], "path": ["0", "0", "12", "13", "14", "19", "21"], "rt": [16926, 4, 76, 31, 52], "actions": ["right", "right", "right", "down", "down"], "actionTimes": [18507, 19027, 19619, 20169, 20757], "queries": {"click": {"state": {"target": ["23", "1", "12", "15", "19", "20", "22"], "time": [2021, 4707, 7136, 9537, 11516, 13883, 16184]}, "edge": {"target": [], "time": []}}, "mouseover": {"state": {"target": ["23", "26", "28", "1", "12", "13", "15", "14", "19", "19", "20", "22"], "time": [1822, 2989, 4306, 4488, 6771, 9121, 9304, 9788, 10006, 10840, 13755, 16013]}, "edge": {"target": [], "time": []}}, "mouseout": {"state": {"target": ["27", "0", "23", "26", "28", "1", "12", "13", "15", "14", "19", "19", "20", "19", "22", "22"], "time": [787, 1593, 2857, 4304, 4320, 6704, 9087, 9204, 9738, 9872, 10072, 11597, 14054, 15754, 16489, 21153]}, "edge": {"target": [], "time": []}}}, "displayed_time": "21.27", "trialTime": 22600, "trial_type": "mouselab-mdp", "trial_index": 38, "time_elapsed": 1083531, "internal_node_id": "0.0-6.0-1.0-29.0"}}, {"uniqueid": "w39104304:a28985032", "current_trial": 39, "dateTime": 1693661408948, "trialdata": {"revealed_states": [], "clicked_states": ["23", "26", "28"], "num_clicks_accrued": [0, 0, 0, 0, 0, 0, 0, 0, 0, 0, 0, 0, 0], "stateRewards": ["", 2, 4, -6, -13, -75, -81, 30, 7, 5, 59, -65, -1, -1, 7, 14, -38, 36, -41, 1, -54, -5, 64, 2, -1, 5, 6, -19, 79, 11, 16, -33, -50, 58], "withholdReward": false, "trial_id": "mdp_trial_31", "block": "test", "trialIndex": 32, "score": 86.8, "costs": -4.199999999999999, "simulationMode": [null, null, null, null, null], "rewards": [2, -1, 5, 6, 79], "path": ["0", "0", "23", "24", "25", "26", "28"], "rt": [8708, 633, 123, 114, 54], "actions": ["left", "left", "left", "up", "right"], "actionTimes": [9778, 10944, 11566, 12192, 12768], "queries": {"click": {"state": {"target": ["23", "26", "28"], "time": [2248, 5225, 7714]}, "edge": {"target": [], "time": []}}, "mouseover": {"state": {"target": ["1", "2", "2", "1", "0", "23", "24", "26", "25", "30", "25", "28"], "time": [1248, 1333, 1713, 1778, 1960, 2079, 4843, 4960, 6560, 6626, 7092, 7292]}, "edge": {"target": [], "time": []}}, "mouseout": {"state": {"target": ["12", "0", "1", "2", "2", "1", "0", "23", "24", "26", "25", "30", "25", "26", "28"], "time": [564, 1164, 1295, 1348, 1761, 1811, 1994, 2846, 4875, 6527, 6593, 7076, 7127, 7210, 7779]}, "edge": {"target": [], "time": []}}}, "displayed_time": "15.07", "trialTime": 15689, "trial_type": "mouselab-mdp", "trial_index": 39, "time_elapsed": 1099531, "internal_node_id": "0.0-6.0-1.0-30.0"}}, {"uniqueid": "w39104304:a28985032", "current_trial": 40, "dateTime": 1693661434134, "trialdata": {"revealed_states": [], "clicked_states": ["23", "26", "28", "29", "27", "30", "32"], "num_clicks_accrued": [0, 0, 0, 0, 0, 0, 0, 0, 0, 0, 0, 0, 0], "stateRewards": ["", 1, -1, 4, 5, -32, 18, 20, 6, -88, -74, 9, -2, 1, -2, -14, 34, -77, -38, -1, 80, -36, 73, 2, 3, -8, 10, -48, -73, -71, -11, -22, 20, 54], "withholdReward": false, "trial_id": "mdp_trial_32", "block": "test", "trialIndex": 33, "score": -3.8000000000000007, "costs": -9.8, "simulationMode": [null, null, null, null, null], "rewards": [2, 3, -8, -11, 20], "path": ["0", "0", "23", "24", "25", "30", "32"], "rt": [17052, 357, 178, 151, 129], "actions": ["left", "left", "left", "down", "down"], "actionTimes": [18970, 19829, 20511, 21169, 21813], "queries": {"click": {"state": {"target": ["23", "26", "28", "29", "27", "30", "32"], "time": [2376, 4689, 7199, 9455, 12208, 14936, 16869]}, "edge": {"target": [], "time": []}}, "mouseover": {"state": {"target": ["23", "24", "26", "24", "28", "29", "27", "25", "30", "32"], "time": [2168, 3216, 3449, 6515, 6667, 9231, 11586, 14366, 14532, 16666]}, "edge": {"target": [], "time": []}}, "mouseout": {"state": {"target": ["10", "1", "0", "23", "24", "26", "24", "28", "26", "29", "27", "29", "25", "30", "32", "31", "30"], "time": [1249, 1315, 1930, 3151, 3350, 4972, 6533, 9134, 9201, 11404, 12502, 12900, 14448, 15299, 16954, 22615, 23602]}, "edge": {"target": [], "time": []}}}, "displayed_time": "22.32", "trialTime": 24862, "trial_type": "mouselab-mdp", "trial_index": 40, "time_elapsed": 1124716, "internal_node_id": "0.0-6.0-1.0-31.0"}}, {"uniqueid": "w39104304:a28985032", "current_trial": 41, "dateTime": 1693661464358, "trialdata": {"revealed_states": [], "clicked_states": ["23", "26", "30", "31"], "num_clicks_accrued": [0, 0, 0, 0, 0, 0, 0, 0, 0, 0, 0, 0, 0], "stateRewards": ["", 1, 1, -6, -2, 7, 77, 3, 16, -16, 66, 31, -1, 3, -8, -6, 33, -50, -48, 7, -60, -66, 36, 2, -3, 3, -7, -12, -61, -79, -4, 8, 74, -70], "withholdReward": false, "trial_id": "mdp_trial_33", "block": "test", "trialIndex": 34, "score": 0.40000000000000036, "costs": -5.6, "simulationMode": [null, null, null, null, null], "rewards": [2, -3, 3, -4, 8], "path": ["0", "0", "23", "24", "25", "30", "31"], "rt": [9433, 56, 54, 62, 174], "actions": ["left", "left", "left", "down", "right"], "actionTimes": [11261, 11811, 12372, 12948, 13625], "queries": {"click": {"state": {"target": ["23", "26", "30", "31"], "time": [2242, 4167, 6490, 9019]}, "edge": {"target": [], "time": []}}, "mouseover": {"state": {"target": ["23", "24", "26", "25", "25", "30", "31"], "time": [1865, 2584, 2866, 4966, 6133, 6217, 8766]}, "edge": {"target": [], "time": []}}, "mouseout": {"state": {"target": ["25", "24", "23", "0", "23", "24", "26", "25", "25", "30", "31", "30"], "time": [1068, 1133, 1217, 1451, 2551, 2634, 4749, 5583, 6183, 8733, 10266, 28449]}, "edge": {"target": [], "time": []}}}, "displayed_time": "15.83", "trialTime": 29741, "trial_type": "mouselab-mdp", "trial_index": 41, "time_elapsed": 1154941, "internal_node_id": "0.0-6.0-1.0-32.0"}}, {"uniqueid": "w39104304:a28985032", "current_trial": 42, "dateTime": 1693661491240, "trialdata": {"revealed_states": [], "clicked_states": ["23", "26", "28", "29"], "num_clicks_accrued": [0, 0, 0, 0, 0, 0, 0, 0, 0, 0, 0, 0, 0], "stateRewards": ["", 1, 2, -3, -5, 66, -50, -47, -5, 1, 28, -27, 1, 1, -1, -6, 37, -25, 56, 1, -82, -66, -40, -1, -4, -7, 15, -61, -23, 26, 10, 14, -56, 29], "withholdReward": false, "trial_id": "mdp_trial_34", "block": "test", "trialIndex": 35, "score": 23.4, "costs": -5.6, "simulationMode": [null, null, null, null, null], "rewards": [-1, -4, -7, 15, 26], "path": ["0", "0", "23", "24", "25", "26", "29"], "rt": [10131, 222, 153, 175, 60], "actions": ["left", "left", "left", "up", "left"], "actionTimes": [11560, 12302, 12949, 13619, 14189], "queries": {"click": {"state": {"target": ["23", "26", "28", "29"], "time": [1761, 3918, 6781, 9043]}, "edge": {"target": [], "time": []}}, "mouseover": {"state": {"target": ["23", "30", "25", "26", "25", "24", "30", "25", "27", "28", "29", "24", "31", "32"], "time": [1439, 3378, 3577, 3661, 4196, 5028, 5712, 6114, 6311, 6577, 8866, 9461, 9544, 9594]}, "edge": {"target": [], "time": []}}, "mouseout": {"state": {"target": ["29", "26", "28", "23", "0", "23", "30", "25", "26", "25", "24", "30", "25", "26", "27", "28", "26", "29", "24", "31", "32"], "time": [494, 561, 661, 911, 1438, 2561, 3498, 3610, 4146, 4213, 5527, 6046, 6177, 6245, 6360, 7113, 7196, 9262, 9513, 9579, 9611]}, "edge": {"target": [], "time": []}}}, "displayed_time": "15.43", "trialTime": 26468, "trial_type": "mouselab-mdp", "trial_index": 42, "time_elapsed": 1181823, "internal_node_id": "0.0-6.0-1.0-33.0"}}, {"uniqueid": "w39104304:a28985032", "current_trial": 43, "dateTime": 1693661537832, "trialdata": {"revealed_states": [], "clicked_states": ["23", "1", "12", "15", "19", "21", "22"], "num_clicks_accrued": [0, 0, 0, 0, 0, 0, 0, 0, 0, 0, 0, 0, 0], "stateRewards": ["", -2, -3, 8, 14, -73, 73, 84, -12, -2, -50, -17, 2, 1, -2, -9, -44, -27, -33, 16, -63, -47, -66, -2, 1, 4, -5, -33, -11, 50, 9, 38, -79, 31], "withholdReward": false, "trial_id": "mdp_trial_35", "block": "test", "trialIndex": 36, "score": -55.8, "costs": -9.8, "simulationMode": [null, null, null, null, null], "rewards": [2, 1, -2, 16, -63], "path": ["0", "0", "12", "13", "14", "19", "20"], "rt": [17125, 40, 90, 65, 61], "actions": ["right", "right", "right", "down", "right"], "actionTimes": [40012, 40575, 41174, 41732, 42310], "queries": {"click": {"state": {"target": ["23", "1", "12", "15", "19", "21", "22"], "time": [23568, 26158, 28535, 30636, 32773, 34996, 37296]}, "edge": {"target": [], "time": []}}, "mouseover": {"state": {"target": ["23", "24", "26", "28", "2", "1", "12", "18", "15", "15", "14", "19", "21", "22"], "time": [23232, 24281, 24667, 25614, 25680, 25964, 28180, 29330, 29363, 29748, 31800, 32532, 34630, 36998]}, "edge": {"target": [], "time": []}}, "mouseout": {"state": {"target": ["17", "15", "12", "12", "15", "18", "12", "23", "24", "26", "28", "2", "1", "12", "18", "15", "15", "15", "14", "19", "19", "21", "22"], "time": [20367, 20653, 20930, 21014, 22046, 22231, 22363, 24264, 24299, 25588, 25631, 25746, 28065, 28587, 29347, 29430, 30685, 31698, 32368, 32823, 34349, 35073, 39364]}, "edge": {"target": [], "time": []}}}, "displayed_time": "42.82", "trialTime": 46160, "trial_type": "mouselab-mdp", "trial_index": 43, "time_elapsed": 1228414, "internal_node_id": "0.0-6.0-1.0-34.0"}}, {"uniqueid": "w39104304:a28985032", "current_trial": 44, "dateTime": 1693661560502, "trialdata": {"revealed_states": [], "clicked_states": ["23", "26", "30", "32", "31", "33"], "num_clicks_accrued": [0, 0, 0, 0, 0, 0, 0, 0, 0, 0, 0, 0, 0], "stateRewards": ["", 2, -3, -2, 14, -4, 85, 46, 15, -28, 41, 31, -1, -1, -1, 5, 62, 79, 57, 12, -73, -64, 86, -1, 1, -3, -5, 68, 11, -32, 8, -80, -21, -56], "withholdReward": false, "trial_id": "mdp_trial_36", "block": "test", "trialIndex": 37, "score": -48.4, "costs": -8.4, "simulationMode": [null, null, null, null, null], "rewards": [-1, 1, -3, -5, -32], "path": ["0", "0", "23", "24", "25", "26", "29"], "rt": [14005, 40, 64, 94, 297], "actions": ["left", "left", "left", "up", "left"], "actionTimes": [16649, 17182, 17740, 18351, 19155], "queries": {"click": {"state": {"target": ["23", "26", "30", "32", "31", "33"], "time": [3205, 5585, 7782, 10260, 12442, 14392]}, "edge": {"target": [], "time": []}}, "mouseover": {"state": {"target": ["23", "24", "26", "25", "30", "32", "31", "30", "33"], "time": [3023, 5172, 5307, 6390, 7107, 9973, 12128, 13075, 13442]}, "edge": {"target": [], "time": []}}, "mouseout": {"state": {"target": ["0", "12", "15", "12", "0", "23", "24", "26", "25", "30", "32", "31", "30", "33", "0", "19"], "time": [608, 623, 1689, 1957, 2893, 5123, 5240, 6357, 6440, 9923, 12078, 13059, 13165, 20798, 20839, 21772]}, "edge": {"target": [], "time": []}}}, "displayed_time": "19.68", "trialTime": 22109, "trial_type": "mouselab-mdp", "trial_index": 44, "time_elapsed": 1251085, "internal_node_id": "0.0-6.0-1.0-35.0"}}, {"uniqueid": "w39104304:a28985032", "current_trial": 45, "dateTime": 1693661579614, "trialdata": {"revealed_states": [], "clicked_states": ["23", "26", "28", "29"], "num_clicks_accrued": [0, 0, 0, 0, 0, 0, 0, 0, 0, 0, 0, 0, 0], "stateRewards": ["", 1, 2, -5, 14, 54, -14, -25, 16, -5, -87, 78, -1, 1, 3, -3, 52, 53, 53, -10, 73, -69, -48, 2, 3, 1, 8, -62, -7, 85, 7, 82, 52, -28], "withholdReward": false, "trial_id": "mdp_trial_37", "block": "test", "trialIndex": 38, "score": 93.4, "costs": -5.6, "simulationMode": [null, null, null, null, null], "rewards": [2, 3, 1, 8, 85], "path": ["0", "0", "23", "24", "25", "26", "29"], "rt": [9803, 137, 116, 69, 4], "actions": ["left", "left", "left", "up", "left"], "actionTimes": [12273, 12907, 13538, 14104, 14674], "queries": {"click": {"state": {"target": ["23", "26", "28", "29"], "time": [2906, 4845, 7192, 9262]}, "edge": {"target": [], "time": []}}, "mouseover": {"state": {"target": ["23", "26", "28", "29"], "time": [2656, 3503, 6853, 9003]}, "edge": {"target": [], "time": []}}, "mouseout": {"state": {"target": ["12", "18", "15", "17", "15", "18", "1", "0", "23", "26", "28", "26", "29", "2", "7"], "time": [617, 634, 652, 1618, 1635, 1668, 1884, 2605, 3356, 6818, 8818, 8934, 10867, 15703, 15736]}, "edge": {"target": [], "time": []}}}, "displayed_time": "16.47", "trialTime": 18766, "trial_type": "mouselab-mdp", "trial_index": 45, "time_elapsed": 1270197, "internal_node_id": "0.0-6.0-1.0-36.0"}}, {"uniqueid": "w39104304:a28985032", "current_trial": 46, "dateTime": 1693661614433, "trialdata": {"revealed_states": [], "clicked_states": ["23", "26", "28"], "num_clicks_accrued": [0, 0, 0, 0, 0, 0, 0, 0, 0, 0, 0, 0, 0], "stateRewards": ["", -1, 3, 2, 9, 41, 4, -46, -12, -54, -87, -25, 2, 3, -1, 11, -77, 12, -33, -9, -32, 35, 72, 1, 3, -7, 4, 37, 65, -73, 6, 77, -43, 8], "withholdReward": false, "trial_id": "mdp_trial_38", "block": "test", "trialIndex": 39, "score": 61.8, "costs": -4.199999999999999, "simulationMode": [null, null, null, null, null], "rewards": [1, 3, -7, 4, 65], "path": ["0", "0", "23", "24", "25", "26", "28"], "rt": [7923, 493, 117, 150, 114], "actions": ["left", "left", "left", "up", "right"], "actionTimes": [10247, 11262, 11868, 12516, 13131], "queries": {"click": {"state": {"target": ["23", "26", "28"], "time": [2807, 4797, 7569]}, "edge": {"target": [], "time": []}}, "mouseover": {"state": {"target": ["23", "24", "26", "28"], "time": [2553, 3818, 4216, 7266]}, "edge": {"target": [], "time": []}}, "mouseout": {"state": {"target": ["16", "1", "23", "24", "26", "28", "28", "15"], "time": [1437, 1565, 3801, 3854, 6933, 9334, 9616, 15416]}, "edge": {"target": [], "time": []}}}, "displayed_time": "16.32", "trialTime": 34484, "trial_type": "mouselab-mdp", "trial_index": 46, "time_elapsed": 1305016, "internal_node_id": "0.0-6.0-1.0-37.0"}}, {"uniqueid": "w39104304:a28985032", "current_trial": 47, "dateTime": 1693661633476, "trialdata": {"revealed_states": [], "clicked_states": ["23", "26", "30", "31", "32"], "num_clicks_accrued": [0, 0, 0, 0, 0, 0, 0, 0, 0, 0, 0, 0, 0], "stateRewards": ["", 2, 3, -1, 16, -78, -11, 46, 2, -20, 79, -67, 2, 3, 2, 11, -83, -42, -58, -11, -67, -22, 55, 2, -1, -1, -16, -83, -82, 23, -11, -29, 13, 13], "withholdReward": false, "trial_id": "mdp_trial_39", "block": "test", "trialIndex": 40, "score": -5, "costs": -7, "simulationMode": [null, null, null, null, null], "rewards": [2, -1, -1, -11, 13], "path": ["0", "0", "23", "24", "25", "30", "32"], "rt": [11195, 59, 63, 59, 99], "actions": ["left", "left", "left", "down", "down"], "actionTimes": [13943, 14518, 15085, 15649, 16238], "queries": {"click": {"state": {"target": ["23", "26", "30", "31", "32"], "time": [3226, 5103, 7344, 9572, 12031]}, "edge": {"target": [], "time": []}}, "mouseover": {"state": {"target": ["23", "26", "25", "30", "31", "32"], "time": [3055, 3871, 7003, 7055, 8754, 10353]}, "edge": {"target": [], "time": []}}, "mouseout": {"state": {"target": ["0", "23", "26", "25", "30", "31", "32", "13", "18"], "time": [2922, 3625, 6988, 7020, 8722, 10103, 17790, 18020, 18036]}, "edge": {"target": [], "time": []}}}, "displayed_time": "16.76", "trialTime": 18648, "trial_type": "mouselab-mdp", "trial_index": 47, "time_elapsed": 1324058, "internal_node_id": "0.0-6.0-1.0-38.0"}}, {"uniqueid": "w39104304:a28985032", "current_trial": 48, "dateTime": 1693661652095, "trialdata": {"revealed_states": [], "clicked_states": ["23", "26", "28", "29"], "num_clicks_accrued": [0, 0, 0, 0, 0, 0, 0, 0, 0, 0, 0, 0, 0], "stateRewards": ["", -2, -4, -6, 12, -58, -70, -80, 2, 16, -88, -62, 1, 2, -5, 11, 77, -35, -44, -5, 18, -83, 87, 1, -3, -5, 13, -44, -21, -86, 10, -52, 8, 29], "withholdReward": false, "trial_id": "mdp_trial_40", "block": "test", "trialIndex": 41, "score": -43.6, "costs": -5.6, "simulationMode": [null, null, null, null, null], "rewards": [1, -3, -5, 13, -44], "path": ["0", "0", "23", "24", "25", "26", "27"], "rt": [10441, 401, 122, 72, 101], "actions": ["left", "left", "left", "up", "up"], "actionTimes": [12547, 13452, 14071, 14654, 15250], "queries": {"click": {"state": {"target": ["23", "26", "28", "29"], "time": [2822, 4991, 7555, 9858]}, "edge": {"target": [], "time": []}}, "mouseover": {"state": {"target": ["23", "24", "25", "26", "25", "30", "24", "28", "26", "29", "27"], "time": [2530, 3781, 3831, 4830, 5198, 5314, 7050, 7416, 9514, 9614, 11814]}, "edge": {"target": [], "time": []}}, "mouseout": {"state": {"target": ["21", "20", "14", "1", "0", "23", "24", "25", "26", "25", "30", "24", "28", "26", "29", "27"], "time": [1031, 1064, 1297, 1363, 2481, 3264, 3798, 4547, 5166, 5264, 6999, 7081, 9480, 9579, 10197, 17108]}, "edge": {"target": [], "time": []}}}, "displayed_time": "16.11", "trialTime": 18213, "trial_type": "mouselab-mdp", "trial_index": 48, "time_elapsed": 1342679, "internal_node_id": "0.0-6.0-1.0-39.0"}}, {"uniqueid": "w39104304:a28985032", "current_trial": 49, "dateTime": 1693661694793, "trialdata": {"rt": 42688, "response": {"Q0": "$-2 to $2", "Q1": "$-16 to $16", "Q2": "$-88 to $88", "Q3": "The cost for clicking on nodes varied between nodes.", "Q4": "Very motivated"}, "question_order": [0, 1, 2, 3, 4], "trial_id": "final_quiz_control", "trial_type": "survey-multi-choice", "trial_index": 49, "time_elapsed": 1385376, "internal_node_id": "0.0-6.0-2.0"}}, {"uniqueid": "w39104304:a28985032", "current_trial": 50, "dateTime": 1693661809170, "trialdata": {"rt": 114061, "response": {"Q0": "I tried to inspect the nodes that I had to go on first (e.g. 1st step and 4th step) before then deciding on that path and looking at the 5th step. This took a while for me to start doing though.", "Q1": "At first, it felt almost like I was guessing and didn't really know what I was doing. I then figured out how to benefit from using the checker", "Q2": "It wasn't too difficult, just a normal learning process"}, "trial_id": "self_report_control", "trial_type": "survey-text", "trial_index": 50, "time_elapsed": 1499754, "internal_node_id": "0.0-6.0-3.0"}}, {"uniqueid": "w39104304:a28985032", "current_trial": 51, "dateTime": 1693661831219, "trialdata": {"rt": 22040, "response": {"gender": "female", "age": "21", "colorblind": "0", "effort": "0"}, "trial_type": "survey-html-form", "trial_index": 51, "time_elapsed": 1521802, "internal_node_id": "0.0-6.0-4.0"}}, {"uniqueid": "w39104304:a28985032", "current_trial": 52, "dateTime": 1693661913679, "trialdata": {"rt": 82452, "response": {"Q0": "At first, I didn't understand that you had 3 secs before you either had to check the next node or had to move the spider. I first thought I had to check a node and had 3 secs before I had to move the spider and didn't know I could press another node in that time because there was some delay.", "Q1": "No, I've never played", "Q2": "No"}, "trial_type": "survey-text", "trial_index": 52, "time_elapsed": 1604263, "internal_node_id": "0.0-6.0-5.0"}}, {"uniqueid": "w39104304:a28985032", "current_trial": 53, "dateTime": 1693661949642, "trialdata": {"rt": 35956, "stimulus": "<h1>Completion Code Instructions (1/2)</h1>\n<br><br><br><br>\nYou have reached the end of the experiment! The completion code consists of two parts: (1) a code with 2 characters (2) a code with 6 characters. On this page, you will receive the second part of the code. The first part of the completion code will be on the next page.\n<br><br>\nThe second part of your completion code is: <b>EWEK22</b>\n<br><br>\nPlease note this down. Then, press 'Next' in order to find the first part of your completion code. Once the data has been saved, you will receive this code either in this window or in the original browser window where you started the experiment.\n <br><br>\n<h2 style='color: red;'>Note: this is <strong>NOT</strong> the full completion code. Copy this down and click 'Next' to get the full completion code on the next page.</h2>", "response": 0, "trial_type": "html-button-response", "trial_index": 53, "time_elapsed": 1640225, "internal_node_id": "0.0-6.0-6.0"}}, {"uniqueid": "w39104304:a28985032", "current_trial": 54, "dateTime": 1693661950647, "trialdata": {"success": true, "trial_type": "fullscreen", "trial_index": 54, "time_elapsed": 1641231, "internal_node_id": "0.0-7.0"}}], "questiondata": {"params": {"CODE": "C6DMOQA6", "MIN_TIME": 14, "inspectCost": 1, "startTime": "Sat Sep 02 2023 14:11:47 GMT+0100 (British Summer Time)", "bonusRate": 0.002, "variance": "1_2_4_8_44", "branching": "31123"}, "final_score": 951.8}, "eventdata": [{"eventtype": "initialized", "value": null, "timestamp": 1693660306813, "interval": 0}, {"eventtype": "window_resize", "value": [1280, 614], "timestamp": 1693660306813, "interval": 0}, {"eventtype": "window_resize", "value": [1280, 614], "timestamp": 1693660307135, "interval": 322}, {"eventtype": "window_resize", "value": [1280, 720], "timestamp": 1693660311396, "interval": 4261}, {"eventtype": "window_resize", "value": [1280, 614], "timestamp": 1693661949889, "interval": 1638493}], "useragent": "Mozilla/5.0 (Windows NT 10.0; Win64; x64) AppleWebKit/537.36 (KHTML, like Gecko) Chrome/116.0.0.0 Safari/537.36", "mode": "live", "id": "w39104304:a28985032", "status": "user data saved", "Beginhit": "2023-09-02 13:11:46.772503", "Beginexp": "2023-09-02 13:11:54.700803", "Endhit": "2023-09-02 13:39:14.310006", "psiturkStatus": 3, "browser": "<redacted>", "platform": "windows", "language": "en-GB"}