{"condition": 0, "counterbalance": 0, "assignmentId": "a93874049", "workerId": "w50564630", "hitId": "h74123869", "currenttrial": 55, "bonus": 0, "data": [{"uniqueid": "w50564630:a93874049", "current_trial": 0, "dateTime": 1693580319858, "trialdata": {"success": true, "trial_type": "fullscreen", "trial_index": 0, "time_elapsed": 8688, "internal_node_id": "0.0-0.0"}}, {"uniqueid": "w50564630:a93874049", "current_trial": 1, "dateTime": 1693580341564, "trialdata": {"view_history": [{"page_index": 0, "viewing_time": 21667}], "rt": 21670, "trial_id": "exp_instructions_control", "trial_type": "instructions", "trial_index": 1, "time_elapsed": 30394, "internal_node_id": "0.0-1.0"}}, {"uniqueid": "w50564630:a93874049", "current_trial": 2, "dateTime": 1693580833556, "trialdata": {"view_history": [{"page_index": 0, "viewing_time": 225357}, {"page_index": 1, "viewing_time": 135115}, {"page_index": 2, "viewing_time": 78840}, {"page_index": 3, "viewing_time": 52665}], "rt": 491979, "trial_id": "mouselab_instructions_1_control", "trial_type": "instructions", "trial_index": 2, "time_elapsed": 522386, "internal_node_id": "0.0-2.0-1.0"}}, {"uniqueid": "w50564630:a93874049", "current_trial": 3, "dateTime": 1693580956408, "trialdata": {"revealed_states": [], "clicked_states": ["19", "20", "22", "2", "30", "32", "12", "13", "15", "3", "4", "6"], "num_clicks_accrued": [0, 0, 0, 0, 0, 0, 0, 0, 0, 0, 0, 0, 0], "stateRewards": ["", -10, 10, 10, -10, 10, -10, 10, -10, 10, -10, 10, -10, -10, -10, -10, -10, -10, -10, 10, 10, 10, -10, -10, -10, -10, 10, 10, 10, 10, -10, 10, -10, 10], "withholdReward": false, "trial_id": "practice_1", "block": "test", "trialIndex": 0, "score": -12.5, "costs": -6, "simulationMode": [null, null, null, null, null], "rewards": [-10, -10, -10, 10, 10], "path": ["0", "0", "12", "13", "14", "19", "20"], "rt": [92007, 4067, 3679, 1274, 1223], "actions": ["right", "right", "right", "down", "right"], "actionTimes": [99370, 103970, 108203, 110012, 111765], "queries": {"click": {"state": {"target": ["19", "20", "22", "2", "30", "32", "12", "13", "15", "3", "4", "6"], "time": [15389, 17736, 20688, 26764, 33927, 39952, 50140, 52002, 55571, 63858, 67512, 70963]}, "edge": {"target": [], "time": []}}, "mouseover": {"state": {"target": ["1", "2", "7", "12", "0", "12", "19", "20", "22", "12", "2", "10", "28", "24", "30", "24", "23", "28", "25", "30", "32", "30", "31", "30", "25", "28", "0", "12", "13", "14", "15", "7", "2", "3", "3", "11", "6", "6", "4", "6", "4", "3", "2", "12", "13", "22", "19", "22"], "time": [10532, 11021, 11693, 12253, 13391, 13465, 14396, 16884, 18882, 23391, 25338, 29302, 30732, 31788, 33200, 36584, 37302, 38055, 38419, 38835, 38941, 43286, 43769, 46218, 47723, 48192, 48835, 49557, 51005, 53039, 54486, 57669, 57922, 62047, 63024, 64593, 66539, 66836, 66905, 68848, 72188, 72604, 73090, 75668, 78551, 80715, 82237, 87610]}, "edge": {"target": [], "time": []}}, "mouseout": {"state": {"target": ["0", "1", "2", "7", "12", "0", "12", "19", "20", "22", "12", "2", "10", "28", "24", "30", "24", "23", "28", "25", "30", "32", "30", "31", "30", "25", "28", "0", "12", "13", "14", "15", "7", "2", "3", "3", "3", "11", "3", "6", "6", "4", "6", "4", "3", "2", "12", "13", "22", "19", "22"], "time": [10408, 10639, 11135, 11763, 12585, 13446, 13510, 16723, 18742, 23310, 23438, 29203, 29751, 31718, 32927, 36522, 37220, 37608, 38093, 38512, 38887, 43032, 43501, 44586, 47677, 47770, 48250, 49038, 50946, 52985, 53821, 57173, 57709, 61995, 62321, 64302, 64535, 66454, 66506, 66576, 66889, 68637, 72034, 72253, 73026, 74786, 78506, 80291, 82127, 87557, 87736]}, "edge": {"target": [], "time": []}}}, "displayed_time": "112.29", "trialTime": 120157, "trial_type": "mouselab-mdp", "trial_index": 3, "time_elapsed": 645236, "internal_node_id": "0.0-2.0-2.0-0.0"}}, {"uniqueid": "w50564630:a93874049", "current_trial": 4, "dateTime": 1693580981235, "trialdata": {"revealed_states": [], "clicked_states": [], "num_clicks_accrued": [0, 0, 0, 0, 0, 0, 0, 0, 0, 0, 0, 0, 0], "stateRewards": ["", -10, -10, 10, -10, 10, -10, -10, -10, -10, 10, 10, 10, -10, 10, 10, -10, -10, -10, -10, 10, 10, 10, -10, -10, -10, 10, 10, 10, 10, 10, -10, 10, -10], "withholdReward": false, "trial_id": "practice_2", "block": "test", "trialIndex": 1, "score": 13.5, "costs": 0, "simulationMode": [null, null, null, null, null], "rewards": [10, -10, 10, -10, 10], "path": ["0", "0", "12", "13", "14", "19", "21"], "rt": [2068, 1558, 762, 834, 965], "actions": ["right", "right", "right", "down", "down"], "actionTimes": [8354, 10454, 11748, 13111, 14651], "queries": {"click": {"state": {"target": [], "time": []}, "edge": {"target": [], "time": []}}, "mouseover": {"state": {"target": [], "time": []}, "edge": {"target": [], "time": []}}, "mouseout": {"state": {"target": ["12", "14", "13", "0", "13"], "time": [2630, 2664, 4141, 19981, 20023]}, "edge": {"target": [], "time": []}}}, "displayed_time": "15.18", "trialTime": 23285, "trial_type": "mouselab-mdp", "trial_index": 4, "time_elapsed": 670058, "internal_node_id": "0.0-2.0-2.0-1.0"}}, {"uniqueid": "w50564630:a93874049", "current_trial": 5, "dateTime": 1693581142391, "trialdata": {"view_history": [{"page_index": 0, "viewing_time": 148983}, {"page_index": 1, "viewing_time": 12134}], "rt": 161118, "trial_id": "mouselab_instructions_2_control", "trial_type": "instructions", "trial_index": 5, "time_elapsed": 831221, "internal_node_id": "0.0-2.0-3.0"}}, {"uniqueid": "w50564630:a93874049", "current_trial": 6, "dateTime": 1693581200618, "trialdata": {"rt": 58189, "response": {"Q0": "The cost for clicking on nodes may vary between nodes.", "Q1": "The better I perform the higher my bonus will be.", "Q2": "No, the amount of cash at each node of the web may be different each time.", "Q3": "To get the highest total score.", "Q4": "Only before moving the spider.", "Q5": "3 seconds"}, "question_order": [0, 1, 2, 3, 4, 5], "correct": {"Q0": "The cost for clicking on nodes may vary between nodes.", "Q1": "The better I perform the higher my bonus will be.", "Q2": "No, the amount of cash at each node of the web may be different each time.", "Q3": "To get the highest total score.", "Q4": "Only before moving the spider.", "Q5": "3 seconds"}, "trial_id": "mouselab_quiz_control", "trial_type": "survey-multi-choice", "trial_index": 6, "time_elapsed": 889448, "internal_node_id": "0.0-2.0-4.0"}}, {"uniqueid": "w50564630:a93874049", "current_trial": 7, "dateTime": 1693581211578, "trialdata": {"rt": 10933, "response": {"Q0": "No"}, "question_order": [0], "trial_id": "repeat_check", "trial_type": "survey-multi-choice", "trial_index": 7, "time_elapsed": 900407, "internal_node_id": "0.0-4.0-0.0"}}, {"uniqueid": "w50564630:a93874049", "current_trial": 8, "dateTime": 1693581227930, "trialdata": {"rt": 16318, "stimulus": "\n<h1> Get ready to start the game! </h1>\n\nThank you for reading the instructions. Get ready start with the 40 rounds of this game.\n<br><br>\nIf you need to take a break, feel free to take one after the end of a round, before continuing to the next one.\n<br><br>\nRemember, the more money the spider gets, the bigger your bonus will be!\n<br><br>\n<div style='text-align: center;'>Press <code>space</code> to begin.</div>\n\n<br><br>\n(If, at any point, the <code>space</code> key does not take you to the next page, click once on the text and try again.)", "response": " ", "trial_id": "mdp_ready", "trial_type": "html-keyboard-response", "trial_index": 8, "time_elapsed": 916759, "internal_node_id": "0.0-6.0-0.0"}}, {"uniqueid": "w50564630:a93874049", "current_trial": 9, "dateTime": 1693581251629, "trialdata": {"revealed_states": [], "clicked_states": [], "num_clicks_accrued": [0, 0, 0, 0, 0, 0, 0, 0, 0, 0, 0, 0, 0], "stateRewards": ["", -2, -1, -4, -15, -14, -67, 32, -3, -59, 63, 31, 2, -1, -7, -15, 71, -66, -27, -3, -54, -39, 72, 2, 1, 1, -13, 77, -40, 35, -9, 35, 75, 57], "withholdReward": false, "trial_id": "mdp_trial_1", "block": "test", "trialIndex": 2, "score": 70, "costs": 0, "simulationMode": [null, null, null, null, null], "rewards": [2, 1, 1, -9, 75], "path": ["0", "0", "23", "24", "25", "30", "32"], "rt": [6517, 412, 646, 540, 488], "actions": ["left", "left", "left", "down", "down"], "actionTimes": [11438, 12408, 13593, 14677, 15708], "queries": {"click": {"state": {"target": [], "time": []}, "edge": {"target": [], "time": []}}, "mouseover": {"state": {"target": [], "time": []}, "edge": {"target": [], "time": []}}, "mouseout": {"state": {"target": ["0", "13", "20", "12", "0"], "time": [1935, 1991, 2791, 2883, 17954]}, "edge": {"target": [], "time": []}}}, "displayed_time": "18.92", "trialTime": 22197, "trial_type": "mouselab-mdp", "trial_index": 9, "time_elapsed": 940453, "internal_node_id": "0.0-6.0-1.0-0.0"}}, {"uniqueid": "w50564630:a93874049", "current_trial": 10, "dateTime": 1693581275202, "trialdata": {"revealed_states": [], "clicked_states": [], "num_clicks_accrued": [0, 0, 0, 0, 0, 0, 0, 0, 0, 0, 0, 0, 0], "stateRewards": ["", 2, -3, -2, 14, -4, 85, 46, 15, -28, 41, 31, -1, -1, -1, 5, 62, 79, 57, 12, -73, -64, 86, -1, 1, -3, -5, 68, 11, -32, 8, -80, -21, -56], "withholdReward": false, "trial_id": "mdp_trial_2", "block": "test", "trialIndex": 3, "score": 96, "costs": 0, "simulationMode": [null, null, null, null, null], "rewards": [2, -3, -2, 14, 85], "path": ["0", "0", "1", "2", "3", "4", "6"], "rt": [1846, 269, 449, 182, 239], "actions": ["up", "up", "up", "right", "right"], "actionTimes": [6298, 7120, 8096, 8819, 9594], "queries": {"click": {"state": {"target": [], "time": []}, "edge": {"target": [], "time": []}}, "mouseover": {"state": {"target": [], "time": []}, "edge": {"target": [], "time": []}}, "mouseout": {"state": {"target": ["20", "19", "22", "12", "0", "12", "14"], "time": [2260, 2308, 2534, 2595, 11787, 11830, 11868]}, "edge": {"target": [], "time": []}}}, "displayed_time": "18.46", "trialTime": 22035, "trial_type": "mouselab-mdp", "trial_index": 10, "time_elapsed": 964024, "internal_node_id": "0.0-6.0-1.0-1.0"}}, {"uniqueid": "w50564630:a93874049", "current_trial": 11, "dateTime": 1693581297047, "trialdata": {"revealed_states": [], "clicked_states": [], "num_clicks_accrued": [0, 0, 0, 0, 0, 0, 0, 0, 0, 0, 0, 0, 0], "stateRewards": ["", 1, -2, -3, 14, -42, -87, -37, -11, -50, 33, -44, -2, 4, -7, 13, 48, -75, -66, 12, 23, -2, 82, 1, -4, 3, 12, 51, -15, -26, -11, -52, -29, 82], "withholdReward": false, "trial_id": "mdp_trial_3", "block": "test", "trialIndex": 4, "score": -40, "costs": 0, "simulationMode": [null, null, null, null, null], "rewards": [1, -4, 3, -11, -29], "path": ["0", "0", "23", "24", "25", "30", "32"], "rt": [1903, 367, 308, 533, 373], "actions": ["left", "left", "left", "down", "down"], "actionTimes": [5521, 6445, 7278, 8371, 9285], "queries": {"click": {"state": {"target": [], "time": []}, "edge": {"target": [], "time": []}}, "mouseover": {"state": {"target": [], "time": []}, "edge": {"target": [], "time": []}}, "mouseout": {"state": {"target": ["21", "12", "0"], "time": [1010, 1498, 10555]}, "edge": {"target": [], "time": []}}}, "displayed_time": "17.62", "trialTime": 20140, "trial_type": "mouselab-mdp", "trial_index": 11, "time_elapsed": 985871, "internal_node_id": "0.0-6.0-1.0-2.0"}}, {"uniqueid": "w50564630:a93874049", "current_trial": 12, "dateTime": 1693581320446, "trialdata": {"revealed_states": [], "clicked_states": [], "num_clicks_accrued": [0, 0, 0, 0, 0, 0, 0, 0, 0, 0, 0, 0, 0], "stateRewards": ["", -2, -3, -6, -7, 9, 16, 65, 5, -41, 20, -25, -1, -4, 1, -11, -49, -4, 71, 1, 39, -62, 52, -2, -3, 7, -9, -28, -70, 84, 8, 24, -58, 82], "withholdReward": false, "trial_id": "mdp_trial_4", "block": "test", "trialIndex": 5, "score": -35, "costs": 0, "simulationMode": [null, null, null, null, null], "rewards": [-2, -3, 7, -9, -28], "path": ["0", "0", "23", "24", "25", "26", "27"], "rt": [3429, 2787, 281, 751, 1811], "actions": ["left", "left", "left", "up", "up"], "actionTimes": [9325, 12652, 13455, 14726, 17075], "queries": {"click": {"state": {"target": [], "time": []}, "edge": {"target": [], "time": []}}, "mouseover": {"state": {"target": [], "time": []}, "edge": {"target": [], "time": []}}, "mouseout": {"state": {"target": ["16", "0", "14"], "time": [3687, 18461, 18529]}, "edge": {"target": [], "time": []}}}, "displayed_time": "19.89", "trialTime": 21635, "trial_type": "mouselab-mdp", "trial_index": 12, "time_elapsed": 1009272, "internal_node_id": "0.0-6.0-1.0-3.0"}}, {"uniqueid": "w50564630:a93874049", "current_trial": 13, "dateTime": 1693581341639, "trialdata": {"revealed_states": [], "clicked_states": [], "num_clicks_accrued": [0, 0, 0, 0, 0, 0, 0, 0, 0, 0, 0, 0, 0], "stateRewards": ["", -2, -3, 1, -7, 39, -67, 16, 5, -20, 73, 66, -1, 4, 5, -3, 23, -68, -87, -8, 3, -3, 17, 1, -4, -2, -13, -32, 34, 61, -5, -11, -18, 12], "withholdReward": false, "trial_id": "mdp_trial_5", "block": "test", "trialIndex": 6, "score": -3, "costs": 0, "simulationMode": [null, null, null, null, null], "rewards": [-1, 4, 5, -8, -3], "path": ["0", "0", "12", "13", "14", "19", "21"], "rt": [2643, 427, 365, 415, 1656], "actions": ["right", "right", "right", "down", "down"], "actionTimes": [6198, 7174, 8075, 9052, 11258], "queries": {"click": {"state": {"target": [], "time": []}, "edge": {"target": [], "time": []}}, "mouseover": {"state": {"target": [], "time": []}, "edge": {"target": [], "time": []}}, "mouseout": {"state": {"target": ["21", "23", "0", "13"], "time": [1309, 1710, 13129, 13187]}, "edge": {"target": [], "time": []}}}, "displayed_time": "17.56", "trialTime": 19250, "trial_type": "mouselab-mdp", "trial_index": 13, "time_elapsed": 1030463, "internal_node_id": "0.0-6.0-1.0-4.0"}}, {"uniqueid": "w50564630:a93874049", "current_trial": 14, "dateTime": 1693581363003, "trialdata": {"revealed_states": [], "clicked_states": [], "num_clicks_accrued": [0, 0, 0, 0, 0, 0, 0, 0, 0, 0, 0, 0, 0], "stateRewards": ["", 1, 3, 1, -13, 52, -28, 67, -14, 3, 63, -70, -1, -4, 7, -11, -10, 47, -18, 6, 69, -9, -61, 2, 3, -6, 10, 63, -34, 40, -6, -79, -35, -32], "withholdReward": false, "trial_id": "mdp_trial_6", "block": "test", "trialIndex": 7, "score": -27, "costs": 0, "simulationMode": [null, null, null, null, null], "rewards": [-1, -4, 7, -11, -18], "path": ["0", "0", "12", "13", "14", "15", "18"], "rt": [4035, 354, 336, 1293, 225], "actions": ["right", "right", "right", "up", "left"], "actionTimes": [7218, 8125, 9015, 10848, 11618], "queries": {"click": {"state": {"target": [], "time": []}, "edge": {"target": [], "time": []}}, "mouseover": {"state": {"target": [], "time": []}, "edge": {"target": [], "time": []}}, "mouseout": {"state": {"target": ["14", "13", "12", "0"], "time": [1071, 1110, 1148, 12805]}, "edge": {"target": [], "time": []}}}, "displayed_time": "17.18", "trialTime": 19321, "trial_type": "mouselab-mdp", "trial_index": 14, "time_elapsed": 1051828, "internal_node_id": "0.0-6.0-1.0-5.0"}}, {"uniqueid": "w50564630:a93874049", "current_trial": 15, "dateTime": 1693581386132, "trialdata": {"revealed_states": [], "clicked_states": [], "num_clicks_accrued": [0, 0, 0, 0, 0, 0, 0, 0, 0, 0, 0, 0, 0], "stateRewards": ["", -2, -3, -3, 9, 79, 67, 22, -15, -56, 27, -85, -2, 4, -4, -15, -20, -32, 60, 15, 71, 57, 17, 1, 2, -8, 15, -37, -81, 82, 15, 21, -3, 2], "withholdReward": false, "trial_id": "mdp_trial_7", "block": "test", "trialIndex": 8, "score": 4, "costs": 0, "simulationMode": [null, null, null, null, null], "rewards": [-2, -3, -3, -15, 27], "path": ["0", "0", "1", "2", "3", "8", "10"], "rt": [1865, 911, 1863, 1155, 415], "actions": ["up", "up", "up", "left", "down"], "actionTimes": [7040, 8487, 10888, 12566, 13515], "queries": {"click": {"state": {"target": [], "time": []}, "edge": {"target": [], "time": []}}, "mouseover": {"state": {"target": [], "time": []}, "edge": {"target": [], "time": []}}, "mouseout": {"state": {"target": ["21", "23", "23", "0", "0", "12", "19"], "time": [1027, 1088, 1423, 1868, 16467, 16565, 16614]}, "edge": {"target": [], "time": []}}}, "displayed_time": "19.18", "trialTime": 21049, "trial_type": "mouselab-mdp", "trial_index": 15, "time_elapsed": 1074957, "internal_node_id": "0.0-6.0-1.0-6.0"}}, {"uniqueid": "w50564630:a93874049", "current_trial": 16, "dateTime": 1693581411212, "trialdata": {"revealed_states": [], "clicked_states": [], "num_clicks_accrued": [0, 0, 0, 0, 0, 0, 0, 0, 0, 0, 0, 0, 0], "stateRewards": ["", -1, -1, 7, -15, -43, -21, -84, -9, -45, -66, 2, 1, -2, 2, 8, -27, 44, -52, -5, -84, 11, 53, 1, 4, -4, 16, 83, -82, -15, -16, 68, -43, 81], "withholdReward": false, "trial_id": "mdp_trial_8", "block": "test", "trialIndex": 9, "score": -65, "costs": 0, "simulationMode": [null, null, null, null, null], "rewards": [1, 4, -4, 16, -82], "path": ["0", "0", "23", "24", "25", "26", "28"], "rt": [3051, 350, 388, 776, 938], "actions": ["left", "left", "left", "up", "right"], "actionTimes": [10725, 11647, 12558, 13874, 15359], "queries": {"click": {"state": {"target": [], "time": []}, "edge": {"target": [], "time": []}}, "mouseover": {"state": {"target": [], "time": []}, "edge": {"target": [], "time": []}}, "mouseout": {"state": {"target": ["15", "1", "0", "13"], "time": [5089, 5418, 17212, 17269]}, "edge": {"target": [], "time": []}}}, "displayed_time": "21.68", "trialTime": 22992, "trial_type": "mouselab-mdp", "trial_index": 16, "time_elapsed": 1100036, "internal_node_id": "0.0-6.0-1.0-7.0"}}, {"uniqueid": "w50564630:a93874049", "current_trial": 17, "dateTime": 1693581432567, "trialdata": {"revealed_states": [], "clicked_states": [], "num_clicks_accrued": [0, 0, 0, 0, 0, 0, 0, 0, 0, 0, 0, 0, 0], "stateRewards": ["", 2, 3, -2, -8, -8, -41, 74, 15, -23, -80, 1, 1, 3, 3, -15, -63, -78, 67, 13, 75, -41, 86, 2, -2, 6, -3, -8, -49, 50, -6, 83, 74, 80], "withholdReward": false, "trial_id": "mdp_trial_9", "block": "test", "trialIndex": 10, "score": -13, "costs": 0, "simulationMode": [null, null, null, null, null], "rewards": [2, 3, -2, -8, -8], "path": ["0", "0", "1", "2", "3", "4", "5"], "rt": [2458, 1670, 636, 1705, 2491], "actions": ["up", "up", "up", "right", "up"], "actionTimes": [5220, 7453, 8637, 10886, 13919], "queries": {"click": {"state": {"target": [], "time": []}, "edge": {"target": [], "time": []}}, "mouseover": {"state": {"target": [], "time": []}, "edge": {"target": [], "time": []}}, "mouseout": {"state": {"target": ["22", "13", "12", "0", "0"], "time": [78, 123, 429, 479, 15570]}, "edge": {"target": [], "time": []}}}, "displayed_time": "16.77", "trialTime": 18973, "trial_type": "mouselab-mdp", "trial_index": 17, "time_elapsed": 1121392, "internal_node_id": "0.0-6.0-1.0-8.0"}}, {"uniqueid": "w50564630:a93874049", "current_trial": 18, "dateTime": 1693581456000, "trialdata": {"revealed_states": [], "clicked_states": [], "num_clicks_accrued": [0, 0, 0, 0, 0, 0, 0, 0, 0, 0, 0, 0, 0], "stateRewards": ["", -1, -3, 4, -10, -5, 79, -87, -2, 53, 29, -20, -2, -1, -5, 10, 27, 86, 46, -16, -29, 40, 3, 2, 4, -1, -6, 37, 79, -29, 7, 86, -62, 29], "withholdReward": false, "trial_id": "mdp_trial_10", "block": "test", "trialIndex": 11, "score": 29, "costs": 0, "simulationMode": [null, null, null, null, null], "rewards": [-2, -1, -5, 10, 27], "path": ["0", "0", "12", "13", "14", "15", "16"], "rt": [2231, 444, 767, 852, 315], "actions": ["right", "right", "right", "up", "up"], "actionTimes": [6634, 7629, 8934, 10319, 11160], "queries": {"click": {"state": {"target": [], "time": []}, "edge": {"target": [], "time": []}}, "mouseover": {"state": {"target": [], "time": []}, "edge": {"target": [], "time": []}}, "mouseout": {"state": {"target": ["0"], "time": [2183]}, "edge": {"target": [], "time": []}}}, "displayed_time": "18.41", "trialTime": 21265, "trial_type": "mouselab-mdp", "trial_index": 18, "time_elapsed": 1144828, "internal_node_id": "0.0-6.0-1.0-9.0"}}, {"uniqueid": "w50564630:a93874049", "current_trial": 19, "dateTime": 1693581476843, "trialdata": {"revealed_states": [], "clicked_states": [], "num_clicks_accrued": [0, 0, 0, 0, 0, 0, 0, 0, 0, 0, 0, 0, 0], "stateRewards": ["", 2, 4, 4, 9, -88, -10, 44, 16, -54, 64, 78, 1, 2, 5, 16, 80, 36, 7, -4, 9, -47, -70, -1, -3, 6, -16, 11, 80, 28, 8, -1, 34, -17], "withholdReward": false, "trial_id": "mdp_trial_11", "block": "test", "trialIndex": 12, "score": -3, "costs": 0, "simulationMode": [null, null, null, null, null], "rewards": [-1, -3, 6, -16, 11], "path": ["0", "0", "23", "24", "25", "26", "27"], "rt": [2145, 1932, 993, 810, 262], "actions": ["left", "left", "left", "up", "up"], "actionTimes": [4750, 7338, 8848, 10214, 11015], "queries": {"click": {"state": {"target": [], "time": []}, "edge": {"target": [], "time": []}}, "mouseover": {"state": {"target": [], "time": []}, "edge": {"target": [], "time": []}}, "mouseout": {"state": {"target": ["0"], "time": [1042]}, "edge": {"target": [], "time": []}}}, "displayed_time": "16.61", "trialTime": 18470, "trial_type": "mouselab-mdp", "trial_index": 19, "time_elapsed": 1165672, "internal_node_id": "0.0-6.0-1.0-10.0"}}, {"uniqueid": "w50564630:a93874049", "current_trial": 20, "dateTime": 1693581501278, "trialdata": {"revealed_states": [], "clicked_states": [], "num_clicks_accrued": [0, 0, 0, 0, 0, 0, 0, 0, 0, 0, 0, 0, 0], "stateRewards": ["", 1, 4, -4, 14, 35, 51, 19, -13, 54, 78, -74, -2, -1, -3, 13, -11, -42, -73, -15, -24, -3, -69, 2, -1, 5, 16, -27, 73, 58, 9, -60, 5, -60], "withholdReward": false, "trial_id": "mdp_trial_12", "block": "test", "trialIndex": 13, "score": -86, "costs": 0, "simulationMode": [null, null, null, null, null], "rewards": [1, 4, -4, -13, -74], "path": ["0", "0", "1", "2", "3", "8", "11"], "rt": [3688, 447, 109, 1142, 730], "actions": ["up", "up", "up", "left", "left"], "actionTimes": [6644, 7646, 8706, 10389, 11648], "queries": {"click": {"state": {"target": [], "time": []}, "edge": {"target": [], "time": []}}, "mouseover": {"state": {"target": [], "time": []}, "edge": {"target": [], "time": []}}, "mouseout": {"state": {"target": ["0"], "time": [1030]}, "edge": {"target": [], "time": []}}}, "displayed_time": "16.95", "trialTime": 22138, "trial_type": "mouselab-mdp", "trial_index": 20, "time_elapsed": 1190106, "internal_node_id": "0.0-6.0-1.0-11.0"}}, {"uniqueid": "w50564630:a93874049", "current_trial": 21, "dateTime": 1693581522205, "trialdata": {"revealed_states": [], "clicked_states": [], "num_clicks_accrued": [0, 0, 0, 0, 0, 0, 0, 0, 0, 0, 0, 0, 0], "stateRewards": ["", -1, 3, -5, -2, -13, -9, -34, -7, -81, 32, 35, -2, -2, 1, -14, -32, 81, 7, 4, 82, 56, -8, -1, 3, -8, 6, -24, -24, -53, 2, 38, 61, 54], "withholdReward": false, "trial_id": "mdp_trial_13", "block": "test", "trialIndex": 14, "score": 64, "costs": 0, "simulationMode": [null, null, null, null, null], "rewards": [-2, -2, 1, -14, 81], "path": ["0", "0", "12", "13", "14", "15", "17"], "rt": [1427, 190, 127, 390, 123], "actions": ["right", "right", "right", "up", "right"], "actionTimes": [4230, 4960, 5630, 6548, 7211], "queries": {"click": {"state": {"target": [], "time": []}, "edge": {"target": [], "time": []}}, "mouseover": {"state": {"target": [], "time": []}, "edge": {"target": [], "time": []}}, "mouseout": {"state": {"target": [], "time": []}, "edge": {"target": [], "time": []}}}, "displayed_time": "16.81", "trialTime": 18481, "trial_type": "mouselab-mdp", "trial_index": 21, "time_elapsed": 1211033, "internal_node_id": "0.0-6.0-1.0-12.0"}}, {"uniqueid": "w50564630:a93874049", "current_trial": 22, "dateTime": 1693581547454, "trialdata": {"revealed_states": [], "clicked_states": [], "num_clicks_accrued": [0, 0, 0, 0, 0, 0, 0, 0, 0, 0, 0, 0, 0], "stateRewards": ["", -2, 3, -1, -9, 44, 48, -37, -3, 71, -39, 87, -1, 3, -4, 4, -21, 59, -15, -8, -1, 28, -38, 2, 4, 4, 8, -85, -72, -63, 14, 58, 63, -46], "withholdReward": false, "trial_id": "mdp_trial_14", "block": "test", "trialIndex": 15, "score": 18, "costs": 0, "simulationMode": [null, null, null, null, null], "rewards": [-1, 3, -4, -8, 28], "path": ["0", "0", "12", "13", "14", "19", "21"], "rt": [1534, 328, 323, 489, 239], "actions": ["right", "right", "right", "down", "down"], "actionTimes": [4163, 5041, 5893, 6918, 7695], "queries": {"click": {"state": {"target": [], "time": []}, "edge": {"target": [], "time": []}}, "mouseover": {"state": {"target": [], "time": []}, "edge": {"target": [], "time": []}}, "mouseout": {"state": {"target": [], "time": []}, "edge": {"target": [], "time": []}}}, "displayed_time": "16.63", "trialTime": 22747, "trial_type": "mouselab-mdp", "trial_index": 22, "time_elapsed": 1236279, "internal_node_id": "0.0-6.0-1.0-13.0"}}, {"uniqueid": "w50564630:a93874049", "current_trial": 23, "dateTime": 1693581577943, "trialdata": {"revealed_states": [], "clicked_states": [], "num_clicks_accrued": [0, 0, 0, 0, 0, 0, 0, 0, 0, 0, 0, 0, 0], "stateRewards": ["", -1, -3, -7, -4, -85, -70, 79, 8, 84, -66, 42, 2, -2, -3, -16, -54, -66, 68, -3, 21, -14, 7, -2, -1, -3, -8, 75, 80, 86, -7, -84, 73, -16], "withholdReward": false, "trial_id": "mdp_trial_15", "block": "test", "trialIndex": 16, "score": 61, "costs": 0, "simulationMode": [null, null, null, null, null], "rewards": [-2, -1, -3, -8, 75], "path": ["0", "0", "23", "24", "25", "26", "27"], "rt": [2256, 417, 536, 4759, 10942], "actions": ["left", "left", "left", "up", "up"], "actionTimes": [5482, 6447, 7530, 12837, 24307], "queries": {"click": {"state": {"target": [], "time": []}, "edge": {"target": [], "time": []}}, "mouseover": {"state": {"target": [], "time": []}, "edge": {"target": [], "time": []}}, "mouseout": {"state": {"target": [], "time": []}, "edge": {"target": [], "time": []}}}, "displayed_time": "24.84", "trialTime": 28091, "trial_type": "mouselab-mdp", "trial_index": 23, "time_elapsed": 1266768, "internal_node_id": "0.0-6.0-1.0-14.0"}}, {"uniqueid": "w50564630:a93874049", "current_trial": 24, "dateTime": 1693581626054, "trialdata": {"revealed_states": [], "clicked_states": [], "num_clicks_accrued": [0, 0, 0, 0, 0, 0, 0, 0, 0, 0, 0, 0, 0], "stateRewards": ["", 2, -1, -4, -13, 74, 77, 3, 2, -43, -2, -11, 2, 3, 7, 11, -26, -29, -33, -3, -3, -13, -3, 1, 3, -7, 14, -59, 33, 9, -5, 34, 79, 68], "withholdReward": false, "trial_id": "mdp_trial_16", "block": "test", "trialIndex": 17, "score": 61, "costs": 0, "simulationMode": [null, null, null, null, null], "rewards": [2, -1, -4, -13, 77], "path": ["0", "0", "1", "2", "3", "4", "6"], "rt": [4023, 357, 467, 3391, 25559], "actions": ["up", "up", "up", "right", "right"], "actionTimes": [6535, 7432, 8425, 12351, 38456], "queries": {"click": {"state": {"target": [], "time": []}, "edge": {"target": [], "time": []}}, "mouseover": {"state": {"target": [], "time": []}, "edge": {"target": [], "time": []}}, "mouseout": {"state": {"target": ["0"], "time": [33911]}, "edge": {"target": [], "time": []}}}, "displayed_time": "38.99", "trialTime": 45706, "trial_type": "mouselab-mdp", "trial_index": 24, "time_elapsed": 1314879, "internal_node_id": "0.0-6.0-1.0-15.0"}}, {"uniqueid": "w50564630:a93874049", "current_trial": 25, "dateTime": 1693581648000, "trialdata": {"revealed_states": [], "clicked_states": [], "num_clicks_accrued": [0, 0, 0, 0, 0, 0, 0, 0, 0, 0, 0, 0, 0], "stateRewards": ["", -2, 2, -4, -4, -59, 88, 62, -3, 69, -15, -34, 1, -2, -5, 7, -54, -20, 78, -16, -74, -53, -21, 2, -4, 2, 13, -8, -44, 26, 9, 72, 4, 17], "withholdReward": false, "trial_id": "mdp_trial_17", "block": "test", "trialIndex": 18, "score": -53, "costs": 0, "simulationMode": [null, null, null, null, null], "rewards": [1, -2, -5, 7, -54], "path": ["0", "0", "12", "13", "14", "15", "16"], "rt": [2291, 281, 245, 863, 395], "actions": ["right", "right", "right", "up", "up"], "actionTimes": [6675, 7523, 8304, 9699, 10631], "queries": {"click": {"state": {"target": [], "time": []}, "edge": {"target": [], "time": []}}, "mouseover": {"state": {"target": [], "time": []}, "edge": {"target": [], "time": []}}, "mouseout": {"state": {"target": ["14", "13", "22"], "time": [1741, 1779, 12831]}, "edge": {"target": [], "time": []}}}, "displayed_time": "18.39", "trialTime": 19369, "trial_type": "mouselab-mdp", "trial_index": 25, "time_elapsed": 1336828, "internal_node_id": "0.0-6.0-1.0-16.0"}}, {"uniqueid": "w50564630:a93874049", "current_trial": 26, "dateTime": 1693581672652, "trialdata": {"revealed_states": [], "clicked_states": [], "num_clicks_accrued": [0, 0, 0, 0, 0, 0, 0, 0, 0, 0, 0, 0, 0], "stateRewards": ["", -2, 2, -5, 1, 42, -63, -58, -6, 2, 16, 81, -2, 4, 7, -10, 33, 3, -33, -2, -52, -84, -27, 2, -3, -3, 15, -74, -14, -5, -5, -84, 79, -31], "withholdReward": false, "trial_id": "mdp_trial_18", "block": "test", "trialIndex": 19, "score": 70, "costs": 0, "simulationMode": [null, null, null, null, null], "rewards": [2, -3, -3, -5, 79], "path": ["0", "0", "23", "24", "25", "30", "32"], "rt": [3456, 5462, 284, 1308, 199], "actions": ["left", "left", "left", "down", "down"], "actionTimes": [7985, 13988, 14790, 16676, 17392], "queries": {"click": {"state": {"target": [], "time": []}, "edge": {"target": [], "time": []}}, "mouseover": {"state": {"target": [], "time": []}, "edge": {"target": [], "time": []}}, "mouseout": {"state": {"target": ["22", "0", "0", "23", "23", "23", "13", "12"], "time": [1624, 2174, 9128, 13134, 13263, 19431, 19961, 20217]}, "edge": {"target": [], "time": []}}}, "displayed_time": "18.53", "trialTime": 21113, "trial_type": "mouselab-mdp", "trial_index": 26, "time_elapsed": 1361476, "internal_node_id": "0.0-6.0-1.0-17.0"}}, {"uniqueid": "w50564630:a93874049", "current_trial": 27, "dateTime": 1693581694040, "trialdata": {"revealed_states": [], "clicked_states": [], "num_clicks_accrued": [0, 0, 0, 0, 0, 0, 0, 0, 0, 0, 0, 0, 0], "stateRewards": ["", 1, 4, -8, -13, -13, -87, -77, -10, -44, 54, 42, 2, -3, -4, 12, -9, -80, 52, 9, 84, -2, -65, 1, -4, -5, -6, 8, 80, 32, 13, -59, -5, -13], "withholdReward": false, "trial_id": "mdp_trial_19", "block": "test", "trialIndex": 20, "score": 2, "costs": 0, "simulationMode": [null, null, null, null, null], "rewards": [2, -3, -4, 9, -2], "path": ["0", "0", "12", "13", "14", "19", "21"], "rt": [2335, 837, 179, 1561, 307], "actions": ["right", "right", "right", "down", "down"], "actionTimes": [5731, 7210, 7920, 10031, 10891], "queries": {"click": {"state": {"target": [], "time": []}, "edge": {"target": [], "time": []}}, "mouseover": {"state": {"target": [], "time": []}, "edge": {"target": [], "time": []}}, "mouseout": {"state": {"target": ["0", "0"], "time": [1165, 12445]}, "edge": {"target": [], "time": []}}}, "displayed_time": "17.40", "trialTime": 18836, "trial_type": "mouselab-mdp", "trial_index": 27, "time_elapsed": 1382866, "internal_node_id": "0.0-6.0-1.0-18.0"}}, {"uniqueid": "w50564630:a93874049", "current_trial": 28, "dateTime": 1693581714943, "trialdata": {"revealed_states": [], "clicked_states": [], "num_clicks_accrued": [0, 0, 0, 0, 0, 0, 0, 0, 0, 0, 0, 0, 0], "stateRewards": ["", 1, -1, 1, 13, 31, -56, 72, 2, 41, 5, 63, -2, -3, -2, 3, -71, -26, 52, 13, -31, 24, -67, 2, -2, 5, 4, 66, 43, 72, 9, 86, -26, 44], "withholdReward": false, "trial_id": "mdp_trial_20", "block": "test", "trialIndex": 21, "score": 66, "costs": 0, "simulationMode": [null, null, null, null, null], "rewards": [1, -1, 1, 2, 63], "path": ["0", "0", "1", "2", "3", "8", "11"], "rt": [1056, 106, 259, 783, 120], "actions": ["up", "up", "up", "left", "left"], "actionTimes": [3761, 4445, 5246, 6566, 7216], "queries": {"click": {"state": {"target": [], "time": []}, "edge": {"target": [], "time": []}}, "mouseover": {"state": {"target": [], "time": []}, "edge": {"target": [], "time": []}}, "mouseout": {"state": {"target": ["14", "0"], "time": [402, 8592]}, "edge": {"target": [], "time": []}}}, "displayed_time": "16.71", "trialTime": 18217, "trial_type": "mouselab-mdp", "trial_index": 28, "time_elapsed": 1403769, "internal_node_id": "0.0-6.0-1.0-19.0"}}, {"uniqueid": "w50564630:a93874049", "current_trial": 29, "dateTime": 1693581736497, "trialdata": {"revealed_states": [], "clicked_states": [], "num_clicks_accrued": [0, 0, 0, 0, 0, 0, 0, 0, 0, 0, 0, 0, 0], "stateRewards": ["", -2, -2, -7, -13, -10, 49, -68, -1, 84, 70, 88, 1, 4, 4, 12, -57, 25, 30, 8, -1, -77, 57, 2, 3, 2, 3, -18, -80, 23, -15, -41, 70, 11], "withholdReward": false, "trial_id": "mdp_trial_21", "block": "test", "trialIndex": 22, "score": -36, "costs": 0, "simulationMode": [null, null, null, null, null], "rewards": [1, 4, 4, 12, -57], "path": ["0", "0", "12", "13", "14", "15", "16"], "rt": [2367, 192, 247, 777, 67], "actions": ["right", "right", "right", "up", "up"], "actionTimes": [6081, 6897, 7657, 8961, 9571], "queries": {"click": {"state": {"target": [], "time": []}, "edge": {"target": [], "time": []}}, "mouseover": {"state": {"target": [], "time": []}, "edge": {"target": [], "time": []}}, "mouseout": {"state": {"target": ["12", "0"], "time": [1194, 11089]}, "edge": {"target": [], "time": []}}}, "displayed_time": "17.71", "trialTime": 18939, "trial_type": "mouselab-mdp", "trial_index": 29, "time_elapsed": 1425326, "internal_node_id": "0.0-6.0-1.0-20.0"}}, {"uniqueid": "w50564630:a93874049", "current_trial": 30, "dateTime": 1693581763287, "trialdata": {"revealed_states": [], "clicked_states": [], "num_clicks_accrued": [0, 0, 0, 0, 0, 0, 0, 0, 0, 0, 0, 0, 0], "stateRewards": ["", 1, 2, -8, 9, 18, -83, -11, 6, -64, -48, 17, -2, -2, -5, -3, -24, -3, -86, -2, 48, -41, -22, -2, 4, 7, 8, 81, 13, -48, 10, 61, 19, 57], "withholdReward": false, "trial_id": "mdp_trial_22", "block": "test", "trialIndex": 23, "score": 38, "costs": 0, "simulationMode": [null, null, null, null, null], "rewards": [-2, 4, 7, 10, 19], "path": ["0", "0", "23", "24", "25", "30", "32"], "rt": [1628, 17, 69, 449, 13], "actions": ["left", "left", "left", "down", "down"], "actionTimes": [9925, 10479, 11091, 12067, 12662], "queries": {"click": {"state": {"target": [], "time": []}, "edge": {"target": [], "time": []}}, "mouseover": {"state": {"target": [], "time": []}, "edge": {"target": [], "time": []}}, "mouseout": {"state": {"target": ["17", "7", "0", "0"], "time": [1417, 5277, 5846, 13472]}, "edge": {"target": [], "time": []}}}, "displayed_time": "22.30", "trialTime": 23891, "trial_type": "mouselab-mdp", "trial_index": 30, "time_elapsed": 1452112, "internal_node_id": "0.0-6.0-1.0-21.0"}}, {"uniqueid": "w50564630:a93874049", "current_trial": 31, "dateTime": 1693581785221, "trialdata": {"revealed_states": [], "clicked_states": [], "num_clicks_accrued": [0, 0, 0, 0, 0, 0, 0, 0, 0, 0, 0, 0, 0], "stateRewards": ["", -2, 1, -3, -16, -39, -52, 30, -7, -41, -59, 11, 2, 1, 8, 2, -11, -26, -42, -13, 87, -59, -48, -1, -1, -1, 16, -79, 31, 50, -1, -84, 34, -82], "withholdReward": false, "trial_id": "mdp_trial_23", "block": "test", "trialIndex": 24, "score": -61, "costs": 0, "simulationMode": [null, null, null, null, null], "rewards": [2, 1, 8, -13, -59], "path": ["0", "0", "12", "13", "14", "19", "21"], "rt": [1401, 59, 88, 417, 176], "actions": ["right", "right", "right", "down", "down"], "actionTimes": [4973, 5580, 6241, 7192, 7904], "queries": {"click": {"state": {"target": [], "time": []}, "edge": {"target": [], "time": []}}, "mouseover": {"state": {"target": [], "time": []}, "edge": {"target": [], "time": []}}, "mouseout": {"state": {"target": ["10", "12", "0", "0", "19"], "time": [815, 891, 1557, 9098, 11631]}, "edge": {"target": [], "time": []}}}, "displayed_time": "17.58", "trialTime": 18747, "trial_type": "mouselab-mdp", "trial_index": 31, "time_elapsed": 1474047, "internal_node_id": "0.0-6.0-1.0-22.0"}}, {"uniqueid": "w50564630:a93874049", "current_trial": 32, "dateTime": 1693581806883, "trialdata": {"revealed_states": [], "clicked_states": [], "num_clicks_accrued": [0, 0, 0, 0, 0, 0, 0, 0, 0, 0, 0, 0, 0], "stateRewards": ["", 2, -1, -3, 16, -3, -16, -62, -1, 13, -26, 43, -1, 4, 3, -9, -54, -37, -3, -12, -71, -68, -57, 1, -3, 2, -9, 2, -2, -9, -11, 84, -52, 55], "withholdReward": false, "trial_id": "mdp_trial_24", "block": "test", "trialIndex": 25, "score": -2, "costs": 0, "simulationMode": [null, null, null, null, null], "rewards": [2, -1, -3, 16, -16], "path": ["0", "0", "1", "2", "3", "4", "6"], "rt": [1265, 110, 140, 856, 754], "actions": ["up", "up", "up", "right", "right"], "actionTimes": [4711, 5372, 6060, 7459, 8748], "queries": {"click": {"state": {"target": [], "time": []}, "edge": {"target": [], "time": []}}, "mouseover": {"state": {"target": [], "time": []}, "edge": {"target": [], "time": []}}, "mouseout": {"state": {"target": ["19", "0", "21"], "time": [614, 11088, 11174]}, "edge": {"target": [], "time": []}}}, "displayed_time": "17.45", "trialTime": 18865, "trial_type": "mouselab-mdp", "trial_index": 32, "time_elapsed": 1495709, "internal_node_id": "0.0-6.0-1.0-23.0"}}, {"uniqueid": "w50564630:a93874049", "current_trial": 33, "dateTime": 1693581828673, "trialdata": {"revealed_states": [], "clicked_states": [], "num_clicks_accrued": [0, 0, 0, 0, 0, 0, 0, 0, 0, 0, 0, 0, 0], "stateRewards": ["", 1, 1, -3, 2, 22, -25, -11, -5, 50, 49, 3, 1, -1, 8, 14, -85, -30, 57, -6, -39, -16, 59, -2, -1, 5, 5, 59, -16, 8, 4, 67, 56, -9], "withholdReward": false, "trial_id": "mdp_trial_25", "block": "test", "trialIndex": 26, "score": 43, "costs": 0, "simulationMode": [null, null, null, null, null], "rewards": [1, 1, -3, -5, 49], "path": ["0", "0", "1", "2", "3", "8", "10"], "rt": [2249, 38, 65, 790, 412], "actions": ["up", "up", "up", "left", "down"], "actionTimes": [5348, 5947, 6567, 7887, 8829], "queries": {"click": {"state": {"target": [], "time": []}, "edge": {"target": [], "time": []}}, "mouseover": {"state": {"target": [], "time": []}, "edge": {"target": [], "time": []}}, "mouseout": {"state": {"target": ["12", "6", "7", "1", "0", "12", "19"], "time": [165, 804, 863, 1040, 11886, 11964, 12030]}, "edge": {"target": [], "time": []}}}, "displayed_time": "17.10", "trialTime": 18743, "trial_type": "mouselab-mdp", "trial_index": 33, "time_elapsed": 1517495, "internal_node_id": "0.0-6.0-1.0-24.0"}}, {"uniqueid": "w50564630:a93874049", "current_trial": 34, "dateTime": 1693581853063, "trialdata": {"revealed_states": [], "clicked_states": [], "num_clicks_accrued": [0, 0, 0, 0, 0, 0, 0, 0, 0, 0, 0, 0, 0], "stateRewards": ["", -1, 4, 3, 12, -27, 34, -33, 3, -63, 1, 6, 2, 2, -6, -11, -77, -85, 68, -6, 51, 81, -60, -2, -2, 1, 15, 20, 15, 68, -10, -14, 6, -4], "withholdReward": false, "trial_id": "mdp_trial_26", "block": "test", "trialIndex": 27, "score": -17, "costs": 0, "simulationMode": [null, null, null, null, null], "rewards": [-2, -2, 1, -10, -4], "path": ["0", "0", "23", "24", "25", "30", "33"], "rt": [713, 62, 39, 33, 162], "actions": ["left", "left", "left", "down", "left"], "actionTimes": [6780, 7366, 7982, 8598, 9334], "queries": {"click": {"state": {"target": [], "time": []}, "edge": {"target": [], "time": []}}, "mouseover": {"state": {"target": [], "time": []}, "edge": {"target": [], "time": []}}, "mouseout": {"state": {"target": ["13", "12", "0", "0"], "time": [3637, 3753, 3921, 10652]}, "edge": {"target": [], "time": []}}}, "displayed_time": "20.07", "trialTime": 21747, "trial_type": "mouselab-mdp", "trial_index": 34, "time_elapsed": 1541888, "internal_node_id": "0.0-6.0-1.0-25.0"}}, {"uniqueid": "w50564630:a93874049", "current_trial": 35, "dateTime": 1693581874848, "trialdata": {"revealed_states": [], "clicked_states": [], "num_clicks_accrued": [0, 0, 0, 0, 0, 0, 0, 0, 0, 0, 0, 0, 0], "stateRewards": ["", -2, 3, 8, -9, 59, 41, -50, -1, 82, 66, 33, 2, -2, 7, 8, 1, -38, 12, -16, 24, -37, 67, 1, 4, -2, 5, 35, -83, 28, 8, -27, 69, -64], "withholdReward": false, "trial_id": "mdp_trial_27", "block": "test", "trialIndex": 28, "score": 80, "costs": 0, "simulationMode": [null, null, null, null, null], "rewards": [1, 4, -2, 8, 69], "path": ["0", "0", "23", "24", "25", "30", "32"], "rt": [2348, 17, 118, 47, 35], "actions": ["left", "left", "left", "down", "down"], "actionTimes": [6053, 6612, 7275, 7836, 8447], "queries": {"click": {"state": {"target": [], "time": []}, "edge": {"target": [], "time": []}}, "mouseover": {"state": {"target": [], "time": []}, "edge": {"target": [], "time": []}}, "mouseout": {"state": {"target": ["13", "12", "0", "13", "20", "22"], "time": [1458, 1625, 10070, 10150, 11114, 18403]}, "edge": {"target": [], "time": []}}}, "displayed_time": "17.71", "trialTime": 19085, "trial_type": "mouselab-mdp", "trial_index": 35, "time_elapsed": 1563673, "internal_node_id": "0.0-6.0-1.0-26.0"}}, {"uniqueid": "w50564630:a93874049", "current_trial": 36, "dateTime": 1693581895854, "trialdata": {"revealed_states": [], "clicked_states": [], "num_clicks_accrued": [0, 0, 0, 0, 0, 0, 0, 0, 0, 0, 0, 0, 0], "stateRewards": ["", -1, 3, 8, 10, -86, 61, -36, 10, 17, -60, 24, -1, -3, 3, 11, 50, 60, 33, -3, -20, 58, -6, 1, -4, -4, 13, -70, -71, 43, 14, 52, 82, -11], "withholdReward": false, "trial_id": "mdp_trial_28", "block": "test", "trialIndex": 29, "score": 81, "costs": 0, "simulationMode": [null, null, null, null, null], "rewards": [-1, 3, 8, 10, 61], "path": ["0", "0", "1", "2", "3", "4", "6"], "rt": [1847, 112, 135, 13, 138], "actions": ["up", "up", "up", "right", "right"], "actionTimes": [4949, 5613, 6274, 6820, 7511], "queries": {"click": {"state": {"target": [], "time": []}, "edge": {"target": [], "time": []}}, "mouseover": {"state": {"target": [], "time": []}, "edge": {"target": [], "time": []}}, "mouseout": {"state": {"target": ["0", "12", "14"], "time": [9315, 9379, 9430]}, "edge": {"target": [], "time": []}}}, "displayed_time": "17.11", "trialTime": 18322, "trial_type": "mouselab-mdp", "trial_index": 36, "time_elapsed": 1584680, "internal_node_id": "0.0-6.0-1.0-27.0"}}, {"uniqueid": "w50564630:a93874049", "current_trial": 37, "dateTime": 1693581918878, "trialdata": {"revealed_states": [], "clicked_states": [], "num_clicks_accrued": [0, 0, 0, 0, 0, 0, 0, 0, 0, 0, 0, 0, 0], "stateRewards": ["", 1, 1, 5, 6, -29, -7, 3, -16, 9, -46, 65, -1, 4, -1, -16, -63, -77, -87, 8, 80, -50, 43, -1, -1, -5, 5, -38, -71, -62, 9, 81, -50, -52], "withholdReward": false, "trial_id": "mdp_trial_29", "block": "test", "trialIndex": 30, "score": -48, "costs": 0, "simulationMode": [null, null, null, null, null], "rewards": [-1, -1, -5, 9, -50], "path": ["0", "0", "23", "24", "25", "30", "32"], "rt": [1898, 106, 25, 119, 176], "actions": ["left", "left", "left", "down", "down"], "actionTimes": [6733, 7396, 7982, 8656, 9352], "queries": {"click": {"state": {"target": [], "time": []}, "edge": {"target": [], "time": []}}, "mouseover": {"state": {"target": [], "time": []}, "edge": {"target": [], "time": []}}, "mouseout": {"state": {"target": ["19", "13", "12", "0", "13"], "time": [1930, 2256, 2305, 11539, 11607]}, "edge": {"target": [], "time": []}}}, "displayed_time": "18.84", "trialTime": 20162, "trial_type": "mouselab-mdp", "trial_index": 37, "time_elapsed": 1607707, "internal_node_id": "0.0-6.0-1.0-28.0"}}, {"uniqueid": "w50564630:a93874049", "current_trial": 38, "dateTime": 1693581941209, "trialdata": {"revealed_states": [], "clicked_states": [], "num_clicks_accrued": [0, 0, 0, 0, 0, 0, 0, 0, 0, 0, 0, 0, 0], "stateRewards": ["", -1, 4, -8, 12, 14, 69, -8, 5, -72, -14, 56, -1, -1, -1, 9, 67, 19, 11, -9, -88, -58, 3, 2, -4, -8, 4, 62, 77, -74, 5, -31, 65, 88], "withholdReward": false, "trial_id": "mdp_trial_30", "block": "test", "trialIndex": 31, "score": -70, "costs": 0, "simulationMode": [null, null, null, null, null], "rewards": [-1, -1, -1, -9, -58], "path": ["0", "0", "12", "13", "14", "19", "21"], "rt": [1367, 140, 169, 316, 253], "actions": ["right", "right", "right", "down", "down"], "actionTimes": [5361, 6062, 6775, 7619, 8419], "queries": {"click": {"state": {"target": [], "time": []}, "edge": {"target": [], "time": []}}, "mouseover": {"state": {"target": [], "time": []}, "edge": {"target": [], "time": []}}, "mouseout": {"state": {"target": ["19", "12", "0", "12"], "time": [1022, 1424, 10105, 10202]}, "edge": {"target": [], "time": []}}}, "displayed_time": "18.00", "trialTime": 19445, "trial_type": "mouselab-mdp", "trial_index": 38, "time_elapsed": 1630033, "internal_node_id": "0.0-6.0-1.0-29.0"}}, {"uniqueid": "w50564630:a93874049", "current_trial": 39, "dateTime": 1693581967082, "trialdata": {"revealed_states": [], "clicked_states": [], "num_clicks_accrued": [0, 0, 0, 0, 0, 0, 0, 0, 0, 0, 0, 0, 0], "stateRewards": ["", -1, 2, -7, -12, -62, 12, -13, 5, 77, -71, 83, 1, -4, 7, 15, -42, -87, -4, 5, -25, 44, 88, -1, 4, -5, -8, 14, 51, 8, -5, 83, -24, -19], "withholdReward": false, "trial_id": "mdp_trial_31", "block": "test", "trialIndex": 32, "score": -6, "costs": 0, "simulationMode": [null, null, null, null, null], "rewards": [-1, 2, -7, -12, 12], "path": ["0", "0", "1", "2", "3", "4", "6"], "rt": [2154, 13, 13, 702, 883], "actions": ["up", "up", "up", "right", "right"], "actionTimes": [5394, 5971, 6522, 7795, 9226], "queries": {"click": {"state": {"target": [], "time": []}, "edge": {"target": [], "time": []}}, "mouseover": {"state": {"target": [], "time": []}, "edge": {"target": [], "time": []}}, "mouseout": {"state": {"target": ["0", "22"], "time": [19936, 22249]}, "edge": {"target": [], "time": []}}}, "displayed_time": "17.24", "trialTime": 22796, "trial_type": "mouselab-mdp", "trial_index": 39, "time_elapsed": 1655906, "internal_node_id": "0.0-6.0-1.0-30.0"}}, {"uniqueid": "w50564630:a93874049", "current_trial": 40, "dateTime": 1693581988941, "trialdata": {"revealed_states": [], "clicked_states": [], "num_clicks_accrued": [0, 0, 0, 0, 0, 0, 0, 0, 0, 0, 0, 0, 0], "stateRewards": ["", 1, -3, -4, -11, -56, 61, -47, -16, -28, -9, 69, -2, -3, -4, -8, 40, -86, 59, -4, 80, 27, 54, -1, 3, -1, 8, 67, 23, 50, 6, 83, -43, -29], "withholdReward": false, "trial_id": "mdp_trial_32", "block": "test", "trialIndex": 33, "score": 47, "costs": 0, "simulationMode": [null, null, null, null, null], "rewards": [1, -3, -4, -16, 69], "path": ["0", "0", "1", "2", "3", "8", "11"], "rt": [2466, 322, 355, 286, 298], "actions": ["up", "up", "up", "left", "left"], "actionTimes": [5935, 6792, 7674, 8502, 9327], "queries": {"click": {"state": {"target": [], "time": []}, "edge": {"target": [], "time": []}}, "mouseover": {"state": {"target": [], "time": []}, "edge": {"target": [], "time": []}}, "mouseout": {"state": {"target": [], "time": []}, "edge": {"target": [], "time": []}}}, "displayed_time": "17.47", "trialTime": 18857, "trial_type": "mouselab-mdp", "trial_index": 40, "time_elapsed": 1677766, "internal_node_id": "0.0-6.0-1.0-31.0"}}, {"uniqueid": "w50564630:a93874049", "current_trial": 41, "dateTime": 1693582012771, "trialdata": {"revealed_states": [], "clicked_states": [], "num_clicks_accrued": [0, 0, 0, 0, 0, 0, 0, 0, 0, 0, 0, 0, 0], "stateRewards": ["", -1, 2, 7, 8, 75, 67, -11, 6, 52, -17, 38, -1, 4, -8, 14, 74, -37, -17, -12, 52, 55, 71, -2, -1, -5, 2, 21, 6, -88, -14, 64, -61, -47], "withholdReward": false, "trial_id": "mdp_trial_33", "block": "test", "trialIndex": 34, "score": 15, "costs": 0, "simulationMode": [null, null, null, null, null], "rewards": [-2, -1, -5, 2, 21], "path": ["0", "0", "23", "24", "25", "26", "27"], "rt": [1421, 99, 118, 801, 114], "actions": ["left", "left", "left", "up", "up"], "actionTimes": [4797, 5454, 6110, 7446, 8085], "queries": {"click": {"state": {"target": [], "time": []}, "edge": {"target": [], "time": []}}, "mouseover": {"state": {"target": [], "time": []}, "edge": {"target": [], "time": []}}, "mouseout": {"state": {"target": ["0", "19"], "time": [18552, 18650]}, "edge": {"target": [], "time": []}}}, "displayed_time": "17.38", "trialTime": 20509, "trial_type": "mouselab-mdp", "trial_index": 41, "time_elapsed": 1701596, "internal_node_id": "0.0-6.0-1.0-32.0"}}, {"uniqueid": "w50564630:a93874049", "current_trial": 42, "dateTime": 1693582034458, "trialdata": {"revealed_states": [], "clicked_states": [], "num_clicks_accrued": [0, 0, 0, 0, 0, 0, 0, 0, 0, 0, 0, 0, 0], "stateRewards": ["", -2, -4, 6, 14, -34, 49, 36, -8, -3, 32, -4, 1, -2, 1, -8, -20, -71, -57, -7, -86, -62, -16, -2, -3, -5, 11, 23, -21, 53, 5, -5, 85, 73], "withholdReward": false, "trial_id": "mdp_trial_34", "block": "test", "trialIndex": 35, "score": -69, "costs": 0, "simulationMode": [null, null, null, null, null], "rewards": [1, -2, 1, -7, -62], "path": ["0", "0", "12", "13", "14", "19", "21"], "rt": [3575, 465, 89, 211, 136], "actions": ["right", "right", "right", "down", "down"], "actionTimes": [6755, 7747, 8380, 9124, 9779], "queries": {"click": {"state": {"target": [], "time": []}, "edge": {"target": [], "time": []}}, "mouseover": {"state": {"target": [], "time": []}, "edge": {"target": [], "time": []}}, "mouseout": {"state": {"target": ["14", "1", "0", "12"], "time": [506, 923, 6028, 11291]}, "edge": {"target": [], "time": []}}}, "displayed_time": "17.18", "trialTime": 18623, "trial_type": "mouselab-mdp", "trial_index": 42, "time_elapsed": 1723285, "internal_node_id": "0.0-6.0-1.0-33.0"}}, {"uniqueid": "w50564630:a93874049", "current_trial": 43, "dateTime": 1693582056643, "trialdata": {"revealed_states": [], "clicked_states": [], "num_clicks_accrued": [0, 0, 0, 0, 0, 0, 0, 0, 0, 0, 0, 0, 0], "stateRewards": ["", -1, 4, -3, 3, 57, -61, 5, -11, 23, -1, 34, -2, -4, -1, -13, 27, 38, -36, 4, -45, 21, 88, 1, -2, -1, 1, -69, -5, -78, -12, -9, 38, -54], "withholdReward": false, "trial_id": "mdp_trial_35", "block": "test", "trialIndex": 36, "score": -23, "costs": 0, "simulationMode": [null, null, null, null, null], "rewards": [1, -2, -1, -12, -9], "path": ["0", "0", "23", "24", "25", "30", "31"], "rt": [1639, 87, 174, 23, 62], "actions": ["left", "left", "left", "down", "right"], "actionTimes": [5049, 5680, 6407, 6943, 7568], "queries": {"click": {"state": {"target": [], "time": []}, "edge": {"target": [], "time": []}}, "mouseover": {"state": {"target": [], "time": []}, "edge": {"target": [], "time": []}}, "mouseout": {"state": {"target": ["12", "1", "0", "12", "19", "20", "19"], "time": [521, 788, 10906, 10969, 11059, 11496, 18151]}, "edge": {"target": [], "time": []}}}, "displayed_time": "17.42", "trialTime": 18663, "trial_type": "mouselab-mdp", "trial_index": 43, "time_elapsed": 1745470, "internal_node_id": "0.0-6.0-1.0-34.0"}}, {"uniqueid": "w50564630:a93874049", "current_trial": 44, "dateTime": 1693582077903, "trialdata": {"revealed_states": [], "clicked_states": [], "num_clicks_accrued": [0, 0, 0, 0, 0, 0, 0, 0, 0, 0, 0, 0, 0], "stateRewards": ["", 2, -1, -1, -9, -81, -30, 55, -6, 78, 25, 62, 2, 4, -1, 9, -85, 1, -19, 1, -60, 12, -34, 1, 4, -1, -13, -24, -16, -83, -8, 16, 43, 9], "withholdReward": false, "trial_id": "mdp_trial_36", "block": "test", "trialIndex": 37, "score": -39, "costs": 0, "simulationMode": [null, null, null, null, null], "rewards": [2, -1, -1, -9, -30], "path": ["0", "0", "1", "2", "3", "4", "6"], "rt": [1209, 175, 148, 130, 144], "actions": ["up", "up", "up", "right", "right"], "actionTimes": [4508, 5276, 5940, 6606, 7273], "queries": {"click": {"state": {"target": [], "time": []}, "edge": {"target": [], "time": []}}, "mouseover": {"state": {"target": [], "time": []}, "edge": {"target": [], "time": []}}, "mouseout": {"state": {"target": ["22", "0"], "time": [701, 9715]}, "edge": {"target": [], "time": []}}}, "displayed_time": "17.31", "trialTime": 18130, "trial_type": "mouselab-mdp", "trial_index": 44, "time_elapsed": 1766727, "internal_node_id": "0.0-6.0-1.0-35.0"}}, {"uniqueid": "w50564630:a93874049", "current_trial": 45, "dateTime": 1693582100803, "trialdata": {"revealed_states": [], "clicked_states": [], "num_clicks_accrued": [0, 0, 0, 0, 0, 0, 0, 0, 0, 0, 0, 0, 0], "stateRewards": ["", -2, -3, 8, -4, -30, 31, 69, 9, 66, 87, 64, -2, 2, 8, 5, 47, 16, -39, -8, -54, 51, -19, 1, -2, -2, -11, -25, -26, 43, -9, 19, -84, 86], "withholdReward": false, "trial_id": "mdp_trial_37", "block": "test", "trialIndex": 38, "score": 60, "costs": 0, "simulationMode": [null, null, null, null, null], "rewards": [-2, 2, 8, 5, 47], "path": ["0", "0", "12", "13", "14", "15", "16"], "rt": [679, 186, 192, 379, 37], "actions": ["right", "right", "right", "up", "up"], "actionTimes": [4497, 5218, 5942, 6860, 7460], "queries": {"click": {"state": {"target": [], "time": []}, "edge": {"target": [], "time": []}}, "mouseover": {"state": {"target": [], "time": []}, "edge": {"target": [], "time": []}}, "mouseout": {"state": {"target": ["13", "12", "0"], "time": [1422, 1492, 8964]}, "edge": {"target": [], "time": []}}}, "displayed_time": "17.82", "trialTime": 19760, "trial_type": "mouselab-mdp", "trial_index": 45, "time_elapsed": 1789631, "internal_node_id": "0.0-6.0-1.0-36.0"}}, {"uniqueid": "w50564630:a93874049", "current_trial": 46, "dateTime": 1693582123600, "trialdata": {"revealed_states": [], "clicked_states": [], "num_clicks_accrued": [0, 0, 0, 0, 0, 0, 0, 0, 0, 0, 0, 0, 0], "stateRewards": ["", -1, -2, -1, -10, -57, 73, -72, -16, 75, -14, -46, -2, -3, -7, -1, -61, -60, 76, -4, 50, 4, 14, 2, 2, -7, 12, -65, -32, 15, -8, -76, -25, -61], "withholdReward": false, "trial_id": "mdp_trial_38", "block": "test", "trialIndex": 39, "score": 63, "costs": 0, "simulationMode": [null, null, null, null, null], "rewards": [-2, -3, -7, -1, 76], "path": ["0", "0", "12", "13", "14", "15", "18"], "rt": [1332, 132, 211, 659, 185], "actions": ["right", "right", "right", "up", "left"], "actionTimes": [5118, 5811, 6581, 7787, 8497], "queries": {"click": {"state": {"target": [], "time": []}, "edge": {"target": [], "time": []}}, "mouseover": {"state": {"target": [], "time": []}, "edge": {"target": [], "time": []}}, "mouseout": {"state": {"target": ["19", "12", "0"], "time": [930, 1374, 14172]}, "edge": {"target": [], "time": []}}}, "displayed_time": "17.79", "trialTime": 19273, "trial_type": "mouselab-mdp", "trial_index": 46, "time_elapsed": 1812428, "internal_node_id": "0.0-6.0-1.0-37.0"}}, {"uniqueid": "w50564630:a93874049", "current_trial": 47, "dateTime": 1693582147633, "trialdata": {"revealed_states": [], "clicked_states": [], "num_clicks_accrued": [0, 0, 0, 0, 0, 0, 0, 0, 0, 0, 0, 0, 0], "stateRewards": ["", 2, -4, -4, 13, -80, 62, 13, -11, 57, -13, -44, 1, 4, 3, -4, -29, -88, 15, 16, -58, 68, -45, -1, -3, -1, -9, -44, -86, -19, -7, -36, 59, 66], "withholdReward": false, "trial_id": "mdp_trial_39", "block": "test", "trialIndex": 40, "score": -21, "costs": 0, "simulationMode": [null, null, null, null, null], "rewards": [1, 4, 3, 16, -45], "path": ["0", "0", "12", "13", "14", "19", "22"], "rt": [671, 177, 170, 204, 720], "actions": ["right", "right", "right", "down", "left"], "actionTimes": [4764, 5478, 6170, 6941, 8215], "queries": {"click": {"state": {"target": [], "time": []}, "edge": {"target": [], "time": []}}, "mouseover": {"state": {"target": [], "time": []}, "edge": {"target": [], "time": []}}, "mouseout": {"state": {"target": ["23", "0"], "time": [1234, 9793]}, "edge": {"target": [], "time": []}}}, "displayed_time": "18.10", "trialTime": 19800, "trial_type": "mouselab-mdp", "trial_index": 47, "time_elapsed": 1836457, "internal_node_id": "0.0-6.0-1.0-38.0"}}, {"uniqueid": "w50564630:a93874049", "current_trial": 48, "dateTime": 1693582173758, "trialdata": {"revealed_states": [], "clicked_states": [], "num_clicks_accrued": [0, 0, 0, 0, 0, 0, 0, 0, 0, 0, 0, 0, 0], "stateRewards": ["", -1, -4, -6, -15, 21, -67, -63, 9, 51, 69, -14, -1, 3, 8, -8, 39, 72, 63, 15, 19, 47, 15, 1, 4, 5, 16, -18, 34, 35, -14, -80, 40, 1], "withholdReward": false, "trial_id": "mdp_trial_40", "block": "test", "trialIndex": 41, "score": 41, "costs": 0, "simulationMode": [null, null, null, null, null], "rewards": [-1, 3, 8, -8, 39], "path": ["0", "0", "12", "13", "14", "15", "16"], "rt": [2554, 20, 34, 274, 73], "actions": ["right", "right", "right", "up", "up"], "actionTimes": [6764, 7361, 7949, 8756, 9360], "queries": {"click": {"state": {"target": [], "time": []}, "edge": {"target": [], "time": []}}, "mouseover": {"state": {"target": [], "time": []}, "edge": {"target": [], "time": []}}, "mouseout": {"state": {"target": ["15", "18", "1", "0"], "time": [1284, 1356, 1781, 19627]}, "edge": {"target": [], "time": []}}}, "displayed_time": "18.22", "trialTime": 22688, "trial_type": "mouselab-mdp", "trial_index": 48, "time_elapsed": 1862581, "internal_node_id": "0.0-6.0-1.0-39.0"}}, {"uniqueid": "w50564630:a93874049", "current_trial": 49, "dateTime": 1693582330201, "trialdata": {"rt": 155972, "response": {"Q0": "$-88 to $88", "Q1": "$-32 to $32", "Q2": "$-88 to $88", "Q3": "The cost for clicking on nodes varied between nodes.", "Q4": "Very motivated"}, "question_order": [0, 1, 2, 3, 4], "trial_id": "final_quiz_control", "trial_type": "survey-multi-choice", "trial_index": 49, "time_elapsed": 2019015, "internal_node_id": "0.0-6.0-2.0"}}, {"uniqueid": "w50564630:a93874049", "current_trial": 50, "dateTime": 1693582468142, "trialdata": {"rt": 137262, "response": {"Q0": "I used the same pattern most of the time ", "Q1": "No", "Q2": "It was very difficult because I relied mostly on luck"}, "trial_id": "self_report_control", "trial_type": "survey-text", "trial_index": 50, "time_elapsed": 2156972, "internal_node_id": "0.0-6.0-3.0"}}, {"uniqueid": "w50564630:a93874049", "current_trial": 51, "dateTime": 1693582512297, "trialdata": {"rt": 43961, "response": {"gender": "female", "age": "22", "colorblind": "0", "effort": "0"}, "trial_type": "survey-html-form", "trial_index": 51, "time_elapsed": 2201127, "internal_node_id": "0.0-6.0-4.0"}}, {"uniqueid": "w50564630:a93874049", "current_trial": 52, "dateTime": 1693582636001, "trialdata": {"rt": 123622, "response": {"Q0": "No I read the instruction very well", "Q1": "No, I have never done something like this before", "Q2": ""}, "trial_type": "survey-text", "trial_index": 52, "time_elapsed": 2324828, "internal_node_id": "0.0-6.0-5.0"}}, {"uniqueid": "w50564630:a93874049", "current_trial": 53, "dateTime": 1693582721225, "trialdata": {"rt": 85124, "stimulus": "<h1>Completion Code Instructions (1/2)</h1>\n<br><br><br><br>\nYou have reached the end of the experiment! The completion code consists of two parts: (1) a code with 2 characters (2) a code with 6 characters. On this page, you will receive the second part of the code. The first part of the completion code will be on the next page.\n<br><br>\nThe second part of your completion code is: <b>EWEK22</b>\n<br><br>\nPlease note this down. Then, press 'Next' in order to find the first part of your completion code. Once the data has been saved, you will receive this code either in this window or in the original browser window where you started the experiment.\n <br><br>\n<h2 style='color: red;'>Note: this is <strong>NOT</strong> the full completion code. Copy this down and click 'Next' to get the full completion code on the next page.</h2>", "response": 0, "trial_type": "html-button-response", "trial_index": 53, "time_elapsed": 2410054, "internal_node_id": "0.0-6.0-6.0"}}, {"uniqueid": "w50564630:a93874049", "current_trial": 54, "dateTime": 1693582723388, "trialdata": {"success": true, "trial_type": "fullscreen", "trial_index": 54, "time_elapsed": 2412218, "internal_node_id": "0.0-7.0"}}], "questiondata": {"params": {"CODE": "C6DMOQA6", "MIN_TIME": 14, "inspectCost": 1, "startTime": "Fri Sep 01 2023 16:58:26 GMT+0200 (South Africa Standard Time)", "bonusRate": 0.002, "variance": "1_2_4_8_44", "branching": "31123"}, "final_score": 292}, "eventdata": [{"eventtype": "initialized", "value": null, "timestamp": 1693580305111, "interval": 0}, {"eventtype": "window_resize", "value": [1024, 654], "timestamp": 1693580305111, "interval": 0}, {"eventtype": "window_resize", "value": [1024, 654], "timestamp": 1693580305979, "interval": 868}, {"eventtype": "window_resize", "value": [1366, 768], "timestamp": 1693580319436, "interval": 13457}], "useragent": "Mozilla/5.0 (Windows NT 10.0; Win64; x64) AppleWebKit/537.36 (KHTML, like Gecko) Chrome/116.0.0.0 Safari/537.36", "mode": "live", "id": "w50564630:a93874049", "status": "user data saved", "Beginhit": "2023-09-01 14:58:07.720421", "Beginexp": "2023-09-01 14:58:40.862721", "Endhit": "2023-09-01 15:38:51.707342", "psiturkStatus": 3, "browser": "<redacted>", "platform": "windows", "language": "en-GB"}