{"condition": 0, "counterbalance": 0, "assignmentId": "a83183404", "workerId": "w32799476", "hitId": "h24553298", "currenttrial": 61, "bonus": 0, "data": [{"uniqueid": "w32799476:a83183404", "current_trial": 0, "dateTime": 1693660288720, "trialdata": {"success": true, "trial_type": "fullscreen", "trial_index": 0, "time_elapsed": 26187, "internal_node_id": "0.0-0.0"}}, {"uniqueid": "w32799476:a83183404", "current_trial": 1, "dateTime": 1693660298368, "trialdata": {"view_history": [{"page_index": 0, "viewing_time": 9628}], "rt": 9629, "trial_id": "exp_instructions_control", "trial_type": "instructions", "trial_index": 1, "time_elapsed": 35837, "internal_node_id": "0.0-1.0"}}, {"uniqueid": "w32799476:a83183404", "current_trial": 2, "dateTime": 1693660596490, "trialdata": {"view_history": [{"page_index": 0, "viewing_time": 62680}, {"page_index": 1, "viewing_time": 111625}, {"page_index": 0, "viewing_time": 30221}, {"page_index": 1, "viewing_time": 10683}, {"page_index": 2, "viewing_time": 34067}, {"page_index": 3, "viewing_time": 48841}], "rt": 298117, "trial_id": "mouselab_instructions_1_control", "trial_type": "instructions", "trial_index": 2, "time_elapsed": 333959, "internal_node_id": "0.0-2.0-1.0"}}, {"uniqueid": "w32799476:a83183404", "current_trial": 3, "dateTime": 1693660705192, "trialdata": {"revealed_states": [], "clicked_states": ["24", "25", "26", "3", "14", "19", "12", "1", "2", "10", "11", "30", "32", "33", "29", "27", "28", "9", "8", "5", "4", "7", "6", "18", "15", "16", "17", "22", "20", "21", "31", "23", "13"], "num_clicks_accrued": [0, 0, 0, 0, 0, 0, 0, 0, 0, 0, 0, 0, 0], "stateRewards": ["", -10, 10, -10, -10, -10, -10, -10, 10, 10, -10, 10, -10, 10, 10, -10, -10, -10, -10, -10, -10, 10, 10, -10, 10, -10, 10, 10, -10, 10, -10, -10, 10, -10], "withholdReward": false, "trial_id": "practice_1", "block": "test", "trialIndex": 0, "score": -3, "costs": -16.5, "simulationMode": [null, null, null, null, null], "rewards": [-10, 10, 10, -10, 10], "path": ["0", "0", "12", "13", "14", "19", "21"], "rt": [76424, 536, 12466, 667, 353], "actions": ["right", "right", "right", "down", "down"], "actionTimes": [80492, 81610, 94625, 95833, 96736], "queries": {"click": {"state": {"target": ["24", "25", "26", "3", "14", "19", "12", "1", "2", "10", "11", "30", "32", "33", "29", "27", "28", "9", "8", "5", "4", "7", "6", "18", "15", "16", "17", "22", "20", "21", "31", "23", "13"], "time": [8353, 11478, 14781, 18138, 21308, 23798, 27116, 29221, 30785, 32476, 33971, 37299, 38858, 40571, 42461, 44315, 46211, 49165, 50611, 52271, 53514, 54644, 55895, 57339, 59290, 60498, 61762, 64293, 65984, 67533, 69128, 70809, 76876]}, "edge": {"target": [], "time": []}}, "mouseover": {"state": {"target": ["23", "2", "1", "23", "24", "25", "26", "23", "2", "3", "4", "4", "4", "7", "15", "14", "13", "19", "21", "22", "0", "12", "1", "2", "10", "8", "11", "25", "30", "32", "33", "29", "27", "28", "10", "11", "9", "8", "5", "4", "7", "6", "18", "15", "16", "17", "20", "22", "19", "20", "21", "31", "23", "33", "26", "1", "0", "18", "13"], "time": [5290, 6893, 7067, 7698, 7804, 10222, 13631, 16625, 17156, 17330, 19237, 19607, 19902, 20300, 20820, 20924, 22718, 23297, 24617, 25031, 26508, 26891, 28680, 30159, 31598, 33417, 33607, 35283, 36846, 38273, 40105, 41494, 43431, 45569, 47415, 47534, 48621, 49839, 51833, 53022, 54040, 55317, 56792, 57829, 59669, 61264, 62321, 63815, 65027, 65166, 67002, 68310, 70406, 71948, 72594, 73522, 73875, 75833, 76383]}, "edge": {"target": [], "time": []}}, "mouseout": {"state": {"target": ["0", "0", "23", "2", "1", "23", "24", "25", "26", "23", "2", "3", "4", "4", "4", "7", "15", "14", "13", "19", "21", "22", "0", "12", "1", "2", "10", "8", "11", "25", "30", "32", "33", "29", "27", "28", "10", "11", "9", "8", "5", "4", "7", "6", "18", "15", "16", "17", "20", "22", "19", "20", "21", "31", "23", "33", "26", "1", "0", "18", "13", "0", "13", "12"], "time": [905, 4317, 6384, 6980, 7250, 7792, 10113, 13488, 16534, 16942, 17240, 18227, 19352, 19790, 20217, 20458, 20910, 22599, 23188, 24518, 25018, 25343, 26597, 28263, 30060, 31584, 33247, 33594, 34730, 36764, 38169, 39981, 41320, 43331, 45478, 47336, 47521, 48515, 49819, 51577, 52925, 54026, 55218, 56600, 57815, 59544, 61173, 62224, 63704, 65013, 65151, 66906, 68224, 70314, 71554, 72501, 72953, 73607, 75528, 76306, 79090, 84946, 93610, 104799]}, "edge": {"target": [], "time": []}}}, "displayed_time": "97.28", "trialTime": 106508, "trial_type": "mouselab-mdp", "trial_index": 3, "time_elapsed": 442659, "internal_node_id": "0.0-2.0-2.0-0.0"}}, {"uniqueid": "w32799476:a83183404", "current_trial": 4, "dateTime": 1693660747342, "trialdata": {"revealed_states": [], "clicked_states": ["29", "26", "27"], "num_clicks_accrued": [0, 0, 0, 0, 0, 0, 0, 0, 0, 0, 0, 0, 0], "stateRewards": ["", 10, 10, -10, -10, -10, -10, -10, -10, 10, -10, -10, 10, 10, 10, -10, 10, -10, 10, 10, -10, -10, -10, 10, -10, -10, 10, 10, -10, -10, -10, 10, -10, -10], "withholdReward": false, "trial_id": "practice_2", "block": "test", "trialIndex": 1, "score": 12, "costs": -1.5, "simulationMode": [null, null, null, null, null], "rewards": [10, -10, -10, 10, 10], "path": ["0", "0", "23", "24", "25", "26", "27"], "rt": [8029, 127, 450, 2217, 6161], "actions": ["left", "left", "left", "up", "up"], "actionTimes": [12349, 13137, 14122, 16892, 23634], "queries": {"click": {"state": {"target": ["29", "26", "27"], "time": [5960, 8615, 10254]}, "edge": {"target": [], "time": []}}, "mouseover": {"state": {"target": ["23", "26", "29", "25", "26", "26", "27"], "time": [5018, 5306, 5669, 6388, 7188, 7483, 9447]}, "edge": {"target": [], "time": []}}, "mouseout": {"state": {"target": ["22", "0", "23", "26", "29", "25", "26", "26", "27"], "time": [2759, 5006, 5100, 5394, 6374, 6480, 7276, 9341, 11407]}, "edge": {"target": [], "time": []}}}, "displayed_time": "24.19", "trialTime": 40883, "trial_type": "mouselab-mdp", "trial_index": 4, "time_elapsed": 484805, "internal_node_id": "0.0-2.0-2.0-1.0"}}, {"uniqueid": "w32799476:a83183404", "current_trial": 5, "dateTime": 1693660778628, "trialdata": {"view_history": [{"page_index": 0, "viewing_time": 26223}, {"page_index": 1, "viewing_time": 5043}], "rt": 31268, "trial_id": "mouselab_instructions_2_control", "trial_type": "instructions", "trial_index": 5, "time_elapsed": 516097, "internal_node_id": "0.0-2.0-3.0"}}, {"uniqueid": "w32799476:a83183404", "current_trial": 6, "dateTime": 1693660833333, "trialdata": {"rt": 54689, "response": {"Q0": "The cost for clicking on nodes may vary between nodes.", "Q1": "The better I perform the higher my bonus will be.", "Q2": "No, the amount of cash at each node of the web may be different each time.", "Q3": "To get the highest total score.", "Q4": "Any time during the round.", "Q5": "3 seconds"}, "question_order": [0, 1, 2, 3, 4, 5], "correct": {"Q0": "The cost for clicking on nodes may vary between nodes.", "Q1": "The better I perform the higher my bonus will be.", "Q2": "No, the amount of cash at each node of the web may be different each time.", "Q3": "To get the highest total score.", "Q4": "Only before moving the spider.", "Q5": "3 seconds"}, "trial_id": "mouselab_quiz_control", "trial_type": "survey-multi-choice", "trial_index": 6, "time_elapsed": 570802, "internal_node_id": "0.0-2.0-4.0"}}, {"uniqueid": "w32799476:a83183404", "current_trial": 7, "dateTime": 1693660838259, "trialdata": {"success": true, "trial_type": "fullscreen", "trial_index": 7, "time_elapsed": 575727, "internal_node_id": "0.0-2.1-0.1-0.1"}}, {"uniqueid": "w32799476:a83183404", "current_trial": 8, "dateTime": 1693660864438, "trialdata": {"view_history": [{"page_index": 0, "viewing_time": 9588}, {"page_index": 1, "viewing_time": 4284}, {"page_index": 2, "viewing_time": 9291}, {"page_index": 3, "viewing_time": 3002}], "rt": 26166, "trial_id": "mouselab_instructions_1_control", "trial_type": "instructions", "trial_index": 8, "time_elapsed": 601907, "internal_node_id": "0.0-2.1-1.1"}}, {"uniqueid": "w32799476:a83183404", "current_trial": 9, "dateTime": 1693660889542, "trialdata": {"revealed_states": [], "clicked_states": ["27", "32"], "num_clicks_accrued": [0, 0, 0, 0, 0, 0, 0, 0, 0, 0, 0, 0, 0], "stateRewards": ["", -10, 10, -10, -10, -10, -10, -10, 10, 10, -10, 10, -10, 10, 10, -10, -10, -10, -10, -10, -10, 10, 10, -10, 10, -10, 10, 10, -10, 10, -10, -10, 10, -10], "withholdReward": false, "trial_id": "practice_1", "block": "test", "trialIndex": 2, "score": 12.5, "costs": -1, "simulationMode": [null, null, null, null, null], "rewards": [-10, 10, -10, 10, 10], "path": ["0", "0", "23", "24", "25", "26", "27"], "rt": [10638, 148, 58, 592, 170], "actions": ["left", "left", "left", "up", "up"], "actionTimes": [14445, 15154, 15788, 16939, 17678], "queries": {"click": {"state": {"target": ["27", "32"], "time": [6265, 8361]}, "edge": {"target": [], "time": []}}, "mouseover": {"state": {"target": ["23", "24", "26", "27", "26", "25", "32", "30", "25", "23", "14", "13", "24", "0"], "time": [4880, 4988, 5370, 5863, 7005, 7363, 7832, 9673, 10712, 11664, 12425, 12678, 12848, 13193]}, "edge": {"target": [], "time": []}}, "mouseout": {"state": {"target": ["0", "23", "24", "26", "27", "26", "25", "32", "30", "25", "23", "14", "13", "24", "0", "12"], "time": [2248, 4973, 5064, 5775, 6989, 7194, 7555, 9571, 10575, 11218, 12332, 12665, 12766, 13074, 22020, 22105]}, "edge": {"target": [], "time": []}}}, "displayed_time": "18.25", "trialTime": 23654, "trial_type": "mouselab-mdp", "trial_index": 9, "time_elapsed": 627005, "internal_node_id": "0.0-2.1-2.1-0.1"}}, {"uniqueid": "w32799476:a83183404", "current_trial": 10, "dateTime": 1693660918248, "trialdata": {"revealed_states": [], "clicked_states": ["3", "8", "9", "29", "27"], "num_clicks_accrued": [0, 0, 0, 0, 0, 0, 0, 0, 0, 0, 0, 0, 0], "stateRewards": ["", 10, 10, -10, -10, -10, -10, -10, -10, 10, -10, -10, 10, 10, 10, -10, 10, -10, 10, 10, -10, -10, -10, 10, -10, -10, 10, 10, -10, -10, -10, 10, -10, -10], "withholdReward": false, "trial_id": "practice_2", "block": "test", "trialIndex": 3, "score": 11, "costs": -2.5, "simulationMode": [null, null, null, null, null], "rewards": [10, -10, -10, 10, 10], "path": ["0", "0", "23", "24", "25", "26", "27"], "rt": [10996, 59, 127, 1831, 3372], "actions": ["left", "left", "left", "up", "up"], "actionTimes": [14748, 15344, 16019, 18388, 22657], "queries": {"click": {"state": {"target": ["3", "8", "9", "29", "27"], "time": [5421, 7012, 8258, 10373, 11595]}, "edge": {"target": [], "time": []}}, "mouseover": {"state": {"target": ["2", "3", "2", "8", "9", "29", "26", "26", "27", "10"], "time": [4588, 4871, 5847, 6736, 7873, 9918, 10959, 11227, 11343, 13106]}, "edge": {"target": [], "time": []}}, "mouseout": {"state": {"target": ["31", "0", "2", "3", "2", "8", "9", "3", "29", "29", "26", "26", "27", "10", "22"], "time": [2245, 4479, 4778, 5833, 5947, 7771, 8345, 9090, 10466, 10943, 11055, 11332, 12516, 13201, 27129]}, "edge": {"target": [], "time": []}}}, "displayed_time": "23.23", "trialTime": 27408, "trial_type": "mouselab-mdp", "trial_index": 10, "time_elapsed": 655711, "internal_node_id": "0.0-2.1-2.1-1.1"}}, {"uniqueid": "w32799476:a83183404", "current_trial": 11, "dateTime": 1693660944390, "trialdata": {"view_history": [{"page_index": 0, "viewing_time": 19367}, {"page_index": 1, "viewing_time": 6751}], "rt": 26119, "trial_id": "mouselab_instructions_2_control", "trial_type": "instructions", "trial_index": 11, "time_elapsed": 681859, "internal_node_id": "0.0-2.1-3.1"}}, {"uniqueid": "w32799476:a83183404", "current_trial": 12, "dateTime": 1693660984294, "trialdata": {"rt": 39892, "response": {"Q0": "The cost for clicking on nodes may vary between nodes.", "Q1": "The better I perform the higher my bonus will be.", "Q2": "No, the amount of cash at each node of the web may be different each time.", "Q3": "To get the highest total score.", "Q4": "Only before moving the spider.", "Q5": "3 seconds"}, "question_order": [0, 1, 2, 3, 4, 5], "correct": {"Q0": "The cost for clicking on nodes may vary between nodes.", "Q1": "The better I perform the higher my bonus will be.", "Q2": "No, the amount of cash at each node of the web may be different each time.", "Q3": "To get the highest total score.", "Q4": "Only before moving the spider.", "Q5": "3 seconds"}, "trial_id": "mouselab_quiz_control", "trial_type": "survey-multi-choice", "trial_index": 12, "time_elapsed": 721763, "internal_node_id": "0.0-2.1-4.1"}}, {"uniqueid": "w32799476:a83183404", "current_trial": 13, "dateTime": 1693660990471, "trialdata": {"rt": 6150, "response": {"Q0": "No"}, "question_order": [0], "trial_id": "repeat_check", "trial_type": "survey-multi-choice", "trial_index": 13, "time_elapsed": 727939, "internal_node_id": "0.0-4.0-0.0"}}, {"uniqueid": "w32799476:a83183404", "current_trial": 14, "dateTime": 1693660998940, "trialdata": {"rt": 8446, "stimulus": "\n<h1> Get ready to start the game! </h1>\n\nThank you for reading the instructions. Get ready start with the 40 rounds of this game.\n<br><br>\nIf you need to take a break, feel free to take one after the end of a round, before continuing to the next one.\n<br><br>\nRemember, the more money the spider gets, the bigger your bonus will be!\n<br><br>\n<div style='text-align: center;'>Press <code>space</code> to begin.</div>\n\n<br><br>\n(If, at any point, the <code>space</code> key does not take you to the next page, click once on the text and try again.)", "response": " ", "trial_id": "mdp_ready", "trial_type": "html-keyboard-response", "trial_index": 14, "time_elapsed": 736408, "internal_node_id": "0.0-6.0-0.0"}}, {"uniqueid": "w32799476:a83183404", "current_trial": 15, "dateTime": 1693661031294, "trialdata": {"revealed_states": [], "clicked_states": ["9", "26", "25", "30", "31", "14", "15"], "num_clicks_accrued": [0, 0, 0, 0, 0, 0, 0, 0, 0, 0, 0, 0, 0], "stateRewards": ["", -1, 4, -6, -5, -22, -38, -38, -2, -56, 88, 14, -1, -1, -7, -6, 61, -60, 21, 11, 57, 31, -30, -2, -2, 6, -9, -44, -70, -44, -15, 34, 16, -78], "withholdReward": false, "trial_id": "mdp_trial_1", "block": "test", "trialIndex": 4, "score": 11.2, "costs": -9.8, "simulationMode": [null, null, null, null, null], "rewards": [-2, -2, 6, -15, 34], "path": ["0", "0", "23", "24", "25", "30", "31"], "rt": [18620, 134, 60, 225, 965], "actions": ["left", "left", "left", "down", "right"], "actionTimes": [20739, 21435, 22084, 22851, 24411], "queries": {"click": {"state": {"target": ["9", "26", "25", "30", "31", "14", "15"], "time": [3898, 5631, 7534, 9317, 13046, 15180, 16809]}, "edge": {"target": [], "time": []}}, "mouseover": {"state": {"target": ["2", "8", "9", "8", "26", "25", "25", "31", "30", "32", "31", "12", "14", "15", "24", "31"], "time": [2921, 3191, 3391, 4342, 4844, 6435, 6805, 8466, 8885, 11222, 12571, 14131, 14819, 16469, 17909, 18434]}, "edge": {"target": [], "time": []}}, "mouseout": {"state": {"target": ["0", "2", "8", "9", "9", "8", "26", "25", "25", "31", "30", "32", "31", "12", "14", "15", "24", "31"], "time": [2831, 3102, 3281, 3988, 4329, 4750, 6421, 6533, 8365, 8786, 11131, 12231, 14116, 14533, 16277, 17514, 18018, 29498]}, "edge": {"target": [], "time": []}}}, "displayed_time": "24.97", "trialTime": 31002, "trial_type": "mouselab-mdp", "trial_index": 15, "time_elapsed": 768760, "internal_node_id": "0.0-6.0-1.0-0.0"}}, {"uniqueid": "w32799476:a83183404", "current_trial": 16, "dateTime": 1693661055018, "trialdata": {"revealed_states": [], "clicked_states": ["4", "5"], "num_clicks_accrued": [0, 0, 0, 0, 0, 0, 0, 0, 0, 0, 0, 0, 0], "stateRewards": ["", 1, 2, 7, 13, 88, -71, 27, 3, 60, 5, -53, -2, 2, -6, -1, -30, 79, 47, -4, -14, 46, 68, 1, 1, 8, 10, -14, 86, 48, -11, -67, -44, 5], "withholdReward": false, "trial_id": "mdp_trial_2", "block": "test", "trialIndex": 5, "score": 108.2, "costs": -2.8, "simulationMode": [null, null, null, null, null], "rewards": [1, 2, 7, 13, 88], "path": ["0", "0", "1", "2", "3", "4", "5"], "rt": [8706, 78, 181, 268, 818], "actions": ["up", "up", "up", "right", "up"], "actionTimes": [11676, 12365, 13187, 13995, 15383], "queries": {"click": {"state": {"target": ["4", "5"], "time": [4964, 8434]}, "edge": {"target": [], "time": []}}, "mouseover": {"state": {"target": ["1", "2", "3", "4", "6", "5"], "time": [3821, 4016, 4283, 4503, 7559, 7970]}, "edge": {"target": [], "time": []}}, "mouseout": {"state": {"target": ["22", "12", "0", "1", "2", "3", "4", "6"], "time": [1180, 1476, 3726, 3925, 4139, 4411, 7469, 7832]}, "edge": {"target": [], "time": []}}}, "displayed_time": "16.97", "trialTime": 22404, "trial_type": "mouselab-mdp", "trial_index": 16, "time_elapsed": 792483, "internal_node_id": "0.0-6.0-1.0-1.0"}}, {"uniqueid": "w32799476:a83183404", "current_trial": 17, "dateTime": 1693661082537, "trialdata": {"revealed_states": [], "clicked_states": ["9", "11", "29", "32", "21"], "num_clicks_accrued": [0, 0, 0, 0, 0, 0, 0, 0, 0, 0, 0, 0, 0], "stateRewards": ["", 1, 3, 3, -10, 52, 68, 59, 12, 7, 49, 21, -2, -3, -4, -2, -2, 63, 63, -4, 44, 43, -76, -2, -3, -6, 13, 48, 36, 12, -5, -36, -33, -11], "withholdReward": false, "trial_id": "mdp_trial_3", "block": "test", "trialIndex": 6, "score": 23, "costs": -7, "simulationMode": [null, null, null, null, null], "rewards": [-2, -3, -4, -4, 43], "path": ["0", "0", "12", "13", "14", "19", "21"], "rt": [16310, 58, 54, 342, 154], "actions": ["right", "right", "right", "down", "down"], "actionTimes": [18989, 19644, 20255, 21141, 21895], "queries": {"click": {"state": {"target": ["9", "11", "29", "32", "21"], "time": [4085, 6546, 9454, 12747, 15670]}, "edge": {"target": [], "time": []}}, "mouseover": {"state": {"target": ["9", "11", "11", "26", "29", "30", "32", "21", "20"], "time": [3680, 5356, 5728, 8858, 9065, 12075, 12359, 15056, 16805]}, "edge": {"target": [], "time": []}}, "mouseout": {"state": {"target": ["5", "4", "10", "0", "0", "9", "11", "11", "26", "29", "30", "32", "21"], "time": [406, 864, 1154, 1230, 3324, 5341, 5552, 7468, 8979, 11863, 12159, 14958, 16699]}, "edge": {"target": [], "time": []}}}, "displayed_time": "22.50", "trialTime": 26161, "trial_type": "mouselab-mdp", "trial_index": 17, "time_elapsed": 820002, "internal_node_id": "0.0-6.0-1.0-2.0"}}, {"uniqueid": "w32799476:a83183404", "current_trial": 18, "dateTime": 1693661118061, "trialdata": {"revealed_states": [], "clicked_states": ["11", "6", "17", "16", "20", "21", "32", "33"], "num_clicks_accrued": [0, 0, 0, 0, 0, 0, 0, 0, 0, 0, 0, 0, 0], "stateRewards": ["", -2, 2, -5, -6, 10, -66, -58, -10, -11, -63, -70, -1, -4, -5, 7, 66, -64, -43, -3, 45, -37, 4, -2, -2, -6, -4, -30, 33, 43, 15, -32, -65, -59], "withholdReward": false, "trial_id": "mdp_trial_4", "block": "test", "trialIndex": 7, "score": 51.8, "costs": -11.200000000000001, "simulationMode": [null, null, null, null, null], "rewards": [-1, -4, -5, 7, 66], "path": ["0", "0", "12", "13", "14", "15", "16"], "rt": [25685, 57, 53, 585, 54], "actions": ["right", "right", "right", "up", "up"], "actionTimes": [28087, 28775, 29449, 30571, 31187], "queries": {"click": {"state": {"target": ["11", "6", "17", "16", "20", "21", "32", "33"], "time": [3874, 7777, 10617, 13303, 16240, 18995, 21822, 24671]}, "edge": {"target": [], "time": []}}, "mouseover": {"state": {"target": ["11", "8", "3", "6", "18", "17", "16", "20", "21", "32", "33"], "time": [3541, 6248, 7163, 7457, 9155, 10164, 12893, 15543, 17046, 21231, 24105]}, "edge": {"target": [], "time": []}}, "mouseout": {"state": {"target": ["20", "14", "0", "0", "11", "8", "3", "6", "18", "17", "16", "20", "21", "32", "33"], "time": [764, 835, 1114, 3145, 6148, 7145, 7250, 9142, 9990, 12802, 14949, 16942, 21104, 24011, 26866]}, "edge": {"target": [], "time": []}}}, "displayed_time": "31.74", "trialTime": 34205, "trial_type": "mouselab-mdp", "trial_index": 18, "time_elapsed": 855526, "internal_node_id": "0.0-6.0-1.0-3.0"}}, {"uniqueid": "w32799476:a83183404", "current_trial": 19, "dateTime": 1693661138516, "trialdata": {"revealed_states": [], "clicked_states": ["27"], "num_clicks_accrued": [0, 0, 0, 0, 0, 0, 0, 0, 0, 0, 0, 0, 0], "stateRewards": ["", 1, -1, 8, -3, 38, 85, -20, -4, 8, 23, 73, 2, -4, 6, -13, 44, 7, -28, -11, -77, 45, -69, 1, -1, -7, -11, 75, -51, -87, 7, 36, -53, -26], "withholdReward": false, "trial_id": "mdp_trial_5", "block": "test", "trialIndex": 8, "score": 55.6, "costs": -1.4, "simulationMode": [null, null, null, null, null], "rewards": [1, -1, -7, -11, 75], "path": ["0", "0", "23", "24", "25", "26", "27"], "rt": [4478, 61, 99, 480, 66], "actions": ["left", "left", "left", "up", "up"], "actionTimes": [7823, 8431, 9102, 10193, 10847], "queries": {"click": {"state": {"target": ["27"], "time": [4689]}, "edge": {"target": [], "time": []}}, "mouseover": {"state": {"target": ["27", "28"], "time": [4401, 6369]}, "edge": {"target": [], "time": []}}, "mouseout": {"state": {"target": ["23", "0", "27", "28", "18"], "time": [1236, 4065, 5793, 17087, 17437]}, "edge": {"target": [], "time": []}}}, "displayed_time": "17.35", "trialTime": 19048, "trial_type": "mouselab-mdp", "trial_index": 19, "time_elapsed": 875983, "internal_node_id": "0.0-6.0-1.0-4.0"}}, {"uniqueid": "w32799476:a83183404", "current_trial": 20, "dateTime": 1693661181242, "trialdata": {"revealed_states": [], "clicked_states": ["9", "5", "6", "11", "27", "29", "28", "33", "31", "32"], "num_clicks_accrued": [0, 0, 0, 0, 0, 0, 0, 0, 0, 0, 0, 0, 0], "stateRewards": ["", 2, 3, 6, -5, -74, -53, 17, -12, 46, 44, 18, -2, 4, 1, -8, 22, -23, -49, 9, -45, 55, 81, 1, -1, -7, -16, -83, -71, -45, 2, 51, 82, 61], "withholdReward": false, "trial_id": "mdp_trial_6", "block": "test", "trialIndex": 9, "score": 63, "costs": -14.000000000000002, "simulationMode": [null, null, null, null, null], "rewards": [1, -1, -7, 2, 82], "path": ["0", "0", "23", "24", "25", "30", "32"], "rt": [27762, 54, 55, 103, 57], "actions": ["left", "left", "left", "down", "down"], "actionTimes": [34499, 35131, 35753, 36455, 37101], "queries": {"click": {"state": {"target": ["9", "5", "6", "11", "27", "29", "28", "33", "31", "32"], "time": [8271, 10608, 13056, 15863, 18884, 21658, 23899, 26122, 28762, 31060]}, "edge": {"target": [], "time": []}}, "mouseover": {"state": {"target": ["3", "9", "5", "6", "6", "11", "27", "29", "26", "28", "33", "31", "32", "21"], "time": [7724, 7911, 9025, 11189, 11579, 15492, 18503, 20109, 22627, 22745, 24788, 26949, 29686, 31853]}, "edge": {"target": [], "time": []}}, "mouseout": {"state": {"target": ["17", "18", "0", "3", "9", "5", "6", "6", "11", "27", "27", "29", "26", "28", "33", "31", "32", "21"], "time": [3074, 5319, 7380, 7817, 8925, 11176, 11292, 15258, 18267, 18976, 19618, 22611, 22730, 24685, 26758, 29557, 31751, 33435]}, "edge": {"target": [], "time": []}}}, "displayed_time": "37.65", "trialTime": 41388, "trial_type": "mouselab-mdp", "trial_index": 20, "time_elapsed": 918707, "internal_node_id": "0.0-6.0-1.0-5.0"}}, {"uniqueid": "w32799476:a83183404", "current_trial": 21, "dateTime": 1693661578315, "trialdata": {"revealed_states": [], "clicked_states": ["31", "32", "33", "29", "27"], "num_clicks_accrued": [0, 0, 0, 0, 0, 0, 0, 0, 0, 0, 0, 0, 0], "stateRewards": ["", 2, -1, 5, 6, 10, 86, 55, 10, -45, 63, -71, 1, -2, 5, -8, -50, -72, 36, 15, 61, 12, 33, -1, -4, 6, 5, 79, -56, -21, -16, -87, 60, -81], "withholdReward": false, "trial_id": "mdp_trial_7", "block": "test", "trialIndex": 10, "score": 78, "costs": -7, "simulationMode": [null, null, null, null, null], "rewards": [-1, -4, 6, 5, 79], "path": ["0", "0", "23", "24", "25", "26", "27"], "rt": [14961, 57, 77, 489, 59], "actions": ["left", "left", "left", "up", "up"], "actionTimes": [20976, 21618, 22251, 23342, 23984], "queries": {"click": {"state": {"target": ["31", "32", "33", "29", "27"], "time": [7404, 9571, 11848, 15234, 17431]}, "edge": {"target": [], "time": []}}, "mouseover": {"state": {"target": ["31", "32", "33", "29", "27", "28"], "time": [7074, 8234, 10237, 14657, 16173, 18423]}, "edge": {"target": [], "time": []}}, "mouseout": {"state": {"target": ["32", "12", "0", "31", "32", "33", "29", "27", "28", "24", "15", "8", "3"], "time": [1753, 1948, 6690, 8131, 10136, 14236, 16057, 18317, 390721, 391909, 392059, 393173, 393302]}, "edge": {"target": [], "time": []}}}, "displayed_time": "24.55", "trialTime": 395694, "trial_type": "mouselab-mdp", "trial_index": 21, "time_elapsed": 1315781, "internal_node_id": "0.0-6.0-1.0-6.0"}}, {"uniqueid": "w32799476:a83183404", "current_trial": 22, "dateTime": 1693661599570, "trialdata": {"revealed_states": [], "clicked_states": ["9"], "num_clicks_accrued": [0, 0, 0, 0, 0, 0, 0, 0, 0, 0, 0, 0, 0], "stateRewards": ["", 2, -1, -1, 7, 11, -40, -22, -2, 69, 37, 8, -2, 4, -8, -12, -2, -72, -3, -12, 17, 63, 12, 1, 3, -7, 6, 25, 61, 61, -9, 28, -17, 27], "withholdReward": false, "trial_id": "mdp_trial_8", "block": "test", "trialIndex": 11, "score": 65.6, "costs": -1.4, "simulationMode": [null, null, null, null, null], "rewards": [2, -1, -1, -2, 69], "path": ["0", "0", "1", "2", "3", "8", "9"], "rt": [7513, 58, 58, 57, 205], "actions": ["up", "up", "up", "left", "up"], "actionTimes": [10103, 10755, 11375, 12021, 12782], "queries": {"click": {"state": {"target": ["9"], "time": [4264]}, "edge": {"target": [], "time": []}}, "mouseover": {"state": {"target": ["3", "9", "5", "3", "8", "8", "2"], "time": [3427, 3726, 4761, 7094, 7391, 7687, 7787]}, "edge": {"target": [], "time": []}}, "mouseout": {"state": {"target": ["16", "12", "0", "3", "9", "5", "3", "8", "8", "2", "18"], "time": [1124, 1203, 3338, 3637, 4650, 7006, 7175, 7479, 7774, 7865, 18755]}, "edge": {"target": [], "time": []}}}, "displayed_time": "16.60", "trialTime": 19826, "trial_type": "mouselab-mdp", "trial_index": 22, "time_elapsed": 1337034, "internal_node_id": "0.0-6.0-1.0-7.0"}}, {"uniqueid": "w32799476:a83183404", "current_trial": 23, "dateTime": 1693661667781, "trialdata": {"revealed_states": [], "clicked_states": ["9", "5", "6", "16", "17", "18", "20", "21", "22", "31", "32", "33", "29", "27", "28", "11", "10", "7", "19"], "num_clicks_accrued": [0, 0, 0, 0, 0, 0, 0, 0, 0, 0, 0, 0, 0], "stateRewards": ["", -1, 2, 7, 8, 75, 67, -11, 6, 52, -17, 38, -1, 4, -8, 14, 74, -37, -17, -12, 52, 55, 71, -2, -1, -5, 2, 21, 6, -88, -14, 64, -61, -47], "withholdReward": false, "trial_id": "mdp_trial_9", "block": "test", "trialIndex": 12, "score": 11.400000000000006, "costs": -26.59999999999999, "simulationMode": [null, null, null, null, null], "rewards": [-1, 4, -8, -12, 55], "path": ["0", "0", "12", "13", "14", "19", "21"], "rt": [50678, 163, 1331, 56, 56], "actions": ["right", "right", "right", "down", "down"], "actionTimes": [56466, 57193, 59105, 59699, 60290], "queries": {"click": {"state": {"target": ["9", "5", "6", "16", "17", "18", "20", "21", "22", "31", "32", "33", "29", "27", "28", "11", "10", "7", "19"], "time": [7116, 9342, 11775, 14297, 16724, 19575, 22213, 24493, 26714, 29502, 32174, 34355, 36608, 39017, 41163, 43867, 46564, 48795, 52741]}, "edge": {"target": [], "time": []}}, "mouseover": {"state": {"target": ["9", "5", "6", "16", "16", "17", "18", "20", "21", "22", "31", "32", "33", "29", "27", "28", "11", "10", "7", "18", "19", "19"], "time": [6847, 7691, 9938, 12556, 12850, 15129, 18922, 20019, 22878, 25471, 29232, 30213, 33041, 35242, 37372, 39758, 43662, 46236, 47824, 51236, 51484, 52267]}, "edge": {"target": [], "time": []}}, "mouseout": {"state": {"target": ["15", "7", "1", "0", "9", "5", "6", "16", "16", "17", "18", "20", "21", "22", "31", "32", "33", "29", "27", "28", "11", "10", "7", "18", "19"], "time": [3296, 3379, 4238, 6479, 7590, 9925, 12541, 12656, 14776, 18750, 19913, 22864, 25277, 28338, 29844, 32941, 35141, 37258, 39650, 43282, 46153, 47298, 50995, 51403, 51565]}, "edge": {"target": [], "time": []}}}, "displayed_time": "60.91", "trialTime": 66812, "trial_type": "mouselab-mdp", "trial_index": 23, "time_elapsed": 1405246, "internal_node_id": "0.0-6.0-1.0-8.0"}}, {"uniqueid": "w32799476:a83183404", "current_trial": 24, "dateTime": 1693661717796, "trialdata": {"revealed_states": [], "clicked_states": ["27", "29", "28", "11", "9", "5", "6", "7", "16"], "num_clicks_accrued": [0, 0, 0, 0, 0, 0, 0, 0, 0, 0, 0, 0, 0], "stateRewards": ["", -2, -4, -2, 10, -8, -15, -47, 7, -84, 53, 5, -1, 2, -7, 3, 83, 31, 47, -1, 30, -8, 69, 2, -4, -1, 8, -7, 12, -8, -8, -13, 30, -84], "withholdReward": false, "trial_id": "mdp_trial_10", "block": "test", "trialIndex": 13, "score": 67.4, "costs": -12.600000000000001, "simulationMode": [null, null, null, null, null], "rewards": [-1, 2, -7, 3, 83], "path": ["0", "0", "12", "13", "14", "15", "16"], "rt": [25106, 56, 61, 539, 57], "actions": ["right", "right", "right", "up", "up"], "actionTimes": [27914, 28582, 29236, 30325, 30952], "queries": {"click": {"state": {"target": ["27", "29", "28", "11", "9", "5", "6", "7", "16"], "time": [4825, 7126, 9386, 12082, 14478, 17098, 19322, 21990, 24531]}, "edge": {"target": [], "time": []}}, "mouseover": {"state": {"target": ["28", "27", "29", "26", "28", "11", "9", "5", "6", "7", "16", "17"], "time": [3858, 4403, 5613, 7935, 8050, 11658, 13032, 16768, 18253, 21570, 24159, 26551]}, "edge": {"target": [], "time": []}}, "mouseout": {"state": {"target": ["19", "12", "28", "27", "29", "26", "28", "11", "9", "5", "6", "7", "16", "17"], "time": [1157, 1233, 3941, 5511, 7921, 8036, 11491, 12838, 16611, 17591, 21484, 22769, 24863, 26886]}, "edge": {"target": [], "time": []}}}, "displayed_time": "31.52", "trialTime": 48587, "trial_type": "mouselab-mdp", "trial_index": 24, "time_elapsed": 1455260, "internal_node_id": "0.0-6.0-1.0-9.0"}}, {"uniqueid": "w32799476:a83183404", "current_trial": 25, "dateTime": 1693661740865, "trialdata": {"revealed_states": [], "clicked_states": [], "num_clicks_accrued": [0, 0, 0, 0, 0, 0, 0, 0, 0, 0, 0, 0, 0], "stateRewards": ["", 1, 1, 4, 11, 83, -66, 18, -16, -23, 5, 25, 1, -3, 1, -12, 18, 24, -86, -11, -64, 36, 40, 2, 1, -6, 13, 55, 29, 72, -2, 81, -72, -41], "withholdReward": false, "trial_id": "mdp_trial_11", "block": "test", "trialIndex": 14, "score": 65, "costs": 0, "simulationMode": [null, null, null, null, null], "rewards": [2, 1, -6, 13, 55], "path": ["0", "0", "23", "24", "25", "26", "27"], "rt": [1006, 4218, 56, 673, 142], "actions": ["left", "left", "left", "up", "up"], "actionTimes": [4131, 8931, 9570, 10799, 11511], "queries": {"click": {"state": {"target": [], "time": []}, "edge": {"target": [], "time": []}}, "mouseover": {"state": {"target": [], "time": []}, "edge": {"target": [], "time": []}}, "mouseout": {"state": {"target": ["15", "0", "27", "12"], "time": [1600, 5956, 19129, 19604]}, "edge": {"target": [], "time": []}}}, "displayed_time": "17.13", "trialTime": 21496, "trial_type": "mouselab-mdp", "trial_index": 25, "time_elapsed": 1478329, "internal_node_id": "0.0-6.0-1.0-10.0"}}, {"uniqueid": "w32799476:a83183404", "current_trial": 26, "dateTime": 1693661763186, "trialdata": {"revealed_states": [], "clicked_states": ["5", "6"], "num_clicks_accrued": [0, 0, 0, 0, 0, 0, 0, 0, 0, 0, 0, 0, 0], "stateRewards": ["", -1, -4, -1, -11, 43, 69, 39, 4, 17, -20, -82, -2, -1, 4, 8, -79, 24, -79, 11, 36, 64, 41, 2, 4, -1, 11, -79, -47, 75, -3, 63, -36, -19], "withholdReward": false, "trial_id": "mdp_trial_12", "block": "test", "trialIndex": 15, "score": 49.2, "costs": -2.8, "simulationMode": [null, null, null, null, null], "rewards": [-1, -4, -1, -11, 69], "path": ["0", "0", "1", "2", "3", "4", "6"], "rt": [7600, 57, 57, 179, 137], "actions": ["up", "up", "up", "right", "right"], "actionTimes": [9664, 10299, 10911, 11632, 12342], "queries": {"click": {"state": {"target": ["5", "6"], "time": [3551, 6294]}, "edge": {"target": [], "time": []}}, "mouseover": {"state": {"target": ["5", "6"], "time": [3131, 4731]}, "edge": {"target": [], "time": []}}, "mouseout": {"state": {"target": ["0", "5", "6", "16"], "time": [2794, 4527, 7226, 19287]}, "edge": {"target": [], "time": []}}}, "displayed_time": "16.07", "trialTime": 20841, "trial_type": "mouselab-mdp", "trial_index": 26, "time_elapsed": 1500650, "internal_node_id": "0.0-6.0-1.0-11.0"}}, {"uniqueid": "w32799476:a83183404", "current_trial": 27, "dateTime": 1693661794329, "trialdata": {"revealed_states": [], "clicked_states": ["16", "17", "20", "21", "22", "31"], "num_clicks_accrued": [0, 0, 0, 0, 0, 0, 0, 0, 0, 0, 0, 0, 0], "stateRewards": ["", -1, -3, -5, -14, -13, -47, 79, 8, -60, -64, 41, -1, 2, 3, 13, -46, 61, -79, -11, -64, -65, 23, 1, -2, 6, -14, 46, 32, 21, 7, 75, -66, 15], "withholdReward": false, "trial_id": "mdp_trial_13", "block": "test", "trialIndex": 16, "score": 78.6, "costs": -8.4, "simulationMode": [null, null, null, null, null], "rewards": [1, -2, 6, 7, 75], "path": ["0", "0", "23", "24", "25", "30", "31"], "rt": [15828, 56, 56, 241, 239], "actions": ["left", "left", "left", "down", "right"], "actionTimes": [18810, 19457, 20074, 20919, 21713], "queries": {"click": {"state": {"target": ["16", "17", "20", "21", "22", "31"], "time": [4339, 6541, 9017, 11189, 13467, 15662]}, "edge": {"target": [], "time": []}}, "mouseover": {"state": {"target": ["15", "16", "17", "20", "20", "21", "22", "31", "32"], "time": [3806, 3913, 5199, 7607, 8036, 10020, 12108, 14149, 16240]}, "edge": {"target": [], "time": []}}, "mouseout": {"state": {"target": ["17", "13", "0", "15", "16", "17", "20", "20", "21", "22", "31", "32", "16"], "time": [1018, 1273, 3713, 3897, 4685, 7591, 7708, 9915, 12096, 14135, 16140, 27742, 27876]}, "edge": {"target": [], "time": []}}}, "displayed_time": "22.31", "trialTime": 29615, "trial_type": "mouselab-mdp", "trial_index": 27, "time_elapsed": 1531796, "internal_node_id": "0.0-6.0-1.0-12.0"}}, {"uniqueid": "w32799476:a83183404", "current_trial": 28, "dateTime": 1693661821717, "trialdata": {"revealed_states": [], "clicked_states": ["27", "28", "29", "33", "31"], "num_clicks_accrued": [0, 0, 0, 0, 0, 0, 0, 0, 0, 0, 0, 0, 0], "stateRewards": ["", -2, 4, -5, -12, 85, -24, -18, -15, -78, -22, 26, -1, -1, 2, 14, -45, 52, -23, 7, -33, 24, -6, -2, -4, 5, -7, -16, 36, -39, 5, 71, -87, -23], "withholdReward": false, "trial_id": "mdp_trial_14", "block": "test", "trialIndex": 17, "score": 68, "costs": -7, "simulationMode": [null, null, null, null, null], "rewards": [-2, -4, 5, 5, 71], "path": ["0", "0", "23", "24", "25", "30", "31"], "rt": [13742, 72, 57, 424, 1060], "actions": ["left", "left", "left", "down", "right"], "actionTimes": [16789, 17436, 18038, 19038, 20676], "queries": {"click": {"state": {"target": ["27", "28", "29", "33", "31"], "time": [4645, 6964, 9313, 11467, 13684]}, "edge": {"target": [], "time": []}}, "mouseover": {"state": {"target": ["28", "27", "28", "29", "33", "33", "31", "32"], "time": [3977, 4353, 5171, 7784, 10238, 10654, 12285, 14567]}, "edge": {"target": [], "time": []}}, "mouseout": {"state": {"target": ["18", "0", "0", "28", "27", "28", "29", "33", "33", "31", "32"], "time": [915, 1355, 3880, 4231, 5045, 7681, 10134, 10333, 11946, 14464, 23788]}, "edge": {"target": [], "time": []}}}, "displayed_time": "21.25", "trialTime": 25662, "trial_type": "mouselab-mdp", "trial_index": 28, "time_elapsed": 1559182, "internal_node_id": "0.0-6.0-1.0-13.0"}}, {"uniqueid": "w32799476:a83183404", "current_trial": 29, "dateTime": 1693661848524, "trialdata": {"revealed_states": [], "clicked_states": ["9", "11"], "num_clicks_accrued": [0, 0, 0, 0, 0, 0, 0, 0, 0, 0, 0, 0, 0], "stateRewards": ["", -2, 2, -5, 1, 42, -63, -58, -6, 2, 16, 81, -2, 4, 7, -10, 33, 3, -33, -2, -52, -84, -27, 2, -3, -3, 15, -74, -14, -5, -5, -84, 79, -31], "withholdReward": false, "trial_id": "mdp_trial_15", "block": "test", "trialIndex": 18, "score": 67.2, "costs": -2.8, "simulationMode": [null, null, null, null, null], "rewards": [-2, 2, -5, -6, 81], "path": ["0", "0", "1", "2", "3", "8", "11"], "rt": [7117, 57, 154, 58, 109], "actions": ["up", "up", "up", "left", "left"], "actionTimes": [10062, 10708, 11397, 12063, 12741], "queries": {"click": {"state": {"target": ["9", "11"], "time": [4512, 6702]}, "edge": {"target": [], "time": []}}, "mouseover": {"state": {"target": ["9", "11", "5"], "time": [3884, 5431, 8926]}, "edge": {"target": [], "time": []}}, "mouseout": {"state": {"target": ["16", "0", "9", "11", "5", "3"], "time": [1109, 3795, 5324, 6788, 9012, 14182]}, "edge": {"target": [], "time": []}}}, "displayed_time": "16.96", "trialTime": 25285, "trial_type": "mouselab-mdp", "trial_index": 29, "time_elapsed": 1585989, "internal_node_id": "0.0-6.0-1.0-14.0"}}, {"uniqueid": "w32799476:a83183404", "current_trial": 30, "dateTime": 1693661876733, "trialdata": {"revealed_states": [], "clicked_states": ["5", "6", "7", "10"], "num_clicks_accrued": [0, 0, 0, 0, 0, 0, 0, 0, 0, 0, 0, 0, 0], "stateRewards": ["", 1, 4, -4, 14, 35, 51, 19, -13, 54, 78, -74, -2, -1, -3, 13, -11, -42, -73, -15, -24, -3, -69, 2, -1, 5, 16, -27, 73, 58, 9, -60, 5, -60], "withholdReward": false, "trial_id": "mdp_trial_16", "block": "test", "trialIndex": 19, "score": 60.4, "costs": -5.6, "simulationMode": [null, null, null, null, null], "rewards": [1, 4, -4, -13, 78], "path": ["0", "0", "1", "2", "3", "8", "10"], "rt": [13074, 54, 676, 228, 208], "actions": ["up", "up", "up", "left", "down"], "actionTimes": [18410, 19074, 20388, 21183, 21966], "queries": {"click": {"state": {"target": ["5", "6", "7", "10"], "time": [7123, 9339, 12142, 14972]}, "edge": {"target": [], "time": []}}, "mouseover": {"state": {"target": ["5", "6", "7", "7", "10", "11", "1"], "time": [6617, 7729, 10070, 10661, 14515, 15756, 17395]}, "edge": {"target": [], "time": []}}, "mouseout": {"state": {"target": ["0", "5", "6", "7", "7", "10", "11", "1", "2"], "time": [6276, 7228, 10056, 10169, 14425, 15654, 17310, 17551, 23263]}, "edge": {"target": [], "time": []}}}, "displayed_time": "22.55", "trialTime": 26683, "trial_type": "mouselab-mdp", "trial_index": 30, "time_elapsed": 1614200, "internal_node_id": "0.0-6.0-1.0-15.0"}}, {"uniqueid": "w32799476:a83183404", "current_trial": 31, "dateTime": 1693661902223, "trialdata": {"revealed_states": [], "clicked_states": ["27", "28", "29", "33"], "num_clicks_accrued": [0, 0, 0, 0, 0, 0, 0, 0, 0, 0, 0, 0, 0], "stateRewards": ["", 2, 3, -2, -8, -8, -41, 74, 15, -23, -80, 1, 1, 3, 3, -15, -63, -78, 67, 13, 75, -41, 86, 2, -2, 6, -3, -8, -49, 50, -6, 83, 74, 80], "withholdReward": false, "trial_id": "mdp_trial_17", "block": "test", "trialIndex": 20, "score": 74.4, "costs": -5.6, "simulationMode": [null, null, null, null, null], "rewards": [2, -2, 6, -6, 80], "path": ["0", "0", "23", "24", "25", "30", "33"], "rt": [12222, 56, 464, 202, 1248], "actions": ["left", "left", "left", "down", "left"], "actionTimes": [15492, 16146, 17171, 17930, 19725], "queries": {"click": {"state": {"target": ["27", "28", "29", "33"], "time": [5514, 7860, 10080, 12329]}, "edge": {"target": [], "time": []}}, "mouseover": {"state": {"target": ["27", "27", "28", "26", "29", "33", "32"], "time": [4790, 5124, 6142, 9140, 9258, 10659, 12828]}, "edge": {"target": [], "time": []}}, "mouseout": {"state": {"target": ["16", "0", "27", "27", "28", "26", "29", "33", "32"], "time": [1513, 4702, 4874, 6036, 9125, 9245, 10646, 12726, 22422]}, "edge": {"target": [], "time": []}}}, "displayed_time": "20.30", "trialTime": 23832, "trial_type": "mouselab-mdp", "trial_index": 31, "time_elapsed": 1639687, "internal_node_id": "0.0-6.0-1.0-16.0"}}, {"uniqueid": "w32799476:a83183404", "current_trial": 32, "dateTime": 1693661940729, "trialdata": {"revealed_states": [], "clicked_states": ["9", "5", "6", "16", "17", "20", "21", "22", "31", "32"], "num_clicks_accrued": [0, 0, 0, 0, 0, 0, 0, 0, 0, 0, 0, 0, 0], "stateRewards": ["", 1, 1, 6, -14, -40, 37, 16, -13, 33, -68, 49, 2, 4, 3, 6, 55, 27, 32, 10, -65, 20, -87, 2, 1, -6, -5, -42, 12, 29, -8, 16, 76, -33], "withholdReward": false, "trial_id": "mdp_trial_18", "block": "test", "trialIndex": 21, "score": 51, "costs": -14.000000000000002, "simulationMode": [null, null, null, null, null], "rewards": [2, 1, -6, -8, 76], "path": ["0", "0", "23", "24", "25", "30", "32"], "rt": [26219, 117, 64, 170, 94], "actions": ["left", "left", "left", "down", "down"], "actionTimes": [28913, 29612, 30242, 31020, 31685], "queries": {"click": {"state": {"target": ["9", "5", "6", "16", "17", "20", "21", "22", "31", "32"], "time": [4424, 6703, 8897, 11381, 13671, 16369, 18485, 20745, 23783, 25924]}, "edge": {"target": [], "time": []}}, "mouseover": {"state": {"target": ["1", "9", "5", "6", "6", "16", "17", "20", "21", "22", "31", "32", "33"], "time": [3453, 3795, 5293, 7216, 7730, 10954, 11790, 16034, 17203, 19047, 23438, 24415, 26999]}, "edge": {"target": [], "time": []}}, "mouseout": {"state": {"target": ["17", "12", "1", "9", "5", "6", "6", "16", "17", "20", "21", "22", "31", "32", "33", "15", "17"], "time": [876, 1127, 3545, 4841, 7203, 7318, 9461, 11482, 15612, 17013, 19033, 22891, 23876, 26009, 28211, 35486, 35577]}, "edge": {"target": [], "time": []}}}, "displayed_time": "32.30", "trialTime": 36855, "trial_type": "mouselab-mdp", "trial_index": 32, "time_elapsed": 1678194, "internal_node_id": "0.0-6.0-1.0-17.0"}}, {"uniqueid": "w32799476:a83183404", "current_trial": 33, "dateTime": 1693662215079, "trialdata": {"revealed_states": [], "clicked_states": ["27", "29"], "num_clicks_accrued": [0, 0, 0, 0, 0, 0, 0, 0, 0, 0, 0, 0, 0], "stateRewards": ["", -1, 1, -2, 5, 73, 15, 61, 8, 7, 38, 76, 2, 2, -4, -6, -6, -26, 43, -5, -45, -85, -35, -2, 1, -4, 15, -10, 69, 72, -11, 84, -49, -38], "withholdReward": false, "trial_id": "mdp_trial_19", "block": "test", "trialIndex": 22, "score": 79.2, "costs": -2.8, "simulationMode": [null, null, null, null, null], "rewards": [-2, 1, -4, 15, 72], "path": ["0", "0", "23", "24", "25", "26", "29"], "rt": [6729, 60, 57, 2201, 267], "actions": ["left", "left", "left", "up", "left"], "actionTimes": [9565, 10165, 10788, 13529, 14435], "queries": {"click": {"state": {"target": ["27", "29"], "time": [4173, 6406]}, "edge": {"target": [], "time": []}}, "mouseover": {"state": {"target": ["26", "27", "26", "29", "33"], "time": [3549, 3845, 5166, 5281, 8612]}, "edge": {"target": [], "time": []}}, "mouseout": {"state": {"target": ["13", "0", "26", "27", "26", "29", "29", "33", "33"], "time": [1195, 1419, 3626, 5152, 5267, 6493, 8092, 8698, 15828]}, "edge": {"target": [], "time": []}}}, "displayed_time": "16.84", "trialTime": 272829, "trial_type": "mouselab-mdp", "trial_index": 33, "time_elapsed": 1952546, "internal_node_id": "0.0-6.0-1.0-18.0"}}, {"uniqueid": "w32799476:a83183404", "current_trial": 34, "dateTime": 1693662241816, "trialdata": {"revealed_states": [], "clicked_states": ["27", "29", "28", "33"], "num_clicks_accrued": [0, 0, 0, 0, 0, 0, 0, 0, 0, 0, 0, 0, 0], "stateRewards": ["", 2, -4, 7, 3, 23, -42, 4, 7, -81, -33, 7, -2, -4, 5, -1, 50, -57, -14, -13, -14, 44, 55, -2, -2, 5, -2, 33, 1, 57, -13, -7, 58, 87], "withholdReward": false, "trial_id": "mdp_trial_20", "block": "test", "trialIndex": 23, "score": 69.4, "costs": -5.6, "simulationMode": [null, null, null, null, null], "rewards": [-2, -2, 5, -13, 87], "path": ["0", "0", "23", "24", "25", "30", "33"], "rt": [12266, 103, 54, 106, 318], "actions": ["left", "left", "left", "down", "left"], "actionTimes": [15723, 16397, 17057, 17726, 18633], "queries": {"click": {"state": {"target": ["27", "29", "28", "33"], "time": [5378, 7688, 9863, 12079]}, "edge": {"target": [], "time": []}}, "mouseover": {"state": {"target": ["25", "27", "29", "28", "33", "31", "30"], "time": [4775, 5045, 6028, 8210, 10894, 12764, 14674]}, "edge": {"target": [], "time": []}}, "mouseout": {"state": {"target": ["15", "12", "0", "25", "27", "29", "28", "33", "31", "30", "22", "14"], "time": [1492, 1795, 4367, 4947, 5921, 8100, 10500, 12503, 14590, 20826, 20958, 22672]}, "edge": {"target": [], "time": []}}}, "displayed_time": "19.22", "trialTime": 24388, "trial_type": "mouselab-mdp", "trial_index": 34, "time_elapsed": 1979281, "internal_node_id": "0.0-6.0-1.0-19.0"}}, {"uniqueid": "w32799476:a83183404", "current_trial": 35, "dateTime": 1693662264403, "trialdata": {"revealed_states": [], "clicked_states": ["11", "9", "5"], "num_clicks_accrued": [0, 0, 0, 0, 0, 0, 0, 0, 0, 0, 0, 0, 0], "stateRewards": ["", 2, -1, -4, -13, 74, 77, 3, 2, -43, -2, -11, 2, 3, 7, 11, -26, -29, -33, -3, -3, -13, -3, 1, 3, -7, 14, -59, 33, 9, -5, 34, 79, 68], "withholdReward": false, "trial_id": "mdp_trial_21", "block": "test", "trialIndex": 24, "score": 53.8, "costs": -4.199999999999999, "simulationMode": [null, null, null, null, null], "rewards": [2, -1, -4, -13, 74], "path": ["0", "0", "1", "2", "3", "4", "5"], "rt": [8986, 58, 57, 166, 641], "actions": ["up", "up", "up", "right", "up"], "actionTimes": [11497, 12216, 12842, 13551, 14775], "queries": {"click": {"state": {"target": ["11", "9", "5"], "time": [4009, 6104, 8259]}, "edge": {"target": [], "time": []}}, "mouseover": {"state": {"target": ["10", "11", "9", "5", "5", "6"], "time": [3555, 3658, 5025, 6541, 6936, 8768]}, "edge": {"target": [], "time": []}}, "mouseout": {"state": {"target": ["16", "0", "10", "11", "9", "5", "5"], "time": [817, 3261, 3644, 4731, 6527, 6657, 8754]}, "edge": {"target": [], "time": []}}}, "displayed_time": "16.52", "trialTime": 21013, "trial_type": "mouselab-mdp", "trial_index": 35, "time_elapsed": 2001868, "internal_node_id": "0.0-6.0-1.0-20.0"}}, {"uniqueid": "w32799476:a83183404", "current_trial": 36, "dateTime": 1693662304033, "trialdata": {"revealed_states": [], "clicked_states": ["27", "11", "9", "5", "6", "16", "17", "20", "21"], "num_clicks_accrued": [0, 0, 0, 0, 0, 0, 0, 0, 0, 0, 0, 0, 0], "stateRewards": ["", -2, -3, -7, 7, -54, -69, -4, -14, -77, 22, 40, -2, -1, 5, 6, -35, 50, -60, 10, -28, 75, 57, 1, -4, -2, 2, 68, 34, -18, 12, 3, -21, -43], "withholdReward": false, "trial_id": "mdp_trial_22", "block": "test", "trialIndex": 25, "score": 74.4, "costs": -12.600000000000001, "simulationMode": [null, null, null, null, null], "rewards": [-2, -1, 5, 10, 75], "path": ["0", "0", "12", "13", "14", "19", "21"], "rt": [23340, 56, 54, 108, 57], "actions": ["right", "right", "right", "down", "down"], "actionTimes": [26721, 27359, 28125, 28775, 29442], "queries": {"click": {"state": {"target": ["27", "11", "9", "5", "6", "16", "17", "20", "21"], "time": [5376, 8074, 10415, 12602, 14768, 16955, 19105, 21278, 23435]}, "edge": {"target": [], "time": []}}, "mouseover": {"state": {"target": ["27", "8", "11", "9", "5", "6", "16", "17", "20", "21", "22"], "time": [5041, 7620, 7850, 8754, 10933, 13111, 15545, 17560, 19842, 21785, 23930]}, "edge": {"target": [], "time": []}}, "mouseout": {"state": {"target": ["18", "0", "27", "8", "11", "9", "5", "6", "16", "17", "20", "21", "22"], "time": [1758, 4667, 7515, 7710, 8553, 10822, 12953, 15101, 17427, 19727, 21682, 23916, 36571]}, "edge": {"target": [], "time": []}}}, "displayed_time": "30.00", "trialTime": 38104, "trial_type": "mouselab-mdp", "trial_index": 36, "time_elapsed": 2041498, "internal_node_id": "0.0-6.0-1.0-21.0"}}, {"uniqueid": "w32799476:a83183404", "current_trial": 37, "dateTime": 1693662332244, "trialdata": {"revealed_states": [], "clicked_states": ["27", "29", "28", "33", "32", "31", "11"], "num_clicks_accrued": [0, 0, 0, 0, 0, 0, 0, 0, 0, 0, 0, 0, 0], "stateRewards": ["", -1, -3, -6, -2, -7, 80, -45, -3, -38, -72, 76, 2, 1, 7, 4, -62, 14, -74, 14, -87, -21, -88, -2, 1, -7, -10, 66, 56, -76, 10, -29, -72, -70], "withholdReward": false, "trial_id": "mdp_trial_23", "block": "test", "trialIndex": 26, "score": 53.2, "costs": -9.8, "simulationMode": [null, null, null, null, null], "rewards": [-1, -3, -6, -3, 76], "path": ["0", "0", "1", "2", "3", "8", "11"], "rt": [19044, 120, 54, 316, 68], "actions": ["up", "up", "up", "left", "left"], "actionTimes": [21306, 22008, 22609, 23542, 24199], "queries": {"click": {"state": {"target": ["27", "29", "28", "33", "32", "31", "11"], "time": [3644, 6555, 8684, 11075, 13165, 15453, 18084]}, "edge": {"target": [], "time": []}}, "mouseover": {"state": {"target": ["28", "27", "29", "26", "28", "33", "32", "32", "31", "11", "9"], "time": [2957, 3286, 4421, 7130, 7646, 9505, 11583, 12110, 13860, 17874, 18780]}, "edge": {"target": [], "time": []}}, "mouseout": {"state": {"target": ["12", "28", "27", "29", "26", "28", "33", "32", "32", "31", "11"], "time": [589, 3041, 4183, 7115, 7262, 9404, 11569, 11774, 13574, 17489, 18494]}, "edge": {"target": [], "time": []}}}, "displayed_time": "24.81", "trialTime": 26408, "trial_type": "mouselab-mdp", "trial_index": 37, "time_elapsed": 2069712, "internal_node_id": "0.0-6.0-1.0-22.0"}}, {"uniqueid": "w32799476:a83183404", "current_trial": 38, "dateTime": 1693662351766, "trialdata": {"revealed_states": [], "clicked_states": ["9", "5", "6"], "num_clicks_accrued": [0, 0, 0, 0, 0, 0, 0, 0, 0, 0, 0, 0, 0], "stateRewards": ["", 1, 1, -3, 7, 49, 78, 26, -5, 26, 48, -43, -1, -3, 2, -5, 4, -1, -60, 10, -35, 51, 81, -2, 1, -7, -5, -39, -86, -54, 4, -3, 74, 77], "withholdReward": false, "trial_id": "mdp_trial_24", "block": "test", "trialIndex": 27, "score": 79.8, "costs": -4.199999999999999, "simulationMode": [null, null, null, null, null], "rewards": [1, 1, -3, 7, 78], "path": ["0", "0", "1", "2", "3", "4", "6"], "rt": [9344, 103, 90, 182, 107], "actions": ["up", "up", "up", "right", "right"], "actionTimes": [11929, 12630, 13342, 14078, 14749], "queries": {"click": {"state": {"target": ["9", "5", "6"], "time": [4322, 6520, 8791]}, "edge": {"target": [], "time": []}}, "mouseover": {"state": {"target": ["1", "3", "9", "5", "5", "6", "7"], "time": [3455, 3563, 3950, 5077, 5611, 7280, 9531]}, "edge": {"target": [], "time": []}}, "mouseout": {"state": {"target": ["15", "13", "12", "1", "3", "9", "5", "5", "6"], "time": [848, 912, 1114, 3552, 3750, 4974, 5185, 6855, 9426]}, "edge": {"target": [], "time": []}}}, "displayed_time": "16.59", "trialTime": 17800, "trial_type": "mouselab-mdp", "trial_index": 38, "time_elapsed": 2089231, "internal_node_id": "0.0-6.0-1.0-23.0"}}, {"uniqueid": "w32799476:a83183404", "current_trial": 39, "dateTime": 1693662373415, "trialdata": {"revealed_states": [], "clicked_states": ["29"], "num_clicks_accrued": [0, 0, 0, 0, 0, 0, 0, 0, 0, 0, 0, 0, 0], "stateRewards": ["", 1, 2, -5, 14, 54, -14, -25, 16, -5, -87, 78, -1, 1, 3, -3, 52, 53, 53, -10, 73, -69, -48, 2, 3, 1, 8, -62, -7, 85, 7, 82, 52, -28], "withholdReward": false, "trial_id": "mdp_trial_25", "block": "test", "trialIndex": 28, "score": 97.6, "costs": -1.4, "simulationMode": [null, null, null, null, null], "rewards": [2, 3, 1, 8, 85], "path": ["0", "0", "23", "24", "25", "26", "29"], "rt": [4461, 87, 97, 1824, 115], "actions": ["left", "left", "left", "up", "left"], "actionTimes": [7785, 8467, 9188, 11617, 12437], "queries": {"click": {"state": {"target": ["29"], "time": [4764]}, "edge": {"target": [], "time": []}}, "mouseover": {"state": {"target": ["29", "26", "27"], "time": [4261, 5263, 5403]}, "edge": {"target": [], "time": []}}, "mouseout": {"state": {"target": ["7", "0", "29", "26", "27"], "time": [1065, 4166, 5247, 5387, 13936]}, "edge": {"target": [], "time": []}}}, "displayed_time": "17.34", "trialTime": 20083, "trial_type": "mouselab-mdp", "trial_index": 39, "time_elapsed": 2110880, "internal_node_id": "0.0-6.0-1.0-24.0"}}, {"uniqueid": "w32799476:a83183404", "current_trial": 40, "dateTime": 1693662395307, "trialdata": {"revealed_states": [], "clicked_states": ["9"], "num_clicks_accrued": [0, 0, 0, 0, 0, 0, 0, 0, 0, 0, 0, 0, 0], "stateRewards": ["", -2, -1, -5, 10, -36, -70, 68, -9, 86, 71, -10, 2, -4, 7, -7, 66, 44, -66, -13, -69, 43, 15, -2, 2, 6, -13, 62, 57, 50, -10, -69, 42, -72], "withholdReward": false, "trial_id": "mdp_trial_26", "block": "test", "trialIndex": 29, "score": 67.6, "costs": -1.4, "simulationMode": [null, null, null, null, null], "rewards": [-2, -1, -5, -9, 86], "path": ["0", "0", "1", "2", "3", "8", "9"], "rt": [4754, 112, 57, 413, 150], "actions": ["up", "up", "up", "left", "up"], "actionTimes": [7697, 8402, 9038, 10009, 10732], "queries": {"click": {"state": {"target": ["9"], "time": [4457]}, "edge": {"target": [], "time": []}}, "mouseover": {"state": {"target": ["8", "9", "11"], "time": [4013, 4118, 5598]}, "edge": {"target": [], "time": []}}, "mouseout": {"state": {"target": ["16", "0", "8", "9", "11"], "time": [142, 3733, 4104, 5582, 17477]}, "edge": {"target": [], "time": []}}}, "displayed_time": "16.95", "trialTime": 20270, "trial_type": "mouselab-mdp", "trial_index": 40, "time_elapsed": 2132773, "internal_node_id": "0.0-6.0-1.0-25.0"}}, {"uniqueid": "w32799476:a83183404", "current_trial": 41, "dateTime": 1693662446003, "trialdata": {"revealed_states": [], "clicked_states": ["9", "5", "6", "16", "18", "17", "20", "21", "22", "31", "32", "33", "29", "27"], "num_clicks_accrued": [0, 0, 0, 0, 0, 0, 0, 0, 0, 0, 0, 0, 0], "stateRewards": ["", -1, 1, 6, -6, 70, 66, 67, -16, -75, -35, 37, -1, 4, 4, -6, 47, -9, 63, 15, 21, -63, 13, 1, 3, -6, 10, 79, -29, 18, -15, 9, -67, -19], "withholdReward": false, "trial_id": "mdp_trial_27", "block": "test", "trialIndex": 30, "score": 67.4, "costs": -19.599999999999998, "simulationMode": [null, null, null, null, null], "rewards": [1, 3, -6, 10, 79], "path": ["0", "0", "23", "24", "25", "26", "27"], "rt": [36256, 54, 101, 1073, 54], "actions": ["left", "left", "left", "up", "up"], "actionTimes": [39009, 39646, 40312, 41974, 42589], "queries": {"click": {"state": {"target": ["9", "5", "6", "16", "18", "17", "20", "21", "22", "31", "32", "33", "29", "27"], "time": [5299, 7667, 10131, 12872, 15305, 17538, 19696, 21857, 24037, 26887, 29149, 31332, 33522, 35806]}, "edge": {"target": [], "time": []}}, "mouseover": {"state": {"target": ["1", "2", "3", "9", "5", "5", "6", "16", "18", "17", "20", "21", "22", "31", "32", "33", "29", "27", "28"], "time": [3869, 4326, 4511, 4909, 6640, 6923, 8410, 12470, 14654, 15665, 18498, 20499, 22842, 26551, 27702, 29651, 31908, 34134, 36323]}, "edge": {"target": [], "time": []}}, "mouseout": {"state": {"target": ["14", "13", "0", "1", "2", "3", "9", "5", "5", "6", "16", "18", "17", "20", "21", "22", "31", "32", "33", "29", "27"], "time": [758, 1008, 3779, 3964, 4420, 4801, 6624, 6741, 8396, 12378, 14566, 15397, 18395, 20405, 22707, 26068, 27593, 29634, 31803, 33908, 36310]}, "edge": {"target": [], "time": []}}}, "displayed_time": "43.16", "trialTime": 49024, "trial_type": "mouselab-mdp", "trial_index": 41, "time_elapsed": 2183470, "internal_node_id": "0.0-6.0-1.0-26.0"}}, {"uniqueid": "w32799476:a83183404", "current_trial": 42, "dateTime": 1693662515479, "trialdata": {"revealed_states": [], "clicked_states": ["11", "9", "5", "6", "7", "10", "27", "29", "28", "33", "32", "31", "22", "21", "20", "17", "16", "18", "25", "24", "23", "12", "13"], "num_clicks_accrued": [0, 0, 0, 0, 0, 0, 0, 0, 0, 0, 0, 0, 0], "stateRewards": ["", 1, 4, -8, -5, -15, -7, 21, 13, -30, 40, -65, 1, 1, 5, -14, 35, 27, -38, -11, 36, -58, -47, -2, 4, -3, 13, -16, -49, 22, 15, -56, -44, -10], "withholdReward": false, "trial_id": "mdp_trial_28", "block": "test", "trialIndex": 31, "score": -94.19999999999999, "costs": -32.19999999999999, "simulationMode": [null, null, null, null, null], "rewards": [1, 1, 5, -11, -58], "path": ["0", "0", "12", "13", "14", "19", "21"], "rt": [54998, 137, 68, 388, 126], "actions": ["right", "right", "right", "down", "down"], "actionTimes": [57858, 58569, 59182, 60147, 60816], "queries": {"click": {"state": {"target": ["11", "9", "5", "6", "7", "10", "27", "29", "28", "33", "32", "31", "22", "21", "20", "17", "16", "18", "25", "24", "23", "12", "13"], "time": [4427, 6608, 8730, 10841, 12991, 15102, 17646, 19733, 21960, 24058, 26109, 28180, 30374, 32490, 34687, 36958, 39210, 42096, 45217, 48114, 50408, 52600, 54822]}, "edge": {"target": [], "time": []}}, "mouseover": {"state": {"target": ["11", "9", "5", "5", "6", "7", "10", "27", "29", "26", "28", "30", "33", "32", "31", "22", "21", "20", "17", "16", "18", "23", "25", "24", "24", "23", "12", "13", "14"], "time": [4025, 5410, 7068, 7625, 9245, 11430, 13414, 17165, 18222, 20069, 20184, 22833, 23045, 24551, 26692, 29153, 30825, 33114, 35530, 38230, 40395, 44528, 44849, 47479, 47856, 48601, 51156, 53313, 55223]}, "edge": {"target": [], "time": []}}, "mouseout": {"state": {"target": ["28", "0", "11", "9", "5", "5", "6", "7", "10", "27", "29", "26", "28", "30", "33", "32", "31", "22", "21", "20", "17", "16", "18", "23", "25", "24", "24", "23", "12", "13"], "time": [1049, 3645, 5307, 6960, 7175, 9141, 11327, 13401, 17066, 18209, 20055, 20171, 22733, 22936, 24451, 26524, 28581, 30811, 33005, 35427, 37964, 39949, 42853, 44609, 46271, 47656, 48587, 51058, 53211, 55177]}, "edge": {"target": [], "time": []}}}, "displayed_time": "61.46", "trialTime": 67876, "trial_type": "mouselab-mdp", "trial_index": 42, "time_elapsed": 2252942, "internal_node_id": "0.0-6.0-1.0-27.0"}}, {"uniqueid": "w32799476:a83183404", "current_trial": 43, "dateTime": 1693662543203, "trialdata": {"revealed_states": [], "clicked_states": ["9", "11", "8", "3", "2", "1"], "num_clicks_accrued": [0, 0, 0, 0, 0, 0, 0, 0, 0, 0, 0, 0, 0], "stateRewards": ["", -2, 2, 8, -6, -25, 3, 87, 2, -62, -2, 74, -2, -1, 2, -1, 79, 49, -37, -14, 5, 67, -9, -1, 2, -2, 5, 15, 38, 32, -14, -38, -38, 30], "withholdReward": false, "trial_id": "mdp_trial_29", "block": "test", "trialIndex": 32, "score": 75.6, "costs": -8.4, "simulationMode": [null, null, null, null, null], "rewards": [-2, 2, 8, 2, 74], "path": ["0", "0", "1", "2", "3", "8", "11"], "rt": [16776, 56, 58, 240, 71], "actions": ["up", "up", "up", "left", "left"], "actionTimes": [19181, 19784, 20407, 21282, 21937], "queries": {"click": {"state": {"target": ["9", "11", "8", "3", "2", "1"], "time": [4233, 6831, 9680, 12073, 14222, 16302]}, "edge": {"target": [], "time": []}}, "mouseover": {"state": {"target": ["3", "9", "8", "11", "3", "8", "3", "2", "1", "16"], "time": [3693, 3877, 6254, 6437, 9085, 9348, 10121, 12936, 14752, 17516]}, "edge": {"target": [], "time": []}}, "mouseout": {"state": {"target": ["14", "0", "3", "9", "8", "11", "11", "3", "8", "3", "2", "1", "16"], "time": [725, 3329, 3784, 6126, 6343, 6921, 7774, 9163, 10108, 12921, 14738, 17502, 17612]}, "edge": {"target": [], "time": []}}}, "displayed_time": "22.50", "trialTime": 25912, "trial_type": "mouselab-mdp", "trial_index": 43, "time_elapsed": 2280668, "internal_node_id": "0.0-6.0-1.0-28.0"}}, {"uniqueid": "w32799476:a83183404", "current_trial": 44, "dateTime": 1693662572415, "trialdata": {"revealed_states": [], "clicked_states": ["9", "5", "6", "16", "12"], "num_clicks_accrued": [0, 0, 0, 0, 0, 0, 0, 0, 0, 0, 0, 0, 0], "stateRewards": ["", -1, 3, 8, 9, -53, 20, -84, 2, -28, -62, -31, -1, -2, -7, 2, 51, 58, 45, -4, -17, -41, 36, 2, -2, -7, -15, 29, -54, -37, -16, -43, 65, -17], "withholdReward": false, "trial_id": "mdp_trial_30", "block": "test", "trialIndex": 33, "score": 36, "costs": -7, "simulationMode": [null, null, null, null, null], "rewards": [-1, -2, -7, 2, 51], "path": ["0", "0", "12", "13", "14", "15", "16"], "rt": [18091, 56, 65, 320, 55], "actions": ["right", "right", "right", "up", "up"], "actionTimes": [20497, 21131, 21762, 22632, 23278], "queries": {"click": {"state": {"target": ["9", "5", "6", "16", "12"], "time": [4521, 7503, 10434, 13361, 17325]}, "edge": {"target": [], "time": []}}, "mouseover": {"state": {"target": ["1", "3", "9", "5", "5", "6", "18", "16", "17", "12", "13", "13"], "time": [3657, 3756, 4122, 4954, 7189, 10085, 12922, 13038, 13812, 16997, 17830, 18106]}, "edge": {"target": [], "time": []}}, "mouseout": {"state": {"target": ["18", "1", "3", "9", "5", "5", "6", "18", "16", "17", "12", "13", "13"], "time": [838, 3744, 3954, 4940, 5049, 8684, 12620, 13026, 13703, 16670, 17413, 17940, 27048]}, "edge": {"target": [], "time": []}}}, "displayed_time": "23.84", "trialTime": 27535, "trial_type": "mouselab-mdp", "trial_index": 44, "time_elapsed": 2309880, "internal_node_id": "0.0-6.0-1.0-29.0"}}, {"uniqueid": "w32799476:a83183404", "current_trial": 45, "dateTime": 1693662601426, "trialdata": {"revealed_states": [], "clicked_states": ["29", "27", "28", "33"], "num_clicks_accrued": [0, 0, 0, 0, 0, 0, 0, 0, 0, 0, 0, 0, 0], "stateRewards": ["", -2, 4, 3, 5, -61, 4, 30, 1, -47, 83, 10, 1, 4, 7, -14, 19, -74, -83, 6, -2, -2, -65, -1, -2, 4, -11, 12, -1, -68, 11, -38, -28, 66], "withholdReward": false, "trial_id": "mdp_trial_31", "block": "test", "trialIndex": 34, "score": 72.4, "costs": -5.6, "simulationMode": [null, null, null, null, null], "rewards": [-1, -2, 4, 11, 66], "path": ["0", "0", "23", "24", "25", "30", "33"], "rt": [12442, 59, 56, 173, 251], "actions": ["left", "left", "left", "down", "left"], "actionTimes": [14888, 15605, 16233, 16960, 17759], "queries": {"click": {"state": {"target": ["29", "27", "28", "33"], "time": [3716, 6192, 8303, 10690]}, "edge": {"target": [], "time": []}}, "mouseover": {"state": {"target": ["29", "27", "28", "33", "32"], "time": [3429, 5853, 6902, 10322, 11041]}, "edge": {"target": [], "time": []}}, "mouseout": {"state": {"target": ["12", "0", "29", "27", "28", "33", "32"], "time": [873, 3095, 4124, 6524, 9320, 11025, 19656]}, "edge": {"target": [], "time": []}}}, "displayed_time": "18.33", "trialTime": 27267, "trial_type": "mouselab-mdp", "trial_index": 45, "time_elapsed": 2338889, "internal_node_id": "0.0-6.0-1.0-30.0"}}, {"uniqueid": "w32799476:a83183404", "current_trial": 46, "dateTime": 1693662626096, "trialdata": {"revealed_states": [], "clicked_states": ["9", "11", "29"], "num_clicks_accrued": [0, 0, 0, 0, 0, 0, 0, 0, 0, 0, 0, 0, 0], "stateRewards": ["", -2, 2, 2, -6, 9, 37, 50, -13, -7, -18, -75, -2, -4, 4, 7, 23, -57, -66, -7, -81, -48, -76, 1, 1, -8, 1, 51, -2, 70, 14, 59, 71, -37], "withholdReward": false, "trial_id": "mdp_trial_32", "block": "test", "trialIndex": 35, "score": 60.8, "costs": -4.199999999999999, "simulationMode": [null, null, null, null, null], "rewards": [1, 1, -8, 1, 70], "path": ["0", "0", "23", "24", "25", "26", "29"], "rt": [10314, 81, 58, 596, 220], "actions": ["left", "left", "left", "up", "left"], "actionTimes": [12857, 13533, 14148, 15311, 16099], "queries": {"click": {"state": {"target": ["9", "11", "29"], "time": [4374, 6963, 9500]}, "edge": {"target": [], "time": []}}, "mouseover": {"state": {"target": ["2", "8", "9", "8", "11", "29", "27"], "time": [3437, 3743, 3851, 5422, 6670, 9071, 11698]}, "edge": {"target": [], "time": []}}, "mouseout": {"state": {"target": ["15", "18", "2", "8", "9", "8", "11", "29", "27", "0"], "time": [725, 788, 3516, 3836, 5314, 6578, 7691, 10002, 11926, 19961]}, "edge": {"target": [], "time": []}}}, "displayed_time": "16.64", "trialTime": 23001, "trial_type": "mouselab-mdp", "trial_index": 46, "time_elapsed": 2363564, "internal_node_id": "0.0-6.0-1.0-31.0"}}, {"uniqueid": "w32799476:a83183404", "current_trial": 47, "dateTime": 1693662664680, "trialdata": {"revealed_states": [], "clicked_states": ["9", "5", "6", "11", "10", "7", "18", "16", "17", "20", "21", "22"], "num_clicks_accrued": [0, 0, 0, 0, 0, 0, 0, 0, 0, 0, 0, 0, 0], "stateRewards": ["", 2, -2, -3, 10, -4, -1, -11, -8, -9, -36, -78, 2, 1, 7, -7, 44, -1, -31, -1, 26, 47, 83, 2, -4, -4, -6, -52, -76, -81, -1, -59, 45, 67], "withholdReward": false, "trial_id": "mdp_trial_33", "block": "test", "trialIndex": 36, "score": 75.2, "costs": -16.8, "simulationMode": [null, null, null, null, null], "rewards": [2, 1, 7, -1, 83], "path": ["0", "0", "12", "13", "14", "19", "22"], "rt": [28383, 54, 63, 140, 274], "actions": ["right", "right", "right", "down", "left"], "actionTimes": [30582, 31356, 31964, 32671, 33494], "queries": {"click": {"state": {"target": ["9", "5", "6", "11", "10", "7", "18", "16", "17", "20", "21", "22"], "time": [3537, 5850, 8037, 10333, 12527, 14597, 16698, 18841, 20811, 22971, 25253, 27356]}, "edge": {"target": [], "time": []}}, "mouseover": {"state": {"target": ["9", "5", "6", "11", "10", "10", "7", "18", "16", "17", "20", "21", "22"], "time": [3210, 5418, 6499, 8629, 10848, 11152, 13155, 15023, 17061, 19457, 21678, 23332, 25855]}, "edge": {"target": [], "time": []}}, "mouseout": {"state": {"target": ["18", "12", "0", "9", "5", "6", "11", "10", "10", "7", "18", "16", "17", "20", "21", "22"], "time": [760, 825, 1126, 3878, 5941, 8529, 10739, 10954, 12865, 15010, 16960, 19100, 21578, 23318, 25495, 35569]}, "edge": {"target": [], "time": []}}}, "displayed_time": "34.04", "trialTime": 36866, "trial_type": "mouselab-mdp", "trial_index": 47, "time_elapsed": 2402149, "internal_node_id": "0.0-6.0-1.0-32.0"}}, {"uniqueid": "w32799476:a83183404", "current_trial": 48, "dateTime": 1693662684730, "trialdata": {"revealed_states": [], "clicked_states": ["9", "5"], "num_clicks_accrued": [0, 0, 0, 0, 0, 0, 0, 0, 0, 0, 0, 0, 0], "stateRewards": ["", 2, -4, -8, -15, 71, -43, -41, 7, -17, 20, 67, -1, -1, -4, 6, 37, -24, -47, 9, 34, 57, 45, 1, 2, -4, -5, -23, 88, -5, 13, -40, 43, 44], "withholdReward": false, "trial_id": "mdp_trial_34", "block": "test", "trialIndex": 37, "score": 43.2, "costs": -2.8, "simulationMode": [null, null, null, null, null], "rewards": [2, -4, -8, -15, 71], "path": ["0", "0", "1", "2", "3", "4", "5"], "rt": [6691, 109, 57, 214, 456], "actions": ["up", "up", "up", "right", "up"], "actionTimes": [9391, 10061, 10654, 11421, 12442], "queries": {"click": {"state": {"target": ["9", "5"], "time": [3932, 6294]}, "edge": {"target": [], "time": []}}, "mouseover": {"state": {"target": ["8", "9", "5", "6"], "time": [3342, 3436, 5823, 6737]}, "edge": {"target": [], "time": []}}, "mouseout": {"state": {"target": ["0", "8", "9", "5", "6"], "time": [1513, 3426, 4660, 6625, 14319]}, "edge": {"target": [], "time": []}}}, "displayed_time": "16.71", "trialTime": 18096, "trial_type": "mouselab-mdp", "trial_index": 48, "time_elapsed": 2422198, "internal_node_id": "0.0-6.0-1.0-33.0"}}, {"uniqueid": "w32799476:a83183404", "current_trial": 49, "dateTime": 1693662705101, "trialdata": {"revealed_states": [], "clicked_states": ["29", "33"], "num_clicks_accrued": [0, 0, 0, 0, 0, 0, 0, 0, 0, 0, 0, 0, 0], "stateRewards": ["", 2, -3, 5, -14, -63, -9, -24, -11, -54, -43, 68, 2, -2, -4, 7, -64, 30, 47, 12, -74, 11, 86, 1, -3, 3, 10, -71, -42, -52, -1, -29, -16, 69], "withholdReward": false, "trial_id": "mdp_trial_35", "block": "test", "trialIndex": 38, "score": 66.2, "costs": -2.8, "simulationMode": [null, null, null, null, null], "rewards": [1, -3, 3, -1, 69], "path": ["0", "0", "23", "24", "25", "30", "33"], "rt": [6546, 103, 56, 131, 231], "actions": ["left", "left", "left", "down", "left"], "actionTimes": [9951, 10647, 11253, 11933, 12706], "queries": {"click": {"state": {"target": ["29", "33"], "time": [4702, 6827]}, "edge": {"target": [], "time": []}}, "mouseover": {"state": {"target": ["29", "33", "32"], "time": [4397, 5756, 7284]}, "edge": {"target": [], "time": []}}, "mouseout": {"state": {"target": ["29", "33", "32"], "time": [5657, 7179, 16873]}, "edge": {"target": [], "time": []}}}, "displayed_time": "17.41", "trialTime": 18877, "trial_type": "mouselab-mdp", "trial_index": 49, "time_elapsed": 2442569, "internal_node_id": "0.0-6.0-1.0-34.0"}}, {"uniqueid": "w32799476:a83183404", "current_trial": 50, "dateTime": 1693662755028, "trialdata": {"revealed_states": [], "clicked_states": ["9", "5", "6", "11", "27", "29", "28", "33", "31", "32", "22", "21", "20", "17", "16"], "num_clicks_accrued": [0, 0, 0, 0, 0, 0, 0, 0, 0, 0, 0, 0, 0], "stateRewards": ["", 2, 2, 3, -15, 23, -14, 73, -7, -32, -20, -6, 1, 1, -5, -12, 73, 6, -84, 11, -81, -57, 13, -2, -1, -4, -8, -52, -58, 49, 13, 5, -41, -41], "withholdReward": false, "trial_id": "mdp_trial_36", "block": "test", "trialIndex": 39, "score": 37, "costs": -20.999999999999996, "simulationMode": [null, null, null, null, null], "rewards": [1, 1, -5, -12, 73], "path": ["0", "0", "12", "13", "14", "15", "16"], "rt": [36759, 60, 54, 423, 54], "actions": ["right", "right", "right", "up", "up"], "actionTimes": [39367, 40016, 40631, 41595, 42219], "queries": {"click": {"state": {"target": ["9", "5", "6", "11", "27", "29", "28", "33", "31", "32", "22", "21", "20", "17", "16"], "time": [4005, 6640, 8859, 11003, 13160, 15294, 17958, 20556, 22670, 24802, 27403, 29542, 32127, 34224, 36323]}, "edge": {"target": [], "time": []}}, "mouseover": {"state": {"target": ["9", "5", "6", "4", "11", "27", "29", "26", "28", "33", "31", "32", "22", "21", "21", "20", "17", "16", "18"], "time": [3758, 6377, 7413, 9674, 9797, 11645, 13607, 16097, 16220, 20167, 21271, 23199, 27070, 27761, 28037, 29972, 32859, 34950, 36836]}, "edge": {"target": [], "time": []}}, "mouseout": {"state": {"target": ["0", "9", "5", "6", "4", "11", "27", "29", "26", "28", "33", "31", "32", "22", "21", "21", "20", "17", "16", "18", "16"], "time": [3433, 4351, 7051, 9659, 9781, 11409, 13506, 16082, 16206, 20068, 20891, 23092, 25419, 27746, 27859, 29958, 32210, 34847, 36820, 47318, 47413]}, "edge": {"target": [], "time": []}}}, "displayed_time": "42.77", "trialTime": 48218, "trial_type": "mouselab-mdp", "trial_index": 50, "time_elapsed": 2492496, "internal_node_id": "0.0-6.0-1.0-35.0"}}, {"uniqueid": "w32799476:a83183404", "current_trial": 51, "dateTime": 1693662802239, "trialdata": {"revealed_states": [], "clicked_states": ["9", "5", "6", "11", "27", "29", "28", "33", "31", "32", "22", "21", "20", "17"], "num_clicks_accrued": [0, 0, 0, 0, 0, 0, 0, 0, 0, 0, 0, 0, 0], "stateRewards": ["", -2, 4, -7, -3, -76, 39, -28, 10, 14, 12, 60, 2, -3, 6, -10, 88, -34, -41, -3, 72, -13, -56, 1, 3, 2, 8, -51, 23, -57, 1, 14, -46, -16], "withholdReward": false, "trial_id": "mdp_trial_37", "block": "test", "trialIndex": 40, "score": 54.400000000000006, "costs": -19.599999999999998, "simulationMode": [null, null, null, null, null], "rewards": [2, -3, 6, -3, 72], "path": ["0", "0", "12", "13", "14", "19", "20"], "rt": [34472, 54, 54, 169, 150], "actions": ["right", "right", "right", "down", "right"], "actionTimes": [37215, 37887, 38498, 39273, 39985], "queries": {"click": {"state": {"target": ["9", "5", "6", "11", "27", "29", "28", "33", "31", "32", "22", "21", "20", "17"], "time": [4561, 7100, 9295, 11396, 14490, 16698, 18832, 21469, 23755, 25946, 28077, 30169, 32277, 34168]}, "edge": {"target": [], "time": []}}, "mouseover": {"state": {"target": ["9", "5", "6", "8", "11", "27", "29", "28", "33", "31", "31", "32", "22", "21", "20", "17"], "time": [3689, 6687, 7529, 9736, 9941, 13518, 15228, 17151, 21146, 21799, 22241, 24340, 26782, 28446, 30600, 32852]}, "edge": {"target": [], "time": []}}, "mouseout": {"state": {"target": ["0", "9", "5", "6", "8", "11", "27", "29", "28", "33", "31", "31", "32", "22", "21", "20", "17", "20"], "time": [1482, 4987, 7429, 9631, 9839, 13427, 15124, 17043, 20887, 21785, 21911, 24325, 26031, 28435, 30425, 32751, 35278, 42030]}, "edge": {"target": [], "time": []}}}, "displayed_time": "40.55", "trialTime": 45292, "trial_type": "mouselab-mdp", "trial_index": 51, "time_elapsed": 2539703, "internal_node_id": "0.0-6.0-1.0-36.0"}}, {"uniqueid": "w32799476:a83183404", "current_trial": 52, "dateTime": 1693662824954, "trialdata": {"revealed_states": [], "clicked_states": ["9", "5", "6", "11"], "num_clicks_accrued": [0, 0, 0, 0, 0, 0, 0, 0, 0, 0, 0, 0, 0], "stateRewards": ["", 1, 1, -7, -9, -44, 24, -83, -15, 44, -24, 72, -2, -3, 4, -5, 57, 55, 29, -11, 22, 12, -25, -1, 2, 7, 12, 33, -8, 47, -4, 8, 50, -4], "withholdReward": false, "trial_id": "mdp_trial_38", "block": "test", "trialIndex": 41, "score": 46.4, "costs": -5.6, "simulationMode": [null, null, null, null, null], "rewards": [1, 1, -7, -15, 72], "path": ["0", "0", "1", "2", "3", "8", "11"], "rt": [11148, 63, 101, 150, 59], "actions": ["up", "up", "up", "left", "left"], "actionTimes": [13837, 14470, 15145, 15895, 16534], "queries": {"click": {"state": {"target": ["9", "5", "6", "11"], "time": [3930, 6511, 8635, 10757]}, "edge": {"target": [], "time": []}}, "mouseover": {"state": {"target": ["9", "5", "5", "6", "11", "27"], "time": [3606, 4279, 5995, 6874, 9379, 11438]}, "edge": {"target": [], "time": []}}, "mouseout": {"state": {"target": ["7", "0", "9", "5", "5", "6", "11"], "time": [888, 3297, 4265, 4373, 6859, 9191, 11329]}, "edge": {"target": [], "time": []}}}, "displayed_time": "17.09", "trialTime": 21155, "trial_type": "mouselab-mdp", "trial_index": 52, "time_elapsed": 2562420, "internal_node_id": "0.0-6.0-1.0-37.0"}}, {"uniqueid": "w32799476:a83183404", "current_trial": 53, "dateTime": 1693662878262, "trialdata": {"revealed_states": [], "clicked_states": ["9", "5", "6", "11", "27", "29", "33", "31", "32", "28", "22", "21", "20", "17", "16", "18", "14"], "num_clicks_accrued": [0, 0, 0, 0, 0, 0, 0, 0, 0, 0, 0, 0, 0], "stateRewards": ["", 2, -3, 5, 11, -79, 54, 11, -9, -78, 33, 22, -2, -1, 2, 14, 43, 34, 1, 10, 49, -65, 39, -1, 1, -1, 3, -16, -2, 11, 2, 12, 48, -65], "withholdReward": false, "trial_id": "mdp_trial_39", "block": "test", "trialIndex": 42, "score": 45.2, "costs": -23.799999999999994, "simulationMode": [null, null, null, null, null], "rewards": [2, -3, 5, 11, 54], "path": ["0", "0", "1", "2", "3", "4", "6"], "rt": [42086, 56, 125, 208, 98], "actions": ["up", "up", "up", "right", "right"], "actionTimes": [44488, 45117, 45799, 46608, 47309], "queries": {"click": {"state": {"target": ["9", "5", "6", "11", "27", "29", "33", "31", "32", "28", "22", "21", "20", "17", "16", "18", "14"], "time": [3929, 6514, 8708, 11067, 13800, 15904, 18183, 20347, 22661, 24907, 27108, 29335, 31505, 34196, 36389, 38765, 41547]}, "edge": {"target": [], "time": []}}, "mouseover": {"state": {"target": ["9", "5", "6", "4", "11", "27", "29", "33", "31", "31", "32", "28", "22", "21", "20", "17", "16", "18", "14"], "time": [3616, 6163, 6967, 9267, 9392, 13464, 14312, 16495, 18637, 19607, 20855, 23343, 26194, 27446, 29771, 32109, 34667, 36919, 41069]}, "edge": {"target": [], "time": []}}, "mouseout": {"state": {"target": ["27", "9", "5", "6", "4", "11", "27", "29", "33", "31", "31", "32", "28", "22", "21", "20", "17", "16", "18", "14"], "time": [211, 4277, 6848, 9253, 9377, 13290, 14297, 16396, 18529, 18880, 20840, 22982, 25301, 27431, 29667, 31910, 34651, 36816, 41056, 42026]}, "edge": {"target": [], "time": []}}}, "displayed_time": "47.90", "trialTime": 51522, "trial_type": "mouselab-mdp", "trial_index": 53, "time_elapsed": 2615730, "internal_node_id": "0.0-6.0-1.0-38.0"}}, {"uniqueid": "w32799476:a83183404", "current_trial": 54, "dateTime": 1693662904623, "trialdata": {"revealed_states": [], "clicked_states": ["9"], "num_clicks_accrued": [0, 0, 0, 0, 0, 0, 0, 0, 0, 0, 0, 0, 0], "stateRewards": ["", 2, -1, -1, -9, -81, -30, 55, -6, 78, 25, 62, 2, 4, -1, 9, -85, 1, -19, 1, -60, 12, -34, 1, 4, -1, -13, -24, -16, -83, -8, 16, 43, 9], "withholdReward": false, "trial_id": "mdp_trial_40", "block": "test", "trialIndex": 43, "score": 70.6, "costs": -1.4, "simulationMode": [null, null, null, null, null], "rewards": [2, -1, -1, -6, 78], "path": ["0", "0", "1", "2", "3", "8", "9"], "rt": [4397, 57, 59, 227, 1830], "actions": ["up", "up", "up", "left", "up"], "actionTimes": [7297, 7960, 8621, 9389, 11779], "queries": {"click": {"state": {"target": ["9"], "time": [4214]}, "edge": {"target": [], "time": []}}, "mouseover": {"state": {"target": ["6", "9"], "time": [3619, 3718]}, "edge": {"target": [], "time": []}}, "mouseout": {"state": {"target": ["20", "0", "6", "9"], "time": [748, 1627, 3705, 4706]}, "edge": {"target": [], "time": []}}}, "displayed_time": "16.91", "trialTime": 24764, "trial_type": "mouselab-mdp", "trial_index": 54, "time_elapsed": 2642091, "internal_node_id": "0.0-6.0-1.0-39.0"}}, {"uniqueid": "w32799476:a83183404", "current_trial": 55, "dateTime": 1693662952655, "trialdata": {"rt": 47957, "response": {"Q0": "$-2 to $2", "Q1": "$-16 to $16", "Q2": "$-88 to $88", "Q3": "The cost was always $1.4.", "Q4": "Slightly unmotivated"}, "question_order": [0, 1, 2, 3, 4], "trial_id": "final_quiz_control", "trial_type": "survey-multi-choice", "trial_index": 55, "time_elapsed": 2690122, "internal_node_id": "0.0-6.0-2.0"}}, {"uniqueid": "w32799476:a83183404", "current_trial": 56, "dateTime": 1693663001592, "trialdata": {"rt": 48779, "response": {"Q0": "I just found a big value and went there", "Q1": "No not really it stayed the same", "Q2": "I just used the same strategy throughout"}, "trial_id": "self_report_control", "trial_type": "survey-text", "trial_index": 56, "time_elapsed": 2739061, "internal_node_id": "0.0-6.0-3.0"}}, {"uniqueid": "w32799476:a83183404", "current_trial": 57, "dateTime": 1693663030532, "trialdata": {"rt": 28909, "response": {"gender": "male", "age": "44", "colorblind": "0", "effort": "1"}, "trial_type": "survey-html-form", "trial_index": 57, "time_elapsed": 2768000, "internal_node_id": "0.0-6.0-4.0"}}, {"uniqueid": "w32799476:a83183404", "current_trial": 58, "dateTime": 1693663052008, "trialdata": {"rt": 21446, "response": {"Q0": "No", "Q1": "No", "Q2": "Nothing to add"}, "trial_type": "survey-text", "trial_index": 58, "time_elapsed": 2789476, "internal_node_id": "0.0-6.0-5.0"}}, {"uniqueid": "w32799476:a83183404", "current_trial": 59, "dateTime": 1693663083012, "trialdata": {"rt": 30978, "stimulus": "<h1>Completion Code Instructions (1/2)</h1>\n<br><br><br><br>\nYou have reached the end of the experiment! The completion code consists of two parts: (1) a code with 2 characters (2) a code with 6 characters. On this page, you will receive the second part of the code. The first part of the completion code will be on the next page.\n<br><br>\nThe second part of your completion code is: <b>EWEK22</b>\n<br><br>\nPlease note this down. Then, press 'Next' in order to find the first part of your completion code. Once the data has been saved, you will receive this code either in this window or in the original browser window where you started the experiment.\n <br><br>\n<h2 style='color: red;'>Note: this is <strong>NOT</strong> the full completion code. Copy this down and click 'Next' to get the full completion code on the next page.</h2>", "response": 0, "trial_type": "html-button-response", "trial_index": 59, "time_elapsed": 2820481, "internal_node_id": "0.0-6.0-6.0"}}, {"uniqueid": "w32799476:a83183404", "current_trial": 60, "dateTime": 1693663084034, "trialdata": {"success": true, "trial_type": "fullscreen", "trial_index": 60, "time_elapsed": 2821502, "internal_node_id": "0.0-7.0"}}], "questiondata": {"params": {"CODE": "C6DMOQA6", "MIN_TIME": 14, "inspectCost": 1, "startTime": "Sat Sep 02 2023 14:11:01 GMT+0100 (British Summer Time)", "bonusRate": 0.002, "variance": "1_2_4_8_44", "branching": "31123"}, "final_score": 2280.2}, "eventdata": [{"eventtype": "initialized", "value": null, "timestamp": 1693660261022, "interval": 0}, {"eventtype": "window_resize", "value": [1024, 654], "timestamp": 1693660261022, "interval": 0}, {"eventtype": "window_resize", "value": [1024, 654], "timestamp": 1693660261433, "interval": 411}, {"eventtype": "focus", "value": "off", "timestamp": 1693660269173, "interval": 7740}, {"eventtype": "focus", "value": "on", "timestamp": 1693660286391, "interval": 17218}, {"eventtype": "window_resize", "value": [1366, 768], "timestamp": 1693660287982, "interval": 1591}, {"eventtype": "focus", "value": "off", "timestamp": 1693660835306, "interval": 547324}, {"eventtype": "focus", "value": "on", "timestamp": 1693660835307, "interval": 1}, {"eventtype": "window_resize", "value": [1024, 654], "timestamp": 1693660835546, "interval": 239}, {"eventtype": "window_resize", "value": [1366, 768], "timestamp": 1693660837529, "interval": 1983}, {"eventtype": "focus", "value": "off", "timestamp": 1693660910023, "interval": 72494}, {"eventtype": "window_resize", "value": [1366, 767], "timestamp": 1693660910462, "interval": 439}, {"eventtype": "focus", "value": "on", "timestamp": 1693660912495, "interval": 2033}, {"eventtype": "window_resize", "value": [1366, 768], "timestamp": 1693660912709, "interval": 214}, {"eventtype": "focus", "value": "off", "timestamp": 1693661956905, "interval": 1044196}, {"eventtype": "window_resize", "value": [1366, 767], "timestamp": 1693661957247, "interval": 342}, {"eventtype": "focus", "value": "on", "timestamp": 1693661959229, "interval": 1982}, {"eventtype": "window_resize", "value": [1366, 768], "timestamp": 1693661959470, "interval": 241}, {"eventtype": "focus", "value": "off", "timestamp": 1693662366045, "interval": 406575}, {"eventtype": "window_resize", "value": [1366, 767], "timestamp": 1693662366319, "interval": 274}, {"eventtype": "focus", "value": "on", "timestamp": 1693662368372, "interval": 2053}, {"eventtype": "window_resize", "value": [1366, 768], "timestamp": 1693662368591, "interval": 219}, {"eventtype": "window_resize", "value": [1024, 654], "timestamp": 1693663083372, "interval": 714781}], "useragent": "Mozilla/5.0 (Windows NT 10.0; Win64; x64) AppleWebKit/537.36 (KHTML, like Gecko) Chrome/116.0.0.0 Safari/537.36", "mode": "live", "id": "w32799476:a83183404", "status": "user data saved", "Beginhit": "2023-09-02 13:10:59.595548", "Beginexp": "2023-09-02 13:11:29.949911", "Endhit": "2023-09-02 13:58:05.703377", "psiturkStatus": 3, "browser": "<redacted>", "platform": "windows", "language": "en-GB"}