{"condition": 0, "counterbalance": 0, "assignmentId": "a37577575", "workerId": "w69541317", "hitId": "h84986907", "currenttrial": 33, "bonus": 0, "data": [{"current_trial": 0, "dateTime": 1693579131848, "trialdata": {"internal_node_id": "0.0-0.0", "success": true, "time_elapsed": 3456, "trial_index": 0, "trial_type": "fullscreen"}, "uniqueid": "w69541317:a37577575"}, {"current_trial": 1, "dateTime": 1693579132817, "trialdata": {"internal_node_id": "0.0-1.0", "rt": 967, "time_elapsed": 4425, "trial_id": "exp_instructions_control", "trial_index": 1, "trial_type": "instructions", "view_history": [{"page_index": 0, "viewing_time": 966}]}, "uniqueid": "w69541317:a37577575"}, {"current_trial": 2, "dateTime": 1693579136461, "trialdata": {"internal_node_id": "0.0-2.0-1.0", "rt": 3643, "time_elapsed": 8069, "trial_id": "mouselab_instructions_1_control", "trial_index": 2, "trial_type": "instructions", "view_history": [{"page_index": 0, "viewing_time": 1127}, {"page_index": 1, "viewing_time": 1178}, {"page_index": 2, "viewing_time": 851}, {"page_index": 3, "viewing_time": 488}]}, "uniqueid": "w69541317:a37577575"}, {"current_trial": 3, "dateTime": 1693579144684, "trialdata": {"actionTimes": [4113, 4456, 5056, 5725, 6724, 7250], "actions": ["right", "right", "right", "right", "up", "up"], "block": "test", "clicked_states": ["12", "13", "18"], "costs": -1.5, "displayed_time": "7.76", "internal_node_id": "0.0-2.0-2.0-0.0", "num_clicks_accrued": [0, 0, 0, 0, 0, 0, 0, 0, 0, 0, 0, 0, 0], "path": ["0", "0", "12", "13", "14", "15", "16"], "queries": {"click": {"edge": {"target": [], "time": []}, "state": {"target": ["12", "13", "18"], "time": [1188, 2225, 3291]}}, "mouseout": {"edge": {"target": [], "time": []}, "state": {"target": ["0", "0", "12", "12", "13", "18", "15", "18", "15"], "time": [588, 1112, 1246, 1436, 2287, 2702, 2883, 3618, 3649]}}, "mouseover": {"edge": {"target": [], "time": []}, "state": {"target": ["12", "13", "18", "15", "18", "15"], "time": [1153, 1951, 2467, 2736, 2903, 3620]}}}, "revealed_states": [], "rewards": [-10, -10, -10, 10, 10], "rt": [3011, 341, 89, 159, 489, 16], "score": -8, "simulationMode": [null, null, null, null, null, null], "stateRewards": ["", -10, -10, -10, -10, -10, 10, 10, 10, -10, 10, 10, -10, -10, -10, 10, 10, -10, 10, -10, 10, -10, 10, -10, 10, 10, -10, 10, -10, -10, -10, -10, -10, 10], "time_elapsed": 16292, "trialIndex": 0, "trialTime": 7897, "trial_id": "practice_1", "trial_index": 3, "trial_type": "mouselab-mdp", "withholdReward": false}, "uniqueid": "w69541317:a37577575"}, {"current_trial": 4, "dateTime": 1693579150596, "trialdata": {"actionTimes": [2138, 2794, 3451, 4108, 4774], "actions": ["right", "right", "right", "up", "up"], "block": "test", "clicked_states": [], "costs": 0, "displayed_time": "5.29", "internal_node_id": "0.0-2.0-2.0-1.0", "num_clicks_accrued": [0, 0, 0, 0, 0, 0, 0, 0, 0, 0, 0, 0, 0], "path": ["0", "0", "12", "13", "14", "15", "16"], "queries": {"click": {"edge": {"target": [], "time": []}, "state": {"target": [], "time": []}}, "mouseout": {"edge": {"target": [], "time": []}, "state": {"target": ["16", "1", "0", "12"], "time": [92, 275, 925, 1222]}}, "mouseover": {"edge": {"target": [], "time": []}, "state": {"target": ["12"], "time": [1205]}}}, "revealed_states": [], "rewards": [-10, -10, 10, -10, 10], "rt": [1260, 137, 145, 135, 154], "score": -6.5, "simulationMode": [null, null, null, null, null], "stateRewards": ["", -10, -10, 10, 10, -10, 10, 10, -10, -10, 10, -10, -10, -10, 10, -10, 10, -10, 10, -10, 10, 10, -10, -10, 10, 10, 10, -10, 10, 10, 10, 10, 10, 10], "time_elapsed": 22204, "trialIndex": 1, "trialTime": 5702, "trial_id": "practice_2", "trial_index": 4, "trial_type": "mouselab-mdp", "withholdReward": false}, "uniqueid": "w69541317:a37577575"}, {"current_trial": 5, "dateTime": 1693579153438, "trialdata": {"internal_node_id": "0.0-2.0-3.0", "rt": 2840, "time_elapsed": 25046, "trial_id": "mouselab_instructions_2_control", "trial_index": 5, "trial_type": "instructions", "view_history": [{"page_index": 0, "viewing_time": 1733}, {"page_index": 1, "viewing_time": 1107}]}, "uniqueid": "w69541317:a37577575"}, {"current_trial": 6, "dateTime": 1693579159529, "trialdata": {"correct": {"Q0": "The cost for clicking on nodes may vary between nodes.", "Q1": "The better I perform the higher my bonus will be.", "Q2": "No, the amount of cash at each node of the web may be different each time.", "Q3": "To get the highest total score.", "Q4": "Only before moving the spider.", "Q5": "3 seconds"}, "internal_node_id": "0.0-2.0-4.0", "question_order": [0, 1, 2, 3, 4, 5], "response": {"Q0": "The cost for clicking on nodes may vary between nodes.", "Q1": "The better I perform the higher my bonus will be.", "Q2": "No, the amount of cash at each node of the web may be different each time.", "Q3": "To click on the least number of nodes.", "Q4": "Only before moving the spider.", "Q5": "3 seconds"}, "rt": 6089, "time_elapsed": 31136, "trial_id": "mouselab_quiz_control", "trial_index": 6, "trial_type": "survey-multi-choice"}, "uniqueid": "w69541317:a37577575"}, {"current_trial": 7, "dateTime": 1693579164697, "trialdata": {"internal_node_id": "0.0-2.1-0.1-0.1", "success": true, "time_elapsed": 36305, "trial_index": 7, "trial_type": "fullscreen"}, "uniqueid": "w69541317:a37577575"}, {"current_trial": 8, "dateTime": 1693579168588, "trialdata": {"internal_node_id": "0.0-2.1-1.1", "rt": 3892, "time_elapsed": 40196, "trial_id": "mouselab_instructions_1_control", "trial_index": 8, "trial_type": "instructions", "view_history": [{"page_index": 0, "viewing_time": 1528}, {"page_index": 1, "viewing_time": 1258}, {"page_index": 2, "viewing_time": 635}, {"page_index": 3, "viewing_time": 471}]}, "uniqueid": "w69541317:a37577575"}, {"current_trial": 9, "dateTime": 1693579174146, "trialdata": {"actionTimes": [1772, 1912, 2574, 3446, 4012, 4658], "actions": ["right", "right", "right", "right", "up", "up"], "block": "test", "clicked_states": ["12"], "costs": -0.5, "displayed_time": "5.17", "internal_node_id": "0.0-2.1-2.1-0.1", "num_clicks_accrued": [0, 0, 0, 0, 0, 0, 0, 0, 0, 0, 0, 0, 0], "path": ["0", "0", "12", "13", "14", "15", "16"], "queries": {"click": {"edge": {"target": [], "time": []}, "state": {"target": ["12"], "time": [1237]}}, "mouseout": {"edge": {"target": [], "time": []}, "state": {"target": ["0"], "time": [571]}}, "mouseover": {"edge": {"target": [], "time": []}, "state": {"target": ["12"], "time": [1121]}}}, "revealed_states": [], "rewards": [-10, -10, -10, 10, 10], "rt": [962, 137, 135, 357, 44, 124], "score": -7, "simulationMode": [null, null, null, null, null, null], "stateRewards": ["", -10, -10, -10, -10, -10, 10, 10, 10, -10, 10, 10, -10, -10, -10, 10, 10, -10, 10, -10, 10, -10, 10, -10, 10, 10, -10, 10, -10, -10, -10, -10, -10, 10], "time_elapsed": 45754, "trialIndex": 2, "trialTime": 5272, "trial_id": "practice_1", "trial_index": 9, "trial_type": "mouselab-mdp", "withholdReward": false}, "uniqueid": "w69541317:a37577575"}, {"current_trial": 10, "dateTime": 1693579178431, "trialdata": {"actionTimes": [809, 1467, 2110, 2778, 3398], "actions": ["right", "right", "right", "up", "up"], "block": "test", "clicked_states": [], "costs": 0, "displayed_time": "3.91", "internal_node_id": "0.0-2.1-2.1-1.1", "num_clicks_accrued": [0, 0, 0, 0, 0, 0, 0, 0, 0, 0, 0, 0, 0], "path": ["0", "0", "12", "13", "14", "15", "16"], "queries": {"click": {"edge": {"target": [], "time": []}, "state": {"target": [], "time": []}}, "mouseout": {"edge": {"target": [], "time": []}, "state": {"target": ["12"], "time": [74]}}, "mouseover": {"edge": {"target": [], "time": []}, "state": {"target": [], "time": []}}}, "revealed_states": [], "rewards": [-10, -10, 10, -10, 10], "rt": [340, 143, 118, 154, 110], "score": -6.5, "simulationMode": [null, null, null, null, null], "stateRewards": ["", -10, -10, 10, 10, -10, 10, 10, -10, -10, 10, -10, -10, -10, 10, -10, 10, -10, 10, -10, 10, 10, -10, -10, 10, 10, 10, -10, 10, 10, 10, 10, 10, 10], "time_elapsed": 50039, "trialIndex": 3, "trialTime": 3982, "trial_id": "practice_2", "trial_index": 10, "trial_type": "mouselab-mdp", "withholdReward": false}, "uniqueid": "w69541317:a37577575"}, {"current_trial": 11, "dateTime": 1693579181072, "trialdata": {"internal_node_id": "0.0-2.1-3.1", "rt": 2637, "time_elapsed": 52679, "trial_id": "mouselab_instructions_2_control", "trial_index": 11, "trial_type": "instructions", "view_history": [{"page_index": 0, "viewing_time": 1617}, {"page_index": 1, "viewing_time": 1020}]}, "uniqueid": "w69541317:a37577575"}, {"current_trial": 12, "dateTime": 1693579187572, "trialdata": {"correct": {"Q0": "The cost for clicking on nodes may vary between nodes.", "Q1": "The better I perform the higher my bonus will be.", "Q2": "No, the amount of cash at each node of the web may be different each time.", "Q3": "To get the highest total score.", "Q4": "Only before moving the spider.", "Q5": "3 seconds"}, "internal_node_id": "0.0-2.1-4.1", "question_order": [0, 1, 2, 3, 4, 5], "response": {"Q0": "It is less costly to inspect further nodes.", "Q1": "The better I perform the higher my bonus will be.", "Q2": "No, the amount of cash at each node of the web may be different each time.", "Q3": "To get the highest total score.", "Q4": "Only before moving the spider.", "Q5": "3 seconds"}, "rt": 6498, "time_elapsed": 59180, "trial_id": "mouselab_quiz_control", "trial_index": 12, "trial_type": "survey-multi-choice"}, "uniqueid": "w69541317:a37577575"}, {"current_trial": 13, "dateTime": 1693579196127, "trialdata": {"internal_node_id": "0.0-2.2-0.2-0.2", "success": true, "time_elapsed": 67735, "trial_index": 13, "trial_type": "fullscreen"}, "uniqueid": "w69541317:a37577575"}, {"current_trial": 14, "dateTime": 1693579201687, "trialdata": {"internal_node_id": "0.0-2.2-1.2", "rt": 5558, "time_elapsed": 73295, "trial_id": "mouselab_instructions_1_control", "trial_index": 14, "trial_type": "instructions", "view_history": [{"page_index": 0, "viewing_time": 1504}, {"page_index": 1, "viewing_time": 1932}, {"page_index": 2, "viewing_time": 1232}, {"page_index": 3, "viewing_time": 890}]}, "uniqueid": "w69541317:a37577575"}, {"current_trial": 15, "dateTime": 1693579208122, "trialdata": {"actionTimes": [3072, 3218, 3857, 4489, 5037, 5591], "actions": ["right", "right", "right", "right", "up", "left"], "block": "test", "clicked_states": ["12", "18"], "costs": -1, "displayed_time": "6.10", "internal_node_id": "0.0-2.2-2.2-0.2", "num_clicks_accrued": [0, 0, 0, 0, 0, 0, 0, 0, 0, 0, 0, 0, 0], "path": ["0", "0", "12", "13", "14", "15", "18"], "queries": {"click": {"edge": {"target": [], "time": []}, "state": {"target": ["12", "18"], "time": [1493, 2622]}}, "mouseout": {"edge": {"target": [], "time": []}, "state": {"target": ["0", "12", "12", "18"], "time": [1017, 1065, 1501, 1679]}}, "mouseover": {"edge": {"target": [], "time": []}, "state": {"target": ["12", "12", "18", "18"], "time": [1031, 1483, 1647, 1896]}}}, "revealed_states": [], "rewards": [-10, -10, -10, 10, 10], "rt": [2104, 144, 108, 121, 34, 43], "score": -7.5, "simulationMode": [null, null, null, null, null, null], "stateRewards": ["", -10, -10, -10, -10, -10, 10, 10, 10, -10, 10, 10, -10, -10, -10, 10, 10, -10, 10, -10, 10, -10, 10, -10, 10, 10, -10, 10, -10, -10, -10, -10, -10, 10], "time_elapsed": 79729, "trialIndex": 4, "trialTime": 6121, "trial_id": "practice_1", "trial_index": 15, "trial_type": "mouselab-mdp", "withholdReward": false}, "uniqueid": "w69541317:a37577575"}, {"current_trial": 16, "dateTime": 1693579212988, "trialdata": {"actionTimes": [1293, 1940, 2585, 3266, 3867], "actions": ["right", "right", "right", "up", "left"], "block": "test", "clicked_states": [], "costs": 0, "displayed_time": "4.39", "internal_node_id": "0.0-2.2-2.2-1.2", "num_clicks_accrued": [0, 0, 0, 0, 0, 0, 0, 0, 0, 0, 0, 0, 0], "path": ["0", "0", "12", "13", "14", "15", "18"], "queries": {"click": {"edge": {"target": [], "time": []}, "state": {"target": [], "time": []}}, "mouseout": {"edge": {"target": [], "time": []}, "state": {"target": ["18"], "time": [305]}}, "mouseover": {"edge": {"target": [], "time": []}, "state": {"target": [], "time": []}}}, "revealed_states": [], "rewards": [-10, -10, 10, -10, 10], "rt": [303, 134, 129, 156, 80], "score": -6.5, "simulationMode": [null, null, null, null, null], "stateRewards": ["", -10, -10, 10, 10, -10, 10, 10, -10, -10, 10, -10, -10, -10, 10, -10, 10, -10, 10, -10, 10, 10, -10, -10, 10, 10, 10, -10, 10, 10, 10, 10, 10, 10], "time_elapsed": 84595, "trialIndex": 5, "trialTime": 4631, "trial_id": "practice_2", "trial_index": 16, "trial_type": "mouselab-mdp", "withholdReward": false}, "uniqueid": "w69541317:a37577575"}, {"current_trial": 17, "dateTime": 1693579216820, "trialdata": {"internal_node_id": "0.0-2.2-3.2", "rt": 3827, "time_elapsed": 88428, "trial_id": "mouselab_instructions_2_control", "trial_index": 17, "trial_type": "instructions", "view_history": [{"page_index": 0, "viewing_time": 1239}, {"page_index": 1, "viewing_time": 2588}]}, "uniqueid": "w69541317:a37577575"}, {"current_trial": 18, "dateTime": 1693579231119, "trialdata": {"correct": {"Q0": "The cost for clicking on nodes may vary between nodes.", "Q1": "The better I perform the higher my bonus will be.", "Q2": "No, the amount of cash at each node of the web may be different each time.", "Q3": "To get the highest total score.", "Q4": "Only before moving the spider.", "Q5": "3 seconds"}, "internal_node_id": "0.0-2.2-4.2", "question_order": [0, 1, 2, 3, 4, 5], "response": {"Q0": "The cost for clicking on nodes may vary between nodes.", "Q1": "The better I perform the higher my bonus will be.", "Q2": "No, the amount of cash at each node of the web may be different each time.", "Q3": "To get the highest total score.", "Q4": "Only before moving the spider.", "Q5": "3 seconds"}, "rt": 14294, "time_elapsed": 102727, "trial_id": "mouselab_quiz_control", "trial_index": 18, "trial_type": "survey-multi-choice"}, "uniqueid": "w69541317:a37577575"}, {"current_trial": 19, "dateTime": 1693579233019, "trialdata": {"internal_node_id": "0.0-4.0-0.0", "question_order": [0], "response": {"Q0": "No"}, "rt": 1890, "time_elapsed": 104626, "trial_id": "repeat_check", "trial_index": 19, "trial_type": "survey-multi-choice"}, "uniqueid": "w69541317:a37577575"}, {"current_trial": 20, "dateTime": 1693579234272, "trialdata": {"internal_node_id": "0.0-6.0-0.0", "response": " ", "rt": 1246, "stimulus": "\n<h1> Get ready to start the game! </h1>\n\nThank you for reading the instructions. Get ready start with the 40 rounds of this game.\n<br><br>\nIf you need to take a break, feel free to take one after the end of a round, before continuing to the next one.\n<br><br>\nRemember, the more money the spider gets, the bigger your bonus will be!\n<br><br>\n<div style='text-align: center;'>Press <code>space</code> to begin.</div>\n\n<br><br>\n(If, at any point, the <code>space</code> key does not take you to the next page, click once on the text and try again.)", "time_elapsed": 105880, "trial_id": "mdp_ready", "trial_index": 20, "trial_type": "html-keyboard-response"}, "uniqueid": "w69541317:a37577575"}, {"current_trial": 21, "dateTime": 1693579249403, "trialdata": {"actionTimes": [3316, 3483, 4089, 4698, 5333, 5972], "actions": ["right", "right", "right", "right", "up", "right"], "block": "test", "clicked_states": ["12", "18"], "costs": -2.8, "displayed_time": "14.58", "internal_node_id": "0.0-6.0-1.0-0.0", "num_clicks_accrued": [0, 0, 0, 0, 0, 0, 0, 0, 0, 0, 0, 0, 0], "path": ["0", "0", "12", "13", "14", "15", "17"], "queries": {"click": {"edge": {"target": [], "time": []}, "state": {"target": ["12", "18"], "time": [1004, 2528]}}, "mouseout": {"edge": {"target": [], "time": []}, "state": {"target": ["4", "0", "12", "18"], "time": [12, 646, 1131, 14190]}}, "mouseover": {"edge": {"target": [], "time": []}, "state": {"target": ["12", "18"], "time": [881, 1397]}}}, "revealed_states": [], "rewards": [-2, -2, 8, 1, -85], "rt": [2746, 164, 74, 101, 120, 121], "score": -82.8, "simulationMode": [null, null, null, null, null, null], "stateRewards": ["", 1, -4, 6, -3, 40, 76, -51, 5, -24, -63, 44, -2, -2, 8, 1, 76, -85, -58, 10, 59, 20, 11, -2, 3, -3, 3, -82, -10, 54, -7, -57, -6, -32], "time_elapsed": 121010, "trialIndex": 6, "trialTime": 14854, "trial_id": "mdp_trial_1", "trial_index": 21, "trial_type": "mouselab-mdp", "withholdReward": false}, "uniqueid": "w69541317:a37577575"}, {"uniqueid": "w69541317:a37577575", "current_trial": 22, "dateTime": 1693579293481, "trialdata": {"success": true, "trial_type": "fullscreen", "trial_index": 0, "time_elapsed": 1492, "internal_node_id": "0.0-0.0"}}, {"uniqueid": "w69541317:a37577575", "current_trial": 23, "dateTime": 1693579294451, "trialdata": {"view_history": [{"page_index": 0, "viewing_time": 967}], "rt": 967, "trial_id": "exp_instructions_control", "trial_type": "instructions", "trial_index": 1, "time_elapsed": 2462, "internal_node_id": "0.0-1.0"}}, {"uniqueid": "w69541317:a37577575", "current_trial": 24, "dateTime": 1693579298287, "trialdata": {"view_history": [{"page_index": 0, "viewing_time": 1384}, {"page_index": 1, "viewing_time": 1227}, {"page_index": 2, "viewing_time": 720}, {"page_index": 3, "viewing_time": 503}], "rt": 3835, "trial_id": "mouselab_instructions_1_control", "trial_type": "instructions", "trial_index": 2, "time_elapsed": 6298, "internal_node_id": "0.0-2.0-1.0"}}, {"uniqueid": "w69541317:a37577575", "current_trial": 25, "dateTime": 1693579304540, "trialdata": {"revealed_states": [], "clicked_states": ["12", "18"], "num_clicks_accrued": [0, 0, 0, 0, 0, 0, 0, 0, 0, 0, 0, 0, 0], "stateRewards": ["", 10, 10, 10, -10, -10, 10, -10, 10, 10, -10, 10, 10, 10, 10, 10, 10, 10, -10, -10, -10, 10, -10, -10, 10, 10, -10, -10, 10, 10, -10, 10, 10, 10], "withholdReward": false, "trial_id": "practice_1", "block": "test", "trialIndex": 0, "score": 52.5, "costs": -1, "simulationMode": [null, null, null, null, null, null], "rewards": [10, 10, 10, 10, 10], "path": ["0", "0", "12", "13", "14", "15", "16"], "rt": [2149, 124, 142, 106, 7, 99], "actions": ["right", "right", "right", "right", "up", "up"], "actionTimes": [2867, 2993, 3658, 4272, 4788, 5412], "queries": {"click": {"state": {"target": ["12", "18"], "time": [1151, 2248]}, "edge": {"target": [], "time": []}}, "mouseover": {"state": {"target": ["12", "18"], "time": [1033, 1514]}, "edge": {"target": [], "time": []}}, "mouseout": {"state": {"target": ["0", "12"], "time": [754, 1265]}, "edge": {"target": [], "time": []}}}, "displayed_time": "5.93", "trialTime": 5989, "trial_type": "mouselab-mdp", "trial_index": 3, "time_elapsed": 12551, "internal_node_id": "0.0-2.0-2.0-0.0"}}, {"uniqueid": "w69541317:a37577575", "current_trial": 26, "dateTime": 1693579310720, "trialdata": {"revealed_states": [], "clicked_states": ["12", "18"], "num_clicks_accrued": [0, 0, 0, 0, 0, 0, 0, 0, 0, 0, 0, 0, 0], "stateRewards": ["", -10, 10, 10, -10, 10, 10, 10, 10, -10, -10, -10, 10, 10, 10, 10, -10, -10, -10, -10, -10, -10, 10, -10, -10, 10, 10, -10, 10, 10, 10, 10, 10, -10], "withholdReward": false, "trial_id": "practice_2", "block": "test", "trialIndex": 1, "score": 32.5, "costs": -1, "simulationMode": [null, null, null, null, null, null], "rewards": [10, 10, 10, 10, -10], "path": ["0", "0", "12", "13", "14", "15", "18"], "rt": [1781, 127, 84, 135, 156, 65], "actions": ["right", "right", "right", "right", "up", "left"], "actionTimes": [2749, 2878, 3483, 4114, 4785, 5360], "queries": {"click": {"state": {"target": ["12", "18"], "time": [1076, 2173]}, "edge": {"target": [], "time": []}}, "mouseover": {"state": {"target": ["12", "13", "18"], "time": [979, 1531, 1629]}, "edge": {"target": [], "time": []}}, "mouseout": {"state": {"target": ["0", "0", "12", "13", "18"], "time": [82, 749, 1128, 1563, 2219]}, "edge": {"target": [], "time": []}}}, "displayed_time": "5.88", "trialTime": 5921, "trial_type": "mouselab-mdp", "trial_index": 4, "time_elapsed": 18730, "internal_node_id": "0.0-2.0-2.0-1.0"}}, {"uniqueid": "w69541317:a37577575", "current_trial": 27, "dateTime": 1693579312715, "trialdata": {"view_history": [{"page_index": 0, "viewing_time": 1096}, {"page_index": 1, "viewing_time": 898}], "rt": 1994, "trial_id": "mouselab_instructions_2_control", "trial_type": "instructions", "trial_index": 5, "time_elapsed": 20726, "internal_node_id": "0.0-2.0-3.0"}}, {"uniqueid": "w69541317:a37577575", "current_trial": 28, "dateTime": 1693579318330, "trialdata": {"rt": 5612, "response": {"Q0": "The cost for clicking on nodes may vary between nodes.", "Q1": "The better I perform the higher my bonus will be.", "Q2": "No, the amount of cash at each node of the web may be different each time.", "Q3": "To get the highest total score.", "Q4": "Only before moving the spider.", "Q5": "3 seconds"}, "question_order": [0, 1, 2, 3, 4, 5], "correct": {"Q0": "The cost for clicking on nodes may vary between nodes.", "Q1": "The better I perform the higher my bonus will be.", "Q2": "No, the amount of cash at each node of the web may be different each time.", "Q3": "To get the highest total score.", "Q4": "Only before moving the spider.", "Q5": "3 seconds"}, "trial_id": "mouselab_quiz_control", "trial_type": "survey-multi-choice", "trial_index": 6, "time_elapsed": 26341, "internal_node_id": "0.0-2.0-4.0"}}, {"uniqueid": "w69541317:a37577575", "current_trial": 29, "dateTime": 1693579320454, "trialdata": {"rt": 2119, "response": {"Q0": "Yes"}, "question_order": [0], "trial_id": "repeat_check", "trial_type": "survey-multi-choice", "trial_index": 7, "time_elapsed": 28465, "internal_node_id": "0.0-4.0-0.0"}}, {"uniqueid": "w69541317:a37577575", "current_trial": 30, "dateTime": 1693579325079, "trialdata": {"rt": 4617, "response": {"Q0": "adsf", "Q1": "asdf", "Q2": "asdf", "Q3": "asdf", "Q4": "adsf"}, "trial_id": "finish_repeat", "trial_type": "survey-text", "trial_index": 8, "time_elapsed": 33090, "internal_node_id": "0.0-5.0-0.0"}}, {"uniqueid": "w69541317:a37577575", "current_trial": 31, "dateTime": 1693579356994, "trialdata": {"rt": 31911, "stimulus": "<h1>Completion Code Instructions (1/2)</h1>\n<br><br><br><br>\nYou have reached the end of the experiment! The completion code consists of two parts: (1) a code with 2 characters (2) a code with 6 characters. On this page, you will receive the second part of the code. The first part of the completion code will be on the next page.\n<br><br>\nThe second part of your completion code is: <b>6GR61H</b>\n<br><br>\nPlease note this down. Then, press 'Next' in order to find the first part of your completion code. Once the data has been saved, you will receive this code either in this window or in the original browser window where you started the experiment.\n<br><br>\n<h2 style='color: red;'>Note: this is <strong>NOT</strong> the full completion code. Copy this down and click 'Next' to get the full completion code on the next page.</h2>\n\n", "response": 0, "trial_type": "html-button-response", "trial_index": 9, "time_elapsed": 65005, "internal_node_id": "0.0-5.0-1.0"}}, {"uniqueid": "w69541317:a37577575", "current_trial": 32, "dateTime": 1693579358002, "trialdata": {"success": true, "trial_type": "fullscreen", "trial_index": 10, "time_elapsed": 66013, "internal_node_id": "0.0-7.0"}}], "questiondata": {"params": {"CODE": "C6DMOQA6", "MIN_TIME": 14, "inspectCost": 1, "startTime": "Fri Sep 01 2023 16:41:31 GMT+0200 (Central European Summer Time)", "bonusRate": 0.002, "variance": "1_2_4_8_44", "branching": "31123"}, "final_score": 0}, "eventdata": [{"eventtype": "initialized", "interval": 0, "timestamp": 1693579127042, "value": null}, {"eventtype": "window_resize", "interval": 0, "timestamp": 1693579127042, "value": [1024, 736]}, {"eventtype": "window_resize", "interval": 367, "timestamp": 1693579127409, "value": [1024, 736]}, {"eventtype": "focus", "interval": 2326, "timestamp": 1693579129735, "value": "on"}, {"eventtype": "window_resize", "interval": 1361, "timestamp": 1693579131096, "value": [1440, 900]}, {"eventtype": "focus", "interval": 31703, "timestamp": 1693579162799, "value": "off"}, {"eventtype": "focus", "interval": 163, "timestamp": 1693579162962, "value": "on"}, {"eventtype": "window_resize", "interval": 51, "timestamp": 1693579163013, "value": [1024, 736]}, {"eventtype": "window_resize", "interval": 943, "timestamp": 1693579163956, "value": [1440, 900]}, {"eventtype": "focus", "interval": 30423, "timestamp": 1693579194379, "value": "off"}, {"eventtype": "focus", "interval": 0, "timestamp": 1693579194379, "value": "on"}, {"eventtype": "focus", "interval": 0, "timestamp": 1693579194379, "value": "off"}, {"eventtype": "focus", "interval": 173, "timestamp": 1693579194552, "value": "on"}, {"eventtype": "window_resize", "interval": 39, "timestamp": 1693579194591, "value": [1024, 736]}, {"eventtype": "window_resize", "interval": 779, "timestamp": 1693579195370, "value": [1440, 900]}, {"eventtype": "window_resize", "value": [1024, 736], "timestamp": 1693579291054, "interval": 95684}, {"eventtype": "window_resize", "value": [1440, 900], "timestamp": 1693579292705, "interval": 1651}, {"eventtype": "window_resize", "value": [1024, 736], "timestamp": 1693579357283, "interval": 64578}], "useragent": "Mozilla/5.0 (Macintosh; Intel Mac OS X 10_15_7) AppleWebKit/537.36 (KHTML, like Gecko) Chrome/115.0.0.0 Safari/537.36", "mode": "debug", "id": "w69541317:a37577575", "status": "user data saved", "Beginhit": "2023-09-01 14:38:45.727829", "Beginexp": "2023-09-01 14:41:33.689214", "Endhit": "2023-09-01 14:42:38.570358", "psiturkStatus": 3, "browser": "<redacted>", "platform": "macos", "language": "en-US"}