{"condition": 1, "counterbalance": 0, "assignmentId": "a18193006", "workerId": "w31889251", "hitId": "h42235589", "currenttrial": 56, "bonus": 0, "data": [{"uniqueid": "w31889251:a18193006", "current_trial": 0, "dateTime": 1693482068215, "trialdata": {"success": true, "trial_type": "fullscreen", "trial_index": 0, "time_elapsed": 10716, "internal_node_id": "0.0-0.0"}}, {"uniqueid": "w31889251:a18193006", "current_trial": 1, "dateTime": 1693482101889, "trialdata": {"view_history": [{"page_index": 0, "viewing_time": 33647}], "rt": 33650, "trial_id": "exp_instructions_misaligned", "trial_type": "instructions", "trial_index": 1, "time_elapsed": 44391, "internal_node_id": "0.0-1.0"}}, {"uniqueid": "w31889251:a18193006", "current_trial": 2, "dateTime": 1693482468736, "trialdata": {"view_history": [{"page_index": 0, "viewing_time": 199322}, {"page_index": 1, "viewing_time": 96406}, {"page_index": 2, "viewing_time": 28798}, {"page_index": 3, "viewing_time": 42307}], "rt": 366835, "trial_id": "mouselab_instructions_1_misaligned", "trial_type": "instructions", "trial_index": 2, "time_elapsed": 411238, "internal_node_id": "0.0-2.0-1.0"}}, {"uniqueid": "w31889251:a18193006", "current_trial": 3, "dateTime": 1693482507948, "trialdata": {"revealed_states": [], "clicked_states": [], "num_clicks_accrued": [0, 0, 0, 0, 0, 0, 0, 0, 0, 0, 0, 0, 0], "stateRewards": ["", -10, -10, -10, -10, -10, 10, 10, 10, -10, 10, 10, -10, -10, -10, 10, -10, -10, -10, -10, 10, -10, 10, 10, 10, 10, 10, -10, 10, -10, -10, 10, 10, 10], "withholdReward": false, "trial_id": "practice_1", "block": "test", "trialIndex": 0, "score": -46.5, "costs": 0, "simulationMode": [null, null, null, null, null], "rewards": [-10, -10, -10, -10, -10], "path": ["0", "0", "1", "2", "3", "4", "5"], "rt": [19271, 1313, 1088, 1557, 1099], "actions": ["up", "up", "up", "right", "up"], "actionTimes": [24560, 26381, 28060, 30158, 31780], "queries": {"click": {"state": {"target": [], "time": []}, "edge": {"target": [], "time": []}}, "mouseover": {"state": {"target": ["12", "13", "14", "7", "2", "1"], "time": [8429, 8478, 8517, 15242, 15343, 17624]}, "edge": {"target": [], "time": []}}, "mouseout": {"state": {"target": ["0", "12", "13", "14", "7", "2", "1"], "time": [8410, 8453, 8497, 8534, 15282, 17359, 19357]}, "edge": {"target": [], "time": []}}}, "displayed_time": "32.31", "trialTime": 37697, "trial_type": "mouselab-mdp", "trial_index": 3, "time_elapsed": 450448, "internal_node_id": "0.0-2.0-2.0-0.0"}}, {"uniqueid": "w31889251:a18193006", "current_trial": 4, "dateTime": 1693482590322, "trialdata": {"revealed_states": [], "clicked_states": ["26", "3", "15", "30", "8", "5"], "num_clicks_accrued": [0, 0, 0, 0, 0, 0, 0, 0, 0, 0, 0, 0, 0], "stateRewards": ["", 10, -10, 10, 10, 10, -10, -10, 10, 10, -10, 10, 10, -10, 10, 10, 10, 10, 10, 10, -10, 10, 10, -10, -10, 10, -10, 10, 10, -10, -10, 10, -10, -10], "withholdReward": false, "trial_id": "practice_2", "block": "test", "trialIndex": 1, "score": 30.5, "costs": -3, "simulationMode": [null, null, null, null, null], "rewards": [10, -10, 10, 10, 10], "path": ["0", "0", "1", "2", "3", "4", "5"], "rt": [35300, 861, 683, 1319, 744], "actions": ["up", "up", "up", "right", "up"], "actionTimes": [42184, 43556, 44747, 46582, 47867], "queries": {"click": {"state": {"target": ["26", "3", "15", "30", "8", "5"], "time": [14343, 19900, 22605, 24611, 31483, 35436]}, "edge": {"target": [], "time": []}}, "mouseover": {"state": {"target": ["12", "23", "25", "26", "28", "24", "23", "2", "3", "2", "18", "15", "15", "14", "30", "30", "25", "8", "3", "5"], "time": [8056, 12916, 12994, 13301, 17154, 17252, 18803, 19207, 19375, 21269, 21435, 21528, 22087, 23473, 23769, 24119, 30585, 30952, 34556, 34887]}, "edge": {"target": [], "time": []}}, "mouseout": {"state": {"target": ["14", "13", "12", "0", "12", "23", "25", "26", "26", "28", "24", "23", "2", "3", "3", "2", "18", "15", "15", "14", "30", "30", "25", "8", "3", "5"], "time": [5084, 5124, 5351, 8032, 8077, 12946, 13027, 14550, 17122, 17172, 17287, 18938, 19319, 20103, 21185, 21319, 21462, 21640, 23391, 23606, 23840, 30545, 30647, 34521, 34719, 35650]}, "edge": {"target": [], "time": []}}}, "displayed_time": "48.39", "trialTime": 81430, "trial_type": "mouselab-mdp", "trial_index": 4, "time_elapsed": 532822, "internal_node_id": "0.0-2.0-2.0-1.0"}}, {"uniqueid": "w31889251:a18193006", "current_trial": 5, "dateTime": 1693482654026, "trialdata": {"view_history": [{"page_index": 0, "viewing_time": 49089}, {"page_index": 1, "viewing_time": 14601}], "rt": 63691, "trial_id": "mouselab_instructions_2_misaligned", "trial_type": "instructions", "trial_index": 5, "time_elapsed": 596528, "internal_node_id": "0.0-2.0-3.0"}}, {"uniqueid": "w31889251:a18193006", "current_trial": 6, "dateTime": 1693482711741, "trialdata": {"rt": 57703, "response": {"Q0": "The cost for clicking on nodes may vary between nodes.", "Q1": "The better I perform the higher my bonus will be.", "Q2": "No, the amount of cash at each node of the web may be different each time.", "Q3": "To get the highest total score.", "Q4": "Only before moving the spider.", "Q5": "3 seconds"}, "question_order": [0, 1, 2, 3, 4, 5], "correct": {"Q0": "The cost for clicking on nodes may vary between nodes.", "Q1": "The better I perform the higher my bonus will be.", "Q2": "No, the amount of cash at each node of the web may be different each time.", "Q3": "To get the highest total score.", "Q4": "Only before moving the spider.", "Q5": "3 seconds"}, "trial_id": "mouselab_quiz_misaligned", "trial_type": "survey-multi-choice", "trial_index": 6, "time_elapsed": 654243, "internal_node_id": "0.0-2.0-4.0"}}, {"uniqueid": "w31889251:a18193006", "current_trial": 7, "dateTime": 1693482726306, "trialdata": {"rt": 14543, "response": {"Q0": "No"}, "question_order": [0], "trial_id": "repeat_check", "trial_type": "survey-multi-choice", "trial_index": 7, "time_elapsed": 668807, "internal_node_id": "0.0-4.0-0.0"}}, {"uniqueid": "w31889251:a18193006", "current_trial": 8, "dateTime": 1693482747334, "trialdata": {"rt": 21021, "stimulus": "\n<h1> Get ready to start the game! </h1>\n\nThank you for reading the instructions. Get ready start with the 40 rounds of this game.\n<br><br>\nIf you need to take a break, feel free to take one after the end of a round, before continuing to the next one.\n<br><br>\nRemember, the more money the spider gets, the bigger your bonus will be!\n<br><br>\n<div style='text-align: center;'>Press <code>space</code> to begin.</div>\n\n<br><br>\n(If, at any point, the <code>space</code> key does not take you to the next page, click once on the text and try again.)", "response": " ", "trial_id": "mdp_ready", "trial_type": "html-keyboard-response", "trial_index": 8, "time_elapsed": 689836, "internal_node_id": "0.0-6.0-0.0"}}, {"uniqueid": "w31889251:a18193006", "current_trial": 9, "dateTime": 1693482772918, "trialdata": {"revealed_states": [], "clicked_states": [], "num_clicks_accrued": [0, 0, 0, 0, 0, 0, 0, 0, 0, 0, 0, 0, 0], "stateRewards": ["", 2, 3, -6, -5, -3, 55, 40, 11, 61, 11, 51, 2, -4, -6, 9, -25, 29, -15, -6, 7, -77, -2, -2, -4, 1, 14, -43, -1, 56, -12, -54, 41, -74], "withholdReward": false, "trial_id": "mdp_trial_1", "block": "test", "trialIndex": 2, "score": -24, "costs": 0, "simulationMode": [null, null, null, null, null], "rewards": [2, -4, -6, 9, -25], "path": ["0", "0", "12", "13", "14", "15", "16"], "rt": [11176, 1089, 827, 1391, 615], "actions": ["right", "right", "right", "up", "up"], "actionTimes": [15275, 16898, 18235, 20179, 21346], "queries": {"click": {"state": {"target": [], "time": []}, "edge": {"target": [], "time": []}}, "mouseover": {"state": {"target": ["12"], "time": [4598]}, "edge": {"target": [], "time": []}}, "mouseout": {"state": {"target": ["0", "12"], "time": [4563, 4616]}, "edge": {"target": [], "time": []}}}, "displayed_time": "21.88", "trialTime": 24655, "trial_type": "mouselab-mdp", "trial_index": 9, "time_elapsed": 715418, "internal_node_id": "0.0-6.0-1.0-0.0"}}, {"uniqueid": "w31889251:a18193006", "current_trial": 10, "dateTime": 1693482804347, "trialdata": {"revealed_states": [], "clicked_states": ["8", "19"], "num_clicks_accrued": [0, 0, 0, 0, 0, 0, 0, 0, 0, 0, 0, 0, 0], "stateRewards": ["", 1, -1, 4, -2, -75, -75, 84, -9, -60, -79, 59, 2, -4, 8, 9, -17, -82, 80, 14, -4, 49, 49, -1, 3, 6, -11, -33, 34, 55, 9, -57, 5, 59], "withholdReward": false, "trial_id": "mdp_trial_2", "block": "test", "trialIndex": 3, "score": 65.9, "costs": -3.1, "simulationMode": [null, null, null, null, null], "rewards": [2, -4, 8, 14, 49], "path": ["0", "0", "12", "13", "14", "19", "21"], "rt": [10861, 773, 567, 610, 1099], "actions": ["right", "right", "right", "down", "down"], "actionTimes": [14805, 16123, 17195, 18341, 19978], "queries": {"click": {"state": {"target": ["8", "19"], "time": [6047, 8912]}, "edge": {"target": [], "time": []}}, "mouseover": {"state": {"target": ["1", "8", "3", "4", "6", "15", "14", "14", "19", "19", "14", "15", "14"], "time": [4594, 5311, 6899, 7168, 7282, 7445, 7531, 7845, 7961, 8360, 11548, 11761, 11978]}, "edge": {"target": [], "time": []}}, "mouseout": {"state": {"target": ["14", "13", "12", "0", "1", "8", "3", "4", "6", "15", "14", "14", "19", "19", "14", "15", "14"], "time": [1113, 1641, 1795, 4516, 5260, 6265, 7025, 7234, 7330, 7511, 7611, 7928, 8044, 11495, 11587, 11804, 23924]}, "edge": {"target": [], "time": []}}}, "displayed_time": "20.53", "trialTime": 30529, "trial_type": "mouselab-mdp", "trial_index": 10, "time_elapsed": 746847, "internal_node_id": "0.0-6.0-1.0-1.0"}}, {"uniqueid": "w31889251:a18193006", "current_trial": 11, "dateTime": 1693482830492, "trialdata": {"revealed_states": [], "clicked_states": ["8", "4", "19", "30"], "num_clicks_accrued": [0, 0, 0, 0, 0, 0, 0, 0, 0, 0, 0, 0, 0], "stateRewards": ["", 2, -2, -3, 10, -4, -1, -11, -8, -9, -36, -78, 2, 1, 7, -7, 44, -1, -31, -1, 26, 47, 83, 2, -4, -4, -6, -52, -76, -81, -1, -59, 45, 67], "withholdReward": false, "trial_id": "mdp_trial_3", "block": "test", "trialIndex": 4, "score": -3.1999999999999993, "costs": -6.2, "simulationMode": [null, null, null, null, null], "rewards": [2, -2, -3, 10, -4], "path": ["0", "0", "1", "2", "3", "4", "5"], "rt": [9219, 406, 448, 540, 510], "actions": ["up", "up", "up", "right", "up"], "actionTimes": [11995, 12927, 13880, 14957, 16012], "queries": {"click": {"state": {"target": ["8", "4", "19", "30"], "time": [4109, 5259, 7546, 9645]}, "edge": {"target": [], "time": []}}, "mouseover": {"state": {"target": ["10", "8", "3", "4", "14", "14", "19", "30", "30"], "time": [3508, 3659, 4806, 4882, 6231, 6462, 6542, 8831, 9377]}, "edge": {"target": [], "time": []}}, "mouseout": {"state": {"target": ["10", "8", "3", "4", "14", "14", "19", "30", "30", "31", "19"], "time": [3547, 4754, 4872, 5779, 6354, 6479, 8715, 8918, 9856, 20427, 20908]}, "edge": {"target": [], "time": []}}}, "displayed_time": "16.78", "trialTime": 25250, "trial_type": "mouselab-mdp", "trial_index": 11, "time_elapsed": 772994, "internal_node_id": "0.0-6.0-1.0-2.0"}}, {"uniqueid": "w31889251:a18193006", "current_trial": 12, "dateTime": 1693482860117, "trialdata": {"revealed_states": [], "clicked_states": ["30", "26", "8", "4", "19", "15"], "num_clicks_accrued": [0, 0, 0, 0, 0, 0, 0, 0, 0, 0, 0, 0, 0], "stateRewards": ["", 1, -1, 1, 13, 31, -56, 72, 2, 41, 5, 63, -2, -3, -2, 3, -71, -26, 52, 13, -31, 24, -67, 2, -2, 5, 4, 66, 43, 72, 9, 86, -26, 44], "withholdReward": false, "trial_id": "mdp_trial_4", "block": "test", "trialIndex": 5, "score": 20.7, "costs": -9.3, "simulationMode": [null, null, null, null, null], "rewards": [-2, -3, -2, 13, 24], "path": ["0", "0", "12", "13", "14", "19", "21"], "rt": [12425, 360, 359, 515, 370], "actions": ["right", "right", "right", "down", "down"], "actionTimes": [15904, 16790, 17657, 18704, 19602], "queries": {"click": {"state": {"target": ["30", "26", "8", "4", "19", "15"], "time": [4985, 6381, 8588, 10505, 12032, 13576]}, "edge": {"target": [], "time": []}}, "mouseover": {"state": {"target": ["23", "24", "30", "25", "26", "8", "8", "3", "4", "4", "14", "19", "15", "15", "17"], "time": [4091, 4156, 4557, 5543, 5993, 7439, 8242, 9161, 9611, 10073, 11436, 11527, 12591, 13143, 14129]}, "edge": {"target": [], "time": []}}, "mouseout": {"state": {"target": ["13", "12", "0", "23", "24", "30", "25", "26", "8", "8", "3", "4", "4", "14", "19", "15", "15", "17"], "time": [1338, 1487, 4073, 4129, 4176, 5477, 5606, 6928, 7526, 9116, 9327, 9704, 11043, 11487, 12538, 12827, 13805, 14212]}, "edge": {"target": [], "time": []}}}, "displayed_time": "20.15", "trialTime": 28501, "trial_type": "mouselab-mdp", "trial_index": 12, "time_elapsed": 802617, "internal_node_id": "0.0-6.0-1.0-3.0"}}, {"uniqueid": "w31889251:a18193006", "current_trial": 13, "dateTime": 1693482887114, "trialdata": {"revealed_states": [], "clicked_states": ["30", "26", "8", "4", "15", "19"], "num_clicks_accrued": [0, 0, 0, 0, 0, 0, 0, 0, 0, 0, 0, 0, 0], "stateRewards": ["", -2, 2, -1, -6, 22, 6, 6, -5, 70, -42, 65, 1, 3, 5, -6, -67, -9, 3, 14, 7, -62, -13, -2, 4, 1, 16, 42, -21, -52, -8, 32, 53, 81], "withholdReward": false, "trial_id": "mdp_trial_5", "block": "test", "trialIndex": 6, "score": 51.7, "costs": -9.3, "simulationMode": [null, null, null, null, null], "rewards": [-2, 4, 1, 16, 42], "path": ["0", "0", "23", "24", "25", "26", "27"], "rt": [10854, 343, 309, 297, 363], "actions": ["left", "left", "left", "up", "up"], "actionTimes": [14481, 15349, 16178, 17013, 17940], "queries": {"click": {"state": {"target": ["30", "26", "8", "4", "15", "19"], "time": [5340, 6687, 8019, 9181, 10747, 12090]}, "edge": {"target": [], "time": []}}, "mouseover": {"state": {"target": ["23", "24", "25", "30", "25", "26", "8", "3", "4", "15", "15", "14", "19"], "time": [4546, 4616, 4773, 4881, 5963, 6234, 7423, 8581, 8822, 9931, 10236, 11335, 11652]}, "edge": {"target": [], "time": []}}, "mouseout": {"state": {"target": ["15", "18", "23", "24", "25", "30", "25", "26", "8", "3", "4", "15", "15", "15", "14", "19", "22"], "time": [1217, 1287, 4598, 4702, 4819, 5530, 6063, 7224, 8573, 8745, 9836, 10061, 10963, 11290, 11567, 12279, 22768]}, "edge": {"target": [], "time": []}}}, "displayed_time": "18.49", "trialTime": 25832, "trial_type": "mouselab-mdp", "trial_index": 13, "time_elapsed": 829615, "internal_node_id": "0.0-6.0-1.0-4.0"}}, {"uniqueid": "w31889251:a18193006", "current_trial": 14, "dateTime": 1693482911480, "trialdata": {"revealed_states": [], "clicked_states": ["30", "26", "8", "4", "15", "19"], "num_clicks_accrued": [0, 0, 0, 0, 0, 0, 0, 0, 0, 0, 0, 0, 0], "stateRewards": ["", 2, 4, -3, 16, -58, 30, -35, 11, -60, 47, 27, -2, -1, -7, -16, 23, -70, 68, -10, -65, -43, -34, -2, 1, 7, 9, -63, 34, -31, -8, -12, -86, 59], "withholdReward": false, "trial_id": "mdp_trial_6", "block": "test", "trialIndex": 7, "score": -48.3, "costs": -9.3, "simulationMode": [null, null, null, null, null], "rewards": [2, 4, -3, 16, -58], "path": ["0", "0", "1", "2", "3", "4", "5"], "rt": [9980, 256, 308, 331, 383], "actions": ["up", "up", "up", "right", "up"], "actionTimes": [13381, 14163, 15022, 15867, 16764], "queries": {"click": {"state": {"target": ["30", "26", "8", "4", "15", "19"], "time": [4834, 6081, 7416, 8593, 9990, 11327]}, "edge": {"target": [], "time": []}}, "mouseover": {"state": {"target": ["23", "24", "30", "25", "26", "8", "3", "4", "15", "14", "19", "22"], "time": [3979, 4030, 4446, 5199, 5667, 7067, 8023, 8134, 9583, 10629, 10740, 12384]}, "edge": {"target": [], "time": []}}, "mouseout": {"state": {"target": ["18", "23", "24", "30", "25", "26", "8", "3", "4", "15", "15", "14", "19", "22", "13", "14"], "time": [1515, 4000, 4067, 5150, 5500, 6700, 7969, 8073, 9185, 10196, 10566, 10676, 12327, 12434, 21282, 21318]}, "edge": {"target": [], "time": []}}}, "displayed_time": "17.41", "trialTime": 23045, "trial_type": "mouselab-mdp", "trial_index": 14, "time_elapsed": 853980, "internal_node_id": "0.0-6.0-1.0-5.0"}}, {"uniqueid": "w31889251:a18193006", "current_trial": 15, "dateTime": 1693482937789, "trialdata": {"revealed_states": [], "clicked_states": ["30", "26", "8", "4", "15", "14", "19"], "num_clicks_accrued": [0, 0, 0, 0, 0, 0, 0, 0, 0, 0, 0, 0, 0], "stateRewards": ["", 1, 1, 6, -14, -40, 37, 16, -13, 33, -68, 49, 2, 4, 3, 6, 55, 27, 32, 10, -65, 20, -87, 2, 1, -6, -5, -42, 12, 29, -8, 16, 76, -33], "withholdReward": false, "trial_id": "mdp_trial_7", "block": "test", "trialIndex": 8, "score": -56.25, "costs": -10.25, "simulationMode": [null, null, null, null, null], "rewards": [2, 4, 3, 10, -65], "path": ["0", "0", "12", "13", "14", "19", "20"], "rt": [12660, 488, 425, 468, 528], "actions": ["right", "right", "right", "down", "right"], "actionTimes": [16916, 17932, 18868, 19900, 20941], "queries": {"click": {"state": {"target": ["30", "26", "8", "4", "15", "14", "19"], "time": [5923, 7167, 8275, 9471, 10863, 12502, 13806]}, "edge": {"target": [], "time": []}}, "mouseover": {"state": {"target": ["0", "24", "30", "25", "26", "8", "3", "4", "15", "14", "19"], "time": [5141, 5220, 5437, 6373, 6683, 7816, 8800, 8908, 10525, 11791, 13324]}, "edge": {"target": [], "time": []}}, "mouseout": {"state": {"target": ["17", "15", "12", "0", "24", "30", "25", "26", "8", "3", "4", "15", "14"], "time": [1251, 1284, 1450, 5163, 5288, 6364, 6457, 7673, 8791, 8875, 10167, 11741, 13224]}, "edge": {"target": [], "time": []}}}, "displayed_time": "21.50", "trialTime": 24756, "trial_type": "mouselab-mdp", "trial_index": 15, "time_elapsed": 880289, "internal_node_id": "0.0-6.0-1.0-6.0"}}, {"uniqueid": "w31889251:a18193006", "current_trial": 16, "dateTime": 1693482966614, "trialdata": {"revealed_states": [], "clicked_states": ["30", "26", "8", "4", "15"], "num_clicks_accrued": [0, 0, 0, 0, 0, 0, 0, 0, 0, 0, 0, 0, 0], "stateRewards": ["", 2, -3, -5, 5, 11, -9, -33, 6, 67, 6, -30, -1, -2, -6, 13, 55, 13, 72, -14, 75, 21, -66, -2, -4, 6, 15, -1, -35, 60, 2, 51, -73, 12], "withholdReward": false, "trial_id": "mdp_trial_8", "block": "test", "trialIndex": 9, "score": 67.25, "costs": -7.75, "simulationMode": [null, null, null, null, null], "rewards": [-2, -4, 6, 15, 60], "path": ["0", "0", "23", "24", "25", "26", "29"], "rt": [13387, 252, 238, 722, 300], "actions": ["left", "left", "left", "up", "left"], "actionTimes": [16276, 17065, 17838, 19069, 19944], "queries": {"click": {"state": {"target": ["30", "26", "8", "4", "15"], "time": [5640, 6915, 8435, 9637, 11148]}, "edge": {"target": [], "time": []}}, "mouseover": {"state": {"target": ["23", "30", "30", "25", "26", "8", "8", "3", "4", "15", "14", "19", "19", "22"], "time": [3555, 3907, 5173, 6206, 6456, 7607, 7942, 9043, 9177, 10634, 11787, 12329, 14240, 15524]}, "edge": {"target": [], "time": []}}, "mouseout": {"state": {"target": ["19", "12", "23", "30", "30", "25", "26", "8", "8", "3", "4", "15", "15", "14", "19", "19", "22", "22"], "time": [936, 987, 3582, 3986, 6195, 6279, 7460, 7645, 8976, 9127, 10245, 11355, 11709, 11991, 12579, 15494, 15543, 23373]}, "edge": {"target": [], "time": []}}}, "displayed_time": "20.45", "trialTime": 27533, "trial_type": "mouselab-mdp", "trial_index": 16, "time_elapsed": 909115, "internal_node_id": "0.0-6.0-1.0-7.0"}}, {"uniqueid": "w31889251:a18193006", "current_trial": 17, "dateTime": 1693482988140, "trialdata": {"revealed_states": [], "clicked_states": ["30", "26", "8", "4", "15", "19"], "num_clicks_accrued": [0, 0, 0, 0, 0, 0, 0, 0, 0, 0, 0, 0, 0], "stateRewards": ["", 2, -4, 7, 3, 23, -42, 4, 7, -81, -33, 7, -2, -4, 5, -1, 50, -57, -14, -13, -14, 44, 55, -2, -2, 5, -2, 33, 1, 57, -13, -7, 58, 87], "withholdReward": false, "trial_id": "mdp_trial_9", "block": "test", "trialIndex": 10, "score": -30.3, "costs": -9.3, "simulationMode": [null, null, null, null, null], "rewards": [2, -4, 7, 7, -33], "path": ["0", "0", "1", "2", "3", "8", "10"], "rt": [10608, 319, 372, 519, 365], "actions": ["up", "up", "up", "left", "down"], "actionTimes": [13677, 14558, 15481, 16567, 17489], "queries": {"click": {"state": {"target": ["30", "26", "8", "4", "15", "19"], "time": [4654, 5891, 7189, 8435, 10013, 11318]}, "edge": {"target": [], "time": []}}, "mouseover": {"state": {"target": ["0", "23", "24", "30", "25", "26", "11", "8", "3", "4", "16", "15", "14", "19"], "time": [3871, 3916, 4032, 4118, 5129, 5463, 6591, 6762, 7763, 7909, 9161, 9562, 10745, 10864]}, "edge": {"target": [], "time": []}}, "mouseout": {"state": {"target": ["15", "18", "0", "23", "24", "30", "25", "26", "11", "8", "3", "4", "16", "15", "15", "14", "19"], "time": [1154, 1204, 3890, 3992, 4073, 5032, 5291, 6428, 6712, 7704, 7813, 8945, 9244, 10220, 10647, 10779, 12541]}, "edge": {"target": [], "time": []}}}, "displayed_time": "18.03", "trialTime": 20189, "trial_type": "mouselab-mdp", "trial_index": 17, "time_elapsed": 930640, "internal_node_id": "0.0-6.0-1.0-8.0"}}, {"uniqueid": "w31889251:a18193006", "current_trial": 18, "dateTime": 1693483009340, "trialdata": {"revealed_states": [], "clicked_states": ["30", "26", "8", "4", "15", "19"], "num_clicks_accrued": [0, 0, 0, 0, 0, 0, 0, 0, 0, 0, 0, 0, 0], "stateRewards": ["", -1, -3, -6, 14, 41, 18, 63, -14, 80, 21, 17, -2, -4, -2, -5, 13, 70, 8, -4, -64, -10, -20, 2, -1, 4, -1, -17, -55, 42, -7, 47, 54, 15], "withholdReward": false, "trial_id": "mdp_trial_10", "block": "test", "trialIndex": 11, "score": 12.7, "costs": -9.3, "simulationMode": [null, null, null, null, null], "rewards": [-1, -3, -6, 14, 18], "path": ["0", "0", "1", "2", "3", "4", "6"], "rt": [10505, 351, 330, 387, 373], "actions": ["up", "up", "up", "right", "right"], "actionTimes": [12932, 13805, 14653, 15560, 16447], "queries": {"click": {"state": {"target": ["30", "26", "8", "4", "15", "19"], "time": [4326, 5560, 7255, 8718, 9987, 11116]}, "edge": {"target": [], "time": []}}, "mouseover": {"state": {"target": ["0", "23", "31", "30", "30", "25", "26", "8", "3", "4", "15", "19"], "time": [3267, 3302, 3350, 3422, 3883, 4829, 5070, 6654, 7904, 8150, 9604, 10721]}, "edge": {"target": [], "time": []}}, "mouseout": {"state": {"target": ["0", "0", "23", "31", "30", "30", "25", "26", "8", "3", "4", "15"], "time": [1213, 3297, 3317, 3387, 3495, 4559, 4877, 5766, 7870, 8003, 9285, 10555]}, "edge": {"target": [], "time": []}}}, "displayed_time": "16.97", "trialTime": 19750, "trial_type": "mouselab-mdp", "trial_index": 18, "time_elapsed": 951841, "internal_node_id": "0.0-6.0-1.0-9.0"}}, {"uniqueid": "w31889251:a18193006", "current_trial": 19, "dateTime": 1693483034911, "trialdata": {"revealed_states": [], "clicked_states": ["30", "26", "8", "4", "15", "19"], "num_clicks_accrued": [0, 0, 0, 0, 0, 0, 0, 0, 0, 0, 0, 0, 0], "stateRewards": ["", -1, 2, -6, 6, 43, 78, 78, -2, 55, -29, -17, -2, -4, 1, -15, 13, 7, -79, 8, -28, -68, 36, -1, -3, 3, -16, 84, -18, 87, 10, 32, 13, -81], "withholdReward": false, "trial_id": "mdp_trial_11", "block": "test", "trialIndex": 12, "score": -81.3, "costs": -9.3, "simulationMode": [null, null, null, null, null], "rewards": [-1, -3, 3, 10, -81], "path": ["0", "0", "23", "24", "25", "30", "33"], "rt": [9431, 229, 210, 1052, 433], "actions": ["left", "left", "left", "down", "left"], "actionTimes": [11820, 12580, 13387, 14960, 15956], "queries": {"click": {"state": {"target": ["30", "26", "8", "4", "15", "19"], "time": [3798, 4966, 6284, 7451, 8712, 9977]}, "edge": {"target": [], "time": []}}, "mouseover": {"state": {"target": ["23", "25", "30", "25", "26", "8", "3", "4", "15", "14", "19"], "time": [3034, 3231, 3365, 4347, 4517, 5719, 6894, 6969, 8285, 9353, 9453]}, "edge": {"target": [], "time": []}}, "mouseout": {"state": {"target": ["19", "13", "12", "23", "25", "30", "25", "26", "8", "3", "4", "15", "14", "19"], "time": [910, 962, 1030, 3111, 3265, 4013, 4386, 5537, 6885, 6925, 8093, 9268, 9403, 11035]}, "edge": {"target": [], "time": []}}}, "displayed_time": "16.49", "trialTime": 23834, "trial_type": "mouselab-mdp", "trial_index": 19, "time_elapsed": 977411, "internal_node_id": "0.0-6.0-1.0-10.0"}}, {"uniqueid": "w31889251:a18193006", "current_trial": 20, "dateTime": 1693483064885, "trialdata": {"revealed_states": [], "clicked_states": ["1", "23", "12", "30", "26", "8", "4"], "num_clicks_accrued": [0, 0, 0, 0, 0, 0, 0, 0, 0, 0, 0, 0, 0], "stateRewards": ["", 1, 4, 7, -16, -84, -6, -46, -12, -7, -49, -26, -1, 2, -4, 2, 22, 37, -64, 1, 88, -13, -10, 1, -4, -2, 5, 2, -10, -34, 9, 66, 55, 38], "withholdReward": false, "trial_id": "mdp_trial_12", "block": "test", "trialIndex": 13, "score": 53.55, "costs": -5.45, "simulationMode": [null, null, null, null, null], "rewards": [1, -4, -2, 9, 55], "path": ["0", "0", "23", "24", "25", "30", "32"], "rt": [13002, 542, 1068, 445, 963], "actions": ["left", "left", "left", "down", "down"], "actionTimes": [16443, 17513, 19121, 20084, 21584], "queries": {"click": {"state": {"target": ["1", "23", "12", "30", "26", "8", "4"], "time": [5396, 6728, 7879, 9393, 10803, 12144, 13338]}, "edge": {"target": [], "time": []}}, "mouseover": {"state": {"target": ["1", "23", "12", "31", "30", "25", "26", "8", "3", "4", "2", "10", "24", "23"], "time": [4948, 6039, 7416, 8599, 8758, 10233, 10366, 11583, 12833, 12940, 14317, 14473, 14762, 15415]}, "edge": {"target": [], "time": []}}, "mouseout": {"state": {"target": ["12", "0", "1", "23", "12", "31", "30", "25", "26", "8", "3", "4", "2", "10", "24", "23", "0", "18"], "time": [1709, 1813, 5934, 7242, 8517, 8664, 10149, 10316, 11382, 12347, 12929, 14283, 14368, 14522, 14879, 15496, 26683, 26780]}, "edge": {"target": [], "time": []}}}, "displayed_time": "22.11", "trialTime": 28509, "trial_type": "mouselab-mdp", "trial_index": 20, "time_elapsed": 1007385, "internal_node_id": "0.0-6.0-1.0-11.0"}}, {"uniqueid": "w31889251:a18193006", "current_trial": 21, "dateTime": 1693483092800, "trialdata": {"revealed_states": [], "clicked_states": ["23", "1", "12", "13", "19", "15"], "num_clicks_accrued": [0, 0, 0, 0, 0, 0, 0, 0, 0, 0, 0, 0, 0], "stateRewards": ["", -2, 3, 8, -9, 59, 41, -50, -1, 82, 66, 33, 2, -2, 7, 8, 1, -38, 12, -16, 24, -37, 67, 1, 4, -2, 5, 35, -83, 28, 8, -27, 69, -64], "withholdReward": false, "trial_id": "mdp_trial_13", "block": "test", "trialIndex": 14, "score": 24.3, "costs": -2.7, "simulationMode": [null, null, null, null, null], "rewards": [2, -2, 7, 8, 12], "path": ["0", "0", "12", "13", "14", "15", "18"], "rt": [14265, 313, 272, 411, 1130], "actions": ["right", "right", "right", "up", "left"], "actionTimes": [18154, 18997, 19804, 20754, 22415], "queries": {"click": {"state": {"target": ["23", "1", "12", "13", "19", "15"], "time": [5234, 6284, 7972, 9584, 12228, 13500]}, "edge": {"target": [], "time": []}}, "mouseover": {"state": {"target": ["23", "1", "0", "12", "13", "14", "14", "19", "19", "15", "18", "18"], "time": [4822, 5893, 7010, 7292, 8669, 10369, 10609, 10790, 11755, 12983, 14739, 16322]}, "edge": {"target": [], "time": []}}, "mouseout": {"state": {"target": ["16", "18", "23", "1", "0", "12", "13", "14", "14", "19", "19", "15", "18"], "time": [1819, 1919, 5721, 6969, 7060, 8167, 10309, 10486, 10661, 11355, 12436, 14690, 14759]}, "edge": {"target": [], "time": []}}}, "displayed_time": "22.95", "trialTime": 26370, "trial_type": "mouselab-mdp", "trial_index": 21, "time_elapsed": 1035301, "internal_node_id": "0.0-6.0-1.0-12.0"}}, {"uniqueid": "w31889251:a18193006", "current_trial": 22, "dateTime": 1693483116520, "trialdata": {"revealed_states": [], "clicked_states": ["23", "1", "12"], "num_clicks_accrued": [0, 0, 0, 0, 0, 0, 0, 0, 0, 0, 0, 0, 0], "stateRewards": ["", 1, 1, -2, 7, -31, -6, 76, 1, -36, -16, -53, 2, 1, 7, 13, -47, -10, 47, -7, 72, 46, -56, -2, -2, -2, 11, -80, 44, 38, 16, 67, 85, -78], "withholdReward": false, "trial_id": "mdp_trial_14", "block": "test", "trialIndex": 15, "score": 75.75, "costs": 0.75, "simulationMode": [null, null, null, null, null], "rewards": [2, 1, 7, -7, 72], "path": ["0", "0", "12", "13", "14", "19", "20"], "rt": [9071, 330, 250, 365, 623], "actions": ["right", "right", "right", "down", "right"], "actionTimes": [12733, 13574, 14377, 15307, 16479], "queries": {"click": {"state": {"target": ["23", "1", "12"], "time": [4846, 5754, 6970]}, "edge": {"target": [], "time": []}}, "mouseover": {"state": {"target": ["23", "1", "12", "13", "14", "15", "14", "14", "15"], "time": [4459, 5403, 6489, 7752, 8549, 8841, 9235, 9448, 10069]}, "edge": {"target": [], "time": []}}, "mouseout": {"state": {"target": ["18", "23", "1", "12", "13", "14", "15", "14", "14", "15"], "time": [929, 5063, 6302, 7192, 8498, 8764, 9198, 9265, 9519, 11949]}, "edge": {"target": [], "time": []}}}, "displayed_time": "17.67", "trialTime": 22241, "trial_type": "mouselab-mdp", "trial_index": 22, "time_elapsed": 1059021, "internal_node_id": "0.0-6.0-1.0-13.0"}}, {"uniqueid": "w31889251:a18193006", "current_trial": 23, "dateTime": 1693483143340, "trialdata": {"revealed_states": [], "clicked_states": ["23", "1", "12", "2", "4", "8"], "num_clicks_accrued": [0, 0, 0, 0, 0, 0, 0, 0, 0, 0, 0, 0, 0], "stateRewards": ["", -1, 2, -2, 5, 80, -61, -27, 12, 44, -26, -75, -2, -4, 1, -16, 42, -49, -50, 4, -44, 2, 80, -2, -2, 5, -2, 59, 10, 24, 7, -48, -86, -44], "withholdReward": false, "trial_id": "mdp_trial_15", "block": "test", "trialIndex": 16, "score": -17.7, "costs": -2.7, "simulationMode": [null, null, null, null, null], "rewards": [-1, 2, -2, 12, -26], "path": ["0", "0", "1", "2", "3", "8", "10"], "rt": [10934, 350, 301, 375, 360], "actions": ["up", "up", "up", "left", "down"], "actionTimes": [14092, 14991, 15857, 16764, 17650], "queries": {"click": {"state": {"target": ["23", "1", "12", "2", "4", "8"], "time": [4367, 5608, 6608, 8925, 10428, 12049]}, "edge": {"target": [], "time": []}}, "mouseover": {"state": {"target": ["23", "1", "12", "13", "2", "3", "4", "3", "8", "8"], "time": [3947, 5203, 6219, 7569, 8451, 9784, 9987, 10993, 11033, 11624]}, "edge": {"target": [], "time": []}}, "mouseout": {"state": {"target": ["23", "1", "12", "13", "2", "3", "4", "3", "8"], "time": [4728, 6027, 7525, 8264, 9576, 9902, 10984, 11024, 11117]}, "edge": {"target": [], "time": []}}}, "displayed_time": "18.16", "trialTime": 25245, "trial_type": "mouselab-mdp", "trial_index": 23, "time_elapsed": 1085841, "internal_node_id": "0.0-6.0-1.0-14.0"}}, {"uniqueid": "w31889251:a18193006", "current_trial": 24, "dateTime": 1693483170404, "trialdata": {"revealed_states": [], "clicked_states": ["23", "1", "12"], "num_clicks_accrued": [0, 0, 0, 0, 0, 0, 0, 0, 0, 0, 0, 0, 0], "stateRewards": ["", -1, 2, 7, 8, 75, 67, -11, 6, 52, -17, 38, -1, 4, -8, 14, 74, -37, -17, -12, 52, 55, 71, -2, -1, -5, 2, 21, 6, -88, -14, 64, -61, -47], "withholdReward": false, "trial_id": "mdp_trial_16", "block": "test", "trialIndex": 17, "score": 52.75, "costs": 0.75, "simulationMode": [null, null, null, null, null], "rewards": [-1, 2, 7, 6, 38], "path": ["0", "0", "1", "2", "3", "8", "11"], "rt": [8901, 203, 276, 321, 255], "actions": ["up", "up", "up", "left", "left"], "actionTimes": [13163, 13908, 14698, 15523, 16308], "queries": {"click": {"state": {"target": ["23", "1", "12"], "time": [5656, 6842, 7965]}, "edge": {"target": [], "time": []}}, "mouseover": {"state": {"target": ["23", "1", "12", "2", "3", "8", "3", "8"], "time": [5123, 6155, 7388, 9271, 9567, 9817, 10295, 10813]}, "edge": {"target": [], "time": []}}, "mouseout": {"state": {"target": ["8", "2", "1", "23", "1", "1", "12", "2", "3", "8", "3", "8"], "time": [1948, 2042, 2289, 6056, 7042, 7271, 8168, 9451, 9767, 10136, 10699, 12496]}, "edge": {"target": [], "time": []}}}, "displayed_time": "18.26", "trialTime": 25509, "trial_type": "mouselab-mdp", "trial_index": 24, "time_elapsed": 1112905, "internal_node_id": "0.0-6.0-1.0-15.0"}}, {"uniqueid": "w31889251:a18193006", "current_trial": 25, "dateTime": 1693483199531, "trialdata": {"revealed_states": [], "clicked_states": ["23", "1", "12", "30", "26"], "num_clicks_accrued": [0, 0, 0, 0, 0, 0, 0, 0, 0, 0, 0, 0, 0], "stateRewards": ["", -1, 2, 6, 11, 21, -21, -21, -6, 48, -71, 88, -1, -3, 3, 7, 64, 2, 9, -4, 37, -67, 72, 2, 2, -8, -8, -10, 71, -40, -3, 73, 80, 47], "withholdReward": false, "trial_id": "mdp_trial_17", "block": "test", "trialIndex": 18, "score": -54.35, "costs": -2.35, "simulationMode": [null, null, null, null, null], "rewards": [2, 2, -8, -8, -40], "path": ["0", "0", "23", "24", "25", "26", "29"], "rt": [11156, 199, 335, 400, 259], "actions": ["left", "left", "left", "up", "left"], "actionTimes": [14127, 14956, 15843, 16864, 17667], "queries": {"click": {"state": {"target": ["23", "1", "12", "30", "26"], "time": [4229, 5712, 6796, 8544, 10062]}, "edge": {"target": [], "time": []}}, "mouseover": {"state": {"target": ["23", "1", "12", "30", "26", "26", "25"], "time": [3783, 5322, 6321, 8055, 9397, 9593, 11883]}, "edge": {"target": [], "time": []}}, "mouseout": {"state": {"target": ["1", "23", "1", "12", "30", "26", "26", "25"], "time": [1348, 4450, 6150, 7872, 9323, 9438, 11767, 22318]}, "edge": {"target": [], "time": []}}}, "displayed_time": "18.19", "trialTime": 27426, "trial_type": "mouselab-mdp", "trial_index": 25, "time_elapsed": 1142033, "internal_node_id": "0.0-6.0-1.0-16.0"}}, {"uniqueid": "w31889251:a18193006", "current_trial": 26, "dateTime": 1693483225972, "trialdata": {"revealed_states": [], "clicked_states": ["1", "23", "12", "15", "19"], "num_clicks_accrued": [0, 0, 0, 0, 0, 0, 0, 0, 0, 0, 0, 0, 0], "stateRewards": ["", 2, 3, -1, 16, -78, -11, 46, 2, -20, 79, -67, 2, 3, 2, 11, -83, -42, -58, -11, -67, -22, 55, 2, -1, -1, -16, -83, -82, 23, -11, -29, 13, 13], "withholdReward": false, "trial_id": "mdp_trial_18", "block": "test", "trialIndex": 19, "score": -26.35, "costs": -2.35, "simulationMode": [null, null, null, null, null], "rewards": [2, 3, 2, 11, -42], "path": ["0", "0", "12", "13", "14", "15", "17"], "rt": [11904, 334, 289, 380, 762], "actions": ["right", "right", "right", "up", "right"], "actionTimes": [14651, 15494, 16300, 17271, 18573], "queries": {"click": {"state": {"target": ["1", "23", "12", "15", "19"], "time": [3841, 5167, 7120, 9755, 11336]}, "edge": {"target": [], "time": []}}, "mouseover": {"state": {"target": ["1", "23", "0", "12", "14", "15", "14", "19", "13"], "time": [3413, 4672, 6530, 6725, 9043, 9331, 10632, 10919, 12783]}, "edge": {"target": [], "time": []}}, "mouseout": {"state": {"target": ["18", "1", "1", "23", "23", "0", "12", "14", "15", "14", "19", "13"], "time": [673, 4102, 4205, 5377, 6496, 6603, 7331, 9067, 10563, 10761, 11539, 12930]}, "edge": {"target": [], "time": []}}}, "displayed_time": "19.16", "trialTime": 24742, "trial_type": "mouselab-mdp", "trial_index": 26, "time_elapsed": 1168473, "internal_node_id": "0.0-6.0-1.0-17.0"}}, {"uniqueid": "w31889251:a18193006", "current_trial": 27, "dateTime": 1693483251715, "trialdata": {"revealed_states": [], "clicked_states": ["1", "23", "12", "25", "26", "30"], "num_clicks_accrued": [0, 0, 0, 0, 0, 0, 0, 0, 0, 0, 0, 0, 0], "stateRewards": ["", -2, -3, -5, 8, 27, 11, 43, -6, -24, -87, 69, -2, 1, 1, 9, 19, 48, -37, 9, -14, 45, 62, 1, 2, 1, 16, -81, -41, 22, 4, -6, -63, 47], "withholdReward": false, "trial_id": "mdp_trial_19", "block": "test", "trialIndex": 20, "score": 38.7, "costs": -3.3, "simulationMode": [null, null, null, null, null], "rewards": [1, 2, 1, 16, 22], "path": ["0", "0", "23", "24", "25", "26", "29"], "rt": [11282, 248, 321, 515, 642], "actions": ["left", "left", "left", "up", "left"], "actionTimes": [13791, 14599, 15427, 16454, 17633], "queries": {"click": {"state": {"target": ["1", "23", "12", "25", "26", "30"], "time": [3753, 4724, 6073, 8197, 9499, 10635]}, "edge": {"target": [], "time": []}}, "mouseover": {"state": {"target": ["1", "23", "0", "12", "24", "25", "26", "30"], "time": [3428, 4304, 5226, 5282, 7543, 7761, 9135, 10186]}, "edge": {"target": [], "time": []}}, "mouseout": {"state": {"target": ["12", "1", "23", "0", "12", "23", "24", "25", "26", "25"], "time": [840, 4040, 5186, 5272, 7201, 7495, 7711, 8919, 10052, 10137]}, "edge": {"target": [], "time": []}}}, "displayed_time": "18.21", "trialTime": 23714, "trial_type": "mouselab-mdp", "trial_index": 27, "time_elapsed": 1194215, "internal_node_id": "0.0-6.0-1.0-18.0"}}, {"uniqueid": "w31889251:a18193006", "current_trial": 28, "dateTime": 1693483282643, "trialdata": {"revealed_states": [], "clicked_states": ["23", "1", "12", "4", "8", "5"], "num_clicks_accrued": [0, 0, 0, 0, 0, 0, 0, 0, 0, 0, 0, 0, 0], "stateRewards": ["", 1, 2, 3, 16, 63, -25, 16, -4, -14, 82, -66, -1, -3, -3, -11, -14, 19, 46, 3, -34, -82, 66, -2, -3, 4, -5, -63, 77, -37, -1, -45, -41, 84], "withholdReward": false, "trial_id": "mdp_trial_20", "block": "test", "trialIndex": 21, "score": 80.5, "costs": -4.5, "simulationMode": [null, null, null, null, null], "rewards": [1, 2, 3, 16, 63], "path": ["0", "0", "1", "2", "3", "4", "5"], "rt": [14944, 638, 513, 642, 388], "actions": ["up", "up", "up", "right", "up"], "actionTimes": [18130, 19317, 20341, 21570, 22526], "queries": {"click": {"state": {"target": ["23", "1", "12", "4", "8", "5"], "time": [4545, 5646, 7766, 10017, 11653, 13240]}, "edge": {"target": [], "time": []}}, "mouseover": {"state": {"target": ["23", "1", "12", "12", "2", "3", "4", "3", "8", "5", "6"], "time": [4069, 5157, 6607, 7052, 8825, 9303, 9386, 10788, 10971, 12788, 14557]}, "edge": {"target": [], "time": []}}, "mouseout": {"state": {"target": ["30", "31", "0", "23", "1", "12", "12", "1", "2", "3", "4", "3", "8", "5", "6"], "time": [751, 916, 4020, 4989, 6475, 6887, 8623, 8723, 8973, 9354, 10765, 10864, 12325, 14033, 16914]}, "edge": {"target": [], "time": []}}}, "displayed_time": "23.09", "trialTime": 29149, "trial_type": "mouselab-mdp", "trial_index": 28, "time_elapsed": 1225145, "internal_node_id": "0.0-6.0-1.0-19.0"}}, {"uniqueid": "w31889251:a18193006", "current_trial": 29, "dateTime": 1693483310329, "trialdata": {"revealed_states": [], "clicked_states": ["23", "1", "12", "15", "19"], "num_clicks_accrued": [0, 0, 0, 0, 0, 0, 0, 0, 0, 0, 0, 0, 0], "stateRewards": ["", -1, 2, 5, -6, 13, -64, -47, 8, -79, -80, -33, 1, 2, -2, -16, 56, -71, -10, 3, 29, 44, 85, -1, 4, 5, 4, -36, -56, 19, 8, 52, -13, -2], "withholdReward": false, "trial_id": "mdp_trial_21", "block": "test", "trialIndex": 22, "score": -21.35, "costs": -2.35, "simulationMode": [null, null, null, null, null], "rewards": [-1, 2, 5, 8, -33], "path": ["0", "0", "1", "2", "3", "8", "11"], "rt": [11840, 180, 256, 251, 388], "actions": ["up", "up", "up", "left", "left"], "actionTimes": [15664, 16460, 17263, 18059, 18994], "queries": {"click": {"state": {"target": ["23", "1", "12", "15", "19"], "time": [6777, 8235, 9279, 11726, 13488]}, "edge": {"target": [], "time": []}}, "mouseover": {"state": {"target": ["23", "23", "1", "12", "13", "14", "15", "14", "19"], "time": [5099, 6406, 7465, 8762, 10664, 11014, 11147, 12484, 13064]}, "edge": {"target": [], "time": []}}, "mouseout": {"state": {"target": ["1", "23", "23", "1", "12", "13", "14", "15", "14"], "time": [1483, 5163, 6979, 8753, 10547, 10831, 11102, 12385, 12601]}, "edge": {"target": [], "time": []}}}, "displayed_time": "19.50", "trialTime": 25662, "trial_type": "mouselab-mdp", "trial_index": 29, "time_elapsed": 1252830, "internal_node_id": "0.0-6.0-1.0-20.0"}}, {"uniqueid": "w31889251:a18193006", "current_trial": 30, "dateTime": 1693483333654, "trialdata": {"revealed_states": [], "clicked_states": [], "num_clicks_accrued": [0, 0, 0, 0, 0, 0, 0, 0, 0, 0, 0, 0, 0], "stateRewards": ["", -1, 1, -2, 5, 73, 15, 61, 8, 7, 38, 76, 2, 2, -4, -6, -6, -26, 43, -5, -45, -85, -35, -2, 1, -4, 15, -10, 69, 72, -11, 84, -49, -38], "withholdReward": false, "trial_id": "mdp_trial_22", "block": "test", "trialIndex": 23, "score": -50, "costs": 0, "simulationMode": [null, null, null, null, null], "rewards": [2, 2, -4, -5, -45], "path": ["0", "0", "12", "13", "14", "19", "20"], "rt": [5585, 163, 124, 349, 380], "actions": ["right", "right", "right", "down", "right"], "actionTimes": [9216, 9895, 10586, 11507, 12391], "queries": {"click": {"state": {"target": [], "time": []}, "edge": {"target": [], "time": []}}, "mouseover": {"state": {"target": ["23"], "time": [6354]}, "edge": {"target": [], "time": []}}, "mouseout": {"state": {"target": ["19", "0", "23", "0", "18", "15"], "time": [1006, 2000, 7585, 17421, 17542, 17629]}, "edge": {"target": [], "time": []}}}, "displayed_time": "17.64", "trialTime": 21459, "trial_type": "mouselab-mdp", "trial_index": 30, "time_elapsed": 1276155, "internal_node_id": "0.0-6.0-1.0-21.0"}}, {"uniqueid": "w31889251:a18193006", "current_trial": 31, "dateTime": 1693483363936, "trialdata": {"revealed_states": [], "clicked_states": ["23", "1", "12", "4", "8", "9"], "num_clicks_accrued": [0, 0, 0, 0, 0, 0, 0, 0, 0, 0, 0, 0, 0], "stateRewards": ["", 2, 4, 4, -8, -36, -33, 38, 16, -51, 57, 57, 1, 3, 4, -6, 45, 68, 87, 1, 63, 24, -55, -2, 2, -6, -13, -63, -50, 8, 2, 80, 6, 60], "withholdReward": false, "trial_id": "mdp_trial_23", "block": "test", "trialIndex": 24, "score": 78.5, "costs": -4.5, "simulationMode": [null, null, null, null, null], "rewards": [2, 4, 4, 16, 57], "path": ["0", "0", "1", "2", "3", "8", "10"], "rt": [13787, 389, 335, 368, 1830], "actions": ["up", "up", "up", "left", "down"], "actionTimes": [16947, 17868, 18741, 19646, 22023], "queries": {"click": {"state": {"target": ["23", "1", "12", "4", "8", "9"], "time": [4501, 5436, 6710, 8157, 9474, 10757]}, "edge": {"target": [], "time": []}}, "mouseover": {"state": {"target": ["23", "1", "12", "4", "8", "9", "11"], "time": [4135, 4991, 6228, 7492, 8938, 10349, 11858]}, "edge": {"target": [], "time": []}}, "mouseout": {"state": {"target": ["17", "15", "18", "12", "23", "1", "12", "4", "8", "9"], "time": [733, 771, 817, 1050, 4885, 6061, 7320, 8369, 10298, 11692]}, "edge": {"target": [], "time": []}}}, "displayed_time": "22.54", "trialTime": 28134, "trial_type": "mouselab-mdp", "trial_index": 31, "time_elapsed": 1306436, "internal_node_id": "0.0-6.0-1.0-22.0"}}, {"uniqueid": "w31889251:a18193006", "current_trial": 32, "dateTime": 1693483390081, "trialdata": {"revealed_states": [], "clicked_states": ["1", "23", "12", "8", "4", "11"], "num_clicks_accrued": [0, 0, 0, 0, 0, 0, 0, 0, 0, 0, 0, 0, 0], "stateRewards": ["", 2, 4, -5, 7, 81, 35, 6, 11, 14, -72, 42, -1, 2, 3, -7, -77, -44, -40, -15, -85, 51, -32, -2, -1, -5, 7, -74, 47, 52, 16, -49, 48, -46], "withholdReward": false, "trial_id": "mdp_trial_24", "block": "test", "trialIndex": 25, "score": 49.5, "costs": -4.5, "simulationMode": [null, null, null, null, null], "rewards": [2, 4, -5, 11, 42], "path": ["0", "0", "1", "2", "3", "8", "11"], "rt": [13217, 177, 238, 259, 286], "actions": ["up", "up", "up", "left", "left"], "actionTimes": [16530, 17230, 18026, 18816, 19671], "queries": {"click": {"state": {"target": ["1", "23", "12", "8", "4", "11"], "time": [4698, 5712, 6998, 8948, 10241, 11729]}, "edge": {"target": [], "time": []}}, "mouseover": {"state": {"target": ["1", "23", "0", "12", "1", "2", "8", "4", "11", "10"], "time": [4130, 5526, 6400, 6600, 7964, 8126, 8513, 9818, 11250, 12889]}, "edge": {"target": [], "time": []}}, "mouseout": {"state": {"target": ["11", "23", "1", "23", "0", "12", "1", "2", "8", "4", "11"], "time": [692, 1126, 5232, 6351, 6450, 7893, 8078, 8396, 9601, 10984, 12467]}, "edge": {"target": [], "time": []}}}, "displayed_time": "20.18", "trialTime": 24042, "trial_type": "mouselab-mdp", "trial_index": 32, "time_elapsed": 1332582, "internal_node_id": "0.0-6.0-1.0-23.0"}}, {"uniqueid": "w31889251:a18193006", "current_trial": 33, "dateTime": 1693483416955, "trialdata": {"revealed_states": [], "clicked_states": ["23", "1", "12", "4", "8", "11"], "num_clicks_accrued": [0, 0, 0, 0, 0, 0, 0, 0, 0, 0, 0, 0, 0], "stateRewards": ["", 2, -1, 3, -12, -83, 6, -33, 9, 28, 24, -50, -2, -1, -2, -5, -87, 37, 82, 12, 80, -5, 10, -2, -3, -6, 9, 22, -1, 16, 9, 77, -62, 58], "withholdReward": false, "trial_id": "mdp_trial_25", "block": "test", "trialIndex": 26, "score": 32.5, "costs": -4.5, "simulationMode": [null, null, null, null, null], "rewards": [2, -1, 3, 9, 24], "path": ["0", "0", "1", "2", "3", "8", "10"], "rt": [12660, 268, 307, 289, 249], "actions": ["up", "up", "up", "left", "down"], "actionTimes": [16257, 17051, 17905, 18750, 19526], "queries": {"click": {"state": {"target": ["23", "1", "12", "4", "8", "11"], "time": [4788, 5840, 7130, 8238, 9582, 10933]}, "edge": {"target": [], "time": []}}, "mouseover": {"state": {"target": ["23", "1", "12", "7", "4", "3", "8", "11"], "time": [4309, 5442, 6561, 7621, 7824, 8780, 9173, 10507]}, "edge": {"target": [], "time": []}}, "mouseout": {"state": {"target": ["10", "23", "1", "12", "7", "4", "3", "8"], "time": [918, 4986, 6442, 7437, 7725, 8649, 8899, 10442]}, "edge": {"target": [], "time": []}}}, "displayed_time": "20.03", "trialTime": 24519, "trial_type": "mouselab-mdp", "trial_index": 33, "time_elapsed": 1359455, "internal_node_id": "0.0-6.0-1.0-24.0"}}, {"uniqueid": "w31889251:a18193006", "current_trial": 34, "dateTime": 1693483443518, "trialdata": {"revealed_states": [], "clicked_states": ["1", "23", "12", "30", "26", "29"], "num_clicks_accrued": [0, 0, 0, 0, 0, 0, 0, 0, 0, 0, 0, 0, 0], "stateRewards": ["", -2, -4, 2, 10, -17, 18, 73, 11, -32, 23, -13, -2, -4, 7, 12, -25, 66, -23, 15, 40, -76, -9, 1, 2, -7, -5, -20, 24, 3, -5, 16, -73, 70], "withholdReward": false, "trial_id": "mdp_trial_26", "block": "test", "trialIndex": 27, "score": 10.5, "costs": -4.5, "simulationMode": [null, null, null, null, null], "rewards": [1, 2, -7, -5, 24], "path": ["0", "0", "23", "24", "25", "26", "28"], "rt": [14121, 239, 269, 481, 310], "actions": ["left", "left", "left", "up", "right"], "actionTimes": [17126, 17923, 18722, 19717, 20632], "queries": {"click": {"state": {"target": ["1", "23", "12", "30", "26", "29"], "time": [4763, 5831, 7033, 8646, 10113, 11887]}, "edge": {"target": [], "time": []}}, "mouseover": {"state": {"target": ["1", "23", "0", "12", "24", "25", "30", "25", "26", "29"], "time": [4312, 5380, 6415, 6568, 7754, 7840, 8151, 9418, 9701, 11541]}, "edge": {"target": [], "time": []}}, "mouseout": {"state": {"target": ["11", "10", "1", "23", "0", "12", "23", "24", "25", "30", "25", "26"], "time": [677, 810, 5141, 6350, 6555, 7647, 7742, 7826, 7944, 9366, 9616, 11413]}, "edge": {"target": [], "time": []}}}, "displayed_time": "21.14", "trialTime": 24825, "trial_type": "mouselab-mdp", "trial_index": 34, "time_elapsed": 1386019, "internal_node_id": "0.0-6.0-1.0-25.0"}}, {"uniqueid": "w31889251:a18193006", "current_trial": 35, "dateTime": 1693483471217, "trialdata": {"revealed_states": [], "clicked_states": ["23", "1", "12", "4", "8", "9"], "num_clicks_accrued": [0, 0, 0, 0, 0, 0, 0, 0, 0, 0, 0, 0, 0], "stateRewards": ["", 2, -4, 1, -12, -59, -53, -74, 16, -88, -66, 66, 1, -2, 8, -9, -14, 22, 25, -1, -39, 47, -14, -1, -1, -2, 1, -4, 52, -26, 15, -7, 46, 43], "withholdReward": false, "trial_id": "mdp_trial_27", "block": "test", "trialIndex": 28, "score": 76.5, "costs": -4.5, "simulationMode": [null, null, null, null, null], "rewards": [2, -4, 1, 16, 66], "path": ["0", "0", "1", "2", "3", "8", "11"], "rt": [13205, 452, 312, 232, 361], "actions": ["up", "up", "up", "left", "left"], "actionTimes": [16969, 17949, 18804, 19559, 20455], "queries": {"click": {"state": {"target": ["23", "1", "12", "4", "8", "9"], "time": [4971, 5868, 7558, 8673, 9916, 11245]}, "edge": {"target": [], "time": []}}, "mouseover": {"state": {"target": ["23", "1", "12", "7", "4", "3", "8", "9"], "time": [4470, 5446, 7157, 7939, 8226, 9055, 9332, 10857]}, "edge": {"target": [], "time": []}}, "mouseout": {"state": {"target": ["29", "26", "23", "23", "1", "12", "7", "4", "3", "8"], "time": [1116, 1184, 1541, 5291, 6911, 7807, 8062, 9043, 9296, 10709]}, "edge": {"target": [], "time": []}}}, "displayed_time": "21.00", "trialTime": 25896, "trial_type": "mouselab-mdp", "trial_index": 35, "time_elapsed": 1413717, "internal_node_id": "0.0-6.0-1.0-26.0"}}, {"uniqueid": "w31889251:a18193006", "current_trial": 36, "dateTime": 1693483500162, "trialdata": {"revealed_states": [], "clicked_states": ["23", "1", "12", "30", "26", "28"], "num_clicks_accrued": [0, 0, 0, 0, 0, 0, 0, 0, 0, 0, 0, 0, 0], "stateRewards": ["", 1, -1, 8, 4, 76, -33, -17, -3, -1, -54, -74, -2, 2, -5, 13, -51, 63, 83, 1, 84, 29, -36, 2, -1, 7, -12, -10, -44, -43, -14, 8, -69, 19], "withholdReward": false, "trial_id": "mdp_trial_28", "block": "test", "trialIndex": 29, "score": 83.5, "costs": -4.5, "simulationMode": [null, null, null, null, null], "rewards": [1, -1, 8, 4, 76], "path": ["0", "0", "1", "2", "3", "4", "5"], "rt": [15031, 171, 378, 334, 384], "actions": ["up", "up", "up", "right", "up"], "actionTimes": [18392, 19146, 20104, 20976, 21910], "queries": {"click": {"state": {"target": ["23", "1", "12", "30", "26", "28"], "time": [4620, 5562, 6631, 8564, 9849, 11535]}, "edge": {"target": [], "time": []}}, "mouseover": {"state": {"target": ["23", "1", "12", "0", "24", "25", "30", "25", "26", "28", "24"], "time": [4083, 5078, 6317, 7222, 7573, 7806, 8168, 9266, 9404, 11034, 12821]}, "edge": {"target": [], "time": []}}, "mouseout": {"state": {"target": ["9", "8", "2", "1", "23", "1", "12", "0", "24", "25", "30", "25", "26", "28"], "time": [915, 964, 1133, 1398, 4900, 5989, 6837, 7498, 7679, 8052, 9162, 9394, 10050, 12755]}, "edge": {"target": [], "time": []}}}, "displayed_time": "22.44", "trialTime": 26759, "trial_type": "mouselab-mdp", "trial_index": 36, "time_elapsed": 1442663, "internal_node_id": "0.0-6.0-1.0-27.0"}}, {"uniqueid": "w31889251:a18193006", "current_trial": 37, "dateTime": 1693483523392, "trialdata": {"revealed_states": [], "clicked_states": ["23", "1", "12", "30", "26", "29"], "num_clicks_accrued": [0, 0, 0, 0, 0, 0, 0, 0, 0, 0, 0, 0, 0], "stateRewards": ["", -2, 3, -1, 2, -72, 63, 20, -1, 62, -66, 39, -2, 3, -6, 14, 22, 47, 1, 8, -49, -1, -41, 2, 2, -6, -16, -64, -60, -34, 16, 54, 22, -7], "withholdReward": false, "trial_id": "mdp_trial_29", "block": "test", "trialIndex": 30, "score": 63.5, "costs": -4.5, "simulationMode": [null, null, null, null, null], "rewards": [2, 2, -6, 16, 54], "path": ["0", "0", "23", "24", "25", "30", "31"], "rt": [10680, 242, 312, 1164, 362], "actions": ["left", "left", "left", "down", "right"], "actionTimes": [14156, 14966, 15841, 17533, 18437], "queries": {"click": {"state": {"target": ["23", "1", "12", "30", "26", "29"], "time": [4660, 5858, 6930, 8280, 9443, 10765]}, "edge": {"target": [], "time": []}}, "mouseover": {"state": {"target": ["23", "1", "12", "30", "25", "26", "29", "33"], "time": [4143, 5360, 6483, 7815, 8804, 8981, 10468, 11841]}, "edge": {"target": [], "time": []}}, "mouseout": {"state": {"target": ["24", "23", "23", "1", "12", "30", "25", "26", "29"], "time": [1140, 1327, 5034, 6335, 7143, 8731, 8922, 10332, 11399]}, "edge": {"target": [], "time": []}}}, "displayed_time": "19.01", "trialTime": 21329, "trial_type": "mouselab-mdp", "trial_index": 37, "time_elapsed": 1465892, "internal_node_id": "0.0-6.0-1.0-28.0"}}, {"uniqueid": "w31889251:a18193006", "current_trial": 38, "dateTime": 1693483551546, "trialdata": {"revealed_states": [], "clicked_states": ["23", "1", "12", "19", "15", "21"], "num_clicks_accrued": [0, 0, 0, 0, 0, 0, 0, 0, 0, 0, 0, 0, 0], "stateRewards": ["", -2, -4, -2, -13, -15, 87, -19, -6, -80, 30, 12, 1, 1, -8, 2, 55, 56, 15, 11, -68, -7, 55, -2, 3, -3, -3, 48, 62, 4, 1, -3, 69, -33], "withholdReward": false, "trial_id": "mdp_trial_30", "block": "test", "trialIndex": 31, "score": 55.5, "costs": -4.5, "simulationMode": [null, null, null, null, null], "rewards": [1, 1, -8, 11, 55], "path": ["0", "0", "12", "13", "14", "19", "22"], "rt": [13907, 364, 452, 286, 400], "actions": ["right", "right", "right", "down", "left"], "actionTimes": [18780, 19655, 20674, 21540, 22472], "queries": {"click": {"state": {"target": ["23", "1", "12", "19", "15", "21"], "time": [7064, 8161, 9561, 11183, 12577, 14048]}, "edge": {"target": [], "time": []}}, "mouseover": {"state": {"target": ["23", "1", "12", "13", "19", "14", "15", "14", "21"], "time": [6614, 7758, 9119, 10364, 10750, 11800, 12132, 13189, 13588]}, "edge": {"target": [], "time": []}}, "mouseout": {"state": {"target": ["33", "23", "23", "1", "12", "13", "19", "14", "15", "14", "19", "21"], "time": [2460, 2614, 7281, 8380, 10302, 10457, 11391, 11985, 13151, 13251, 13401, 14262]}, "edge": {"target": [], "time": []}}}, "displayed_time": "23.10", "trialTime": 25952, "trial_type": "mouselab-mdp", "trial_index": 38, "time_elapsed": 1494047, "internal_node_id": "0.0-6.0-1.0-29.0"}}, {"uniqueid": "w31889251:a18193006", "current_trial": 39, "dateTime": 1693483578138, "trialdata": {"revealed_states": [], "clicked_states": ["23", "1", "12", "4", "8", "5"], "num_clicks_accrued": [0, 0, 0, 0, 0, 0, 0, 0, 0, 0, 0, 0, 0], "stateRewards": ["", 1, -4, -4, 8, 1, -79, 68, -10, -79, 8, -74, -1, -3, -6, 14, 43, 23, 9, 5, -51, 63, 61, -2, 4, 6, -10, 69, -32, 57, 15, -80, -80, -77], "withholdReward": false, "trial_id": "mdp_trial_31", "block": "test", "trialIndex": 32, "score": -2.5, "costs": -4.5, "simulationMode": [null, null, null, null, null], "rewards": [1, -4, -4, 8, 1], "path": ["0", "0", "1", "2", "3", "4", "5"], "rt": [13483, 312, 282, 235, 270], "actions": ["up", "up", "up", "right", "up"], "actionTimes": [16314, 17168, 17962, 18765, 19582], "queries": {"click": {"state": {"target": ["23", "1", "12", "4", "8", "5"], "time": [4222, 5890, 7089, 8568, 9914, 11454]}, "edge": {"target": [], "time": []}}, "mouseover": {"state": {"target": ["23", "1", "1", "12", "7", "4", "3", "8", "5"], "time": [3789, 4727, 5143, 6553, 7794, 7929, 9118, 9552, 11027]}, "edge": {"target": [], "time": []}}, "mouseout": {"state": {"target": ["0", "23", "1", "1", "12", "7", "4", "3", "8"], "time": [1320, 4444, 4959, 6394, 7695, 7834, 9077, 9243, 10770]}, "edge": {"target": [], "time": []}}}, "displayed_time": "20.11", "trialTime": 24616, "trial_type": "mouselab-mdp", "trial_index": 39, "time_elapsed": 1520638, "internal_node_id": "0.0-6.0-1.0-30.0"}}, {"uniqueid": "w31889251:a18193006", "current_trial": 40, "dateTime": 1693483604872, "trialdata": {"revealed_states": [], "clicked_states": ["23", "1", "12", "4", "8", "19", "15", "17"], "num_clicks_accrued": [0, 0, 0, 0, 0, 0, 0, 0, 0, 0, 0, 0, 0], "stateRewards": ["", 1, 1, 1, -3, -7, -1, -41, -10, 20, -72, -63, 1, -4, -2, 2, -66, 30, -84, -2, 49, 23, 71, -1, -4, 4, -12, 67, 5, 18, -16, 88, 56, -5], "withholdReward": false, "trial_id": "mdp_trial_32", "block": "test", "trialIndex": 33, "score": 19.4, "costs": -7.6, "simulationMode": [null, null, null, null, null], "rewards": [1, -4, -2, 2, 30], "path": ["0", "0", "12", "13", "14", "15", "17"], "rt": [15876, 224, 251, 244, 320], "actions": ["right", "right", "right", "up", "right"], "actionTimes": [18596, 19358, 20148, 20923, 21750], "queries": {"click": {"state": {"target": ["23", "1", "12", "4", "8", "19", "15", "17"], "time": [4060, 5105, 6536, 7838, 9051, 10452, 11715, 14011]}, "edge": {"target": [], "time": []}}, "mouseover": {"state": {"target": ["23", "1", "12", "7", "4", "3", "8", "2", "13", "19", "14", "15", "16", "17"], "time": [3546, 4575, 5890, 7244, 7369, 8277, 8672, 9726, 9876, 10044, 11020, 11318, 13205, 13506]}, "edge": {"target": [], "time": []}}, "mouseout": {"state": {"target": ["5", "0", "23", "1", "12", "7", "4", "3", "8", "2", "13", "19", "14", "15", "15", "16"], "time": [517, 1153, 4239, 5726, 7066, 7352, 8056, 8360, 9676, 9793, 9972, 11009, 11159, 12840, 13158, 13443]}, "edge": {"target": [], "time": []}}}, "displayed_time": "22.28", "trialTime": 24552, "trial_type": "mouselab-mdp", "trial_index": 40, "time_elapsed": 1547372, "internal_node_id": "0.0-6.0-1.0-31.0"}}, {"uniqueid": "w31889251:a18193006", "current_trial": 41, "dateTime": 1693483633976, "trialdata": {"revealed_states": [], "clicked_states": ["23", "1", "12", "15", "19", "4", "8", "11"], "num_clicks_accrued": [0, 0, 0, 0, 0, 0, 0, 0, 0, 0, 0, 0, 0], "stateRewards": ["", 1, 4, -8, -5, -15, -7, 21, 13, -30, 40, -65, 1, 1, 5, -14, 35, 27, -38, -11, 36, -58, -47, -2, 4, -3, 13, -16, -49, 22, 15, -56, -44, -10], "withholdReward": false, "trial_id": "mdp_trial_33", "block": "test", "trialIndex": 34, "score": -27.6, "costs": -7.6, "simulationMode": [null, null, null, null, null], "rewards": [1, 4, -8, 13, -30], "path": ["0", "0", "1", "2", "3", "8", "9"], "rt": [16954, 230, 339, 333, 667], "actions": ["up", "up", "up", "left", "up"], "actionTimes": [19837, 20616, 21491, 22395, 23602], "queries": {"click": {"state": {"target": ["23", "1", "12", "15", "19", "4", "8", "11"], "time": [4991, 6206, 7451, 8902, 10171, 11497, 12890, 14968]}, "edge": {"target": [], "time": []}}, "mouseover": {"state": {"target": ["1", "23", "23", "1", "12", "18", "15", "14", "19", "14", "18", "4", "3", "8", "11"], "time": [3610, 3888, 4472, 5743, 6926, 8293, 8499, 9344, 9726, 10597, 10761, 11138, 12056, 12501, 14122]}, "edge": {"target": [], "time": []}}, "mouseout": {"state": {"target": ["17", "15", "18", "1", "23", "23", "1", "1", "12", "18", "15", "15", "14", "19", "14", "18", "4", "3", "8"], "time": [751, 820, 890, 3856, 3966, 5310, 6408, 6644, 7634, 8343, 9106, 9293, 9493, 10502, 10646, 10844, 12044, 12127, 13843]}, "edge": {"target": [], "time": []}}}, "displayed_time": "24.15", "trialTime": 26872, "trial_type": "mouselab-mdp", "trial_index": 41, "time_elapsed": 1576476, "internal_node_id": "0.0-6.0-1.0-32.0"}}, {"uniqueid": "w31889251:a18193006", "current_trial": 42, "dateTime": 1693483662192, "trialdata": {"revealed_states": [], "clicked_states": ["1", "23", "12", "26", "30", "29"], "num_clicks_accrued": [0, 0, 0, 0, 0, 0, 0, 0, 0, 0, 0, 0, 0], "stateRewards": ["", -2, 2, 5, -14, -56, 64, 84, -5, 52, 39, 85, -2, 1, 7, 8, 21, 29, -78, -9, -10, -69, 10, -2, -1, -7, 15, 72, 20, 41, -2, 52, 80, 22], "withholdReward": false, "trial_id": "mdp_trial_34", "block": "test", "trialIndex": 35, "score": 41.5, "costs": -4.5, "simulationMode": [null, null, null, null, null], "rewards": [-2, -1, -7, 15, 41], "path": ["0", "0", "23", "24", "25", "26", "29"], "rt": [13918, 169, 245, 286, 189], "actions": ["left", "left", "left", "up", "left"], "actionTimes": [17162, 17903, 18674, 19463, 20232], "queries": {"click": {"state": {"target": ["1", "23", "12", "26", "30", "29"], "time": [4733, 5787, 7121, 9541, 10750, 12318]}, "edge": {"target": [], "time": []}}, "mouseover": {"state": {"target": ["0", "1", "23", "12", "25", "26", "25", "30", "25", "29"], "time": [3300, 4186, 5377, 6842, 8356, 9119, 10182, 10334, 11654, 11906]}, "edge": {"target": [], "time": []}}, "mouseout": {"state": {"target": ["11", "10", "1", "0", "1", "23", "12", "25", "26", "25", "30", "25"], "time": [697, 813, 1117, 3402, 5123, 6258, 7639, 9085, 10124, 10240, 11644, 11732]}, "edge": {"target": [], "time": []}}}, "displayed_time": "20.75", "trialTime": 26084, "trial_type": "mouselab-mdp", "trial_index": 42, "time_elapsed": 1604693, "internal_node_id": "0.0-6.0-1.0-33.0"}}, {"uniqueid": "w31889251:a18193006", "current_trial": 43, "dateTime": 1693483705747, "trialdata": {"revealed_states": [], "clicked_states": ["23", "1", "12", "19", "15", "18"], "num_clicks_accrued": [0, 0, 0, 0, 0, 0, 0, 0, 0, 0, 0, 0, 0], "stateRewards": ["", -1, -3, -7, -4, -85, -70, 79, 8, 84, -66, 42, 2, -2, -3, -16, -54, -66, 68, -3, 21, -14, 7, -2, -1, -3, -8, 75, 80, 86, -7, -84, 73, -16], "withholdReward": false, "trial_id": "mdp_trial_35", "block": "test", "trialIndex": 36, "score": 44.5, "costs": -4.5, "simulationMode": [null, null, null, null, null], "rewards": [2, -2, -3, -16, 68], "path": ["0", "0", "12", "13", "14", "15", "18"], "rt": [14922, 240, 301, 250, 339], "actions": ["right", "right", "right", "up", "left"], "actionTimes": [31777, 32577, 33390, 34190, 35061], "queries": {"click": {"state": {"target": ["23", "1", "12", "19", "15", "18"], "time": [18102, 19437, 20568, 23140, 24493, 26378]}, "edge": {"target": [], "time": []}}, "mouseover": {"state": {"target": ["23", "1", "12", "18", "14", "14", "19", "19", "14", "15", "18", "18", "12"], "time": [17649, 18636, 20052, 21335, 21468, 21783, 21966, 22685, 23870, 24087, 25520, 25854, 30952]}, "edge": {"target": [], "time": []}}, "mouseout": {"state": {"target": ["29", "23", "0", "23", "1", "12", "18", "14", "14", "19", "19", "14", "15", "15", "18", "18"], "time": [14694, 15002, 17492, 18483, 19818, 21169, 21386, 21552, 21953, 22149, 23786, 24005, 24699, 25384, 25668, 30533]}, "edge": {"target": [], "time": []}}}, "displayed_time": "35.59", "trialTime": 40664, "trial_type": "mouselab-mdp", "trial_index": 43, "time_elapsed": 1648247, "internal_node_id": "0.0-6.0-1.0-34.0"}}, {"uniqueid": "w31889251:a18193006", "current_trial": 44, "dateTime": 1693483729704, "trialdata": {"revealed_states": [], "clicked_states": ["23", "1", "12", "30", "26", "33"], "num_clicks_accrued": [0, 0, 0, 0, 0, 0, 0, 0, 0, 0, 0, 0, 0], "stateRewards": ["", -1, 4, -8, 12, 14, 69, -8, 5, -72, -14, 56, -1, -1, -1, 9, 67, 19, 11, -9, -88, -58, 3, 2, -4, -8, 4, 62, 77, -74, 5, -31, 65, 88], "withholdReward": false, "trial_id": "mdp_trial_36", "block": "test", "trialIndex": 37, "score": 78.5, "costs": -4.5, "simulationMode": [null, null, null, null, null], "rewards": [2, -4, -8, 5, 88], "path": ["0", "0", "23", "24", "25", "30", "33"], "rt": [12840, 214, 285, 333, 330], "actions": ["left", "left", "left", "down", "left"], "actionTimes": [15724, 16467, 17279, 18148, 19012], "queries": {"click": {"state": {"target": ["23", "1", "12", "30", "26", "33"], "time": [4144, 5518, 7346, 8695, 9871, 11258]}, "edge": {"target": [], "time": []}}, "mouseover": {"state": {"target": ["23", "1", "12", "0", "31", "30", "25", "26", "29", "33"], "time": [3675, 5268, 6896, 7885, 8079, 8304, 9237, 9483, 10559, 10812]}, "edge": {"target": [], "time": []}}, "mouseout": {"state": {"target": ["12", "0", "23", "1", "12", "0", "31", "30", "25", "26", "29"], "time": [822, 1462, 4399, 6662, 7846, 7928, 8120, 9227, 9310, 10462, 10677]}, "edge": {"target": [], "time": []}}}, "displayed_time": "19.57", "trialTime": 21878, "trial_type": "mouselab-mdp", "trial_index": 44, "time_elapsed": 1672204, "internal_node_id": "0.0-6.0-1.0-35.0"}}, {"uniqueid": "w31889251:a18193006", "current_trial": 45, "dateTime": 1693483755867, "trialdata": {"revealed_states": [], "clicked_states": ["23", "1", "12", "4", "8", "10"], "num_clicks_accrued": [0, 0, 0, 0, 0, 0, 0, 0, 0, 0, 0, 0, 0], "stateRewards": ["", 2, 2, 3, -15, 23, -14, 73, -7, -32, -20, -6, 1, 1, -5, -12, 73, 6, -84, 11, -81, -57, 13, -2, -1, -4, -8, -52, -58, 49, 13, 5, -41, -41], "withholdReward": false, "trial_id": "mdp_trial_37", "block": "test", "trialIndex": 38, "score": -77.5, "costs": -4.5, "simulationMode": [null, null, null, null, null], "rewards": [-2, -1, -4, -8, -58], "path": ["0", "0", "23", "24", "25", "26", "28"], "rt": [13452, 228, 707, 635, 101], "actions": ["left", "left", "left", "up", "right"], "actionTimes": [16741, 17480, 18713, 19857, 20490], "queries": {"click": {"state": {"target": ["23", "1", "12", "4", "8", "10"], "time": [4450, 5498, 6956, 8082, 9618, 10921]}, "edge": {"target": [], "time": []}}, "mouseover": {"state": {"target": ["23", "1", "12", "7", "4", "3", "8", "10", "11"], "time": [3996, 5044, 6576, 7469, 7683, 8456, 9219, 10535, 11641]}, "edge": {"target": [], "time": []}}, "mouseout": {"state": {"target": ["33", "30", "24", "23", "23", "1", "12", "7", "4", "3", "8", "10"], "time": [794, 826, 911, 1231, 4768, 6278, 7252, 7569, 8447, 8720, 10441, 11463]}, "edge": {"target": [], "time": []}}}, "displayed_time": "21.02", "trialTime": 24183, "trial_type": "mouselab-mdp", "trial_index": 45, "time_elapsed": 1698368, "internal_node_id": "0.0-6.0-1.0-36.0"}}, {"uniqueid": "w31889251:a18193006", "current_trial": 46, "dateTime": 1693483784611, "trialdata": {"revealed_states": [], "clicked_states": ["23", "1", "12", "19", "15", "18"], "num_clicks_accrued": [0, 0, 0, 0, 0, 0, 0, 0, 0, 0, 0, 0, 0], "stateRewards": ["", -2, -1, -1, 5, -54, -87, 35, 2, -8, 20, -22, 1, 3, 6, 13, -75, -32, -55, -3, 56, 62, -22, -1, -4, -1, -7, -51, 84, 70, 7, -15, 5, 55], "withholdReward": false, "trial_id": "mdp_trial_38", "block": "test", "trialIndex": 39, "score": -56.5, "costs": -4.5, "simulationMode": [null, null, null, null, null], "rewards": [1, 3, 6, 13, -75], "path": ["0", "0", "12", "13", "14", "15", "16"], "rt": [13291, 331, 624, 658, 1869], "actions": ["right", "right", "right", "up", "up"], "actionTimes": [16772, 17624, 18800, 19998, 22426], "queries": {"click": {"state": {"target": ["23", "1", "12", "19", "15", "18"], "time": [4846, 5969, 7194, 8756, 10084, 12112]}, "edge": {"target": [], "time": []}}, "mouseover": {"state": {"target": ["23", "1", "12", "19", "19", "14", "15", "18"], "time": [4431, 5368, 6705, 8051, 8278, 9300, 9634, 11738]}, "edge": {"target": [], "time": []}}, "mouseout": {"state": {"target": ["11", "10", "23", "1", "12", "19", "19", "14", "15"], "time": [1066, 1182, 5179, 6667, 7985, 8100, 8965, 9534, 11585]}, "edge": {"target": [], "time": []}}}, "displayed_time": "22.97", "trialTime": 26764, "trial_type": "mouselab-mdp", "trial_index": 46, "time_elapsed": 1727112, "internal_node_id": "0.0-6.0-1.0-37.0"}}, {"uniqueid": "w31889251:a18193006", "current_trial": 47, "dateTime": 1693483811697, "trialdata": {"revealed_states": [], "clicked_states": ["23", "1", "12", "19", "15", "22"], "num_clicks_accrued": [0, 0, 0, 0, 0, 0, 0, 0, 0, 0, 0, 0, 0], "stateRewards": ["", -2, -1, 3, -3, 71, -58, -21, 7, -10, -75, -37, 2, 4, -1, -12, -79, -29, -48, 3, -41, -10, -30, -1, -2, 1, -15, 13, 66, 22, -1, -42, -86, -55], "withholdReward": false, "trial_id": "mdp_trial_39", "block": "test", "trialIndex": 40, "score": -6.5, "costs": -4.5, "simulationMode": [null, null, null, null, null], "rewards": [2, 4, -1, 3, -10], "path": ["0", "0", "12", "13", "14", "19", "21"], "rt": [14317, 313, 241, 491, 511], "actions": ["right", "right", "right", "down", "down"], "actionTimes": [17189, 18035, 18849, 19892, 20974], "queries": {"click": {"state": {"target": ["23", "1", "12", "19", "15", "22"], "time": [4036, 5108, 6515, 8426, 9818, 11942]}, "edge": {"target": [], "time": []}}, "mouseover": {"state": {"target": ["23", "1", "12", "13", "14", "14", "19", "15", "18", "14", "22"], "time": [3596, 4633, 6084, 7513, 7634, 7817, 7946, 9283, 10715, 11013, 11461]}, "edge": {"target": [], "time": []}}, "mouseout": {"state": {"target": ["18", "23", "1", "12", "13", "14", "14", "19", "15", "15", "18", "14", "19", "22", "22"], "time": [661, 4425, 5884, 7502, 7618, 7784, 7870, 8983, 10024, 10565, 10850, 11079, 11180, 12178, 12931]}, "edge": {"target": [], "time": []}}}, "displayed_time": "21.51", "trialTime": 24760, "trial_type": "mouselab-mdp", "trial_index": 47, "time_elapsed": 1754197, "internal_node_id": "0.0-6.0-1.0-38.0"}}, {"uniqueid": "w31889251:a18193006", "current_trial": 48, "dateTime": 1693483842261, "trialdata": {"revealed_states": [], "clicked_states": ["23", "1", "12", "4", "8", "15", "19"], "num_clicks_accrued": [0, 0, 0, 0, 0, 0, 0, 0, 0, 0, 0, 0, 0], "stateRewards": ["", 2, 3, 6, -12, -29, 12, 87, 4, 35, -30, 67, 2, 3, -5, -9, 44, 69, -8, 1, 45, -8, 28, -2, -1, -8, 11, -12, -5, 81, 9, 87, 82, 88], "withholdReward": false, "trial_id": "mdp_trial_40", "block": "test", "trialIndex": 41, "score": -20.45, "costs": -5.45, "simulationMode": [null, null, null, null, null], "rewards": [2, 3, 6, 4, -30], "path": ["0", "0", "1", "2", "3", "8", "10"], "rt": [13991, 195, 296, 279, 916], "actions": ["up", "up", "up", "left", "down"], "actionTimes": [16861, 17657, 18458, 19276, 20810], "queries": {"click": {"state": {"target": ["23", "1", "12", "4", "8", "15", "19"], "time": [4318, 5322, 6996, 8413, 9683, 10994, 12333]}, "edge": {"target": [], "time": []}}, "mouseover": {"state": {"target": ["23", "1", "12", "7", "4", "3", "8", "15", "14", "19", "1", "11", "11"], "time": [4026, 4810, 6592, 7504, 8042, 8959, 9285, 10592, 11697, 11842, 13926, 14382, 15222]}, "edge": {"target": [], "time": []}}, "mouseout": {"state": {"target": ["22", "0", "23", "1", "12", "7", "4", "3", "8", "15", "14", "19", "1", "11"], "time": [766, 1036, 4724, 5525, 7294, 7702, 8621, 9025, 10117, 11686, 11760, 13789, 13974, 14606]}, "edge": {"target": [], "time": []}}}, "displayed_time": "21.36", "trialTime": 28385, "trial_type": "mouselab-mdp", "trial_index": 48, "time_elapsed": 1784762, "internal_node_id": "0.0-6.0-1.0-39.0"}}, {"uniqueid": "w31889251:a18193006", "current_trial": 49, "dateTime": 1693483902316, "trialdata": {"rt": 59218, "response": {"Q0": "$-2 to $2", "Q1": "$-16 to $16", "Q2": "$-88 to $88", "Q3": "The cost for clicking on nodes varied between nodes.", "Q4": "Very motivated"}, "question_order": [0, 1, 2, 3, 4], "trial_id": "final_quiz_control", "trial_type": "survey-multi-choice", "trial_index": 49, "time_elapsed": 1844817, "internal_node_id": "0.0-6.0-2.0"}}, {"uniqueid": "w31889251:a18193006", "current_trial": 50, "dateTime": 1693484089252, "trialdata": {"rt": 186253, "response": {"Q0": "I started by checking the first step then went on and checked the circles that were in the middle and then proceeded to the last on, and chose the way that was either going to benefit me or cut a little.", "Q1": "No, I used the same strategy throughout the whole game.", "Q2": "It was not that difficult just that it needed someone who was able to think fast and under pressure. I think I did pretty well."}, "trial_id": "self_report_control", "trial_type": "survey-text", "trial_index": 50, "time_elapsed": 2031753, "internal_node_id": "0.0-6.0-3.0"}}, {"uniqueid": "w31889251:a18193006", "current_trial": 51, "dateTime": 1693484150705, "trialdata": {"rt": 61425, "response": {"Q0": "Strongly agree", "Q1": "Strongly agree", "Q2": "Strongly agree", "Q3": "Strongly agree", "Q4": "Strongly disagree", "Q5": "Strongly agree", "Q6": "Strongly disagree"}, "question_order": [0, 1, 2, 3, 4, 5, 6], "trial_id": "self_report_2", "trial_type": "survey-multi-choice", "trial_index": 51, "time_elapsed": 2093206, "internal_node_id": "0.0-6.0-4.0"}}, {"uniqueid": "w31889251:a18193006", "current_trial": 52, "dateTime": 1693484187240, "trialdata": {"rt": 36424, "response": {"gender": "female", "age": "23", "colorblind": "0", "effort": "0"}, "trial_type": "survey-html-form", "trial_index": 52, "time_elapsed": 2129742, "internal_node_id": "0.0-6.0-5.0"}}, {"uniqueid": "w31889251:a18193006", "current_trial": 53, "dateTime": 1693484305871, "trialdata": {"rt": 118613, "response": {"Q0": "No, the instructions were clear and so was the game.", "Q1": "No, it was my first time doing this kind of game, hope to get more soon.", "Q2": "Can I please receive more games like this, I really enjoyed playing it."}, "trial_type": "survey-text", "trial_index": 53, "time_elapsed": 2248372, "internal_node_id": "0.0-6.0-6.0"}}, {"uniqueid": "w31889251:a18193006", "current_trial": 54, "dateTime": 1693484371163, "trialdata": {"rt": 65200, "stimulus": "<h1>Completion Code Instructions (1/2)</h1>\n<br><br><br><br>\nYou have reached the end of the experiment! The completion code consists of two parts: (1) a code with 2 characters (2) a code with 6 characters. On this page, you will receive the second part of the code. The first part of the completion code will be on the next page.\n<br><br>\nThe second part of your completion code is: <b>EWEK22</b>\n<br><br>\nPlease note this down. Then, press 'Finish HIT' in order to find the first part of your completion code. Once the data has been saved, you will receive this code either in this window or in the original browser window where you started the experiment.\n", "response": 0, "trial_type": "html-button-response", "trial_index": 54, "time_elapsed": 2313665, "internal_node_id": "0.0-6.0-7.0"}}, {"uniqueid": "w31889251:a18193006", "current_trial": 55, "dateTime": 1693484372244, "trialdata": {"success": true, "trial_type": "fullscreen", "trial_index": 55, "time_elapsed": 2314746, "internal_node_id": "0.0-7.0"}}], "questiondata": {"params": {"CODE": "C6DMOQA6", "MIN_TIME": 14, "inspectCost": 1, "startTime": "Thu Aug 31 2023 13:40:49 GMT+0200 (South Africa Standard Time)", "bonusRate": 0.002, "variance": "1_2_4_8_44", "branching": "31123"}}, "eventdata": [{"eventtype": "initialized", "value": null, "timestamp": 1693482048764, "interval": 0}, {"eventtype": "window_resize", "value": [1287, 602], "timestamp": 1693482048764, "interval": 0}, {"eventtype": "window_resize", "value": [1287, 602], "timestamp": 1693482049371, "interval": 607}, {"eventtype": "window_resize", "value": [1302, 732], "timestamp": 1693482067492, "interval": 18121}], "useragent": "Mozilla/5.0 (Windows NT 10.0; Win64; x64) AppleWebKit/537.36 (KHTML, like Gecko) Chrome/116.0.0.0 Safari/537.36", "mode": "live", "id": "w31889251:a18193006", "status": "user data saved", "Beginhit": "2023-08-31 11:40:36.757391", "Beginexp": "2023-08-31 11:41:09.231931", "Endhit": "2023-08-31 12:19:35.77285", "psiturkStatus": 3, "browser": "<redacted>", "platform": "windows", "language": "en-GB"}