{"condition": 0, "counterbalance": 0, "assignmentId": "a14007579", "workerId": "w52637157", "hitId": "h35207937", "currenttrial": 61, "bonus": 0, "data": [{"uniqueid": "w52637157:a14007579", "current_trial": 0, "dateTime": 1691142245331, "trialdata": {"success": true, "trial_type": "fullscreen", "trial_index": 0, "time_elapsed": 10353, "internal_node_id": "0.0-0.0"}}, {"uniqueid": "w52637157:a14007579", "current_trial": 1, "dateTime": 1691142280497, "trialdata": {"view_history": [{"page_index": 0, "viewing_time": 35100}], "rt": 35103, "trial_id": "exp_instructions_control", "trial_type": "instructions", "trial_index": 1, "time_elapsed": 45527, "internal_node_id": "0.0-1.0"}}, {"uniqueid": "w52637157:a14007579", "current_trial": 2, "dateTime": 1691142285259, "trialdata": {"success": true, "trial_type": "fullscreen", "trial_index": 2, "time_elapsed": 50289, "internal_node_id": "0.0-2.0-0.0"}}, {"uniqueid": "w52637157:a14007579", "current_trial": 3, "dateTime": 1691142714704, "trialdata": {"view_history": [{"page_index": 0, "viewing_time": 189430}, {"page_index": 1, "viewing_time": 130572}, {"page_index": 2, "viewing_time": 19276}, {"page_index": 3, "viewing_time": 1955}, {"page_index": 2, "viewing_time": 28433}, {"page_index": 3, "viewing_time": 59766}], "rt": 429433, "trial_id": "mouselab_instructions_1_control", "trial_type": "instructions", "trial_index": 3, "time_elapsed": 479734, "internal_node_id": "0.0-2.0-1.0"}}, {"uniqueid": "w52637157:a14007579", "current_trial": 4, "dateTime": 1691142749731, "trialdata": {"revealed_states": [], "clicked_states": [], "num_clicks_accrued": [0, 0, 0, 0, 0, 0, 0, 0, 0, 0, 0, 0, 0], "stateRewards": ["", 10, -10, -10, 10, 10, -10, 10, 10, 10, 10, 10, 10, -10, 10, -10, 10, 10, 10, -10, 10, 10, 10, -10, -10, -10, 10, -10, -10, 10, 10, -10, -10, 10], "withholdReward": false, "trial_id": "practice_1", "block": "test", "trialIndex": 0, "score": -6.5, "costs": 0, "simulationMode": [null, null, null, null, null], "rewards": [10, -10, -10, 10, -10], "path": ["0", "0", "1", "2", "3", "4", "6"], "rt": [3423, 1892, 1229, 765, 4345], "actions": ["up", "up", "up", "right", "right"], "actionTimes": [10063, 12534, 14333, 15663, 20575], "queries": {"click": {"state": {"target": [], "time": []}, "edge": {"target": [], "time": []}}, "mouseover": {"state": {"target": ["0"], "time": [7738]}, "edge": {"target": [], "time": []}}, "mouseout": {"state": {"target": ["0", "0", "12", "14"], "time": [6739, 29332, 29385, 29442]}, "edge": {"target": [], "time": []}}}, "displayed_time": "21.15", "trialTime": 31900, "trial_type": "mouselab-mdp", "trial_index": 4, "time_elapsed": 514760, "internal_node_id": "0.0-2.0-2.0-0.0"}}, {"uniqueid": "w52637157:a14007579", "current_trial": 5, "dateTime": 1691142783439, "trialdata": {"revealed_states": [], "clicked_states": ["23", "12", "1"], "num_clicks_accrued": [0, 0, 0, 0, 0, 0, 0, 0, 0, 0, 0, 0, 0], "stateRewards": ["", 10, 10, 10, -10, -10, 10, -10, 10, 10, -10, -10, -10, -10, 10, 10, 10, 10, 10, 10, 10, 10, 10, -10, 10, -10, 10, -10, -10, -10, 10, -10, -10, -10], "withholdReward": false, "trial_id": "practice_2", "block": "test", "trialIndex": 1, "score": 32, "costs": -1.5, "simulationMode": [null, null, null, null, null], "rewards": [10, 10, 10, 10, -10], "path": ["0", "0", "1", "2", "3", "8", "11"], "rt": [9524, 7593, 2331, 830, 467], "actions": ["up", "up", "up", "left", "left"], "actionTimes": [14035, 22197, 25109, 26510, 27542], "queries": {"click": {"state": {"target": ["23", "12", "1"], "time": [6753, 9689, 11195]}, "edge": {"target": [], "time": []}}, "mouseover": {"state": {"target": ["23", "1", "7", "1", "1", "12", "1", "13"], "time": [5749, 8002, 8071, 8340, 8941, 9114, 10678, 12471]}, "edge": {"target": [], "time": []}}, "mouseout": {"state": {"target": ["14", "0", "23", "1", "7", "1", "1", "12", "1", "12", "13", "2", "20"], "time": [1988, 5609, 7952, 8055, 8227, 8528, 9029, 10305, 12328, 12428, 16406, 29471, 30855]}, "edge": {"target": [], "time": []}}}, "displayed_time": "28.11", "trialTime": 31689, "trial_type": "mouselab-mdp", "trial_index": 5, "time_elapsed": 548468, "internal_node_id": "0.0-2.0-2.0-1.0"}}, {"uniqueid": "w52637157:a14007579", "current_trial": 6, "dateTime": 1691142856528, "trialdata": {"view_history": [{"page_index": 0, "viewing_time": 60893}, {"page_index": 1, "viewing_time": 12174}], "rt": 73069, "trial_id": "mouselab_instructions_2_control", "trial_type": "instructions", "trial_index": 6, "time_elapsed": 621558, "internal_node_id": "0.0-2.0-3.0"}}, {"uniqueid": "w52637157:a14007579", "current_trial": 7, "dateTime": 1691142950456, "trialdata": {"rt": 93912, "response": {"Q0": "There is no cost for clicking on nodes.", "Q1": "The better I perform the higher my bonus will be.", "Q2": "No, the amount of cash at each node of the web may be different each time.", "Q3": "To get the highest total score.", "Q4": "Only before moving the spider.", "Q5": "3 seconds"}, "question_order": [0, 1, 2, 3, 4, 5], "correct": {"Q0": "The cost for clicking on nodes may vary between nodes.", "Q1": "The better I perform the higher my bonus will be.", "Q2": "No, the amount of cash at each node of the web may be different each time.", "Q3": "To get the highest total score.", "Q4": "Only before moving the spider.", "Q5": "3 seconds"}, "trial_id": "mouselab_quiz_control", "trial_type": "survey-multi-choice", "trial_index": 7, "time_elapsed": 715486, "internal_node_id": "0.0-2.0-4.0"}}, {"uniqueid": "w52637157:a14007579", "current_trial": 8, "dateTime": 1691142960464, "trialdata": {"success": true, "trial_type": "fullscreen", "trial_index": 8, "time_elapsed": 725494, "internal_node_id": "0.0-2.1-0.1"}}, {"uniqueid": "w52637157:a14007579", "current_trial": 9, "dateTime": 1691143146613, "trialdata": {"view_history": [{"page_index": 0, "viewing_time": 27323}, {"page_index": 1, "viewing_time": 119170}, {"page_index": 2, "viewing_time": 34178}, {"page_index": 3, "viewing_time": 5474}], "rt": 186145, "trial_id": "mouselab_instructions_1_control", "trial_type": "instructions", "trial_index": 9, "time_elapsed": 911643, "internal_node_id": "0.0-2.1-1.1"}}, {"uniqueid": "w52637157:a14007579", "current_trial": 10, "dateTime": 1691143175381, "trialdata": {"revealed_states": [], "clicked_states": ["1"], "num_clicks_accrued": [0, 0, 0, 0, 0, 0, 0, 0, 0, 0, 0, 0, 0], "stateRewards": ["", 10, -10, -10, 10, 10, -10, 10, 10, 10, 10, 10, 10, -10, 10, -10, 10, 10, 10, -10, 10, 10, 10, -10, -10, -10, 10, -10, -10, 10, 10, -10, -10, 10], "withholdReward": false, "trial_id": "practice_1", "block": "test", "trialIndex": 2, "score": 13, "costs": -0.5, "simulationMode": [null, null, null, null, null], "rewards": [10, -10, -10, 10, 10], "path": ["0", "0", "1", "2", "3", "8", "11"], "rt": [4950, 1590, 2688, 721, 358], "actions": ["up", "up", "up", "left", "left"], "actionTimes": [13801, 15951, 19260, 20576, 21568], "queries": {"click": {"state": {"target": ["1"], "time": [10839]}, "edge": {"target": [], "time": []}}, "mouseover": {"state": {"target": ["1", "12"], "time": [10139, 12355]}, "edge": {"target": [], "time": []}}, "mouseout": {"state": {"target": ["23", "0", "1", "12", "17"], "time": [6477, 9980, 11992, 23899, 23956]}, "edge": {"target": [], "time": []}}}, "displayed_time": "22.11", "trialTime": 26258, "trial_type": "mouselab-mdp", "trial_index": 10, "time_elapsed": 940410, "internal_node_id": "0.0-2.1-2.1-0.1"}}, {"uniqueid": "w52637157:a14007579", "current_trial": 11, "dateTime": 1691143203185, "trialdata": {"revealed_states": [], "clicked_states": ["23", "12", "1"], "num_clicks_accrued": [0, 0, 0, 0, 0, 0, 0, 0, 0, 0, 0, 0, 0], "stateRewards": ["", 10, 10, 10, -10, -10, 10, -10, 10, 10, -10, -10, -10, -10, 10, 10, 10, 10, 10, 10, 10, 10, 10, -10, 10, -10, 10, -10, -10, -10, 10, -10, -10, -10], "withholdReward": false, "trial_id": "practice_2", "block": "test", "trialIndex": 3, "score": 12, "costs": -1.5, "simulationMode": [null, null, null, null, null], "rewards": [10, 10, 10, -10, -10], "path": ["0", "0", "1", "2", "3", "4", "5"], "rt": [9989, 1196, 1136, 391, 1481], "actions": ["up", "up", "up", "right", "up"], "actionTimes": [13656, 15409, 17146, 18085, 20151], "queries": {"click": {"state": {"target": ["23", "12", "1"], "time": [5370, 8510, 11142]}, "edge": {"target": [], "time": []}}, "mouseover": {"state": {"target": ["23", "12", "1"], "time": [4749, 7865, 10538]}, "edge": {"target": [], "time": []}}, "mouseout": {"state": {"target": ["23", "23", "12", "1", "16", "20", "19"], "time": [1581, 7566, 10439, 11323, 22650, 24740, 24813]}, "edge": {"target": [], "time": []}}}, "displayed_time": "20.73", "trialTime": 25422, "trial_type": "mouselab-mdp", "trial_index": 11, "time_elapsed": 968214, "internal_node_id": "0.0-2.1-2.1-1.1"}}, {"uniqueid": "w52637157:a14007579", "current_trial": 12, "dateTime": 1691143269975, "trialdata": {"view_history": [{"page_index": 0, "viewing_time": 64319}, {"page_index": 1, "viewing_time": 2455}], "rt": 66775, "trial_id": "mouselab_instructions_2_control", "trial_type": "instructions", "trial_index": 12, "time_elapsed": 1035005, "internal_node_id": "0.0-2.1-3.1"}}, {"uniqueid": "w52637157:a14007579", "current_trial": 13, "dateTime": 1691143358947, "trialdata": {"rt": 88947, "response": {"Q0": "The cost for clicking on nodes may vary between nodes.", "Q1": "The better I perform the higher my bonus will be.", "Q2": "No, the amount of cash at each node of the web may be different each time.", "Q3": "To get the highest total score.", "Q4": "Only before moving the spider.", "Q5": "3 seconds"}, "question_order": [0, 1, 2, 3, 4, 5], "correct": {"Q0": "The cost for clicking on nodes may vary between nodes.", "Q1": "The better I perform the higher my bonus will be.", "Q2": "No, the amount of cash at each node of the web may be different each time.", "Q3": "To get the highest total score.", "Q4": "Only before moving the spider.", "Q5": "3 seconds"}, "trial_id": "mouselab_quiz_control", "trial_type": "survey-multi-choice", "trial_index": 13, "time_elapsed": 1123977, "internal_node_id": "0.0-2.1-4.1"}}, {"uniqueid": "w52637157:a14007579", "current_trial": 14, "dateTime": 1691143394183, "trialdata": {"rt": 35199, "stimulus": "\n<h1> Get ready to start the game! </h1>\n\nThank you for reading the instructions. Get ready start with the 40 rounds of this game.\n<br><br>\nIf you need to take a break, feel free to take one after the end of a round, before continuing to the next one.\n<br><br>\nRemember, the more money the spider gets, the bigger your bonus will be!\n<br><br>\n<div style='text-align: center;'>Press <code>space</code> to begin.</div>\n\n<br><br>\n(If, at any point, the <code>space</code> key does not take you to the next page, click once on the text and try again.)", "response": " ", "trial_id": "mdp_ready", "trial_type": "html-keyboard-response", "trial_index": 14, "time_elapsed": 1159212, "internal_node_id": "0.0-4.0-0.0"}}, {"uniqueid": "w52637157:a14007579", "current_trial": 15, "dateTime": 1691143418588, "trialdata": {"revealed_states": [], "clicked_states": ["1"], "num_clicks_accrued": [0, 0, 0, 0, 0, 0, 0, 0, 0, 0, 0, 0, 0], "stateRewards": ["", -2, 1, -8, 12, -65, -79, 16, 7, -80, -17, -45, -2, 2, -5, -2, -85, 23, -4, -7, 48, 27, -76, 2, 3, 5, 2, 43, 71, -13, 7, -49, 59, -31], "withholdReward": false, "trial_id": "mdp_trial_1", "block": "test", "trialIndex": 4, "score": -83.4, "costs": -1.4, "simulationMode": [null, null, null, null, null, null], "rewards": [-2, 1, -8, 7, -80], "path": ["0", "0", "1", "2", "3", "8", "9"], "rt": [3326, 1057, 1415, 4445, 676, 747], "actions": ["up", "up", "up", "up", "left", "up"], "actionTimes": [8597, 9688, 11665, 16665, 17932, 19263], "queries": {"click": {"state": {"target": ["1"], "time": [7044]}, "edge": {"target": [], "time": []}}, "mouseover": {"state": {"target": ["1"], "time": [6389]}, "edge": {"target": [], "time": []}}, "mouseout": {"state": {"target": ["0", "1"], "time": [6159, 7206]}, "edge": {"target": [], "time": []}}}, "displayed_time": "19.82", "trialTime": 21981, "trial_type": "mouselab-mdp", "trial_index": 15, "time_elapsed": 1183617, "internal_node_id": "0.0-4.0-1.0-0.0"}}, {"uniqueid": "w52637157:a14007579", "current_trial": 16, "dateTime": 1691143441500, "trialdata": {"revealed_states": [], "clicked_states": ["12", "1"], "num_clicks_accrued": [0, 0, 0, 0, 0, 0, 0, 0, 0, 0, 0, 0, 0], "stateRewards": ["", 1, 2, 8, -2, 23, -69, -18, -16, 54, -21, 71, -1, -4, 7, 11, 43, -6, 88, 6, -55, 72, 43, 1, -3, -2, -1, 68, -31, -54, 4, -8, 25, -2], "withholdReward": false, "trial_id": "mdp_trial_2", "block": "test", "trialIndex": 5, "score": -11.8, "costs": -2.8, "simulationMode": [null, null, null, null, null], "rewards": [1, 2, 8, -2, -18], "path": ["0", "0", "1", "2", "3", "4", "7"], "rt": [7255, 1442, 1394, 345, 832], "actions": ["up", "up", "up", "right", "down"], "actionTimes": [10483, 12509, 14453, 15351, 16792], "queries": {"click": {"state": {"target": ["12", "1"], "time": [4640, 7530]}, "edge": {"target": [], "time": []}}, "mouseover": {"state": {"target": ["12", "1", "23"], "time": [4167, 6198, 8425]}, "edge": {"target": [], "time": []}}, "mouseout": {"state": {"target": ["1", "0", "12", "1"], "time": [888, 1270, 5279, 8105]}, "edge": {"target": [], "time": []}}}, "displayed_time": "17.35", "trialTime": 20474, "trial_type": "mouselab-mdp", "trial_index": 16, "time_elapsed": 1206529, "internal_node_id": "0.0-4.0-1.0-1.0"}}, {"uniqueid": "w52637157:a14007579", "current_trial": 17, "dateTime": 1691143467441, "trialdata": {"revealed_states": [], "clicked_states": ["13", "19"], "num_clicks_accrued": [0, 0, 0, 0, 0, 0, 0, 0, 0, 0, 0, 0, 0], "stateRewards": ["", 1, -1, 8, 4, 76, -33, -17, -3, -1, -54, -74, -2, 2, -5, 13, -51, 63, 83, 1, 84, 29, -36, 2, -1, 7, -12, -10, -44, -43, -14, 8, -69, 19], "withholdReward": false, "trial_id": "mdp_trial_3", "block": "test", "trialIndex": 6, "score": 22.2, "costs": -2.8, "simulationMode": [null, null, null, null, null], "rewards": [-2, 2, -5, 1, 29], "path": ["0", "0", "12", "13", "14", "19", "21"], "rt": [7440, 445, 443, 345, 489], "actions": ["right", "right", "right", "down", "down"], "actionTimes": [12089, 13104, 14118, 15056, 16130], "queries": {"click": {"state": {"target": ["13", "19"], "time": [6492, 9183]}, "edge": {"target": [], "time": []}}, "mouseover": {"state": {"target": ["12", "13", "13", "12", "14", "19"], "time": [5647, 5765, 5996, 7345, 7897, 8438]}, "edge": {"target": [], "time": []}}, "mouseout": {"state": {"target": ["23", "12", "13", "13", "12", "14"], "time": [2309, 5709, 5833, 6595, 7417, 8345]}, "edge": {"target": [], "time": []}}}, "displayed_time": "18.65", "trialTime": 23313, "trial_type": "mouselab-mdp", "trial_index": 17, "time_elapsed": 1232470, "internal_node_id": "0.0-4.0-1.0-2.0"}}, {"uniqueid": "w52637157:a14007579", "current_trial": 18, "dateTime": 1691143494268, "trialdata": {"revealed_states": [], "clicked_states": ["24", "13"], "num_clicks_accrued": [0, 0, 0, 0, 0, 0, 0, 0, 0, 0, 0, 0, 0], "stateRewards": ["", -2, 1, -3, -16, -39, -52, 30, -7, -41, -59, 11, 2, 1, 8, 2, -11, -26, -42, -13, 87, -59, -48, -1, -1, -1, 16, -79, 31, 50, -1, -84, 34, -82], "withholdReward": false, "trial_id": "mdp_trial_4", "block": "test", "trialIndex": 7, "score": -15.8, "costs": -2.8, "simulationMode": [null, null, null, null, null], "rewards": [2, 1, 8, 2, -26], "path": ["0", "0", "12", "13", "14", "15", "17"], "rt": [7518, 434, 701, 700, 217], "actions": ["right", "right", "right", "up", "right"], "actionTimes": [12272, 13281, 14628, 15902, 16721], "queries": {"click": {"state": {"target": ["24", "13"], "time": [7546, 9815]}, "edge": {"target": [], "time": []}}, "mouseover": {"state": {"target": ["23", "24", "13"], "time": [5547, 7505, 9318]}, "edge": {"target": [], "time": []}}, "mouseout": {"state": {"target": ["19", "22", "0", "23", "24"], "time": [1052, 1127, 1448, 5858, 7580]}, "edge": {"target": [], "time": []}}}, "displayed_time": "18.76", "trialTime": 24196, "trial_type": "mouselab-mdp", "trial_index": 18, "time_elapsed": 1259293, "internal_node_id": "0.0-4.0-1.0-3.0"}}, {"uniqueid": "w52637157:a14007579", "current_trial": 19, "dateTime": 1691143518399, "trialdata": {"revealed_states": [], "clicked_states": ["6"], "num_clicks_accrued": [0, 0, 0, 0, 0, 0, 0, 0, 0, 0, 0, 0, 0], "stateRewards": ["", 2, -4, -4, 13, -80, 62, 13, -11, 57, -13, -44, 1, 4, 3, -4, -29, -88, 15, 16, -58, 68, -45, -1, -3, -1, -9, -44, -86, -19, -7, -36, 59, 66], "withholdReward": false, "trial_id": "mdp_trial_5", "block": "test", "trialIndex": 8, "score": 67.6, "costs": -1.4, "simulationMode": [null, null, null, null, null], "rewards": [2, -4, -4, 13, 62], "path": ["0", "0", "1", "2", "3", "4", "6"], "rt": [5890, 469, 635, 260, 217], "actions": ["up", "up", "up", "right", "right"], "actionTimes": [9527, 10561, 11832, 12663, 13452], "queries": {"click": {"state": {"target": ["6"], "time": [6645]}, "edge": {"target": [], "time": []}}, "mouseover": {"state": {"target": ["7", "4", "6", "7"], "time": [4600, 5186, 5547, 7992]}, "edge": {"target": [], "time": []}}, "mouseout": {"state": {"target": ["13", "12", "0", "7", "4", "6", "7"], "time": [1002, 1246, 4469, 5045, 5298, 7673, 8420]}, "edge": {"target": [], "time": []}}}, "displayed_time": "18.65", "trialTime": 21485, "trial_type": "mouselab-mdp", "trial_index": 19, "time_elapsed": 1283428, "internal_node_id": "0.0-4.0-1.0-4.0"}}, {"uniqueid": "w52637157:a14007579", "current_trial": 20, "dateTime": 1691143549340, "trialdata": {"revealed_states": [], "clicked_states": ["21", "32", "27", "9", "5"], "num_clicks_accrued": [0, 0, 0, 0, 0, 0, 0, 0, 0, 0, 0, 0, 0], "stateRewards": ["", 2, 4, -6, -13, -75, -81, 30, 7, 5, 59, -65, -1, -1, 7, 14, -38, 36, -41, 1, -54, -5, 64, 2, -1, 5, 6, -19, 79, 11, 16, -33, -50, 58], "withholdReward": false, "trial_id": "mdp_trial_6", "block": "test", "trialIndex": 9, "score": 5, "costs": -7, "simulationMode": [null, null, null, null, null], "rewards": [2, 4, -6, 7, 5], "path": ["0", "0", "1", "2", "3", "8", "9"], "rt": [16334, 169, 233, 413, 750], "actions": ["up", "up", "up", "left", "up"], "actionTimes": [20450, 21182, 21993, 23022, 24346], "queries": {"click": {"state": {"target": ["21", "32", "27", "9", "5"], "time": [6809, 9068, 11822, 14062, 16858]}, "edge": {"target": [], "time": []}}, "mouseover": {"state": {"target": ["12", "13", "14", "19", "21", "31", "32", "30", "25", "26", "27", "9", "5", "6", "4"], "time": [5456, 5653, 5733, 6120, 6354, 7987, 8149, 10065, 10149, 10520, 11294, 12982, 16098, 19110, 19434]}, "edge": {"target": [], "time": []}}, "mouseout": {"state": {"target": ["1", "12", "13", "14", "19", "21", "31", "32", "30", "25", "26", "27", "9", "5", "6", "4"], "time": [1690, 5596, 5719, 5790, 6300, 7642, 8066, 10006, 10136, 10383, 10781, 12587, 15362, 18102, 19377, 19487]}, "edge": {"target": [], "time": []}}}, "displayed_time": "24.94", "trialTime": 28208, "trial_type": "mouselab-mdp", "trial_index": 20, "time_elapsed": 1314369, "internal_node_id": "0.0-4.0-1.0-5.0"}}, {"uniqueid": "w52637157:a14007579", "current_trial": 21, "dateTime": 1691143572004, "trialdata": {"revealed_states": [], "clicked_states": [], "num_clicks_accrued": [0, 0, 0, 0, 0, 0, 0, 0, 0, 0, 0, 0, 0], "stateRewards": ["", -1, 1, -2, 5, 73, 15, 61, 8, 7, 38, 76, 2, 2, -4, -6, -6, -26, 43, -5, -45, -85, -35, -2, 1, -4, 15, -10, 69, 72, -11, 84, -49, -38], "withholdReward": false, "trial_id": "mdp_trial_7", "block": "test", "trialIndex": 10, "score": -12, "costs": 0, "simulationMode": [null, null, null, null, null], "rewards": [2, 2, -4, -6, -6], "path": ["0", "0", "12", "13", "14", "15", "16"], "rt": [6203, 1004, 219, 556, 121], "actions": ["right", "right", "right", "up", "up"], "actionTimes": [10600, 12161, 12940, 14063, 14721], "queries": {"click": {"state": {"target": [], "time": []}, "edge": {"target": [], "time": []}}, "mouseover": {"state": {"target": ["0", "22", "21"], "time": [5305, 5433, 5744]}, "edge": {"target": [], "time": []}}, "mouseout": {"state": {"target": ["9", "8", "10", "1", "0", "0", "22", "21"], "time": [1387, 1438, 1697, 1983, 2314, 5367, 5508, 7997]}, "edge": {"target": [], "time": []}}}, "displayed_time": "18.40", "trialTime": 19918, "trial_type": "mouselab-mdp", "trial_index": 21, "time_elapsed": 1337033, "internal_node_id": "0.0-4.0-1.0-6.0"}}, {"uniqueid": "w52637157:a14007579", "current_trial": 22, "dateTime": 1691143594964, "trialdata": {"revealed_states": [], "clicked_states": ["6", "7"], "num_clicks_accrued": [0, 0, 0, 0, 0, 0, 0, 0, 0, 0, 0, 0, 0], "stateRewards": ["", 1, 2, -6, -13, -51, 22, -4, -12, -44, -12, 6, -2, -2, -2, -14, -46, -4, -77, -2, 36, -79, 41, 2, -4, 2, -6, -55, 59, 70, -5, 39, -19, 24], "withholdReward": false, "trial_id": "mdp_trial_8", "block": "test", "trialIndex": 11, "score": 3.1999999999999993, "costs": -2.8, "simulationMode": [null, null, null, null, null, null], "rewards": [1, 2, -6, -13, 22], "path": ["0", "0", "1", "2", "3", "4", "6"], "rt": [4624, 1168, 232, 156, 567, 45], "actions": ["up", "up", "up", "up", "right", "right"], "actionTimes": [8906, 10098, 10911, 11707, 12998, 13706], "queries": {"click": {"state": {"target": ["6", "7"], "time": [5995, 7995]}, "edge": {"target": [], "time": []}}, "mouseover": {"state": {"target": ["1", "6", "7"], "time": [5109, 5557, 6780]}, "edge": {"target": [], "time": []}}, "mouseout": {"state": {"target": ["22", "12", "0", "1", "6"], "time": [1551, 1925, 5050, 5194, 6649]}, "edge": {"target": [], "time": []}}}, "displayed_time": "18.28", "trialTime": 20163, "trial_type": "mouselab-mdp", "trial_index": 22, "time_elapsed": 1359992, "internal_node_id": "0.0-4.0-1.0-7.0"}}, {"uniqueid": "w52637157:a14007579", "current_trial": 23, "dateTime": 1691143621377, "trialdata": {"revealed_states": [], "clicked_states": ["29", "33"], "num_clicks_accrued": [0, 0, 0, 0, 0, 0, 0, 0, 0, 0, 0, 0, 0], "stateRewards": ["", -2, -3, -6, -7, 9, 16, 65, 5, -41, 20, -25, -1, -4, 1, -11, -49, -4, 71, 1, 39, -62, 52, -2, -3, 7, -9, -28, -70, 84, 8, 24, -58, 82], "withholdReward": false, "trial_id": "mdp_trial_9", "block": "test", "trialIndex": 12, "score": 74.2, "costs": -2.8, "simulationMode": [null, null, null, null, null, null], "rewards": [-2, -3, 7, -9, 84], "path": ["0", "0", "23", "24", "25", "26", "29"], "rt": [4902, 1617, 344, 497, 746, 209], "actions": ["left", "left", "left", "left", "up", "left"], "actionTimes": [8929, 10572, 11489, 12560, 13881, 14689], "queries": {"click": {"state": {"target": ["29", "33"], "time": [6066, 7853]}, "edge": {"target": [], "time": []}}, "mouseover": {"state": {"target": ["29", "33"], "time": [5939, 6977]}, "edge": {"target": [], "time": []}}, "mouseout": {"state": {"target": ["7", "1", "0", "29"], "time": [1156, 1239, 4814, 6963]}, "edge": {"target": [], "time": []}}}, "displayed_time": "19.03", "trialTime": 22903, "trial_type": "mouselab-mdp", "trial_index": 23, "time_elapsed": 1386402, "internal_node_id": "0.0-4.0-1.0-8.0"}}, {"uniqueid": "w52637157:a14007579", "current_trial": 24, "dateTime": 1691143645201, "trialdata": {"revealed_states": [], "clicked_states": ["6", "7"], "num_clicks_accrued": [0, 0, 0, 0, 0, 0, 0, 0, 0, 0, 0, 0, 0], "stateRewards": ["", 1, -3, -6, -5, 47, 80, -29, 11, -71, 10, -29, -2, 3, -6, 12, 2, -78, -6, 8, 34, -16, -5, -1, 3, 3, -13, 84, -36, -62, -3, -27, 66, 15], "withholdReward": false, "trial_id": "mdp_trial_10", "block": "test", "trialIndex": 13, "score": 64.2, "costs": -2.8, "simulationMode": [null, null, null, null, null, null], "rewards": [1, -3, -6, -5, 80], "path": ["0", "0", "1", "2", "3", "4", "6"], "rt": [4729, 1183, 303, 141, 492, 175], "actions": ["up", "up", "up", "up", "right", "right"], "actionTimes": [8655, 9851, 10756, 11470, 12533, 13291], "queries": {"click": {"state": {"target": ["6", "7"], "time": [5629, 7613]}, "edge": {"target": [], "time": []}}, "mouseover": {"state": {"target": ["1", "6", "7"], "time": [4798, 5187, 6695]}, "edge": {"target": [], "time": []}}, "mouseout": {"state": {"target": ["33", "24", "23", "0", "1", "6", "7"], "time": [1232, 1302, 1570, 4049, 4885, 6602, 7777]}, "edge": {"target": [], "time": []}}}, "displayed_time": "17.94", "trialTime": 20861, "trial_type": "mouselab-mdp", "trial_index": 24, "time_elapsed": 1410226, "internal_node_id": "0.0-4.0-1.0-9.0"}}, {"uniqueid": "w52637157:a14007579", "current_trial": 25, "dateTime": 1691143672026, "trialdata": {"revealed_states": [], "clicked_states": ["17", "20", "32"], "num_clicks_accrued": [0, 0, 0, 0, 0, 0, 0, 0, 0, 0, 0, 0, 0], "stateRewards": ["", 1, 2, -3, -5, 66, -50, -47, -5, 1, 28, -27, 1, 1, -1, -6, 37, -25, 56, 1, -82, -66, -40, -1, -4, -7, 15, -61, -23, 26, 10, 14, -56, 29], "withholdReward": false, "trial_id": "mdp_trial_11", "block": "test", "trialIndex": 14, "score": -36.2, "costs": -4.199999999999999, "simulationMode": [null, null, null, null, null], "rewards": [1, 2, -3, -5, -27], "path": ["0", "0", "1", "2", "3", "8", "11"], "rt": [12164, 181, 635, 416, 52], "actions": ["up", "up", "up", "left", "left"], "actionTimes": [15742, 16508, 17706, 18687, 19430], "queries": {"click": {"state": {"target": ["17", "20", "32"], "time": [5239, 7727, 11604]}, "edge": {"target": [], "time": []}}, "mouseover": {"state": {"target": ["15", "17", "17", "20", "19", "12", "30", "32"], "time": [4364, 4442, 4732, 6297, 8520, 9885, 10775, 11178]}, "edge": {"target": [], "time": []}}, "mouseout": {"state": {"target": ["7", "1", "15", "17", "17", "20", "19", "12", "30", "32"], "time": [702, 770, 4423, 4542, 5854, 7905, 8590, 10398, 10841, 11742]}, "edge": {"target": [], "time": []}}}, "displayed_time": "20.04", "trialTime": 23693, "trial_type": "mouselab-mdp", "trial_index": 25, "time_elapsed": 1437054, "internal_node_id": "0.0-4.0-1.0-10.0"}}, {"uniqueid": "w52637157:a14007579", "current_trial": 26, "dateTime": 1691143699670, "trialdata": {"revealed_states": [], "clicked_states": [], "num_clicks_accrued": [0, 0, 0, 0, 0, 0, 0, 0, 0, 0, 0, 0, 0], "stateRewards": ["", 1, 3, -2, 15, 51, 15, -19, 11, 67, -45, -73, 2, 4, -2, -13, 36, 9, -28, 10, -30, 31, 16, 1, 2, -1, -16, 14, -22, 36, -1, 88, -5, 45], "withholdReward": false, "trial_id": "mdp_trial_12", "block": "test", "trialIndex": 15, "score": 0, "costs": 0, "simulationMode": [null, null, null, null, null], "rewards": [2, 4, -2, -13, 9], "path": ["0", "0", "12", "13", "14", "15", "17"], "rt": [6769, 136, 221, 574, 79], "actions": ["right", "right", "right", "up", "right"], "actionTimes": [10770, 11486, 12293, 13425, 14106], "queries": {"click": {"state": {"target": [], "time": []}, "edge": {"target": [], "time": []}}, "mouseover": {"state": {"target": ["1", "3", "4", "6"], "time": [5703, 5819, 8281, 8808]}, "edge": {"target": [], "time": []}}, "mouseout": {"state": {"target": ["32", "0", "1", "3", "4", "6"], "time": [703, 5613, 5776, 8076, 8730, 8873]}, "edge": {"target": [], "time": []}}}, "displayed_time": "18.00", "trialTime": 24157, "trial_type": "mouselab-mdp", "trial_index": 26, "time_elapsed": 1464699, "internal_node_id": "0.0-4.0-1.0-11.0"}}, {"uniqueid": "w52637157:a14007579", "current_trial": 27, "dateTime": 1691143724290, "trialdata": {"revealed_states": [], "clicked_states": ["33", "32", "9"], "num_clicks_accrued": [0, 0, 0, 0, 0, 0, 0, 0, 0, 0, 0, 0, 0], "stateRewards": ["", 2, 4, 4, 9, -88, -10, 44, 16, -54, 64, 78, 1, 2, 5, 16, 80, 36, 7, -4, 9, -47, -70, -1, -3, 6, -16, 11, 80, 28, 8, -1, 34, -17], "withholdReward": false, "trial_id": "mdp_trial_13", "block": "test", "trialIndex": 16, "score": 39.8, "costs": -4.199999999999999, "simulationMode": [null, null, null, null, null], "rewards": [-1, -3, 6, 8, 34], "path": ["0", "0", "23", "24", "25", "30", "32"], "rt": [10309, 260, 214, 551, 195], "actions": ["left", "left", "left", "down", "down"], "actionTimes": [14307, 15135, 15994, 17103, 17853], "queries": {"click": {"state": {"target": ["33", "32", "9"], "time": [5780, 7958, 9703]}, "edge": {"target": [], "time": []}}, "mouseover": {"state": {"target": ["23", "24", "25", "30", "33", "32", "3", "9"], "time": [4682, 4805, 4943, 5034, 5180, 6640, 8743, 9312]}, "edge": {"target": [], "time": []}}, "mouseout": {"state": {"target": ["7", "23", "24", "25", "30", "33", "32", "3", "9"], "time": [917, 4735, 4878, 5020, 5103, 6504, 8561, 9040, 9880]}, "edge": {"target": [], "time": []}}}, "displayed_time": "18.41", "trialTime": 21233, "trial_type": "mouselab-mdp", "trial_index": 27, "time_elapsed": 1489319, "internal_node_id": "0.0-4.0-1.0-12.0"}}, {"uniqueid": "w52637157:a14007579", "current_trial": 28, "dateTime": 1691143749465, "trialdata": {"revealed_states": [], "clicked_states": ["16", "20"], "num_clicks_accrued": [0, 0, 0, 0, 0, 0, 0, 0, 0, 0, 0, 0, 0], "stateRewards": ["", 2, -2, 7, -11, -76, -65, -23, 16, -58, 30, 81, 1, 2, 7, 14, 9, 55, -2, 6, 11, -15, 31, -1, -1, -3, 2, 15, 2, 46, 15, 18, 45, -34], "withholdReward": false, "trial_id": "mdp_trial_14", "block": "test", "trialIndex": 17, "score": 24.2, "costs": -2.8, "simulationMode": [null, null, null, null, null], "rewards": [1, 2, 7, 6, 11], "path": ["0", "0", "12", "13", "14", "19", "20"], "rt": [8411, 109, 151, 562, 193], "actions": ["right", "right", "right", "down", "right"], "actionTimes": [12799, 13452, 14158, 15374, 16141], "queries": {"click": {"state": {"target": ["16", "20"], "time": [6598, 9958]}, "edge": {"target": [], "time": []}}, "mouseover": {"state": {"target": ["16", "17", "20"], "time": [6381, 7177, 9483]}, "edge": {"target": [], "time": []}}, "mouseout": {"state": {"target": ["9", "8", "1", "16", "17", "20"], "time": [951, 994, 1261, 6642, 9066, 10107]}, "edge": {"target": [], "time": []}}}, "displayed_time": "18.59", "trialTime": 20553, "trial_type": "mouselab-mdp", "trial_index": 28, "time_elapsed": 1514494, "internal_node_id": "0.0-4.0-1.0-13.0"}}, {"uniqueid": "w52637157:a14007579", "current_trial": 29, "dateTime": 1691143782011, "trialdata": {"revealed_states": [], "clicked_states": [], "num_clicks_accrued": [0, 0, 0, 0, 0, 0, 0, 0, 0, 0, 0, 0, 0], "stateRewards": ["", 1, 1, -3, 2, 22, -25, -11, -5, 50, 49, 3, 1, -1, 8, 14, -85, -30, 57, -6, -39, -16, 59, -2, -1, 5, 5, 59, -16, 8, 4, 67, 56, -9], "withholdReward": false, "trial_id": "mdp_trial_15", "block": "test", "trialIndex": 18, "score": 23, "costs": 0, "simulationMode": [null, null, null, null, null], "rewards": [1, 1, -3, 2, 22], "path": ["0", "0", "1", "2", "3", "4", "5"], "rt": [7290, 120, 130, 513, 568], "actions": ["up", "up", "up", "right", "up"], "actionTimes": [19869, 20576, 21328, 22404, 23544], "queries": {"click": {"state": {"target": [], "time": []}, "edge": {"target": [], "time": []}}, "mouseover": {"state": {"target": ["2", "5", "5", "4", "7"], "time": [14606, 15408, 16728, 17804, 18026]}, "edge": {"target": [], "time": []}}, "mouseout": {"state": {"target": ["20", "0", "0", "2", "5", "5", "4"], "time": [5406, 7087, 7360, 14744, 16553, 17728, 17914]}, "edge": {"target": [], "time": []}}}, "displayed_time": "26.77", "trialTime": 28494, "trial_type": "mouselab-mdp", "trial_index": 29, "time_elapsed": 1547029, "internal_node_id": "0.0-4.0-1.0-14.0"}}, {"uniqueid": "w52637157:a14007579", "current_trial": 30, "dateTime": 1691143810047, "trialdata": {"revealed_states": [], "clicked_states": ["10", "9", "11"], "num_clicks_accrued": [0, 0, 0, 0, 0, 0, 0, 0, 0, 0, 0, 0, 0], "stateRewards": ["", 2, 3, -2, -8, -8, -41, 74, 15, -23, -80, 1, 1, 3, 3, -15, -63, -78, 67, 13, 75, -41, 86, 2, -2, 6, -3, -8, -49, 50, -6, 83, 74, 80], "withholdReward": false, "trial_id": "mdp_trial_16", "block": "test", "trialIndex": 19, "score": 14.8, "costs": -4.199999999999999, "simulationMode": [null, null, null, null, null], "rewards": [2, 3, -2, 15, 1], "path": ["0", "0", "1", "2", "3", "8", "11"], "rt": [10942, 289, 54, 494, 128], "actions": ["up", "up", "up", "left", "left"], "actionTimes": [14783, 15674, 16335, 17452, 18135], "queries": {"click": {"state": {"target": ["10", "9", "11"], "time": [5857, 8310, 11928]}, "edge": {"target": [], "time": []}}, "mouseover": {"state": {"target": ["10", "8", "9", "11"], "time": [5146, 6116, 8218, 8423]}, "edge": {"target": [], "time": []}}, "mouseout": {"state": {"target": ["7", "1", "10", "8", "9"], "time": [785, 919, 6095, 6259, 8411]}, "edge": {"target": [], "time": []}}}, "displayed_time": "18.84", "trialTime": 24236, "trial_type": "mouselab-mdp", "trial_index": 30, "time_elapsed": 1575076, "internal_node_id": "0.0-4.0-1.0-15.0"}}, {"uniqueid": "w52637157:a14007579", "current_trial": 31, "dateTime": 1691143835433, "trialdata": {"revealed_states": [], "clicked_states": ["21", "20", "17"], "num_clicks_accrued": [0, 0, 0, 0, 0, 0, 0, 0, 0, 0, 0, 0, 0], "stateRewards": ["", -1, -4, 8, 8, -68, 47, 24, -7, -61, 49, -69, -1, -1, 8, -7, 42, 1, -45, -11, 10, -63, -6, 1, 4, 6, -16, 79, -37, -58, -12, 81, 18, -53], "withholdReward": false, "trial_id": "mdp_trial_17", "block": "test", "trialIndex": 20, "score": 0.8000000000000007, "costs": -4.199999999999999, "simulationMode": [null, null, null, null, null], "rewards": [-1, -1, 8, -11, 10], "path": ["0", "0", "12", "13", "14", "19", "20"], "rt": [8939, 140, 195, 681, 420], "actions": ["right", "right", "right", "down", "right"], "actionTimes": [12810, 13502, 14302, 15540, 16511], "queries": {"click": {"state": {"target": ["21", "20", "17"], "time": [6493, 8315, 10263]}, "edge": {"target": [], "time": []}}, "mouseover": {"state": {"target": ["22", "21", "20", "17"], "time": [5280, 6441, 7770, 9624]}, "edge": {"target": [], "time": []}}, "mouseout": {"state": {"target": ["11", "1", "0", "22", "21", "20"], "time": [764, 1137, 5153, 6413, 7467, 8532]}, "edge": {"target": [], "time": []}}}, "displayed_time": "17.88", "trialTime": 22033, "trial_type": "mouselab-mdp", "trial_index": 31, "time_elapsed": 1600462, "internal_node_id": "0.0-4.0-1.0-16.0"}}, {"uniqueid": "w52637157:a14007579", "current_trial": 32, "dateTime": 1691143861941, "trialdata": {"revealed_states": [], "clicked_states": ["32"], "num_clicks_accrued": [0, 0, 0, 0, 0, 0, 0, 0, 0, 0, 0, 0, 0], "stateRewards": ["", 2, -4, 7, 3, 23, -42, 4, 7, -81, -33, 7, -2, -4, 5, -1, 50, -57, -14, -13, -14, 44, 55, -2, -2, 5, -2, 33, 1, 57, -13, -7, 58, 87], "withholdReward": false, "trial_id": "mdp_trial_18", "block": "test", "trialIndex": 21, "score": 44.6, "costs": -1.4, "simulationMode": [null, null, null, null, null], "rewards": [-2, -2, 5, -13, 58], "path": ["0", "0", "23", "24", "25", "30", "32"], "rt": [6474, 323, 104, 481, 107], "actions": ["left", "left", "left", "down", "down"], "actionTimes": [11765, 12672, 13435, 14482, 15148], "queries": {"click": {"state": {"target": ["32"], "time": [7856]}, "edge": {"target": [], "time": []}}, "mouseover": {"state": {"target": ["23", "30", "32", "33", "30", "31"], "time": [6101, 6240, 7748, 8041, 10075, 10310]}, "edge": {"target": [], "time": []}}, "mouseout": {"state": {"target": ["17", "14", "15", "18", "23", "30", "32", "33", "30", "31"], "time": [544, 719, 787, 841, 6178, 6324, 7969, 9780, 10138, 10503]}, "edge": {"target": [], "time": []}}}, "displayed_time": "19.30", "trialTime": 22000, "trial_type": "mouselab-mdp", "trial_index": 32, "time_elapsed": 1626970, "internal_node_id": "0.0-4.0-1.0-17.0"}}, {"uniqueid": "w52637157:a14007579", "current_trial": 33, "dateTime": 1691143887111, "trialdata": {"revealed_states": [], "clicked_states": ["27", "29", "33"], "num_clicks_accrued": [0, 0, 0, 0, 0, 0, 0, 0, 0, 0, 0, 0, 0], "stateRewards": ["", 2, 3, 6, -12, -29, 12, 87, 4, 35, -30, 67, 2, 3, -5, -9, 44, 69, -8, 1, 45, -8, 28, -2, -1, -8, 11, -12, -5, 81, 9, 87, 82, 88], "withholdReward": false, "trial_id": "mdp_trial_19", "block": "test", "trialIndex": 22, "score": 75.8, "costs": -4.199999999999999, "simulationMode": [null, null, null, null, null], "rewards": [-2, -1, -8, 9, 82], "path": ["0", "0", "23", "24", "25", "30", "32"], "rt": [8266, 176, 1572, 258, 155], "actions": ["left", "left", "left", "down", "down"], "actionTimes": [11789, 12560, 14710, 15444, 16170], "queries": {"click": {"state": {"target": ["27", "29", "33"], "time": [5085, 8415, 10093]}, "edge": {"target": [], "time": []}}, "mouseover": {"state": {"target": ["23", "26", "27", "28", "28", "26", "29", "33"], "time": [4235, 4382, 4621, 5682, 6917, 7651, 7732, 9671]}, "edge": {"target": [], "time": []}}, "mouseout": {"state": {"target": ["23", "23", "26", "27", "28", "28", "26", "29"], "time": [772, 4296, 4462, 5664, 5796, 7596, 7718, 9339]}, "edge": {"target": [], "time": []}}}, "displayed_time": "17.53", "trialTime": 22037, "trial_type": "mouselab-mdp", "trial_index": 33, "time_elapsed": 1652139, "internal_node_id": "0.0-4.0-1.0-18.0"}}, {"uniqueid": "w52637157:a14007579", "current_trial": 34, "dateTime": 1691143914517, "trialdata": {"revealed_states": [], "clicked_states": ["31", "32", "33"], "num_clicks_accrued": [0, 0, 0, 0, 0, 0, 0, 0, 0, 0, 0, 0, 0], "stateRewards": ["", -1, 2, 5, -6, 13, -64, -47, 8, -79, -80, -33, 1, 2, -2, -16, 56, -71, -10, 3, 29, 44, 85, -1, 4, 5, 4, -36, -56, 19, 8, 52, -13, -2], "withholdReward": false, "trial_id": "mdp_trial_20", "block": "test", "trialIndex": 23, "score": 63.8, "costs": -4.199999999999999, "simulationMode": [null, null, null, null, null], "rewards": [-1, 4, 5, 8, 52], "path": ["0", "0", "23", "24", "25", "30", "31"], "rt": [11877, 225, 389, 214, 658], "actions": ["left", "left", "left", "down", "right"], "actionTimes": [15924, 16728, 17694, 18471, 19704], "queries": {"click": {"state": {"target": ["31", "32", "33"], "time": [6787, 9702, 12127]}, "edge": {"target": [], "time": []}}, "mouseover": {"state": {"target": ["23", "31", "32", "33"], "time": [4801, 6736, 6871, 10739]}, "edge": {"target": [], "time": []}}, "mouseout": {"state": {"target": ["33", "24", "23", "0", "23", "31", "32"], "time": [830, 901, 990, 1452, 4884, 6830, 10581]}, "edge": {"target": [], "time": []}}}, "displayed_time": "20.30", "trialTime": 23810, "trial_type": "mouselab-mdp", "trial_index": 34, "time_elapsed": 1679546, "internal_node_id": "0.0-4.0-1.0-19.0"}}, {"uniqueid": "w52637157:a14007579", "current_trial": 35, "dateTime": 1691143948457, "trialdata": {"revealed_states": [], "clicked_states": ["28", "27", "29", "33", "32", "31"], "num_clicks_accrued": [0, 0, 0, 0, 0, 0, 0, 0, 0, 0, 0, 0, 0], "stateRewards": ["", 2, 3, -1, 16, -78, -11, 46, 2, -20, 79, -67, 2, 3, 2, 11, -83, -42, -58, -11, -67, -22, 55, 2, -1, -1, -16, -83, -82, 23, -11, -29, 13, 13], "withholdReward": false, "trial_id": "mdp_trial_21", "block": "test", "trialIndex": 24, "score": -1.3999999999999986, "costs": -8.4, "simulationMode": [null, null, null, null, null], "rewards": [2, -1, -1, -16, 23], "path": ["0", "0", "23", "24", "25", "26", "29"], "rt": [16897, 152, 198, 662, 186], "actions": ["left", "left", "left", "up", "left"], "actionTimes": [22552, 23279, 24031, 25259, 26008], "queries": {"click": {"state": {"target": ["28", "27", "29", "33", "32", "31"], "time": [8249, 10055, 11932, 13805, 16210, 19765]}, "edge": {"target": [], "time": []}}, "mouseover": {"state": {"target": ["10", "28", "27", "27", "29", "33", "32", "31"], "time": [7271, 7697, 9199, 9421, 11189, 13147, 14832, 19307]}, "edge": {"target": [], "time": []}}, "mouseout": {"state": {"target": ["33", "0", "10", "28", "27", "27", "29", "29", "33", "33", "32", "31"], "time": [1105, 7104, 7350, 9176, 9284, 11105, 12061, 12731, 13916, 14511, 16371, 19930]}, "edge": {"target": [], "time": []}}}, "displayed_time": "26.75", "trialTime": 30063, "trial_type": "mouselab-mdp", "trial_index": 35, "time_elapsed": 1713486, "internal_node_id": "0.0-4.0-1.0-20.0"}}, {"uniqueid": "w52637157:a14007579", "current_trial": 36, "dateTime": 1691143971885, "trialdata": {"revealed_states": [], "clicked_states": ["18", "16"], "num_clicks_accrued": [0, 0, 0, 0, 0, 0, 0, 0, 0, 0, 0, 0, 0], "stateRewards": ["", -1, 2, 6, 11, 21, -21, -21, -6, 48, -71, 88, -1, -3, 3, 7, 64, 2, 9, -4, 37, -67, 72, 2, 2, -8, -8, -10, 71, -40, -3, 73, 80, 47], "withholdReward": false, "trial_id": "mdp_trial_22", "block": "test", "trialIndex": 25, "score": 67.2, "costs": -2.8, "simulationMode": [null, null, null, null, null], "rewards": [-1, -3, 3, 7, 64], "path": ["0", "0", "12", "13", "14", "15", "16"], "rt": [9412, 182, 262, 624, 80], "actions": ["right", "right", "right", "up", "up"], "actionTimes": [13036, 13798, 14648, 15884, 16512], "queries": {"click": {"state": {"target": ["18", "16"], "time": [6407, 9592]}, "edge": {"target": [], "time": []}}, "mouseover": {"state": {"target": ["18", "31", "16", "17"], "time": [6001, 7692, 9023, 10934]}, "edge": {"target": [], "time": []}}, "mouseout": {"state": {"target": ["31", "23", "18", "31", "16", "17"], "time": [810, 870, 7129, 7934, 10485, 12256]}, "edge": {"target": [], "time": []}}}, "displayed_time": "17.68", "trialTime": 19246, "trial_type": "mouselab-mdp", "trial_index": 36, "time_elapsed": 1736911, "internal_node_id": "0.0-4.0-1.0-21.0"}}, {"uniqueid": "w52637157:a14007579", "current_trial": 37, "dateTime": 1691143999513, "trialdata": {"revealed_states": [], "clicked_states": ["17", "20", "21", "22"], "num_clicks_accrued": [0, 0, 0, 0, 0, 0, 0, 0, 0, 0, 0, 0, 0], "stateRewards": ["", 1, 2, 3, 16, 63, -25, 16, -4, -14, 82, -66, -1, -3, -3, -11, -14, 19, 46, 3, -34, -82, 66, -2, -3, 4, -5, -63, 77, -37, -1, -45, -41, 84], "withholdReward": false, "trial_id": "mdp_trial_23", "block": "test", "trialIndex": 26, "score": 56.4, "costs": -5.6, "simulationMode": [null, null, null, null, null], "rewards": [-1, -3, -3, 3, 66], "path": ["0", "0", "12", "13", "14", "19", "22"], "rt": [12194, 99, 402, 710, 301], "actions": ["right", "right", "right", "down", "left"], "actionTimes": [17987, 18655, 19604, 20893, 21750], "queries": {"click": {"state": {"target": ["17", "20", "21", "22"], "time": [7485, 10541, 12636, 15606]}, "edge": {"target": [], "time": []}}, "mouseover": {"state": {"target": ["15", "17", "20", "21", "21", "22"], "time": [6784, 6957, 8639, 11151, 11432, 13734]}, "edge": {"target": [], "time": []}}, "mouseout": {"state": {"target": ["13", "2", "0", "0", "15", "17", "20", "21", "21"], "time": [2108, 2199, 2517, 2822, 6895, 8090, 10718, 11234, 13399]}, "edge": {"target": [], "time": []}}}, "displayed_time": "22.43", "trialTime": 24208, "trial_type": "mouselab-mdp", "trial_index": 37, "time_elapsed": 1764542, "internal_node_id": "0.0-4.0-1.0-22.0"}}, {"uniqueid": "w52637157:a14007579", "current_trial": 38, "dateTime": 1691144024264, "trialdata": {"revealed_states": [], "clicked_states": ["31", "32"], "num_clicks_accrued": [0, 0, 0, 0, 0, 0, 0, 0, 0, 0, 0, 0, 0], "stateRewards": ["", -2, -4, 4, -11, -63, -60, -7, 2, -14, 81, -43, -1, -1, -5, 7, 10, 69, 40, 8, -83, 52, 60, 1, 2, 5, -5, 16, 64, 14, -3, 29, 7, -51], "withholdReward": false, "trial_id": "mdp_trial_24", "block": "test", "trialIndex": 27, "score": 31.2, "costs": -2.8, "simulationMode": [null, null, null, null, null], "rewards": [1, 2, 5, -3, 29], "path": ["0", "0", "23", "24", "25", "30", "31"], "rt": [6242, 348, 228, 196, 290], "actions": ["left", "left", "left", "down", "right"], "actionTimes": [10772, 11664, 12467, 13355, 14201], "queries": {"click": {"state": {"target": ["31", "32"], "time": [7127, 8734]}, "edge": {"target": [], "time": []}}, "mouseover": {"state": {"target": ["23", "31", "30", "32"], "time": [6067, 6219, 8228, 8362]}, "edge": {"target": [], "time": []}}, "mouseout": {"state": {"target": ["22", "12", "0", "23", "31", "30", "32"], "time": [1584, 1760, 6052, 6153, 8190, 8336, 8859]}, "edge": {"target": [], "time": []}}}, "displayed_time": "18.52", "trialTime": 20214, "trial_type": "mouselab-mdp", "trial_index": 38, "time_elapsed": 1789289, "internal_node_id": "0.0-4.0-1.0-23.0"}}, {"uniqueid": "w52637157:a14007579", "current_trial": 39, "dateTime": 1691144061830, "trialdata": {"revealed_states": [], "clicked_states": ["22", "21", "20", "16", "29", "27", "32", "33", "25"], "num_clicks_accrued": [0, 0, 0, 0, 0, 0, 0, 0, 0, 0, 0, 0, 0], "stateRewards": ["", 2, 4, -3, 16, -58, 30, -35, 11, -60, 47, 27, -2, -1, -7, -16, 23, -70, 68, -10, -65, -43, -34, -2, 1, 7, 9, -63, 34, -31, -8, -12, -86, 59], "withholdReward": false, "trial_id": "mdp_trial_25", "block": "test", "trialIndex": 28, "score": 44.4, "costs": -12.600000000000001, "simulationMode": [null, null, null, null, null], "rewards": [-2, 1, 7, -8, 59], "path": ["0", "0", "23", "24", "25", "30", "33"], "rt": [21973, 160, 257, 636, 1661], "actions": ["left", "left", "left", "down", "left"], "actionTimes": [25586, 26318, 27100, 28295, 30560], "queries": {"click": {"state": {"target": ["22", "21", "20", "16", "29", "27", "32", "33", "25"], "time": [5606, 7327, 9835, 13362, 15652, 18093, 20031, 21712, 23650]}, "edge": {"target": [], "time": []}}, "mouseover": {"state": {"target": ["22", "21", "20", "17", "17", "16", "18", "29", "27", "25", "30", "32", "33", "30", "25"], "time": [5081, 6329, 8054, 10373, 10871, 12745, 14239, 15150, 17477, 18864, 19161, 19709, 21015, 22603, 23044]}, "edge": {"target": [], "time": []}}, "mouseout": {"state": {"target": ["32", "0", "22", "21", "20", "17", "17", "16", "18", "29", "27", "25", "30", "32", "33", "30"], "time": [859, 4526, 6190, 7976, 10263, 10542, 12447, 14165, 14446, 17212, 18726, 18950, 19330, 20154, 22587, 22685]}, "edge": {"target": [], "time": []}}}, "displayed_time": "31.12", "trialTime": 33548, "trial_type": "mouselab-mdp", "trial_index": 39, "time_elapsed": 1826858, "internal_node_id": "0.0-4.0-1.0-24.0"}}, {"uniqueid": "w52637157:a14007579", "current_trial": 40, "dateTime": 1691144085998, "trialdata": {"revealed_states": [], "clicked_states": [], "num_clicks_accrued": [0, 0, 0, 0, 0, 0, 0, 0, 0, 0, 0, 0, 0], "stateRewards": ["", 1, -1, -7, -7, -22, 15, -13, 13, 26, -32, 38, -1, 1, -7, -4, 16, -62, 86, 12, -54, 56, 64, -2, -1, 6, 14, -57, 37, 62, -6, -25, 50, -70], "withholdReward": false, "trial_id": "mdp_trial_26", "block": "test", "trialIndex": 29, "score": -73, "costs": 0, "simulationMode": [null, null, null, null, null], "rewards": [-1, 1, -7, -4, -62], "path": ["0", "0", "12", "13", "14", "15", "17"], "rt": [7801, 762, 455, 381, 179], "actions": ["right", "right", "right", "up", "right"], "actionTimes": [12425, 13793, 14817, 15785, 16609], "queries": {"click": {"state": {"target": [], "time": []}, "edge": {"target": [], "time": []}}, "mouseover": {"state": {"target": ["14", "20"], "time": [12263, 12382]}, "edge": {"target": [], "time": []}}, "mouseout": {"state": {"target": ["25", "14"], "time": [1154, 12371]}, "edge": {"target": [], "time": []}}}, "displayed_time": "18.63", "trialTime": 20315, "trial_type": "mouselab-mdp", "trial_index": 40, "time_elapsed": 1851027, "internal_node_id": "0.0-4.0-1.0-25.0"}}, {"uniqueid": "w52637157:a14007579", "current_trial": 41, "dateTime": 1691144114344, "trialdata": {"revealed_states": [], "clicked_states": ["25", "33", "32"], "num_clicks_accrued": [0, 0, 0, 0, 0, 0, 0, 0, 0, 0, 0, 0, 0], "stateRewards": ["", 2, -3, 5, -14, -63, -9, -24, -11, -54, -43, 68, 2, -2, -4, 7, -64, 30, 47, 12, -74, 11, 86, 1, -3, 3, 10, -71, -42, -52, -1, -29, -16, 69], "withholdReward": false, "trial_id": "mdp_trial_27", "block": "test", "trialIndex": 30, "score": 64.8, "costs": -4.199999999999999, "simulationMode": [null, null, null, null, null, null], "rewards": [1, -3, 3, -1, 69], "path": ["0", "0", "23", "24", "25", "30", "33"], "rt": [9824, 2191, 267, 158, 296, 567], "actions": ["left", "left", "left", "left", "down", "left"], "actionTimes": [14363, 16603, 17478, 18267, 19167, 20342], "queries": {"click": {"state": {"target": ["25", "33", "32"], "time": [6626, 10863, 13079]}, "edge": {"target": [], "time": []}}, "mouseover": {"state": {"target": ["23", "24", "25", "33", "30", "32"], "time": [5712, 6044, 6167, 7351, 11214, 11630]}, "edge": {"target": [], "time": []}}, "mouseout": {"state": {"target": ["20", "0", "23", "24", "25", "33", "30"], "time": [1030, 5628, 5776, 6104, 7165, 11130, 11445]}, "edge": {"target": [], "time": []}}}, "displayed_time": "20.93", "trialTime": 24197, "trial_type": "mouselab-mdp", "trial_index": 41, "time_elapsed": 1879372, "internal_node_id": "0.0-4.0-1.0-26.0"}}, {"uniqueid": "w52637157:a14007579", "current_trial": 42, "dateTime": 1691144138378, "trialdata": {"revealed_states": [], "clicked_states": [], "num_clicks_accrued": [0, 0, 0, 0, 0, 0, 0, 0, 0, 0, 0, 0, 0], "stateRewards": ["", 2, -1, -3, 16, -3, -16, -62, -1, 13, -26, 43, -1, 4, 3, -9, -54, -37, -3, -12, -71, -68, -57, 1, -3, 2, -9, 2, -2, -9, -11, 84, -52, 55], "withholdReward": false, "trial_id": "mdp_trial_28", "block": "test", "trialIndex": 31, "score": 10, "costs": 0, "simulationMode": [null, null, null, null, null], "rewards": [2, -1, -3, -1, 13], "path": ["0", "0", "1", "2", "3", "8", "9"], "rt": [7417, 125, 104, 435, 193], "actions": ["up", "up", "up", "left", "up"], "actionTimes": [11656, 12326, 13231, 14306, 15107], "queries": {"click": {"state": {"target": [], "time": []}, "edge": {"target": [], "time": []}}, "mouseover": {"state": {"target": ["23", "30", "33"], "time": [7892, 8545, 8859]}, "edge": {"target": [], "time": []}}, "mouseout": {"state": {"target": ["32", "31", "0", "23", "30"], "time": [767, 814, 1423, 7963, 8707]}, "edge": {"target": [], "time": []}}}, "displayed_time": "18.25", "trialTime": 19905, "trial_type": "mouselab-mdp", "trial_index": 42, "time_elapsed": 1903407, "internal_node_id": "0.0-4.0-1.0-27.0"}}, {"uniqueid": "w52637157:a14007579", "current_trial": 43, "dateTime": 1691144178831, "trialdata": {"revealed_states": [], "clicked_states": ["21", "20", "17", "16", "6", "5", "29", "25", "33", "32"], "num_clicks_accrued": [0, 0, 0, 0, 0, 0, 0, 0, 0, 0, 0, 0, 0], "stateRewards": ["", 2, -1, -2, -5, -47, -57, -33, -11, 31, -18, -72, -2, 1, -4, -8, -46, -53, -50, 15, -85, -9, 39, -2, -2, 1, 14, -1, -8, 53, -12, -41, -74, 62], "withholdReward": false, "trial_id": "mdp_trial_29", "block": "test", "trialIndex": 32, "score": 33, "costs": -14.000000000000002, "simulationMode": [null, null, null, null, null], "rewards": [-2, -2, 1, -12, 62], "path": ["0", "0", "23", "24", "25", "30", "33"], "rt": [25366, 111, 140, 484, 41], "actions": ["left", "left", "left", "down", "left"], "actionTimes": [29842, 30562, 31261, 32319, 32958], "queries": {"click": {"state": {"target": ["21", "20", "17", "16", "6", "5", "29", "25", "33", "32"], "time": [6147, 8810, 12265, 14310, 17040, 18900, 21055, 22984, 24964, 27053]}, "edge": {"target": [], "time": []}}, "mouseover": {"state": {"target": ["12", "21", "22", "19", "20", "20", "17", "17", "16", "6", "6", "5", "26", "29", "26", "25", "33", "32"], "time": [5178, 5594, 6609, 7899, 7990, 8274, 9821, 11850, 12836, 15034, 15498, 18350, 20212, 20775, 21922, 22145, 23741, 25842]}, "edge": {"target": [], "time": []}}, "mouseout": {"state": {"target": ["33", "23", "0", "12", "21", "22", "19", "20", "20", "17", "17", "16", "6", "6", "5", "26", "29", "26", "25", "33"], "time": [1018, 1091, 5120, 5371, 6265, 7834, 7976, 8056, 8971, 11456, 12436, 14948, 15120, 18092, 19015, 20659, 21828, 22005, 23637, 25135]}, "edge": {"target": [], "time": []}}}, "displayed_time": "33.56", "trialTime": 35402, "trial_type": "mouselab-mdp", "trial_index": 43, "time_elapsed": 1943858, "internal_node_id": "0.0-4.0-1.0-28.0"}}, {"uniqueid": "w52637157:a14007579", "current_trial": 44, "dateTime": 1691144216051, "trialdata": {"revealed_states": [], "clicked_states": ["5", "7", "21", "32", "33", "29", "27", "28"], "num_clicks_accrued": [0, 0, 0, 0, 0, 0, 0, 0, 0, 0, 0, 0, 0], "stateRewards": ["", -1, -3, -6, -2, -7, 80, -45, -3, -38, -72, 76, 2, 1, 7, 4, -62, 14, -74, 14, -87, -21, -88, -2, 1, -7, -10, 66, 56, -76, 10, -29, -72, -70], "withholdReward": false, "trial_id": "mdp_trial_30", "block": "test", "trialIndex": 33, "score": 36.8, "costs": -11.200000000000001, "simulationMode": [null, null, null, null, null], "rewards": [-2, 1, -7, -10, 66], "path": ["0", "0", "23", "24", "25", "26", "27"], "rt": [20930, 272, 21, 509, 84], "actions": ["left", "left", "left", "up", "up"], "actionTimes": [27351, 28202, 28826, 29914, 30578], "queries": {"click": {"state": {"target": ["5", "7", "21", "32", "33", "29", "27", "28"], "time": [8961, 11524, 13352, 15317, 17528, 19552, 21733, 24114]}, "edge": {"target": [], "time": []}}, "mouseover": {"state": {"target": ["1", "5", "6", "7", "13", "21", "31", "32", "33", "26", "29", "27", "28"], "time": [7451, 8912, 9373, 11025, 12427, 12995, 14291, 15031, 16163, 18505, 18860, 20306, 22761]}, "edge": {"target": [], "time": []}}, "mouseout": {"state": {"target": ["32", "0", "1", "5", "6", "7", "13", "21", "31", "32", "33", "26", "29", "27"], "time": [1358, 7365, 7511, 9118, 10772, 12335, 12828, 14101, 14506, 15966, 18291, 18580, 20169, 22425]}, "edge": {"target": [], "time": []}}}, "displayed_time": "31.16", "trialTime": 33185, "trial_type": "mouselab-mdp", "trial_index": 44, "time_elapsed": 1981080, "internal_node_id": "0.0-4.0-1.0-29.0"}}, {"uniqueid": "w52637157:a14007579", "current_trial": 45, "dateTime": 1691144240188, "trialdata": {"revealed_states": [], "clicked_states": [], "num_clicks_accrued": [0, 0, 0, 0, 0, 0, 0, 0, 0, 0, 0, 0, 0], "stateRewards": ["", 2, -4, 1, -12, -59, -53, -74, 16, -88, -66, 66, 1, -2, 8, -9, -14, 22, 25, -1, -39, 47, -14, -1, -1, -2, 1, -4, 52, -26, 15, -7, 46, 43], "withholdReward": false, "trial_id": "mdp_trial_31", "block": "test", "trialIndex": 34, "score": 20, "costs": 0, "simulationMode": [null, null, null, null, null], "rewards": [1, -2, 8, -9, 22], "path": ["0", "0", "12", "13", "14", "15", "17"], "rt": [5523, 134, 115, 228, 11], "actions": ["right", "right", "right", "up", "right"], "actionTimes": [9946, 10653, 11527, 12334, 12890], "queries": {"click": {"state": {"target": [], "time": []}, "edge": {"target": [], "time": []}}, "mouseover": {"state": {"target": ["19", "21", "20"], "time": [5670, 7736, 7851]}, "edge": {"target": [], "time": []}}, "mouseout": {"state": {"target": ["28", "0", "19", "21"], "time": [1033, 1382, 7724, 7826]}, "edge": {"target": [], "time": []}}}, "displayed_time": "18.43", "trialTime": 20118, "trial_type": "mouselab-mdp", "trial_index": 45, "time_elapsed": 2005213, "internal_node_id": "0.0-4.0-1.0-30.0"}}, {"uniqueid": "w52637157:a14007579", "current_trial": 46, "dateTime": 1691144265980, "trialdata": {"revealed_states": [], "clicked_states": ["6", "9"], "num_clicks_accrued": [0, 0, 0, 0, 0, 0, 0, 0, 0, 0, 0, 0, 0], "stateRewards": ["", -2, -4, -2, -13, -15, 87, -19, -6, -80, 30, 12, 1, 1, -8, 2, 55, 56, 15, 11, -68, -7, 55, -2, 3, -3, -3, 48, 62, 4, 1, -3, 69, -33], "withholdReward": false, "trial_id": "mdp_trial_32", "block": "test", "trialIndex": 35, "score": 63.2, "costs": -2.8, "simulationMode": [null, null, null, null, null, null], "rewards": [-2, -4, -2, -13, 87], "path": ["0", "0", "1", "2", "3", "4", "6"], "rt": [7096, 2449, 241, 397, 212, 318], "actions": ["up", "up", "up", "up", "right", "right"], "actionTimes": [11736, 14221, 15036, 16028, 16809, 17675], "queries": {"click": {"state": {"target": ["6", "9"], "time": [8165, 10284]}, "edge": {"target": [], "time": []}}, "mouseover": {"state": {"target": ["1", "6", "5", "9"], "time": [5507, 6375, 8344, 9607]}, "edge": {"target": [], "time": []}}, "mouseout": {"state": {"target": ["20", "22", "0", "1", "6", "5"], "time": [1010, 1127, 1952, 6013, 8332, 8940]}, "edge": {"target": [], "time": []}}}, "displayed_time": "19.64", "trialTime": 21737, "trial_type": "mouselab-mdp", "trial_index": 46, "time_elapsed": 2031009, "internal_node_id": "0.0-4.0-1.0-31.0"}}, {"uniqueid": "w52637157:a14007579", "current_trial": 47, "dateTime": 1691144295731, "trialdata": {"revealed_states": [], "clicked_states": ["7", "16", "17", "20", "21"], "num_clicks_accrued": [0, 0, 0, 0, 0, 0, 0, 0, 0, 0, 0, 0, 0], "stateRewards": ["", 1, 1, 5, 6, -29, -7, 3, -16, 9, -46, 65, -1, 4, -1, -16, -63, -77, -87, 8, 80, -50, 43, -1, -1, -5, 5, -38, -71, -62, 9, 81, -50, -52], "withholdReward": false, "trial_id": "mdp_trial_33", "block": "test", "trialIndex": 36, "score": 83, "costs": -7, "simulationMode": [null, null, null, null, null, null], "rewards": [-1, 4, -1, 8, 80], "path": ["0", "0", "12", "13", "14", "19", "20"], "rt": [13190, 864, 120, 213, 1013, 343], "actions": ["right", "right", "right", "right", "down", "right"], "actionTimes": [17909, 18934, 19651, 20457, 22051, 22954], "queries": {"click": {"state": {"target": ["7", "16", "17", "20", "21"], "time": [6558, 9934, 12112, 13849, 16249]}, "edge": {"target": [], "time": []}}, "mouseover": {"state": {"target": ["1", "7", "7", "16", "17", "17", "20", "21", "22"], "time": [5779, 5909, 6113, 9861, 11147, 11716, 13233, 15354, 16992]}, "edge": {"target": [], "time": []}}, "mouseout": {"state": {"target": ["9", "8", "10", "1", "1", "7", "7", "16", "17", "17", "20", "21"], "time": [830, 903, 1218, 1392, 5845, 5971, 7104, 11123, 11481, 13143, 15316, 16876]}, "edge": {"target": [], "time": []}}}, "displayed_time": "23.53", "trialTime": 24946, "trial_type": "mouselab-mdp", "trial_index": 47, "time_elapsed": 2060760, "internal_node_id": "0.0-4.0-1.0-32.0"}}, {"uniqueid": "w52637157:a14007579", "current_trial": 48, "dateTime": 1691144320696, "trialdata": {"revealed_states": [], "clicked_states": ["5", "6", "7"], "num_clicks_accrued": [0, 0, 0, 0, 0, 0, 0, 0, 0, 0, 0, 0, 0], "stateRewards": ["", 2, -1, 5, 6, 10, 86, 55, 10, -45, 63, -71, 1, -2, 5, -8, -50, -72, 36, 15, 61, 12, 33, -1, -4, 6, 5, 79, -56, -21, -16, -87, 60, -81], "withholdReward": false, "trial_id": "mdp_trial_34", "block": "test", "trialIndex": 37, "score": 93.8, "costs": -4.199999999999999, "simulationMode": [null, null, null, null, null, null], "rewards": [2, -1, 5, 6, 86], "path": ["0", "0", "1", "2", "3", "4", "6"], "rt": [7372, 1228, 121, 235, 242, 168], "actions": ["up", "up", "up", "up", "right", "right"], "actionTimes": [12283, 13533, 14248, 15056, 15943, 16649], "queries": {"click": {"state": {"target": ["5", "6", "7"], "time": [7200, 9129, 10986]}, "edge": {"target": [], "time": []}}, "mouseover": {"state": {"target": ["1", "2", "3", "5", "6", "7"], "time": [5772, 5861, 5967, 6725, 8084, 10530]}, "edge": {"target": [], "time": []}}, "mouseout": {"state": {"target": ["22", "0", "1", "2", "3", "5", "6", "7"], "time": [1167, 1638, 5844, 5951, 6288, 7799, 9306, 11104]}, "edge": {"target": [], "time": []}}}, "displayed_time": "18.91", "trialTime": 20756, "trial_type": "mouselab-mdp", "trial_index": 48, "time_elapsed": 2085725, "internal_node_id": "0.0-4.0-1.0-33.0"}}, {"uniqueid": "w52637157:a14007579", "current_trial": 49, "dateTime": 1691144352050, "trialdata": {"revealed_states": [], "clicked_states": ["5", "7", "6"], "num_clicks_accrued": [0, 0, 0, 0, 0, 0, 0, 0, 0, 0, 0, 0, 0], "stateRewards": ["", -2, 4, -3, -13, 63, -36, 62, 11, 78, 34, -51, 2, -2, 8, -6, -40, -18, 31, 9, 64, 39, 79, 1, 4, -4, 15, -12, 76, 73, -10, -77, 86, -4], "withholdReward": false, "trial_id": "mdp_trial_35", "block": "test", "trialIndex": 38, "score": 44.8, "costs": -4.199999999999999, "simulationMode": [null, null, null, null, null], "rewards": [-2, 4, -3, -13, 63], "path": ["0", "0", "1", "2", "3", "4", "5"], "rt": [10940, 431, 1793, 606, 734], "actions": ["up", "up", "up", "right", "up"], "actionTimes": [15232, 16257, 18644, 20001, 21319], "queries": {"click": {"state": {"target": ["5", "7", "6"], "time": [7467, 9443, 12975]}, "edge": {"target": [], "time": []}}, "mouseover": {"state": {"target": ["7", "4", "5", "7", "6", "6"], "time": [5073, 5159, 5530, 7594, 10236, 10541]}, "edge": {"target": [], "time": []}}, "mouseout": {"state": {"target": ["7", "1", "0", "7", "4", "5", "7", "6"], "time": [986, 1278, 4991, 5144, 5237, 7579, 9618, 10327]}, "edge": {"target": [], "time": []}}}, "displayed_time": "24.53", "trialTime": 26806, "trial_type": "mouselab-mdp", "trial_index": 49, "time_elapsed": 2117078, "internal_node_id": "0.0-4.0-1.0-34.0"}}, {"uniqueid": "w52637157:a14007579", "current_trial": 50, "dateTime": 1691144395395, "trialdata": {"revealed_states": [], "clicked_states": ["5", "7", "6", "11", "10", "9"], "num_clicks_accrued": [0, 0, 0, 0, 0, 0, 0, 0, 0, 0, 0, 0, 0], "stateRewards": ["", -2, -1, -5, 10, -36, -70, 68, -9, 86, 71, -10, 2, -4, 7, -7, 66, 44, -66, -13, -69, 43, 15, -2, 2, 6, -13, 62, 57, 50, -10, -69, 42, -72], "withholdReward": false, "trial_id": "mdp_trial_36", "block": "test", "trialIndex": 39, "score": 60.6, "costs": -8.4, "simulationMode": [null, null, null, null, null], "rewards": [-2, -1, -5, -9, 86], "path": ["0", "0", "1", "2", "3", "8", "9"], "rt": [16411, 238, 257, 323, 142], "actions": ["up", "up", "up", "left", "up"], "actionTimes": [21377, 22233, 23017, 23909, 24832], "queries": {"click": {"state": {"target": ["5", "7", "6", "11", "10", "9"], "time": [6994, 8898, 10890, 13100, 15437, 17579]}, "edge": {"target": [], "time": []}}, "mouseover": {"state": {"target": ["1", "4", "5", "4", "7", "6", "3", "11", "10", "9"], "time": [5909, 5987, 6504, 7647, 8046, 9653, 11928, 12673, 14115, 16574]}, "edge": {"target": [], "time": []}}, "mouseout": {"state": {"target": ["6", "1", "4", "5", "4", "7", "6", "3", "11", "10", "9"], "time": [874, 5974, 6055, 7511, 7948, 9569, 11029, 12011, 13822, 15994, 17777]}, "edge": {"target": [], "time": []}}}, "displayed_time": "25.42", "trialTime": 38631, "trial_type": "mouselab-mdp", "trial_index": 50, "time_elapsed": 2160424, "internal_node_id": "0.0-4.0-1.0-35.0"}}, {"uniqueid": "w52637157:a14007579", "current_trial": 51, "dateTime": 1691144457337, "trialdata": {"revealed_states": [], "clicked_states": ["32", "31", "33", "29", "27", "28", "10"], "num_clicks_accrued": [0, 0, 0, 0, 0, 0, 0, 0, 0, 0, 0, 0, 0], "stateRewards": ["", -1, -3, 3, 5, 56, 39, 50, -1, -80, 33, -46, 1, -2, -6, -8, 87, 48, 54, -11, -20, -64, -54, -2, 3, -7, -3, 12, 88, 35, -16, -46, -70, -3], "withholdReward": false, "trial_id": "mdp_trial_37", "block": "test", "trialIndex": 40, "score": 69.2, "costs": -9.8, "simulationMode": [null, null, null, null, null], "rewards": [-2, 3, -7, -3, 88], "path": ["0", "0", "23", "24", "25", "26", "28"], "rt": [20103, 295, 239, 1904, 246], "actions": ["left", "left", "left", "up", "right"], "actionTimes": [32033, 32737, 33555, 36272, 37089], "queries": {"click": {"state": {"target": ["32", "31", "33", "29", "27", "28", "10"], "time": [14559, 16973, 18946, 22282, 24223, 27702, 30243]}, "edge": {"target": [], "time": []}}, "mouseover": {"state": {"target": ["32", "31", "30", "33", "29", "29", "27", "28", "10"], "time": [14033, 15683, 18196, 18437, 19985, 21766, 23217, 26824, 29767]}, "edge": {"target": [], "time": []}}, "mouseout": {"state": {"target": ["0", "32", "31", "30", "33", "29", "29", "27", "28"], "time": [12991, 15539, 18179, 18278, 19895, 21232, 22779, 26717, 29645]}, "edge": {"target": [], "time": []}}}, "displayed_time": "37.67", "trialTime": 57400, "trial_type": "mouselab-mdp", "trial_index": 51, "time_elapsed": 2222365, "internal_node_id": "0.0-4.0-1.0-36.0"}}, {"uniqueid": "w52637157:a14007579", "current_trial": 52, "dateTime": 1691144488579, "trialdata": {"revealed_states": [], "clicked_states": ["31"], "num_clicks_accrued": [0, 0, 0, 0, 0, 0, 0, 0, 0, 0, 0, 0, 0], "stateRewards": ["", 1, 2, -8, 9, 18, -83, -11, 6, -64, -48, 17, -2, -2, -5, -3, -24, -3, -86, -2, 48, -41, -22, -2, 4, 7, 8, 81, 13, -48, 10, 61, 19, 57], "withholdReward": false, "trial_id": "mdp_trial_38", "block": "test", "trialIndex": 41, "score": 78.6, "costs": -1.4, "simulationMode": [null, null, null, null, null], "rewards": [-2, 4, 7, 10, 61], "path": ["0", "0", "23", "24", "25", "30", "31"], "rt": [7606, 391, 324, 340, 300], "actions": ["left", "left", "left", "down", "right"], "actionTimes": [14911, 15886, 17009, 17945, 18824], "queries": {"click": {"state": {"target": ["31"], "time": [11648]}, "edge": {"target": [], "time": []}}, "mouseover": {"state": {"target": ["31", "31", "32"], "time": [8648, 8989, 12200]}, "edge": {"target": [], "time": []}}, "mouseout": {"state": {"target": ["10", "0", "31", "31"], "time": [3291, 8541, 8840, 12184]}, "edge": {"target": [], "time": []}}}, "displayed_time": "23.31", "trialTime": 25280, "trial_type": "mouselab-mdp", "trial_index": 52, "time_elapsed": 2253607, "internal_node_id": "0.0-4.0-1.0-37.0"}}, {"uniqueid": "w52637157:a14007579", "current_trial": 53, "dateTime": 1691144518687, "trialdata": {"revealed_states": [], "clicked_states": ["31", "32", "33", "29"], "num_clicks_accrued": [0, 0, 0, 0, 0, 0, 0, 0, 0, 0, 0, 0, 0], "stateRewards": ["", -2, -3, -3, 9, 79, 67, 22, -15, -56, 27, -85, -2, 4, -4, -15, -20, -32, 60, 15, 71, 57, 17, 1, 2, -8, 15, -37, -81, 82, 15, 21, -3, 2], "withholdReward": false, "trial_id": "mdp_trial_39", "block": "test", "trialIndex": 42, "score": 86.4, "costs": -5.6, "simulationMode": [null, null, null, null, null], "rewards": [1, 2, -8, 15, 82], "path": ["0", "0", "23", "24", "25", "26", "29"], "rt": [12124, 61, 219, 686, 343], "actions": ["left", "left", "left", "up", "left"], "actionTimes": [17579, 18305, 19137, 20411, 21348], "queries": {"click": {"state": {"target": ["31", "32", "33", "29"], "time": [7466, 9754, 11471, 13314]}, "edge": {"target": [], "time": []}}, "mouseover": {"state": {"target": ["31", "32", "33", "29", "27"], "time": [6601, 8035, 10611, 12808, 14341]}, "edge": {"target": [], "time": []}}, "mouseout": {"state": {"target": ["32", "31", "0", "31", "32", "33", "29", "27", "26"], "time": [957, 1031, 6508, 7947, 10516, 11668, 14002, 16110, 24167]}, "edge": {"target": [], "time": []}}}, "displayed_time": "22.23", "trialTime": 24589, "trial_type": "mouselab-mdp", "trial_index": 53, "time_elapsed": 2283713, "internal_node_id": "0.0-4.0-1.0-38.0"}}, {"uniqueid": "w52637157:a14007579", "current_trial": 54, "dateTime": 1691144550478, "trialdata": {"revealed_states": [], "clicked_states": ["22", "21", "20", "32", "31"], "num_clicks_accrued": [0, 0, 0, 0, 0, 0, 0, 0, 0, 0, 0, 0, 0], "stateRewards": ["", 1, -1, 1, 13, 31, -56, 72, 2, 41, 5, 63, -2, -3, -2, 3, -71, -26, 52, 13, -31, 24, -67, 2, -2, 5, 4, 66, 43, 72, 9, 86, -26, 44], "withholdReward": false, "trial_id": "mdp_trial_40", "block": "test", "trialIndex": 43, "score": 93, "costs": -7, "simulationMode": [null, null, null, null, null], "rewards": [2, -2, 5, 9, 86], "path": ["0", "0", "23", "24", "25", "30", "31"], "rt": [13828, 193, 135, 319, 212], "actions": ["left", "left", "left", "down", "right"], "actionTimes": [19297, 20037, 20751, 21798, 22614], "queries": {"click": {"state": {"target": ["22", "21", "20", "32", "31"], "time": [7550, 9724, 11610, 13512, 15338]}, "edge": {"target": [], "time": []}}, "mouseover": {"state": {"target": ["22", "21", "20", "32", "31", "30", "33"], "time": [6991, 8271, 10178, 12901, 14590, 16075, 16315]}, "edge": {"target": [], "time": []}}, "mouseout": {"state": {"target": ["11", "0", "22", "21", "20", "32", "31", "30"], "time": [1147, 6657, 8175, 10049, 12578, 14361, 16056, 16223]}, "edge": {"target": [], "time": []}}}, "displayed_time": "23.20", "trialTime": 24890, "trial_type": "mouselab-mdp", "trial_index": 54, "time_elapsed": 2315507, "internal_node_id": "0.0-4.0-1.0-39.0"}}, {"uniqueid": "w52637157:a14007579", "current_trial": 55, "dateTime": 1691144618848, "trialdata": {"rt": 67837, "response": {"Q0": "$-2 to $2", "Q1": "$-4 to $4", "Q2": "$-88 to $88", "Q3": "The cost was always $1.4.", "Q4": "Very motivated"}, "question_order": [0, 1, 2, 3, 4], "trial_id": "final_quiz_control", "trial_type": "survey-multi-choice", "trial_index": 55, "time_elapsed": 2383877, "internal_node_id": "0.0-4.0-2.0"}}, {"uniqueid": "w52637157:a14007579", "current_trial": 56, "dateTime": 1691145056870, "trialdata": {"rt": 437038, "response": {"Q0": "I checked mostly the nodes at the further end to find the one with the highest value and moved the spider in that direction.", "Q1": "Yes, I tried viewing as many nodes and the further end as quickly at I could before I moved the spider. I then moved the spider in the direction of where there wast the highest value.", "Q2": "The game is not that difficult and I did not find it difficult to improve my performance. The only challenge was the short time to view the nodes. It needs one to pay attention and be quick."}, "trial_id": "self_report_control", "trial_type": "survey-text", "trial_index": 56, "time_elapsed": 2821857, "internal_node_id": "0.0-4.0-3.0"}}, {"uniqueid": "w52637157:a14007579", "current_trial": 57, "dateTime": 1691145082751, "trialdata": {"rt": 25234, "response": {"gender": "female", "age": "19", "colorblind": "0", "effort": "0"}, "trial_type": "survey-html-form", "trial_index": 57, "time_elapsed": 2847781, "internal_node_id": "0.0-4.0-4.0"}}, {"uniqueid": "w52637157:a14007579", "current_trial": 58, "dateTime": 1691145256416, "trialdata": {"rt": 172770, "response": {"Q0": "No there was nothing confusing. The only hard thing was that I had to view as many nodes as I could in a short time.", "Q1": "No I have never participated in a Web of Cash HIT before.", "Q2": "None"}, "trial_type": "survey-text", "trial_index": 58, "time_elapsed": 3021446, "internal_node_id": "0.0-4.0-5.0"}}, {"uniqueid": "w52637157:a14007579", "current_trial": 59, "dateTime": 1691145261102, "trialdata": {"rt": 4623, "stimulus": "Press 'Finish HIT' in order to reach the completion code. Once the data has been saved, you will receive the code either in this window or in the original browser window where you started the experiment.\n", "response": 0, "trial_type": "html-button-response", "trial_index": 59, "time_elapsed": 3026131, "internal_node_id": "0.0-5.0"}}, {"uniqueid": "w52637157:a14007579", "current_trial": 60, "dateTime": 1691145262123, "trialdata": {"success": true, "trial_type": "fullscreen", "trial_index": 60, "time_elapsed": 3027153, "internal_node_id": "0.0-6.0"}}], "questiondata": {"params": {"CODE": "C6DMOQA6", "MIN_TIME": 14, "inspectCost": 1, "startTime": "Fri Aug 04 2023 11:43:48 GMT+0200 (South Africa Standard Time)", "bonusRate": 0.002, "variance": "1_2_4_8_44", "branching": "31123"}, "final_score": 1326}, "eventdata": [{"eventtype": "initialized", "value": null, "timestamp": 1691142226392, "interval": 0}, {"eventtype": "window_resize", "value": [1024, 654], "timestamp": 1691142226392, "interval": 0}, {"eventtype": "window_resize", "value": [1024, 654], "timestamp": 1691142228477, "interval": 2085}, {"eventtype": "window_resize", "value": [1366, 768], "timestamp": 1691142244881, "interval": 16404}, {"eventtype": "focus", "value": "off", "timestamp": 1691142957004, "interval": 712123}, {"eventtype": "focus", "value": "on", "timestamp": 1691142957007, "interval": 3}, {"eventtype": "window_resize", "value": [1024, 654], "timestamp": 1691142957441, "interval": 434}, {"eventtype": "window_resize", "value": [1366, 768], "timestamp": 1691142959887, "interval": 2446}, {"eventtype": "window_resize", "value": [1024, 654], "timestamp": 1691144660232, "interval": 1700345}, {"eventtype": "focus", "value": "off", "timestamp": 1691144660844, "interval": 612}, {"eventtype": "window_resize", "value": [1366, 670], "timestamp": 1691144727650, "interval": 66806}, {"eventtype": "focus", "value": "on", "timestamp": 1691144729251, "interval": 1601}], "useragent": "Mozilla/5.0 (Windows NT 10.0; Win64; x64) AppleWebKit/537.36 (KHTML, like Gecko) Chrome/115.0.0.0 Safari/537.36", "mode": "live", "id": "w52637157:a14007579", "status": "user data saved", "Beginhit": "2023-08-04 09:43:35.2976", "Beginexp": "2023-08-04 09:44:06.216144", "Endhit": "2023-08-04 10:34:24.333467", "psiturkStatus": 3, "browser": "<redacted>", "platform": "windows", "language": "en-ZA"}