{"condition": 0, "counterbalance": 0, "assignmentId": "a69421970", "workerId": "w53171787", "hitId": "h82189456", "currenttrial": 55, "bonus": 0, "data": [{"uniqueid": "w53171787:a69421970", "current_trial": 0, "dateTime": 1691070620487, "trialdata": {"success": true, "trial_type": "fullscreen", "trial_index": 0, "time_elapsed": 14341, "internal_node_id": "0.0-0.0"}}, {"uniqueid": "w53171787:a69421970", "current_trial": 1, "dateTime": 1691070629130, "trialdata": {"view_history": [{"page_index": 0, "viewing_time": 8639}], "rt": 8639, "trial_id": "exp_instructions_control", "trial_type": "instructions", "trial_index": 1, "time_elapsed": 22984, "internal_node_id": "0.0-1.0"}}, {"uniqueid": "w53171787:a69421970", "current_trial": 2, "dateTime": 1691070632703, "trialdata": {"success": true, "trial_type": "fullscreen", "trial_index": 2, "time_elapsed": 26557, "internal_node_id": "0.0-2.0-0.0"}}, {"uniqueid": "w53171787:a69421970", "current_trial": 3, "dateTime": 1691070782401, "trialdata": {"view_history": [{"page_index": 0, "viewing_time": 45396}, {"page_index": 1, "viewing_time": 53428}, {"page_index": 2, "viewing_time": 18808}, {"page_index": 3, "viewing_time": 32056}], "rt": 149687, "trial_id": "mouselab_instructions_1_control", "trial_type": "instructions", "trial_index": 3, "time_elapsed": 176255, "internal_node_id": "0.0-2.0-1.0"}}, {"uniqueid": "w53171787:a69421970", "current_trial": 4, "dateTime": 1691070810319, "trialdata": {"revealed_states": [], "clicked_states": ["2", "23"], "num_clicks_accrued": [0, 0, 0, 0, 0, 0, 0, 0, 0, 0, 0, 0, 0], "stateRewards": ["", -10, 10, -10, -10, 10, 10, 10, 10, 10, 10, -10, 10, 10, 10, 10, -10, 10, 10, -10, 10, -10, -10, 10, -10, 10, -10, 10, -10, -10, -10, -10, 10, -10], "withholdReward": false, "trial_id": "practice_1", "block": "test", "trialIndex": 0, "score": 12.5, "costs": -1, "simulationMode": [null, null, null, null, null], "rewards": [10, -10, 10, -10, 10], "path": ["0", "0", "23", "24", "25", "26", "27"], "rt": [13214, 1686, 383, 254, 333], "actions": ["left", "left", "left", "up", "up"], "actionTimes": [17562, 19750, 20634, 21399, 22239], "queries": {"click": {"state": {"target": ["2", "23"], "time": [10399, 12989]}, "edge": {"target": [], "time": []}}, "mouseover": {"state": {"target": ["1", "2", "10", "2", "2", "1", "23"], "time": [7846, 8392, 8686, 9244, 9713, 11153, 11700]}, "edge": {"target": [], "time": []}}, "mouseout": {"state": {"target": ["12", "0", "1", "2", "10", "2", "2", "1", "23"], "time": [747, 4845, 8060, 8623, 9218, 9486, 10806, 11634, 13313]}, "edge": {"target": [], "time": []}}}, "displayed_time": "22.75", "trialTime": 27507, "trial_type": "mouselab-mdp", "trial_index": 4, "time_elapsed": 204172, "internal_node_id": "0.0-2.0-2.0-0.0"}}, {"uniqueid": "w53171787:a69421970", "current_trial": 5, "dateTime": 1691070826654, "trialdata": {"revealed_states": [], "clicked_states": ["31"], "num_clicks_accrued": [0, 0, 0, 0, 0, 0, 0, 0, 0, 0, 0, 0, 0], "stateRewards": ["", 10, -10, 10, -10, 10, -10, -10, 10, 10, -10, 10, 10, 10, 10, -10, -10, -10, -10, -10, -10, -10, -10, 10, -10, -10, 10, 10, -10, -10, -10, 10, 10, -10], "withholdReward": false, "trial_id": "practice_2", "block": "test", "trialIndex": 1, "score": -7, "costs": -0.5, "simulationMode": [null, null, null, null, null], "rewards": [10, -10, -10, -10, 10], "path": ["0", "0", "23", "24", "25", "30", "31"], "rt": [9233, 311, 221, 129, 179], "actions": ["left", "left", "left", "down", "right"], "actionTimes": [10931, 11754, 12476, 13104, 13793], "queries": {"click": {"state": {"target": ["31"], "time": [8535]}, "edge": {"target": [], "time": []}}, "mouseover": {"state": {"target": ["7", "7", "18", "13", "2", "3", "2", "1", "12", "13", "14", "15", "24", "25", "30", "31", "24"], "time": [2343, 2728, 2836, 3156, 4195, 4864, 5690, 5799, 5904, 5944, 6464, 6677, 6998, 7090, 7344, 8011, 8972]}, "edge": {"target": [], "time": []}}, "mouseout": {"state": {"target": ["0", "7", "7", "18", "13", "2", "3", "2", "1", "12", "13", "14", "15", "24", "25", "30", "31"], "time": [2223, 2409, 2781, 2875, 3690, 4316, 5651, 5757, 5811, 5931, 5998, 6624, 6824, 7038, 7305, 7384, 8906]}, "edge": {"target": [], "time": []}}}, "displayed_time": "14.29", "trialTime": 16077, "trial_type": "mouselab-mdp", "trial_index": 5, "time_elapsed": 220508, "internal_node_id": "0.0-2.0-2.0-1.0"}}, {"uniqueid": "w53171787:a69421970", "current_trial": 6, "dateTime": 1691070863153, "trialdata": {"view_history": [{"page_index": 0, "viewing_time": 29162}, {"page_index": 1, "viewing_time": 7334}], "rt": 36496, "trial_id": "mouselab_instructions_2_control", "trial_type": "instructions", "trial_index": 6, "time_elapsed": 257007, "internal_node_id": "0.0-2.0-3.0"}}, {"uniqueid": "w53171787:a69421970", "current_trial": 7, "dateTime": 1691070891558, "trialdata": {"rt": 28401, "response": {"Q0": "The cost for clicking on nodes may vary between nodes.", "Q1": "The better I perform the higher my bonus will be.", "Q2": "No, the amount of cash at each node of the web may be different each time.", "Q3": "To get the highest total score.", "Q4": "Only before moving the spider.", "Q5": "3 seconds"}, "question_order": [0, 1, 2, 3, 4, 5], "correct": {"Q0": "The cost for clicking on nodes may vary between nodes.", "Q1": "The better I perform the higher my bonus will be.", "Q2": "No, the amount of cash at each node of the web may be different each time.", "Q3": "To get the highest total score.", "Q4": "Only before moving the spider.", "Q5": "3 seconds"}, "trial_id": "mouselab_quiz_control", "trial_type": "survey-multi-choice", "trial_index": 7, "time_elapsed": 285412, "internal_node_id": "0.0-2.0-4.0"}}, {"uniqueid": "w53171787:a69421970", "current_trial": 8, "dateTime": 1691070909990, "trialdata": {"rt": 18426, "stimulus": "\n<h1> Get ready to start the game! </h1>\n\nThank you for reading the instructions. Get ready start with the 40 rounds of this game.\n<br><br>\nIf you need to take a break, feel free to take one after the end of a round, before continuing to the next one.\n<br><br>\nRemember, the more money the spider gets, the bigger your bonus will be!\n<br><br>\n<div style='text-align: center;'>Press <code>space</code> to begin.</div>\n\n<br><br>\n(If, at any point, the <code>space</code> key does not take you to the next page, click once on the text and try again.)", "response": " ", "trial_id": "mdp_ready", "trial_type": "html-keyboard-response", "trial_index": 8, "time_elapsed": 303844, "internal_node_id": "0.0-4.0-0.0"}}, {"uniqueid": "w53171787:a69421970", "current_trial": 9, "dateTime": 1691070935763, "trialdata": {"revealed_states": [], "clicked_states": ["23", "24", "25", "30", "31", "28"], "num_clicks_accrued": [0, 0, 0, 0, 0, 0, 0, 0, 0, 0, 0, 0, 0], "stateRewards": ["", -2, 1, -7, -8, -37, -76, -87, 11, 30, -63, 80, -1, 4, 2, -1, 42, 17, 52, -3, -75, -80, -68, 2, -3, -5, -15, -48, 82, 24, -7, 5, -22, -71], "withholdReward": false, "trial_id": "mdp_trial_1", "block": "test", "trialIndex": 2, "score": 52.6, "costs": -8.4, "simulationMode": [null, null, null, null, null], "rewards": [2, -3, -5, -15, 82], "path": ["0", "0", "23", "24", "25", "26", "28"], "rt": [15039, 241, 139, 145, 90], "actions": ["left", "left", "left", "up", "right"], "actionTimes": [18160, 18909, 19555, 20200, 20799], "queries": {"click": {"state": {"target": ["23", "24", "25", "30", "31", "28"], "time": [5707, 7222, 8822, 11610, 13289, 15158]}, "edge": {"target": [], "time": []}}, "mouseover": {"state": {"target": ["1", "23", "24", "31", "24", "25", "31", "31", "30", "31", "25", "26", "28", "26", "26"], "time": [3848, 4610, 6102, 6675, 7048, 7715, 9384, 9689, 10277, 12479, 13733, 13824, 14105, 15586, 17346]}, "edge": {"target": [], "time": []}}, "mouseout": {"state": {"target": ["1", "0", "0", "1", "23", "24", "31", "24", "25", "31", "31", "30", "30", "31", "25", "26", "28", "26", "26", "28"], "time": [178, 473, 977, 4555, 6049, 6141, 7008, 7555, 9291, 9569, 9957, 11960, 12344, 13667, 13760, 13933, 15453, 17188, 17399, 22271]}, "edge": {"target": [], "time": []}}}, "displayed_time": "21.31", "trialTime": 25525, "trial_type": "mouselab-mdp", "trial_index": 9, "time_elapsed": 329617, "internal_node_id": "0.0-4.0-1.0-0.0"}}, {"uniqueid": "w53171787:a69421970", "current_trial": 10, "dateTime": 1691070968676, "trialdata": {"revealed_states": [], "clicked_states": ["7", "10", "9", "5", "11", "6"], "num_clicks_accrued": [0, 0, 0, 0, 0, 0, 0, 0, 0, 0, 0, 0, 0], "stateRewards": ["", -1, -3, 4, -10, -5, 79, -87, -2, 53, 29, -20, -2, -1, -5, 10, 27, 86, 46, -16, -29, 40, 3, 2, 4, -1, -6, 37, 79, -29, 7, 86, -62, 29], "withholdReward": false, "trial_id": "mdp_trial_2", "block": "test", "trialIndex": 3, "score": 60.6, "costs": -8.4, "simulationMode": [null, null, null, null, null], "rewards": [-1, -3, 4, -10, 79], "path": ["0", "0", "1", "2", "3", "4", "6"], "rt": [14819, 3, 67, 588, 199], "actions": ["up", "up", "up", "right", "right"], "actionTimes": [21323, 21832, 22417, 23512, 24217], "queries": {"click": {"state": {"target": ["7", "10", "9", "5", "11", "6"], "time": [7947, 9769, 11986, 13786, 16868, 18646]}, "edge": {"target": [], "time": []}}, "mouseover": {"state": {"target": ["1", "7", "2", "10", "2", "3", "8", "9", "5", "4", "7", "1", "10", "11", "4", "6", "18"], "time": [6997, 7742, 8264, 8636, 10891, 11051, 11517, 11811, 12345, 14145, 14282, 16187, 16253, 16679, 17360, 17640, 19177]}, "edge": {"target": [], "time": []}}, "mouseout": {"state": {"target": ["0", "1", "7", "2", "10", "2", "3", "8", "9", "5", "4", "7", "1", "10", "11", "4", "6", "18", "22", "22", "12"], "time": [6741, 7104, 8185, 8342, 10120, 10959, 11383, 11717, 12264, 14133, 14211, 14332, 16199, 16346, 17107, 17426, 18933, 19376, 25604, 31580, 31741]}, "edge": {"target": [], "time": []}}}, "displayed_time": "24.73", "trialTime": 32679, "trial_type": "mouselab-mdp", "trial_index": 10, "time_elapsed": 362529, "internal_node_id": "0.0-4.0-1.0-1.0"}}, {"uniqueid": "w53171787:a69421970", "current_trial": 11, "dateTime": 1691070991459, "trialdata": {"revealed_states": [], "clicked_states": ["16", "18", "17", "20", "21", "22"], "num_clicks_accrued": [0, 0, 0, 0, 0, 0, 0, 0, 0, 0, 0, 0, 0], "stateRewards": ["", 1, 2, -3, -6, 50, -7, 7, -7, -80, 21, -1, 2, 2, 4, -1, 33, 84, 1, 14, -53, 81, 6, -2, -2, -3, -9, -87, -38, -59, -5, -74, -3, -71], "withholdReward": false, "trial_id": "mdp_trial_3", "block": "test", "trialIndex": 4, "score": 82.6, "costs": -8.4, "simulationMode": [null, null, null, null, null], "rewards": [2, 2, 4, -1, 84], "path": ["0", "0", "12", "13", "14", "15", "17"], "rt": [14685, 113, 131, 109, 4], "actions": ["right", "right", "right", "up", "right"], "actionTimes": [16039, 16654, 17284, 17901, 18410], "queries": {"click": {"state": {"target": ["16", "18", "17", "20", "21", "22"], "time": [2839, 4680, 6526, 9181, 11060, 13580]}, "edge": {"target": [], "time": []}}, "mouseover": {"state": {"target": ["1", "16", "18", "15", "17", "20", "20", "21", "21", "22"], "time": [2091, 2641, 3172, 5120, 5212, 7039, 7507, 9560, 9855, 12296]}, "edge": {"target": [], "time": []}}, "mouseout": {"state": {"target": ["0", "1", "16", "18", "15", "17", "20", "20", "21", "21", "22", "21"], "time": [1624, 2131, 3078, 5119, 5159, 6840, 7226, 9441, 9627, 11483, 13816, 13882]}, "edge": {"target": [], "time": []}}}, "displayed_time": "18.93", "trialTime": 22519, "trial_type": "mouselab-mdp", "trial_index": 11, "time_elapsed": 385313, "internal_node_id": "0.0-4.0-1.0-2.0"}}, {"uniqueid": "w53171787:a69421970", "current_trial": 12, "dateTime": 1691071015820, "trialdata": {"revealed_states": [], "clicked_states": ["9", "5", "6", "16", "17", "20", "21", "22"], "num_clicks_accrued": [0, 0, 0, 0, 0, 0, 0, 0, 0, 0, 0, 0, 0], "stateRewards": ["", -2, -1, 3, -3, 71, -58, -21, 7, -10, -75, -37, 2, 4, -1, -12, -79, -29, -48, 3, -41, -10, -30, -1, -2, 1, -15, 13, 66, 22, -1, -42, -86, -55], "withholdReward": false, "trial_id": "mdp_trial_4", "block": "test", "trialIndex": 5, "score": 56.8, "costs": -11.200000000000001, "simulationMode": [null, null, null, null, null], "rewards": [-2, -1, 3, -3, 71], "path": ["0", "0", "1", "2", "3", "4", "5"], "rt": [17327, 61, 75, 7, 58], "actions": ["up", "up", "up", "right", "up"], "actionTimes": [19405, 19974, 20548, 21054, 21624], "queries": {"click": {"state": {"target": ["9", "5", "6", "16", "17", "20", "21", "22"], "time": [3577, 5436, 7502, 9854, 11789, 13600, 15625, 17516]}, "edge": {"target": [], "time": []}}, "mouseover": {"state": {"target": ["12", "3", "9", "5", "6", "16", "6", "5", "6", "16", "16", "6", "16", "17", "20", "21", "22"], "time": [2651, 2838, 3118, 3973, 4624, 4757, 4904, 5186, 5758, 6025, 6437, 6826, 9592, 10133, 12441, 14151, 16097]}, "edge": {"target": [], "time": []}}, "mouseout": {"state": {"target": ["19", "13", "12", "0", "0", "12", "3", "9", "5", "6", "16", "6", "5", "6", "16", "16", "6", "16", "17", "20", "21", "22", "21"], "time": [130, 222, 290, 955, 2223, 2692, 2918, 3863, 4584, 4677, 4878, 4944, 5721, 5865, 6184, 6692, 7746, 10093, 12214, 13881, 15922, 17950, 18003]}, "edge": {"target": [], "time": []}}}, "displayed_time": "22.13", "trialTime": 24174, "trial_type": "mouselab-mdp", "trial_index": 12, "time_elapsed": 409673, "internal_node_id": "0.0-4.0-1.0-3.0"}}, {"uniqueid": "w53171787:a69421970", "current_trial": 13, "dateTime": 1691071037571, "trialdata": {"revealed_states": [], "clicked_states": ["17", "20", "18"], "num_clicks_accrued": [0, 0, 0, 0, 0, 0, 0, 0, 0, 0, 0, 0, 0], "stateRewards": ["", 1, 1, 7, -11, 80, -20, -53, -14, 3, 31, 27, 2, -1, -8, -10, 33, 41, 86, 9, 78, -37, -13, -1, -2, -6, -8, -80, 75, 4, -16, -49, -74, 24], "withholdReward": false, "trial_id": "mdp_trial_5", "block": "test", "trialIndex": 6, "score": 64.8, "costs": -4.199999999999999, "simulationMode": [null, null, null, null, null], "rewards": [2, -1, -8, -10, 86], "path": ["0", "0", "12", "13", "14", "15", "18"], "rt": [6530, 71, 68, 16, 488], "actions": ["right", "right", "right", "up", "left"], "actionTimes": [7288, 7871, 8440, 8965, 9955], "queries": {"click": {"state": {"target": ["17", "20", "18"], "time": [1684, 3428, 5183]}, "edge": {"target": [], "time": []}}, "mouseover": {"state": {"target": ["14", "17", "14", "19", "20", "19", "13", "18", "13", "21"], "time": [1287, 1435, 1981, 2408, 2568, 3769, 3849, 4249, 5609, 5743]}, "edge": {"target": [], "time": []}}, "mouseout": {"state": {"target": ["0", "14", "17", "17", "14", "19", "20", "19", "13", "18", "13", "21", "31"], "time": [914, 1368, 1728, 1915, 2210, 2490, 3742, 3795, 3942, 5604, 5636, 11840, 12146]}, "edge": {"target": [], "time": []}}}, "displayed_time": "14.77", "trialTime": 21566, "trial_type": "mouselab-mdp", "trial_index": 13, "time_elapsed": 431424, "internal_node_id": "0.0-4.0-1.0-4.0"}}, {"uniqueid": "w53171787:a69421970", "current_trial": 14, "dateTime": 1691071095609, "trialdata": {"revealed_states": [], "clicked_states": ["31", "32", "33", "29", "28", "27", "11", "9", "5", "6", "7", "10", "18"], "num_clicks_accrued": [0, 0, 0, 0, 0, 0, 0, 0, 0, 0, 0, 0, 0], "stateRewards": ["", -1, 3, -7, 16, -32, -74, -48, 2, 10, 15, -30, 1, 1, -2, 10, 12, -83, 67, 13, -66, 47, 65, -2, 4, 2, -14, -8, -57, 24, 9, 65, 12, 46], "withholdReward": false, "trial_id": "mdp_trial_6", "block": "test", "trialIndex": 7, "score": 58.8, "costs": -18.2, "simulationMode": [null, null, null, null, null], "rewards": [1, 1, -2, 10, 67], "path": ["0", "0", "12", "13", "14", "15", "18"], "rt": [28539, 196, 104, 61, 113], "actions": ["right", "right", "right", "up", "left"], "actionTimes": [34829, 35533, 36148, 36718, 37333], "queries": {"click": {"state": {"target": ["31", "32", "33", "29", "28", "27", "11", "9", "5", "6", "7", "10", "18"], "time": [7806, 9633, 11384, 13229, 15152, 16930, 19855, 21667, 23466, 25316, 27156, 28991, 32062]}, "edge": {"target": [], "time": []}}, "mouseover": {"state": {"target": ["22", "31", "32", "33", "29", "26", "28", "27", "1", "2", "8", "11", "9", "4", "5", "6", "16", "16", "7", "2", "10", "1", "12", "18", "15", "15", "14", "19", "16"], "time": [6884, 7656, 8203, 10323, 12325, 13738, 13832, 15849, 19049, 19234, 19279, 19661, 20275, 22076, 22957, 24036, 25732, 26171, 26426, 27411, 27464, 29428, 31094, 31766, 32388, 32697, 32775, 32948, 33374]}, "edge": {"target": [], "time": []}}, "mouseout": {"state": {"target": ["0", "0", "22", "31", "32", "33", "29", "26", "28", "27", "1", "2", "8", "11", "9", "4", "5", "6", "16", "16", "7", "2", "10", "1", "12", "18", "15", "15", "14", "19", "16", "15"], "time": [5612, 6401, 7244, 8002, 9977, 11793, 13713, 13794, 15515, 17381, 19183, 19267, 19329, 19863, 21995, 22117, 23810, 25691, 25758, 26224, 27384, 27438, 29373, 29439, 31455, 32347, 32482, 32734, 32816, 32989, 34123, 56919]}, "edge": {"target": [], "time": []}}}, "displayed_time": "37.84", "trialTime": 57826, "trial_type": "mouselab-mdp", "trial_index": 14, "time_elapsed": 489462, "internal_node_id": "0.0-4.0-1.0-5.0"}}, {"uniqueid": "w53171787:a69421970", "current_trial": 15, "dateTime": 1691071120851, "trialdata": {"revealed_states": [], "clicked_states": ["22", "21", "20", "18", "16", "17", "6"], "num_clicks_accrued": [0, 0, 0, 0, 0, 0, 0, 0, 0, 0, 0, 0, 0], "stateRewards": ["", -1, -3, -6, -2, -7, 80, -45, -3, -38, -72, 76, 2, 1, 7, 4, -62, 14, -74, 14, -87, -21, -88, -2, 1, -7, -10, 66, 56, -76, 10, -29, -72, -70], "withholdReward": false, "trial_id": "mdp_trial_7", "block": "test", "trialIndex": 8, "score": 58.2, "costs": -9.8, "simulationMode": [null, null, null, null, null], "rewards": [-1, -3, -6, -2, 80], "path": ["0", "0", "1", "2", "3", "4", "6"], "rt": [15695, 70, 112, 39, 108], "actions": ["up", "up", "up", "right", "right"], "actionTimes": [17102, 17672, 18287, 18827, 19457], "queries": {"click": {"state": {"target": ["22", "21", "20", "18", "16", "17", "6"], "time": [2309, 4322, 6224, 8327, 10173, 11962, 14121]}, "edge": {"target": [], "time": []}}, "mouseover": {"state": {"target": ["12", "13", "22", "21", "21", "20", "20", "14", "15", "18", "16", "17", "15", "7", "6", "5"], "time": [1833, 1873, 2088, 2646, 3740, 4647, 4861, 6915, 7075, 7529, 8796, 10716, 12291, 13064, 13599, 14665]}, "edge": {"target": [], "time": []}}, "mouseout": {"state": {"target": ["0", "12", "13", "22", "21", "21", "20", "20", "14", "15", "18", "16", "17", "15", "18", "7", "6", "5", "12"], "time": [1792, 1860, 1913, 2554, 3206, 4568, 4661, 6808, 6954, 7131, 8703, 10480, 12278, 12330, 12370, 13158, 14385, 23831, 24096]}, "edge": {"target": [], "time": []}}}, "displayed_time": "19.96", "trialTime": 25022, "trial_type": "mouselab-mdp", "trial_index": 15, "time_elapsed": 514705, "internal_node_id": "0.0-4.0-1.0-6.0"}}, {"uniqueid": "w53171787:a69421970", "current_trial": 16, "dateTime": 1691071153387, "trialdata": {"revealed_states": [], "clicked_states": ["9", "5", "6", "11", "27", "28", "31", "22", "18", "16", "17", "20"], "num_clicks_accrued": [0, 0, 0, 0, 0, 0, 0, 0, 0, 0, 0, 0, 0], "stateRewards": ["", -2, 1, -3, -16, -39, -52, 30, -7, -41, -59, 11, 2, 1, 8, 2, -11, -26, -42, -13, 87, -59, -48, -1, -1, -1, 16, -79, 31, 50, -1, -84, 34, -82], "withholdReward": false, "trial_id": "mdp_trial_8", "block": "test", "trialIndex": 9, "score": 68.2, "costs": -16.8, "simulationMode": [null, null, null, null, null], "rewards": [2, 1, 8, -13, 87], "path": ["0", "0", "12", "13", "14", "19", "20"], "rt": [25120, 53, 20, 449, 172], "actions": ["right", "right", "right", "down", "right"], "actionTimes": [26644, 27199, 27724, 28673, 29343], "queries": {"click": {"state": {"target": ["9", "5", "6", "11", "27", "28", "31", "22", "18", "16", "17", "20"], "time": [2613, 4568, 6642, 8415, 10182, 11960, 13864, 15676, 17484, 19328, 21679, 23694]}, "edge": {"target": [], "time": []}}, "mouseover": {"state": {"target": ["1", "3", "9", "5", "6", "7", "2", "8", "11", "27", "28", "24", "31", "22", "13", "18", "16", "16", "15", "17", "20", "21"], "time": [1797, 2080, 2398, 2944, 5092, 7093, 7160, 7332, 7639, 8693, 10574, 12163, 12282, 14483, 16044, 16109, 17924, 18204, 19765, 21553, 22940, 24941]}, "edge": {"target": [], "time": []}}, "mouseout": {"state": {"target": ["12", "7", "4", "5", "2", "1", "0", "1", "3", "9", "5", "6", "7", "2", "8", "11", "27", "28", "24", "31", "22", "13", "18", "16", "16", "15", "17", "20", "21"], "time": [36, 116, 156, 340, 531, 596, 1756, 1810, 2198, 2773, 4786, 7039, 7133, 7172, 7346, 8626, 10454, 12149, 12230, 14135, 16003, 16084, 17884, 17964, 19712, 21328, 21912, 23740, 25797]}, "edge": {"target": [], "time": []}}}, "displayed_time": "29.85", "trialTime": 32164, "trial_type": "mouselab-mdp", "trial_index": 16, "time_elapsed": 547241, "internal_node_id": "0.0-4.0-1.0-7.0"}}, {"uniqueid": "w53171787:a69421970", "current_trial": 17, "dateTime": 1691071176547, "trialdata": {"revealed_states": [], "clicked_states": ["5", "6"], "num_clicks_accrued": [0, 0, 0, 0, 0, 0, 0, 0, 0, 0, 0, 0, 0], "stateRewards": ["", -2, -3, 1, -7, 39, -67, 16, 5, -20, 73, 66, -1, 4, 5, -3, 23, -68, -87, -8, 3, -3, 17, 1, -4, -2, -13, -32, 34, 61, -5, -11, -18, 12], "withholdReward": false, "trial_id": "mdp_trial_9", "block": "test", "trialIndex": 10, "score": 25.2, "costs": -2.8, "simulationMode": [null, null, null, null, null], "rewards": [-2, -3, 1, -7, 39], "path": ["0", "0", "1", "2", "3", "4", "5"], "rt": [5248, 95, 67, 63, 90], "actions": ["up", "up", "up", "right", "up"], "actionTimes": [8936, 9536, 10106, 10676, 11276], "queries": {"click": {"state": {"target": ["5", "6"], "time": [4456, 6514]}, "edge": {"target": [], "time": []}}, "mouseover": {"state": {"target": ["7", "4", "5", "6", "7", "2", "7", "7"], "time": [3982, 4034, 4275, 4849, 6797, 6876, 7129, 7823]}, "edge": {"target": [], "time": []}}, "mouseout": {"state": {"target": ["14", "22", "0", "0", "7", "4", "5", "6", "7", "2", "7", "7", "4", "13", "22"], "time": [2514, 2607, 3140, 3917, 4021, 4115, 4648, 6756, 6822, 7089, 7209, 18003, 18241, 18603, 18829]}, "edge": {"target": [], "time": []}}}, "displayed_time": "17.69", "trialTime": 22946, "trial_type": "mouselab-mdp", "trial_index": 17, "time_elapsed": 570401, "internal_node_id": "0.0-4.0-1.0-8.0"}}, {"uniqueid": "w53171787:a69421970", "current_trial": 18, "dateTime": 1691071203880, "trialdata": {"revealed_states": [], "clicked_states": ["27", "29", "28", "31"], "num_clicks_accrued": [0, 0, 0, 0, 0, 0, 0, 0, 0, 0, 0, 0, 0], "stateRewards": ["", -2, -1, -6, -14, -55, 78, -13, 11, 14, -71, 59, 2, 2, 6, -6, 9, 38, 14, 7, 85, 11, 68, 1, -4, -1, -3, -63, -85, 9, -2, 63, -86, -10], "withholdReward": false, "trial_id": "mdp_trial_10", "block": "test", "trialIndex": 11, "score": 51.4, "costs": -5.6, "simulationMode": [null, null, null, null, null], "rewards": [1, -4, -1, -2, 63], "path": ["0", "0", "23", "24", "25", "30", "31"], "rt": [11753, 325, 156, 90, 34], "actions": ["left", "left", "left", "down", "right"], "actionTimes": [13261, 14089, 14745, 15345, 15890], "queries": {"click": {"state": {"target": ["27", "29", "28", "31"], "time": [2978, 6365, 8165, 9975]}, "edge": {"target": [], "time": []}}, "mouseover": {"state": {"target": ["12", "2", "3", "8", "11", "27", "26", "29", "26", "10", "28", "24", "31", "32"], "time": [1902, 2048, 2128, 2235, 2343, 2755, 3235, 3610, 6664, 6824, 7371, 8479, 8531, 10280]}, "edge": {"target": [], "time": []}}, "mouseout": {"state": {"target": ["0", "12", "2", "3", "8", "11", "27", "26", "29", "26", "10", "28", "24", "31", "32"], "time": [1682, 1914, 2088, 2155, 2302, 2476, 3208, 3368, 6638, 6718, 6864, 8452, 8506, 10212, 12666]}, "edge": {"target": [], "time": []}}}, "displayed_time": "16.40", "trialTime": 27122, "trial_type": "mouselab-mdp", "trial_index": 18, "time_elapsed": 597734, "internal_node_id": "0.0-4.0-1.0-9.0"}}, {"uniqueid": "w53171787:a69421970", "current_trial": 19, "dateTime": 1691071231949, "trialdata": {"revealed_states": [], "clicked_states": ["29", "27", "11", "9"], "num_clicks_accrued": [0, 0, 0, 0, 0, 0, 0, 0, 0, 0, 0, 0, 0], "stateRewards": ["", -1, 1, -1, 2, 19, 85, -18, 2, -3, -26, 36, 2, 4, 7, -9, -18, 70, 72, -5, 35, -20, -28, 1, -2, -4, -3, -59, -11, -63, -2, -72, 59, -69], "withholdReward": false, "trial_id": "mdp_trial_11", "block": "test", "trialIndex": 12, "score": 31.4, "costs": -5.6, "simulationMode": [null, null, null, null, null], "rewards": [-1, 1, -1, 2, 36], "path": ["0", "0", "1", "2", "3", "8", "11"], "rt": [10627, 174, 134, 108, 66], "actions": ["up", "up", "up", "left", "left"], "actionTimes": [11942, 12622, 13262, 13876, 14447], "queries": {"click": {"state": {"target": ["29", "27", "11", "9"], "time": [3427, 5283, 7175, 8950]}, "edge": {"target": [], "time": []}}, "mouseover": {"state": {"target": ["0", "24", "28", "29", "27", "11", "11", "9", "9", "9", "8", "2", "1", "2", "7"], "time": [1348, 1748, 1828, 3257, 3684, 5579, 5885, 7458, 7750, 8046, 9271, 9819, 9926, 10873, 11099]}, "edge": {"target": [], "time": []}}, "mouseout": {"state": {"target": ["0", "0", "24", "28", "29", "27", "11", "11", "9", "9", "9", "8", "2", "1", "2", "7"], "time": [747, 1389, 1815, 1948, 3602, 5511, 5617, 7404, 7471, 7791, 9231, 9284, 9872, 10832, 10899, 11127]}, "edge": {"target": [], "time": []}}}, "displayed_time": "15.32", "trialTime": 27773, "trial_type": "mouselab-mdp", "trial_index": 19, "time_elapsed": 625803, "internal_node_id": "0.0-4.0-1.0-10.0"}}, {"uniqueid": "w53171787:a69421970", "current_trial": 20, "dateTime": 1691071248864, "trialdata": {"revealed_states": [], "clicked_states": ["5", "6", "16", "17"], "num_clicks_accrued": [0, 0, 0, 0, 0, 0, 0, 0, 0, 0, 0, 0, 0], "stateRewards": ["", -2, 2, -1, -6, 22, 6, 6, -5, 70, -42, 65, 1, 3, 5, -6, -67, -9, 3, 14, 7, -62, -13, -2, 4, 1, 16, 42, -21, -52, -8, 32, 53, 81], "withholdReward": false, "trial_id": "mdp_trial_12", "block": "test", "trialIndex": 13, "score": 9.4, "costs": -5.6, "simulationMode": [null, null, null, null, null], "rewards": [-2, 2, -1, -6, 22], "path": ["0", "0", "1", "2", "3", "4", "5"], "rt": [8941, 89, 59, 579, 143], "actions": ["up", "up", "up", "right", "up"], "actionTimes": [10044, 10643, 11213, 12293, 12938], "queries": {"click": {"state": {"target": ["5", "6", "16", "17"], "time": [1899, 3654, 5635, 7394]}, "edge": {"target": [], "time": []}}, "mouseover": {"state": {"target": ["12", "7", "4", "5", "6", "18", "16", "17", "17"], "time": [1431, 1510, 1603, 1749, 2150, 4804, 4897, 5816, 6045]}, "edge": {"target": [], "time": []}}, "mouseout": {"state": {"target": ["0", "12", "7", "4", "5", "6", "18", "16", "17", "17", "17", "14", "13"], "time": [1336, 1455, 1549, 1682, 2084, 3990, 4817, 5790, 5870, 7443, 7631, 15047, 15181]}, "edge": {"target": [], "time": []}}}, "displayed_time": "15.10", "trialTime": 16689, "trial_type": "mouselab-mdp", "trial_index": 20, "time_elapsed": 642717, "internal_node_id": "0.0-4.0-1.0-11.0"}}, {"uniqueid": "w53171787:a69421970", "current_trial": 21, "dateTime": 1691071273419, "trialdata": {"revealed_states": [], "clicked_states": ["9", "10", "7", "5", "6", "16"], "num_clicks_accrued": [0, 0, 0, 0, 0, 0, 0, 0, 0, 0, 0, 0, 0], "stateRewards": ["", -2, 4, -7, -3, -76, 39, -28, 10, 14, 12, 60, 2, -3, 6, -10, 88, -34, -41, -3, 72, -13, -56, 1, 3, 2, 8, -51, 23, -57, 1, 14, -46, -16], "withholdReward": false, "trial_id": "mdp_trial_13", "block": "test", "trialIndex": 14, "score": 74.6, "costs": -8.4, "simulationMode": [null, null, null, null, null], "rewards": [2, -3, 6, -10, 88], "path": ["0", "0", "12", "13", "14", "15", "16"], "rt": [13297, 208, 107, 30, 12], "actions": ["right", "right", "right", "up", "up"], "actionTimes": [14203, 14916, 15533, 16070, 16601], "queries": {"click": {"state": {"target": ["9", "10", "7", "5", "6", "16"], "time": [1788, 3621, 5554, 7646, 9479, 11246]}, "edge": {"target": [], "time": []}}, "mouseover": {"state": {"target": ["7", "9", "8", "3", "5", "4", "2", "10", "2", "7", "7", "13", "15", "17", "16", "6", "4", "5", "6", "16", "16", "17", "17"], "time": [1193, 1660, 2021, 2074, 2433, 2540, 2593, 2727, 4024, 4075, 4674, 6050, 6558, 6609, 7038, 7225, 7263, 7463, 8023, 9770, 10290, 11611, 12891]}, "edge": {"target": [], "time": []}}, "mouseout": {"state": {"target": ["0", "0", "7", "9", "8", "3", "5", "4", "2", "10", "2", "7", "7", "13", "15", "17", "16", "6", "4", "5", "6", "16", "16", "17", "17", "14", "13", "12", "15", "17", "20", "21"], "time": [379, 1075, 1220, 1981, 2034, 2113, 2513, 2553, 2660, 3995, 4048, 4341, 5809, 6408, 6596, 6638, 7076, 7235, 7383, 7850, 9704, 9864, 11573, 12441, 13268, 20122, 20189, 21349, 21671, 21736, 21831, 21883]}, "edge": {"target": [], "time": []}}}, "displayed_time": "17.11", "trialTime": 24321, "trial_type": "mouselab-mdp", "trial_index": 21, "time_elapsed": 667273, "internal_node_id": "0.0-4.0-1.0-12.0"}}, {"uniqueid": "w53171787:a69421970", "current_trial": 22, "dateTime": 1691071299159, "trialdata": {"revealed_states": [], "clicked_states": ["18", "17", "22", "20", "31", "28", "32", "33"], "num_clicks_accrued": [0, 0, 0, 0, 0, 0, 0, 0, 0, 0, 0, 0, 0], "stateRewards": ["", -2, -3, 8, -4, -30, 31, 69, 9, 66, 87, 64, -2, 2, 8, 5, 47, 16, -39, -8, -54, 51, -19, 1, -2, -2, -11, -25, -26, 43, -9, 19, -84, 86], "withholdReward": false, "trial_id": "mdp_trial_14", "block": "test", "trialIndex": 15, "score": 62.8, "costs": -11.200000000000001, "simulationMode": [null, null, null, null, null], "rewards": [1, -2, -2, -9, 86], "path": ["0", "0", "23", "24", "25", "30", "33"], "rt": [17637, 85, 68, 79, 92], "actions": ["left", "left", "left", "down", "left"], "actionTimes": [20389, 20975, 21543, 22128, 22728], "queries": {"click": {"state": {"target": ["18", "17", "22", "20", "31", "28", "32", "33"], "time": [3945, 5691, 7983, 9783, 12011, 13958, 15814, 17628]}, "edge": {"target": [], "time": []}}, "mouseover": {"state": {"target": ["1", "7", "18", "15", "17", "15", "15", "14", "19", "22", "19", "20", "31", "24", "28", "24", "32", "33", "33", "29"], "time": [3427, 3599, 3693, 4199, 4587, 6880, 7027, 7107, 7376, 7841, 8268, 8334, 11162, 12391, 12497, 14323, 14658, 16218, 16564, 17979]}, "edge": {"target": [], "time": []}}, "mouseout": {"state": {"target": ["12", "7", "0", "0", "1", "7", "18", "15", "17", "15", "15", "14", "19", "22", "19", "20", "22", "31", "24", "28", "24", "31", "32", "33", "33"], "time": [1243, 1444, 1851, 3405, 3478, 3612, 4173, 4561, 6053, 6934, 7094, 7162, 7455, 8229, 8297, 10192, 10428, 12352, 12457, 14285, 14363, 14497, 16112, 16284, 17847]}, "edge": {"target": [], "time": []}}}, "displayed_time": "23.24", "trialTime": 25548, "trial_type": "mouselab-mdp", "trial_index": 22, "time_elapsed": 693013, "internal_node_id": "0.0-4.0-1.0-13.0"}}, {"uniqueid": "w53171787:a69421970", "current_trial": 23, "dateTime": 1691071330075, "trialdata": {"revealed_states": [], "clicked_states": ["28", "10"], "num_clicks_accrued": [0, 0, 0, 0, 0, 0, 0, 0, 0, 0, 0, 0, 0], "stateRewards": ["", -2, -1, -2, -15, 87, 57, 29, -10, 77, -80, -7, 1, -3, 6, 14, -11, 87, -59, 4, -71, 16, -11, 2, 2, -7, 2, -47, 61, 50, 14, -20, 17, 81], "withholdReward": false, "trial_id": "mdp_trial_15", "block": "test", "trialIndex": 16, "score": 57.2, "costs": -2.8, "simulationMode": [null, null, null, null, null], "rewards": [2, 2, -7, 2, 61], "path": ["0", "0", "23", "24", "25", "26", "28"], "rt": [5343, 97, 38, 257, 66], "actions": ["left", "left", "left", "up", "right"], "actionTimes": [20888, 21488, 22028, 22793, 23363], "queries": {"click": {"state": {"target": ["28", "10"], "time": [16569, 18631]}, "edge": {"target": [], "time": []}}, "mouseover": {"state": {"target": ["0", "24", "28", "10"], "time": [15614, 16201, 16401, 17668]}, "edge": {"target": [], "time": []}}, "mouseout": {"state": {"target": ["29", "0", "24", "28", "28", "10", "0"], "time": [1765, 15959, 16253, 16759, 16932, 24457, 24551]}, "edge": {"target": [], "time": []}}}, "displayed_time": "29.55", "trialTime": 30713, "trial_type": "mouselab-mdp", "trial_index": 23, "time_elapsed": 723929, "internal_node_id": "0.0-4.0-1.0-14.0"}}, {"uniqueid": "w53171787:a69421970", "current_trial": 24, "dateTime": 1691071348135, "trialdata": {"revealed_states": [], "clicked_states": ["21", "22", "20"], "num_clicks_accrued": [0, 0, 0, 0, 0, 0, 0, 0, 0, 0, 0, 0, 0], "stateRewards": ["", 1, -3, 4, 13, -72, 52, 5, 5, -58, 5, 14, 2, 1, 3, -14, -86, -4, 73, 6, -58, -50, 49, 2, -3, -4, 2, 33, -41, 42, -11, 81, 45, 53], "withholdReward": false, "trial_id": "mdp_trial_16", "block": "test", "trialIndex": 17, "score": 56.8, "costs": -4.199999999999999, "simulationMode": [null, null, null, null, null], "rewards": [2, 1, 3, 6, 49], "path": ["0", "0", "12", "13", "14", "19", "22"], "rt": [7099, 151, 83, 63, 106], "actions": ["right", "right", "right", "down", "left"], "actionTimes": [8165, 8825, 9409, 9979, 10594], "queries": {"click": {"state": {"target": ["21", "22", "20"], "time": [1981, 4471, 6271]}, "edge": {"target": [], "time": []}}, "mouseover": {"state": {"target": ["22", "21", "22", "19", "20", "17"], "time": [1550, 1802, 2311, 4737, 4898, 6817]}, "edge": {"target": [], "time": []}}, "mouseout": {"state": {"target": ["0", "22", "21", "22", "22", "19", "20", "17", "20"], "time": [1337, 1591, 2163, 4516, 4697, 4764, 6348, 15702, 15943]}, "edge": {"target": [], "time": []}}}, "displayed_time": "15.07", "trialTime": 17809, "trial_type": "mouselab-mdp", "trial_index": 24, "time_elapsed": 741989, "internal_node_id": "0.0-4.0-1.0-15.0"}}, {"uniqueid": "w53171787:a69421970", "current_trial": 25, "dateTime": 1691071365310, "trialdata": {"revealed_states": [], "clicked_states": ["32"], "num_clicks_accrued": [0, 0, 0, 0, 0, 0, 0, 0, 0, 0, 0, 0, 0], "stateRewards": ["", 2, -4, -4, 13, -80, 62, 13, -11, 57, -13, -44, 1, 4, 3, -4, -29, -88, 15, 16, -58, 68, -45, -1, -3, -1, -9, -44, -86, -19, -7, -36, 59, 66], "withholdReward": false, "trial_id": "mdp_trial_17", "block": "test", "trialIndex": 18, "score": 45.6, "costs": -1.4, "simulationMode": [null, null, null, null, null], "rewards": [-1, -3, -1, -7, 59], "path": ["0", "0", "23", "24", "25", "30", "32"], "rt": [3562, 50, 3, 321, 18], "actions": ["left", "left", "left", "down", "down"], "actionTimes": [4525, 5079, 5592, 6430, 6954], "queries": {"click": {"state": {"target": ["32"], "time": [1713]}, "edge": {"target": [], "time": []}}, "mouseover": {"state": {"target": ["31", "32", "31"], "time": [1292, 1559, 2025]}, "edge": {"target": [], "time": []}}, "mouseout": {"state": {"target": ["0", "31", "32", "31"], "time": [1053, 1332, 1932, 3973]}, "edge": {"target": [], "time": []}}}, "displayed_time": "14.97", "trialTime": 16959, "trial_type": "mouselab-mdp", "trial_index": 25, "time_elapsed": 759164, "internal_node_id": "0.0-4.0-1.0-16.0"}}, {"uniqueid": "w53171787:a69421970", "current_trial": 26, "dateTime": 1691071381256, "trialdata": {"revealed_states": [], "clicked_states": ["21", "22", "20"], "num_clicks_accrued": [0, 0, 0, 0, 0, 0, 0, 0, 0, 0, 0, 0, 0], "stateRewards": ["", 1, 1, -3, 2, 22, -25, -11, -5, 50, 49, 3, 1, -1, 8, 14, -85, -30, 57, -6, -39, -16, 59, -2, -1, 5, 5, 59, -16, 8, 4, 67, 56, -9], "withholdReward": false, "trial_id": "mdp_trial_18", "block": "test", "trialIndex": 19, "score": 56.8, "costs": -4.199999999999999, "simulationMode": [null, null, null, null, null], "rewards": [1, -1, 8, -6, 59], "path": ["0", "0", "12", "13", "14", "19", "22"], "rt": [6352, 116, 62, 26, 49], "actions": ["right", "right", "right", "down", "left"], "actionTimes": [7299, 7924, 8497, 9034, 9603], "queries": {"click": {"state": {"target": ["21", "22", "20"], "time": [1778, 3589, 5423]}, "edge": {"target": [], "time": []}}, "mouseover": {"state": {"target": ["22", "21", "22", "19", "20", "20"], "time": [1348, 1576, 2137, 3857, 3923, 4124]}, "edge": {"target": [], "time": []}}, "mouseout": {"state": {"target": ["0", "22", "21", "22", "19", "20", "20"], "time": [1258, 1365, 1989, 3844, 3896, 3950, 5980]}, "edge": {"target": [], "time": []}}}, "displayed_time": "14.95", "trialTime": 15633, "trial_type": "mouselab-mdp", "trial_index": 26, "time_elapsed": 775109, "internal_node_id": "0.0-4.0-1.0-17.0"}}, {"uniqueid": "w53171787:a69421970", "current_trial": 27, "dateTime": 1691071409688, "trialdata": {"revealed_states": [], "clicked_states": ["32", "31", "33"], "num_clicks_accrued": [0, 0, 0, 0, 0, 0, 0, 0, 0, 0, 0, 0, 0], "stateRewards": ["", -1, 2, 5, -6, 13, -64, -47, 8, -79, -80, -33, 1, 2, -2, -16, 56, -71, -10, 3, 29, 44, 85, -1, 4, 5, 4, -36, -56, 19, 8, 52, -13, -2], "withholdReward": false, "trial_id": "mdp_trial_19", "block": "test", "trialIndex": 20, "score": 63.8, "costs": -4.199999999999999, "simulationMode": [null, null, null, null, null], "rewards": [-1, 4, 5, 8, 52], "path": ["0", "0", "23", "24", "25", "30", "31"], "rt": [6351, 95, 65, 32, 86], "actions": ["left", "left", "left", "down", "right"], "actionTimes": [7523, 8123, 8693, 9233, 9833], "queries": {"click": {"state": {"target": ["32", "31", "33"], "time": [1862, 3661, 5687]}, "edge": {"target": [], "time": []}}, "mouseover": {"state": {"target": ["32", "31", "30", "33", "33"], "time": [1702, 2275, 3863, 3930, 4169]}, "edge": {"target": [], "time": []}}, "mouseout": {"state": {"target": ["0", "32", "31", "30", "33", "33", "30"], "time": [1369, 2102, 3837, 3904, 4010, 27273, 27287]}, "edge": {"target": [], "time": []}}}, "displayed_time": "15.18", "trialTime": 28184, "trial_type": "mouselab-mdp", "trial_index": 27, "time_elapsed": 803541, "internal_node_id": "0.0-4.0-1.0-18.0"}}, {"uniqueid": "w53171787:a69421970", "current_trial": 28, "dateTime": 1691071434132, "trialdata": {"revealed_states": [], "clicked_states": ["31", "32", "33"], "num_clicks_accrued": [0, 0, 0, 0, 0, 0, 0, 0, 0, 0, 0, 0, 0], "stateRewards": ["", -2, -3, -6, -7, 9, 16, 65, 5, -41, 20, -25, -1, -4, 1, -11, -49, -4, 71, 1, 39, -62, 52, -2, -3, 7, -9, -28, -70, 84, 8, 24, -58, 82], "withholdReward": false, "trial_id": "mdp_trial_20", "block": "test", "trialIndex": 21, "score": 87.8, "costs": -4.199999999999999, "simulationMode": [null, null, null, null, null], "rewards": [-2, -3, 7, 8, 82], "path": ["0", "0", "23", "24", "25", "30", "33"], "rt": [7368, 139, 71, 23, 73], "actions": ["left", "left", "left", "down", "left"], "actionTimes": [8484, 9128, 9714, 10239, 10823], "queries": {"click": {"state": {"target": ["31", "32", "33"], "time": [2084, 3861, 5717]}, "edge": {"target": [], "time": []}}, "mouseover": {"state": {"target": ["0", "31", "32", "33", "33", "29"], "time": [1424, 1864, 2519, 4347, 4612, 6480]}, "edge": {"target": [], "time": []}}, "mouseout": {"state": {"target": ["0", "0", "31", "32", "33", "33", "29", "25", "31"], "time": [1228, 1587, 2281, 4308, 4399, 5988, 21910, 21948, 21995]}, "edge": {"target": [], "time": []}}}, "displayed_time": "15.13", "trialTime": 24219, "trial_type": "mouselab-mdp", "trial_index": 28, "time_elapsed": 827986, "internal_node_id": "0.0-4.0-1.0-19.0"}}, {"uniqueid": "w53171787:a69421970", "current_trial": 29, "dateTime": 1691071454988, "trialdata": {"revealed_states": [], "clicked_states": ["31", "32", "33", "29", "27"], "num_clicks_accrued": [0, 0, 0, 0, 0, 0, 0, 0, 0, 0, 0, 0, 0], "stateRewards": ["", 1, -4, 6, -3, 40, 76, -51, 5, -24, -63, 44, -2, -2, 8, 1, 76, -85, -58, 10, 59, 20, 11, -2, 3, -3, 3, -82, -10, 54, -7, -57, -6, -32], "withholdReward": false, "trial_id": "mdp_trial_21", "block": "test", "trialIndex": 22, "score": 48, "costs": -7, "simulationMode": [null, null, null, null, null], "rewards": [-2, 3, -3, 3, 54], "path": ["0", "0", "23", "24", "25", "26", "29"], "rt": [9725, 67, 175, 74, 71], "actions": ["left", "left", "left", "up", "left"], "actionTimes": [11532, 12101, 12781, 13361, 13931], "queries": {"click": {"state": {"target": ["31", "32", "33", "29", "27"], "time": [2528, 4333, 6130, 7931, 9694]}, "edge": {"target": [], "time": []}}, "mouseover": {"state": {"target": ["31", "32", "33", "29", "27"], "time": [2402, 2896, 4788, 6737, 8522]}, "edge": {"target": [], "time": []}}, "mouseout": {"state": {"target": ["0", "31", "32", "33", "29", "27"], "time": [1922, 2746, 4736, 6335, 8138, 10044]}, "edge": {"target": [], "time": []}}}, "displayed_time": "15.81", "trialTime": 20612, "trial_type": "mouselab-mdp", "trial_index": 29, "time_elapsed": 848842, "internal_node_id": "0.0-4.0-1.0-20.0"}}, {"uniqueid": "w53171787:a69421970", "current_trial": 30, "dateTime": 1691071471242, "trialdata": {"revealed_states": [], "clicked_states": ["22", "21"], "num_clicks_accrued": [0, 0, 0, 0, 0, 0, 0, 0, 0, 0, 0, 0, 0], "stateRewards": ["", -1, 1, 3, -8, -23, -15, -14, -11, -23, 58, 68, 1, 3, 5, 12, -17, -41, -7, -10, -4, 82, 10, 1, 4, -4, 11, 73, 55, -55, -1, -86, -86, 54], "withholdReward": false, "trial_id": "mdp_trial_22", "block": "test", "trialIndex": 23, "score": 78.2, "costs": -2.8, "simulationMode": [null, null, null, null, null], "rewards": [1, 3, 5, -10, 82], "path": ["0", "0", "12", "13", "14", "19", "21"], "rt": [5120, 49, 14, 514, 128], "actions": ["right", "right", "right", "down", "down"], "actionTimes": [6401, 6955, 7480, 8500, 9131], "queries": {"click": {"state": {"target": ["22", "21"], "time": [1819, 3675]}, "edge": {"target": [], "time": []}}, "mouseover": {"state": {"target": ["22", "21", "20", "20"], "time": [1568, 2062, 4143, 4396]}, "edge": {"target": [], "time": []}}, "mouseout": {"state": {"target": ["23", "0", "22", "21", "20"], "time": [234, 1450, 2009, 4050, 4171]}, "edge": {"target": [], "time": []}}}, "displayed_time": "15.28", "trialTime": 15985, "trial_type": "mouselab-mdp", "trial_index": 30, "time_elapsed": 865096, "internal_node_id": "0.0-4.0-1.0-21.0"}}, {"uniqueid": "w53171787:a69421970", "current_trial": 31, "dateTime": 1691071494872, "trialdata": {"revealed_states": [], "clicked_states": ["7", "6", "5", "9"], "num_clicks_accrued": [0, 0, 0, 0, 0, 0, 0, 0, 0, 0, 0, 0, 0], "stateRewards": ["", 2, 3, 6, -5, -74, -53, 17, -12, 46, 44, 18, -2, 4, 1, -8, 22, -23, -49, 9, -45, 55, 81, 1, -1, -7, -16, -83, -71, -45, 2, 51, 82, 61], "withholdReward": false, "trial_id": "mdp_trial_23", "block": "test", "trialIndex": 24, "score": 39.4, "costs": -5.6, "simulationMode": [null, null, null, null, null], "rewards": [2, 3, 6, -12, 46], "path": ["0", "0", "1", "2", "3", "8", "9"], "rt": [10017, 98, 65, 4, 70], "actions": ["up", "up", "up", "left", "up"], "actionTimes": [12003, 12618, 13187, 13698, 14283], "queries": {"click": {"state": {"target": ["7", "6", "5", "9"], "time": [3506, 5621, 7533, 9314]}, "edge": {"target": [], "time": []}}, "mouseover": {"state": {"target": ["1", "7", "6", "16", "16", "5", "9", "11"], "time": [2513, 3379, 5155, 5890, 6274, 6541, 7915, 9703]}, "edge": {"target": [], "time": []}}, "mouseout": {"state": {"target": ["20", "19", "22", "0", "1", "7", "7", "6", "16", "16", "6", "5", "9", "11", "8", "0"], "time": [1166, 1204, 1232, 2314, 2806, 3715, 4622, 5888, 5901, 6355, 6461, 7809, 9653, 22167, 22293, 22844]}, "edge": {"target": [], "time": []}}}, "displayed_time": "15.99", "trialTime": 23392, "trial_type": "mouselab-mdp", "trial_index": 31, "time_elapsed": 888725, "internal_node_id": "0.0-4.0-1.0-22.0"}}, {"uniqueid": "w53171787:a69421970", "current_trial": 32, "dateTime": 1691071516607, "trialdata": {"revealed_states": [], "clicked_states": ["31", "32"], "num_clicks_accrued": [0, 0, 0, 0, 0, 0, 0, 0, 0, 0, 0, 0, 0], "stateRewards": ["", -2, 2, -2, -7, -50, -62, -45, 7, 36, -24, -72, -1, -1, 8, -1, -67, 20, -52, 2, 35, -50, 80, -1, 1, 6, -6, -70, 6, 88, 8, -47, 74, -19], "withholdReward": false, "trial_id": "mdp_trial_24", "block": "test", "trialIndex": 25, "score": 85.2, "costs": -2.8, "simulationMode": [null, null, null, null, null], "rewards": [-1, 1, 6, 8, 74], "path": ["0", "0", "23", "24", "25", "30", "32"], "rt": [5550, 70, 65, 48, 69], "actions": ["left", "left", "left", "down", "down"], "actionTimes": [12343, 12922, 13492, 14047, 14617], "queries": {"click": {"state": {"target": ["31", "32"], "time": [7512, 9345]}, "edge": {"target": [], "time": []}}, "mouseover": {"state": {"target": ["31", "32", "33"], "time": [7314, 8022, 9717]}, "edge": {"target": [], "time": []}}, "mouseout": {"state": {"target": ["12", "22", "22", "0", "31", "32", "33"], "time": [365, 5033, 5795, 6969, 7837, 9662, 21343]}, "edge": {"target": [], "time": []}}}, "displayed_time": "20.80", "trialTime": 21476, "trial_type": "mouselab-mdp", "trial_index": 32, "time_elapsed": 910461, "internal_node_id": "0.0-4.0-1.0-23.0"}}, {"uniqueid": "w53171787:a69421970", "current_trial": 33, "dateTime": 1691071555829, "trialdata": {"revealed_states": [], "clicked_states": ["21", "20"], "num_clicks_accrued": [0, 0, 0, 0, 0, 0, 0, 0, 0, 0, 0, 0, 0], "stateRewards": ["", -1, -3, -3, 1, -38, 2, -53, -2, -1, -81, 70, -1, 1, -5, -9, 46, 15, 35, -1, -22, 38, 59, -2, 4, -8, 13, 1, -83, -43, 4, 76, 13, 48], "withholdReward": false, "trial_id": "mdp_trial_25", "block": "test", "trialIndex": 26, "score": 29.2, "costs": -2.8, "simulationMode": [null, null, null, null, null], "rewards": [-1, 1, -5, -1, 38], "path": ["0", "0", "12", "13", "14", "19", "21"], "rt": [4970, 19, 579, 84, 96], "actions": ["right", "right", "right", "down", "down"], "actionTimes": [6224, 6748, 7830, 8415, 9014], "queries": {"click": {"state": {"target": ["21", "20"], "time": [2189, 4320]}, "edge": {"target": [], "time": []}}, "mouseover": {"state": {"target": ["21", "20", "19", "20", "20"], "time": [2020, 2458, 3472, 3552, 3979]}, "edge": {"target": [], "time": []}}, "mouseout": {"state": {"target": ["0", "21", "20", "19", "20", "20"], "time": [1445, 2243, 3167, 3539, 3634, 4555]}, "edge": {"target": [], "time": []}}}, "displayed_time": "15.26", "trialTime": 38954, "trial_type": "mouselab-mdp", "trial_index": 33, "time_elapsed": 949682, "internal_node_id": "0.0-4.0-1.0-24.0"}}, {"uniqueid": "w53171787:a69421970", "current_trial": 34, "dateTime": 1691071583546, "trialdata": {"revealed_states": [], "clicked_states": ["22", "21", "20", "17", "18", "16", "7", "6", "5", "9"], "num_clicks_accrued": [0, 0, 0, 0, 0, 0, 0, 0, 0, 0, 0, 0, 0], "stateRewards": ["", 1, -4, -6, -1, -21, 17, -72, 10, 77, 67, -46, -1, 4, -2, 14, -66, -49, -45, -15, -52, 23, -67, 2, -2, -2, 15, -3, 45, -64, 5, -44, 83, 61], "withholdReward": false, "trial_id": "mdp_trial_26", "block": "test", "trialIndex": 27, "score": 64, "costs": -14.000000000000002, "simulationMode": [null, null, null, null, null], "rewards": [1, -4, -6, 10, 77], "path": ["0", "0", "1", "2", "3", "8", "9"], "rt": [21377, 47, 89, 55, 96], "actions": ["up", "up", "up", "left", "up"], "actionTimes": [22716, 23264, 23862, 24416, 25015], "queries": {"click": {"state": {"target": ["22", "21", "20", "17", "18", "16", "7", "6", "5", "9"], "time": [2618, 4462, 6261, 8062, 9839, 11651, 13630, 15430, 18153, 20130]}, "edge": {"target": [], "time": []}}, "mouseover": {"state": {"target": ["21", "19", "22", "21", "20", "20", "17", "15", "18", "16", "15", "13", "12", "7", "1", "6", "5", "9", "8", "11"], "time": [2055, 2241, 2348, 2855, 4869, 5070, 6750, 8538, 8580, 10459, 11980, 12085, 12620, 13206, 14314, 14874, 15808, 19408, 20446, 20792]}, "edge": {"target": [], "time": []}}, "mouseout": {"state": {"target": ["0", "21", "19", "22", "21", "20", "20", "17", "15", "18", "16", "15", "13", "12", "7", "1", "6", "5", "9", "8"], "time": [1358, 2188, 2268, 2801, 4669, 4883, 6511, 8499, 8578, 10085, 11953, 12006, 12128, 12674, 13846, 14366, 15675, 18662, 20419, 20526]}, "edge": {"target": [], "time": []}}}, "displayed_time": "25.52", "trialTime": 27396, "trial_type": "mouselab-mdp", "trial_index": 34, "time_elapsed": 977400, "internal_node_id": "0.0-4.0-1.0-25.0"}}, {"uniqueid": "w53171787:a69421970", "current_trial": 35, "dateTime": 1691071601592, "trialdata": {"revealed_states": [], "clicked_states": ["31", "32", "33", "29"], "num_clicks_accrued": [0, 0, 0, 0, 0, 0, 0, 0, 0, 0, 0, 0, 0], "stateRewards": ["", 1, 4, 5, 8, -55, -11, 8, 16, -37, 77, -22, -2, 3, -8, -10, 45, 87, -67, 4, 17, -33, -22, -1, -3, 7, 6, -39, -85, 75, -1, 7, -48, 45], "withholdReward": false, "trial_id": "mdp_trial_27", "block": "test", "trialIndex": 28, "score": 78.4, "costs": -5.6, "simulationMode": [null, null, null, null, null], "rewards": [-1, -3, 7, 6, 75], "path": ["0", "0", "23", "24", "25", "26", "29"], "rt": [9824, 46, 54, 308, 15], "actions": ["left", "left", "left", "up", "left"], "actionTimes": [11397, 11952, 12506, 13320, 13840], "queries": {"click": {"state": {"target": ["31", "32", "33", "29"], "time": [2614, 4449, 6682, 8648]}, "edge": {"target": [], "time": []}}, "mouseover": {"state": {"target": ["23", "24", "25", "30", "31", "32", "32", "33", "29", "27"], "time": [1778, 1884, 1950, 2084, 2258, 2908, 3231, 6242, 7052, 9438]}, "edge": {"target": [], "time": []}}, "mouseout": {"state": {"target": ["11", "10", "1", "0", "23", "24", "25", "30", "31", "32", "32", "33", "29", "27", "26", "24"], "time": [724, 834, 1016, 1712, 1858, 1923, 2003, 2190, 2842, 3015, 4987, 6893, 9080, 16867, 16891, 16943]}, "edge": {"target": [], "time": []}}}, "displayed_time": "15.58", "trialTime": 17786, "trial_type": "mouselab-mdp", "trial_index": 35, "time_elapsed": 995446, "internal_node_id": "0.0-4.0-1.0-26.0"}}, {"uniqueid": "w53171787:a69421970", "current_trial": 36, "dateTime": 1691071617439, "trialdata": {"revealed_states": [], "clicked_states": ["31", "21", "22"], "num_clicks_accrued": [0, 0, 0, 0, 0, 0, 0, 0, 0, 0, 0, 0, 0], "stateRewards": ["", -2, -1, -4, -15, -14, -67, 32, -3, -59, 63, 31, 2, -1, -7, -15, 71, -66, -27, -3, -54, -39, 72, 2, 1, 1, -13, 77, -40, 35, -9, 35, 75, 57], "withholdReward": false, "trial_id": "mdp_trial_28", "block": "test", "trialIndex": 29, "score": 58.8, "costs": -4.199999999999999, "simulationMode": [null, null, null, null, null], "rewards": [2, -1, -7, -3, 72], "path": ["0", "0", "12", "13", "14", "19", "22"], "rt": [7992, 74, 100, 40, 19], "actions": ["right", "right", "right", "down", "left"], "actionTimes": [9001, 9585, 10185, 10725, 11250], "queries": {"click": {"state": {"target": ["31", "21", "22"], "time": [1777, 4195, 6354]}, "edge": {"target": [], "time": []}}, "mouseover": {"state": {"target": ["31", "32", "21", "22"], "time": [1615, 2084, 3833, 6175]}, "edge": {"target": [], "time": []}}, "mouseout": {"state": {"target": ["0", "31", "32", "21", "21", "21", "22"], "time": [1295, 1990, 3028, 4431, 4802, 5376, 6642]}, "edge": {"target": [], "time": []}}}, "displayed_time": "15.01", "trialTime": 15599, "trial_type": "mouselab-mdp", "trial_index": 36, "time_elapsed": 1011293, "internal_node_id": "0.0-4.0-1.0-27.0"}}, {"uniqueid": "w53171787:a69421970", "current_trial": 37, "dateTime": 1691071638093, "trialdata": {"revealed_states": [], "clicked_states": ["31", "28", "29"], "num_clicks_accrued": [0, 0, 0, 0, 0, 0, 0, 0, 0, 0, 0, 0, 0], "stateRewards": ["", 1, 1, -7, -9, -44, 24, -83, -15, 44, -24, 72, -2, -3, 4, -5, 57, 55, 29, -11, 22, 12, -25, -1, 2, 7, 12, 33, -8, 47, -4, 8, 50, -4], "withholdReward": false, "trial_id": "mdp_trial_29", "block": "test", "trialIndex": 30, "score": 62.8, "costs": -4.199999999999999, "simulationMode": [null, null, null, null, null], "rewards": [-1, 2, 7, 12, 47], "path": ["0", "0", "23", "24", "25", "26", "29"], "rt": [7427, 62, 90, 61, 41], "actions": ["left", "left", "left", "up", "left"], "actionTimes": [12693, 13261, 13861, 14433, 14974], "queries": {"click": {"state": {"target": ["31", "28", "29"], "time": [5948, 7938, 9918]}, "edge": {"target": [], "time": []}}, "mouseover": {"state": {"target": ["0", "31", "24", "28", "25", "29", "27"], "time": [5371, 5836, 6250, 6528, 8409, 8556, 10397]}, "edge": {"target": [], "time": []}}, "mouseout": {"state": {"target": ["0", "0", "31", "24", "28", "25", "29"], "time": [5008, 5449, 6196, 6290, 8319, 8489, 10223]}, "edge": {"target": [], "time": []}}}, "displayed_time": "19.27", "trialTime": 20402, "trial_type": "mouselab-mdp", "trial_index": 37, "time_elapsed": 1031946, "internal_node_id": "0.0-4.0-1.0-28.0"}}, {"uniqueid": "w53171787:a69421970", "current_trial": 38, "dateTime": 1691071665362, "trialdata": {"revealed_states": [], "clicked_states": ["9", "5", "6", "7", "10", "11", "27"], "num_clicks_accrued": [0, 0, 0, 0, 0, 0, 0, 0, 0, 0, 0, 0, 0], "stateRewards": ["", -1, -4, -3, 1, -45, -67, -24, 14, 32, 22, 22, -1, 1, -5, -7, 72, 84, -79, -5, 19, -40, -2, -1, -2, 8, -3, 84, -25, -28, 11, 64, -66, 77], "withholdReward": false, "trial_id": "mdp_trial_30", "block": "test", "trialIndex": 31, "score": 76.2, "costs": -9.8, "simulationMode": [null, null, null, null, null], "rewards": [-1, -2, 8, -3, 84], "path": ["0", "0", "23", "24", "25", "26", "27"], "rt": [16868, 125, 90, 54, 17], "actions": ["left", "left", "left", "up", "up"], "actionTimes": [20794, 21422, 22013, 22577, 23101], "queries": {"click": {"state": {"target": ["9", "5", "6", "7", "10", "11", "27"], "time": [4615, 7799, 9689, 11483, 13323, 15246, 17857]}, "edge": {"target": [], "time": []}}, "mouseover": {"state": {"target": ["1", "2", "3", "9", "5", "5", "6", "7", "2", "10", "10", "11", "27", "28", "28"], "time": [4009, 4076, 4128, 4421, 4928, 7423, 8158, 10037, 11812, 11851, 12132, 13905, 17361, 18215, 18455]}, "edge": {"target": [], "time": []}}, "mouseout": {"state": {"target": ["27", "28", "23", "0", "1", "2", "3", "9", "5", "5", "6", "7", "2", "10", "10", "11", "27", "28"], "time": [2848, 2880, 3381, 3968, 4048, 4104, 4209, 4862, 6850, 8050, 9959, 11786, 11841, 11905, 13612, 16533, 18175, 18269]}, "edge": {"target": [], "time": []}}}, "displayed_time": "23.62", "trialTime": 26957, "trial_type": "mouselab-mdp", "trial_index": 38, "time_elapsed": 1059216, "internal_node_id": "0.0-4.0-1.0-29.0"}}, {"uniqueid": "w53171787:a69421970", "current_trial": 39, "dateTime": 1691071726355, "trialdata": {"revealed_states": [], "clicked_states": ["17", "16", "18", "20"], "num_clicks_accrued": [0, 0, 0, 0, 0, 0, 0, 0, 0, 0, 0, 0, 0], "stateRewards": ["", 2, 4, 7, -6, -76, -81, 2, 5, -66, -3, 36, -2, -4, 6, -2, -69, 4, -49, -6, 67, 38, -67, 2, 1, 1, 6, -68, -21, 52, -16, -16, 6, -70], "withholdReward": false, "trial_id": "mdp_trial_31", "block": "test", "trialIndex": 32, "score": 55.4, "costs": -5.6, "simulationMode": [null, null, null, null, null], "rewards": [-2, -4, 6, -6, 67], "path": ["0", "0", "12", "13", "14", "19", "20"], "rt": [10133, 115, 44, 95, 66], "actions": ["right", "right", "right", "down", "right"], "actionTimes": [54289, 54902, 55447, 56056, 56628], "queries": {"click": {"state": {"target": ["17", "16", "18", "20"], "time": [45409, 47213, 49058, 51533]}, "edge": {"target": [], "time": []}}, "mouseover": {"state": {"target": ["12", "15", "17", "16", "15", "18", "14", "15", "15", "20", "21"], "time": [44835, 44969, 45301, 45755, 47531, 47822, 49303, 49652, 50037, 51374, 52947]}, "edge": {"target": [], "time": []}}, "mouseout": {"state": {"target": ["28", "27", "0", "12", "15", "17", "16", "15", "18", "14", "15", "16", "15", "20", "21", "13", "18", "15", "17", "20"], "time": [23905, 23933, 44291, 44891, 45116, 45622, 47476, 47731, 49264, 49357, 49691, 50011, 50077, 52158, 53682, 57882, 58203, 58297, 58348, 58708]}, "edge": {"target": [], "time": []}}}, "displayed_time": "58.16", "trialTime": 60693, "trial_type": "mouselab-mdp", "trial_index": 39, "time_elapsed": 1120208, "internal_node_id": "0.0-4.0-1.0-30.0"}}, {"uniqueid": "w53171787:a69421970", "current_trial": 40, "dateTime": 1691071742569, "trialdata": {"revealed_states": [], "clicked_states": ["11", "9"], "num_clicks_accrued": [0, 0, 0, 0, 0, 0, 0, 0, 0, 0, 0, 0, 0], "stateRewards": ["", -2, 2, 8, -6, -25, 3, 87, 2, -62, -2, 74, -2, -1, 2, -1, 79, 49, -37, -14, 5, 67, -9, -1, 2, -2, 5, 15, 38, 32, -14, -38, -38, 30], "withholdReward": false, "trial_id": "mdp_trial_32", "block": "test", "trialIndex": 33, "score": 81.2, "costs": -2.8, "simulationMode": [null, null, null, null, null], "rewards": [-2, 2, 8, 2, 74], "path": ["0", "0", "1", "2", "3", "8", "11"], "rt": [4500, 16, 39, 288, 86], "actions": ["up", "up", "up", "left", "left"], "actionTimes": [5564, 6088, 6644, 7439, 8024], "queries": {"click": {"state": {"target": ["11", "9"], "time": [1956, 3758]}, "edge": {"target": [], "time": []}}, "mouseover": {"state": {"target": ["1", "10", "8", "8", "11", "10", "10", "8", "9"], "time": [1281, 1427, 1507, 1695, 1786, 2466, 3083, 3147, 3283]}, "edge": {"target": [], "time": []}}, "mouseout": {"state": {"target": ["0", "1", "10", "8", "8", "11", "10", "10", "8", "9", "8", "10"], "time": [1235, 1322, 1481, 1642, 1707, 2200, 2628, 3121, 3241, 9144, 9204, 9931]}, "edge": {"target": [], "time": []}}}, "displayed_time": "15.07", "trialTime": 15958, "trial_type": "mouselab-mdp", "trial_index": 40, "time_elapsed": 1136422, "internal_node_id": "0.0-4.0-1.0-31.0"}}, {"uniqueid": "w53171787:a69421970", "current_trial": 41, "dateTime": 1691071759100, "trialdata": {"revealed_states": [], "clicked_states": ["5", "6", "7", "10", "11"], "num_clicks_accrued": [0, 0, 0, 0, 0, 0, 0, 0, 0, 0, 0, 0, 0], "stateRewards": ["", -1, -3, 1, -4, -48, -63, -49, -2, -84, -19, 65, 2, -2, -2, -12, -4, 59, 9, 6, 75, 69, -13, -1, -3, -3, -2, -37, -68, -36, 13, 32, 18, -14], "withholdReward": false, "trial_id": "mdp_trial_33", "block": "test", "trialIndex": 34, "score": 53, "costs": -7, "simulationMode": [null, null, null, null, null], "rewards": [-1, -3, 1, -2, 65], "path": ["0", "0", "1", "2", "3", "8", "11"], "rt": [11458, 102, 105, 92, 107], "actions": ["up", "up", "up", "left", "left"], "actionTimes": [12589, 13204, 13819, 14420, 15034], "queries": {"click": {"state": {"target": ["5", "6", "7", "10", "11"], "time": [1742, 4104, 6016, 7994, 9876]}, "edge": {"target": [], "time": []}}, "mouseover": {"state": {"target": ["1", "5", "3", "2", "7", "18", "15", "17", "6", "7", "7", "1", "10", "8", "9", "11", "9"], "time": [1282, 1589, 2055, 2187, 2361, 2615, 2761, 2881, 3965, 4576, 5136, 6390, 6910, 8353, 8686, 9244, 10178]}, "edge": {"target": [], "time": []}}, "mouseout": {"state": {"target": ["10", "1", "0", "0", "1", "5", "3", "2", "7", "18", "15", "17", "6", "7", "7", "1", "10", "8", "9", "11"], "time": [268, 336, 454, 1254, 1310, 2001, 2123, 2336, 2549, 2655, 2829, 3482, 4415, 4696, 6310, 6430, 8297, 8578, 9138, 10086]}, "edge": {"target": [], "time": []}}}, "displayed_time": "15.54", "trialTime": 16309, "trial_type": "mouselab-mdp", "trial_index": 41, "time_elapsed": 1152953, "internal_node_id": "0.0-4.0-1.0-32.0"}}, {"uniqueid": "w53171787:a69421970", "current_trial": 42, "dateTime": 1691071783400, "trialdata": {"revealed_states": [], "clicked_states": ["9", "5", "6", "7", "10", "11", "27", "29", "33"], "num_clicks_accrued": [0, 0, 0, 0, 0, 0, 0, 0, 0, 0, 0, 0, 0], "stateRewards": ["", -1, 4, -5, 9, 29, -75, -42, -16, 24, -28, -41, 2, -3, 1, 10, 60, 47, 55, -1, -53, 22, -40, 2, -3, -6, 4, -26, 44, 54, 15, -76, 42, 14], "withholdReward": false, "trial_id": "mdp_trial_34", "block": "test", "trialIndex": 35, "score": 38.4, "costs": -12.600000000000001, "simulationMode": [null, null, null, null, null], "rewards": [2, -3, -6, 4, 54], "path": ["0", "0", "23", "24", "25", "26", "29"], "rt": [19342, 100, 54, 95, 3], "actions": ["left", "left", "left", "up", "left"], "actionTimes": [20259, 20875, 21430, 22030, 22540], "queries": {"click": {"state": {"target": ["9", "5", "6", "7", "10", "11", "27", "29", "33"], "time": [1692, 3706, 5729, 7643, 9657, 11479, 13550, 15732, 18069]}, "edge": {"target": [], "time": []}}, "mouseover": {"state": {"target": ["10", "8", "9", "4", "5", "4", "2", "10", "4", "6", "7", "2", "10", "11", "27", "28", "26", "29", "33"], "time": [1259, 1341, 1419, 2180, 2632, 3981, 4286, 4353, 4794, 5234, 6114, 9225, 9264, 10156, 13118, 13945, 15440, 15478, 17094]}, "edge": {"target": [], "time": []}}, "mouseout": {"state": {"target": ["8", "10", "8", "9", "4", "5", "4", "2", "10", "4", "6", "7", "7", "2", "10", "11", "27", "28", "26", "29", "33", "30"], "time": [13, 1315, 1406, 1940, 2528, 3953, 4034, 4327, 4716, 4861, 6008, 7739, 7944, 9236, 9735, 11930, 13894, 15414, 15467, 16558, 19014, 23912]}, "edge": {"target": [], "time": []}}}, "displayed_time": "23.06", "trialTime": 24101, "trial_type": "mouselab-mdp", "trial_index": 42, "time_elapsed": 1177254, "internal_node_id": "0.0-4.0-1.0-33.0"}}, {"uniqueid": "w53171787:a69421970", "current_trial": 43, "dateTime": 1691071799255, "trialdata": {"revealed_states": [], "clicked_states": ["22", "21", "20"], "num_clicks_accrued": [0, 0, 0, 0, 0, 0, 0, 0, 0, 0, 0, 0, 0], "stateRewards": ["", -1, 3, 1, -7, 56, 76, 57, 3, 11, -9, 14, 1, -2, 2, 8, -77, -3, 79, -5, 88, 24, -66, -2, -1, 7, -7, -30, 14, -76, 11, -36, 28, -6], "withholdReward": false, "trial_id": "mdp_trial_35", "block": "test", "trialIndex": 36, "score": 79.8, "costs": -4.199999999999999, "simulationMode": [null, null, null, null, null], "rewards": [1, -2, 2, -5, 88], "path": ["0", "0", "12", "13", "14", "19", "20"], "rt": [8567, 98, 97, 354, 129], "actions": ["right", "right", "right", "down", "right"], "actionTimes": [9443, 10043, 10643, 11499, 12128], "queries": {"click": {"state": {"target": ["22", "21", "20"], "time": [2159, 4476, 6501]}, "edge": {"target": [], "time": []}}, "mouseover": {"state": {"target": ["0", "23", "22", "22", "20", "17", "21", "20", "20"], "time": [1195, 1261, 1648, 2020, 2927, 3594, 4062, 4768, 5181]}, "edge": {"target": [], "time": []}}, "mouseout": {"state": {"target": ["0", "0", "23", "22", "22", "20", "17", "21", "20", "20", "20"], "time": [1020, 1234, 1341, 1659, 2353, 3074, 3942, 4700, 4781, 8063, 13336]}, "edge": {"target": [], "time": []}}}, "displayed_time": "14.88", "trialTime": 15639, "trial_type": "mouselab-mdp", "trial_index": 43, "time_elapsed": 1193109, "internal_node_id": "0.0-4.0-1.0-34.0"}}, {"uniqueid": "w53171787:a69421970", "current_trial": 44, "dateTime": 1691071819926, "trialdata": {"revealed_states": [], "clicked_states": ["16", "17", "20"], "num_clicks_accrued": [0, 0, 0, 0, 0, 0, 0, 0, 0, 0, 0, 0, 0], "stateRewards": ["", -2, 1, -8, 12, -65, -79, 16, 7, -80, -17, -45, -2, 2, -5, -2, -85, 23, -4, -7, 48, 27, -76, 2, 3, 5, 2, 43, 71, -13, 7, -49, 59, -31], "withholdReward": false, "trial_id": "mdp_trial_36", "block": "test", "trialIndex": 37, "score": 31.8, "costs": -4.199999999999999, "simulationMode": [null, null, null, null, null], "rewards": [-2, 2, -5, -7, 48], "path": ["0", "0", "12", "13", "14", "19", "20"], "rt": [7431, 142, 123, 43, 30], "actions": ["right", "right", "right", "down", "right"], "actionTimes": [9160, 9803, 10435, 10990, 11530], "queries": {"click": {"state": {"target": ["16", "17", "20"], "time": [2620, 4466, 6424]}, "edge": {"target": [], "time": []}}, "mouseover": {"state": {"target": ["18", "15", "16", "17", "17", "17", "20", "21"], "time": [2189, 2269, 2470, 2909, 3642, 3935, 4938, 6870]}, "edge": {"target": [], "time": []}}, "mouseout": {"state": {"target": ["12", "0", "0", "18", "15", "16", "17", "17", "17", "20", "21", "14"], "time": [502, 989, 1869, 2216, 2280, 2858, 2935, 3695, 4735, 6803, 14076, 18676]}, "edge": {"target": [], "time": []}}}, "displayed_time": "15.73", "trialTime": 20470, "trial_type": "mouselab-mdp", "trial_index": 44, "time_elapsed": 1213779, "internal_node_id": "0.0-4.0-1.0-35.0"}}, {"uniqueid": "w53171787:a69421970", "current_trial": 45, "dateTime": 1691071836845, "trialdata": {"revealed_states": [], "clicked_states": ["16", "18", "22", "21", "20"], "num_clicks_accrued": [0, 0, 0, 0, 0, 0, 0, 0, 0, 0, 0, 0, 0], "stateRewards": ["", 1, 3, 1, -13, 52, -28, 67, -14, 3, 63, -70, -1, -4, 7, -11, -10, 47, -18, 6, 69, -9, -61, 2, 3, -6, 10, 63, -34, 40, -6, -79, -35, -32], "withholdReward": false, "trial_id": "mdp_trial_37", "block": "test", "trialIndex": 38, "score": 70, "costs": -7, "simulationMode": [null, null, null, null, null], "rewards": [-1, -4, 7, 6, 69], "path": ["0", "0", "12", "13", "14", "19", "20"], "rt": [11924, 93, 93, 16, 52], "actions": ["right", "right", "right", "down", "right"], "actionTimes": [13084, 13684, 14284, 14807, 15363], "queries": {"click": {"state": {"target": ["16", "18", "22", "21", "20"], "time": [2850, 4674, 6542, 8375, 10344]}, "edge": {"target": [], "time": []}}, "mouseover": {"state": {"target": ["12", "18", "16", "18", "18", "13", "22", "31", "21", "20", "17"], "time": [2092, 2251, 2736, 3105, 3438, 5267, 5719, 7333, 7935, 8934, 10975]}, "edge": {"target": [], "time": []}}, "mouseout": {"state": {"target": ["0", "12", "18", "16", "18", "18", "13", "22", "31", "21", "20", "17", "14", "22"], "time": [2066, 2185, 2345, 2998, 3172, 5215, 5360, 6879, 7640, 8616, 10588, 16420, 16460, 16501]}, "edge": {"target": [], "time": []}}}, "displayed_time": "15.87", "trialTime": 16684, "trial_type": "mouselab-mdp", "trial_index": 45, "time_elapsed": 1230699, "internal_node_id": "0.0-4.0-1.0-36.0"}}, {"uniqueid": "w53171787:a69421970", "current_trial": 46, "dateTime": 1691071852656, "trialdata": {"revealed_states": [], "clicked_states": ["9", "11", "5"], "num_clicks_accrued": [0, 0, 0, 0, 0, 0, 0, 0, 0, 0, 0, 0, 0], "stateRewards": ["", 1, -1, 8, -3, 38, 85, -20, -4, 8, 23, 73, 2, -4, 6, -13, 44, 7, -28, -11, -77, 45, -69, 1, -1, -7, -11, 75, -51, -87, 7, 36, -53, -26], "withholdReward": false, "trial_id": "mdp_trial_38", "block": "test", "trialIndex": 39, "score": 72.8, "costs": -4.199999999999999, "simulationMode": [null, null, null, null, null], "rewards": [1, -1, 8, -4, 73], "path": ["0", "0", "1", "2", "3", "8", "11"], "rt": [7076, 27, 31, 310, 65], "actions": ["up", "up", "up", "left", "left"], "actionTimes": [8147, 8672, 9211, 10037, 10606], "queries": {"click": {"state": {"target": ["9", "11", "5"], "time": [1881, 4514, 6348]}, "edge": {"target": [], "time": []}}, "mouseover": {"state": {"target": ["10", "8", "9", "11", "10", "4", "5"], "time": [1471, 1578, 1751, 2216, 5150, 5337, 5937]}, "edge": {"target": [], "time": []}}, "mouseout": {"state": {"target": ["0", "10", "8", "9", "11", "10", "4", "5", "5", "4", "7"], "time": [1379, 1524, 1709, 2135, 5002, 5177, 5406, 6410, 11554, 11596, 11621]}, "edge": {"target": [], "time": []}}}, "displayed_time": "15.08", "trialTime": 15571, "trial_type": "mouselab-mdp", "trial_index": 46, "time_elapsed": 1246509, "internal_node_id": "0.0-4.0-1.0-37.0"}}, {"uniqueid": "w53171787:a69421970", "current_trial": 47, "dateTime": 1691071868450, "trialdata": {"revealed_states": [], "clicked_states": ["11", "10"], "num_clicks_accrued": [0, 0, 0, 0, 0, 0, 0, 0, 0, 0, 0, 0, 0], "stateRewards": ["", 2, 3, 3, 10, 19, -21, 6, 9, 54, 68, 16, 2, 2, -6, -8, 40, -2, -75, -2, -42, 55, 59, -1, 2, 4, -14, 11, -34, -30, -6, 61, -53, 13], "withholdReward": false, "trial_id": "mdp_trial_39", "block": "test", "trialIndex": 40, "score": 82.2, "costs": -2.8, "simulationMode": [null, null, null, null, null], "rewards": [2, 3, 3, 9, 68], "path": ["0", "0", "1", "2", "3", "8", "10"], "rt": [5695, 136, 142, 69, 66], "actions": ["up", "up", "up", "left", "down"], "actionTimes": [6358, 7003, 7650, 8217, 8789], "queries": {"click": {"state": {"target": ["11", "10"], "time": [1698, 3476]}, "edge": {"target": [], "time": []}}, "mouseover": {"state": {"target": ["0", "23", "10", "11", "10", "2", "7", "7"], "time": [987, 1144, 1291, 1545, 2038, 3798, 3933, 4148]}, "edge": {"target": [], "time": []}}, "mouseout": {"state": {"target": ["0", "0", "23", "10", "11", "10", "2", "7", "7"], "time": [306, 1052, 1197, 1332, 1971, 3785, 3840, 4013, 9922]}, "edge": {"target": [], "time": []}}}, "displayed_time": "14.67", "trialTime": 15567, "trial_type": "mouselab-mdp", "trial_index": 47, "time_elapsed": 1262303, "internal_node_id": "0.0-4.0-1.0-38.0"}}, {"uniqueid": "w53171787:a69421970", "current_trial": 48, "dateTime": 1691071884396, "trialdata": {"revealed_states": [], "clicked_states": ["21", "22", "31", "32"], "num_clicks_accrued": [0, 0, 0, 0, 0, 0, 0, 0, 0, 0, 0, 0, 0], "stateRewards": ["", 2, -3, -8, 14, -7, -51, 73, 2, 36, 36, -43, -1, 3, -4, 1, 6, 87, -65, 15, 61, -42, -83, -1, 3, -2, -7, 30, -48, 35, 13, 26, 60, 78], "withholdReward": false, "trial_id": "mdp_trial_40", "block": "test", "trialIndex": 41, "score": 67.4, "costs": -5.6, "simulationMode": [null, null, null, null, null], "rewards": [-1, 3, -2, 13, 60], "path": ["0", "0", "23", "24", "25", "30", "32"], "rt": [9386, 77, 95, 28, 82], "actions": ["left", "left", "left", "down", "down"], "actionTimes": [10680, 11265, 11872, 12404, 12990], "queries": {"click": {"state": {"target": ["21", "22", "31", "32"], "time": [2079, 3934, 6005, 7917]}, "edge": {"target": [], "time": []}}, "mouseover": {"state": {"target": ["22", "21", "22", "13", "13", "31", "32", "30", "33", "33"], "time": [1612, 1865, 2796, 4423, 4677, 5520, 6330, 8307, 8426, 8612]}, "edge": {"target": [], "time": []}}, "mouseout": {"state": {"target": ["0", "22", "21", "22", "13", "13", "31", "32", "30", "33", "33", "30"], "time": [1477, 1622, 2289, 4370, 4610, 4903, 6264, 8252, 8321, 8452, 14248, 14311]}, "edge": {"target": [], "time": []}}}, "displayed_time": "15.30", "trialTime": 15705, "trial_type": "mouselab-mdp", "trial_index": 48, "time_elapsed": 1278250, "internal_node_id": "0.0-4.0-1.0-39.0"}}, {"uniqueid": "w53171787:a69421970", "current_trial": 49, "dateTime": 1691071923236, "trialdata": {"rt": 38835, "response": {"Q0": "$-2 to $2", "Q1": "$-16 to $16", "Q2": "$-88 to $88", "Q3": "The cost for clicking on nodes varied between nodes.", "Q4": "Very motivated"}, "question_order": [0, 1, 2, 3, 4], "trial_id": "final_quiz_control", "trial_type": "survey-multi-choice", "trial_index": 49, "time_elapsed": 1317089, "internal_node_id": "0.0-4.0-2.0"}}, {"uniqueid": "w53171787:a69421970", "current_trial": 50, "dateTime": 1691072008025, "trialdata": {"rt": 84781, "response": {"Q0": "I only clicked on the very outer nodes to make sure my destination had a high enough value to balance out losses I might make along the way. ", "Q1": "I realized that the value of the outermost node could be as low as around 30, and I would still come away with a win. ", "Q2": "It just felt like a game of chance how long it would take me to find a high-value outer node. The longer it took, the more I'd have to spend on revealing nodes, which would obviously detract from my earnings. "}, "trial_id": "self_report_control", "trial_type": "survey-text", "trial_index": 50, "time_elapsed": 1401879, "internal_node_id": "0.0-4.0-3.0"}}, {"uniqueid": "w53171787:a69421970", "current_trial": 51, "dateTime": 1691072035004, "trialdata": {"rt": 26976, "response": {"gender": "male", "age": "30", "colorblind": "0", "effort": "1"}, "trial_type": "survey-html-form", "trial_index": 51, "time_elapsed": 1428858, "internal_node_id": "0.0-4.0-4.0"}}, {"uniqueid": "w53171787:a69421970", "current_trial": 52, "dateTime": 1691072060237, "trialdata": {"rt": 25228, "response": {"Q0": "The instructions were a bit unclear, but I figured out the game after a few rounds. ", "Q1": "No, I did not. ", "Q2": ""}, "trial_type": "survey-text", "trial_index": 52, "time_elapsed": 1454091, "internal_node_id": "0.0-4.0-5.0"}}, {"uniqueid": "w53171787:a69421970", "current_trial": 53, "dateTime": 1691072062904, "trialdata": {"rt": 2664, "stimulus": "Press 'Finish HIT' in order to reach the completion code. Once the data has been saved, you will receive the code either in this window or in the original browser window where you started the experiment.\n", "response": 0, "trial_type": "html-button-response", "trial_index": 53, "time_elapsed": 1456758, "internal_node_id": "0.0-5.0"}}, {"uniqueid": "w53171787:a69421970", "current_trial": 54, "dateTime": 1691072063910, "trialdata": {"success": true, "trial_type": "fullscreen", "trial_index": 54, "time_elapsed": 1457763, "internal_node_id": "0.0-6.0"}}], "questiondata": {"params": {"CODE": "C6DMOQA6", "MIN_TIME": 14, "inspectCost": 1, "startTime": "Thu Aug 03 2023 15:50:05 GMT+0200 (Central European Summer Time)", "bonusRate": 0.002, "variance": "1_2_4_8_44", "branching": "31123"}, "final_score": 2377.6}, "eventdata": [{"eventtype": "initialized", "value": null, "timestamp": 1691070604912, "interval": 0}, {"eventtype": "window_resize", "value": [1024, 767], "timestamp": 1691070604912, "interval": 0}, {"eventtype": "window_resize", "value": [1024, 767], "timestamp": 1691070605239, "interval": 327}, {"eventtype": "window_resize", "value": [2560, 1440], "timestamp": 1691070619719, "interval": 14480}, {"eventtype": "focus", "value": "off", "timestamp": 1691071302371, "interval": 682652}, {"eventtype": "focus", "value": "on", "timestamp": 1691071314363, "interval": 11992}, {"eventtype": "focus", "value": "off", "timestamp": 1691071534181, "interval": 219818}, {"eventtype": "focus", "value": "on", "timestamp": 1691071554848, "interval": 20667}, {"eventtype": "focus", "value": "off", "timestamp": 1691071692866, "interval": 138018}, {"eventtype": "focus", "value": "on", "timestamp": 1691071696743, "interval": 3877}, {"eventtype": "focus", "value": "off", "timestamp": 1691071697876, "interval": 1133}, {"eventtype": "focus", "value": "on", "timestamp": 1691071708985, "interval": 11109}, {"eventtype": "window_resize", "value": [1024, 767], "timestamp": 1691072063173, "interval": 354188}], "useragent": "Mozilla/5.0 (Macintosh; Intel Mac OS X 10_15_7) AppleWebKit/537.36 (KHTML, like Gecko) Chrome/115.0.0.0 Safari/537.36", "mode": "live", "id": "w53171787:a69421970", "status": "user data saved", "Beginhit": "2023-08-03 13:50:03.93738", "Beginexp": "2023-08-03 13:50:20.679064", "Endhit": "2023-08-03 14:14:24.552052", "psiturkStatus": 3, "browser": "<redacted>", "platform": "macos", "language": "en-US"}