{"condition": 0, "counterbalance": 0, "assignmentId": "a11587295", "workerId": "w56311035", "hitId": "h19556037", "currenttrial": 55, "bonus": 0, "data": [{"uniqueid": "w56311035:a11587295", "current_trial": 0, "dateTime": 1693660289105, "trialdata": {"success": true, "trial_type": "fullscreen", "trial_index": 0, "time_elapsed": 3340, "internal_node_id": "0.0-0.0"}}, {"uniqueid": "w56311035:a11587295", "current_trial": 1, "dateTime": 1693660303704, "trialdata": {"view_history": [{"page_index": 0, "viewing_time": 14586}], "rt": 14587, "trial_id": "exp_instructions_control", "trial_type": "instructions", "trial_index": 1, "time_elapsed": 17940, "internal_node_id": "0.0-1.0"}}, {"uniqueid": "w56311035:a11587295", "current_trial": 2, "dateTime": 1693660583633, "trialdata": {"view_history": [{"page_index": 0, "viewing_time": 114924}, {"page_index": 1, "viewing_time": 88325}, {"page_index": 2, "viewing_time": 51822}, {"page_index": 3, "viewing_time": 24851}], "rt": 279922, "trial_id": "mouselab_instructions_1_control", "trial_type": "instructions", "trial_index": 2, "time_elapsed": 297869, "internal_node_id": "0.0-2.0-1.0"}}, {"uniqueid": "w56311035:a11587295", "current_trial": 3, "dateTime": 1693660706243, "trialdata": {"revealed_states": [], "clicked_states": ["2", "3", "11", "15", "23", "24", "25", "30", "32", "21", "5", "1"], "num_clicks_accrued": [0, 0, 0, 0, 0, 0, 0, 0, 0, 0, 0, 0, 0], "stateRewards": ["", -10, -10, 10, -10, 10, -10, 10, 10, 10, 10, -10, -10, -10, -10, -10, -10, -10, 10, -10, -10, 10, 10, -10, 10, -10, -10, -10, -10, -10, 10, 10, -10, 10], "withholdReward": false, "trial_id": "practice_1", "block": "test", "trialIndex": 0, "score": -12.5, "costs": -6, "simulationMode": [null, null, null, null, null], "rewards": [-10, 10, -10, 10, -10], "path": ["0", "0", "23", "24", "25", "30", "32"], "rt": [77814, 612, 396, 1542, 419], "actions": ["left", "left", "left", "down", "down"], "actionTimes": [114322, 115442, 116342, 118389, 119317], "queries": {"click": {"state": {"target": ["2", "3", "11", "15", "23", "24", "25", "30", "32", "21", "5", "1"], "time": [42770, 44049, 45353, 47267, 49131, 50682, 51770, 53245, 54562, 55940, 57261, 62752]}, "edge": {"target": [], "time": []}}, "mouseover": {"state": {"target": ["0", "1", "12", "2", "3", "8", "11", "1", "18", "15", "18", "23", "23", "24", "25", "30", "32", "21", "19", "18", "4", "5", "9", "1", "1", "1"], "time": [41755, 41790, 42162, 42341, 43771, 44854, 45038, 46372, 46790, 47011, 48039, 48507, 48741, 50338, 51489, 52987, 54286, 55691, 56419, 56519, 56702, 57021, 57886, 59668, 69774, 78632]}, "edge": {"target": [], "time": []}}, "mouseout": {"state": {"target": ["19", "22", "0", "0", "1", "12", "2", "3", "8", "11", "1", "18", "15", "18", "23", "23", "24", "25", "30", "32", "21", "19", "18", "4", "5", "9", "1", "1"], "time": [35463, 35476, 41737, 41770, 41925, 42206, 43588, 44788, 44972, 45887, 46492, 46837, 48037, 48053, 48523, 50290, 51353, 52820, 54154, 55170, 56402, 56453, 56569, 56770, 57769, 59107, 68591, 78106]}, "edge": {"target": [], "time": []}}}, "displayed_time": "119.83", "trialTime": 122187, "trial_type": "mouselab-mdp", "trial_index": 3, "time_elapsed": 420479, "internal_node_id": "0.0-2.0-2.0-0.0"}}, {"uniqueid": "w56311035:a11587295", "current_trial": 4, "dateTime": 1693660741630, "trialdata": {"revealed_states": [], "clicked_states": ["6", "11", "29", "32", "21", "14", "12", "16", "26", "31", "2", "3", "8", "9"], "num_clicks_accrued": [0, 0, 0, 0, 0, 0, 0, 0, 0, 0, 0, 0, 0], "stateRewards": ["", 10, 10, 10, 10, -10, -10, 10, -10, 10, 10, 10, -10, 10, -10, -10, 10, 10, 10, -10, 10, 10, 10, 10, -10, 10, 10, 10, -10, -10, 10, -10, 10, 10], "withholdReward": false, "trial_id": "practice_2", "block": "test", "trialIndex": 1, "score": -13.5, "costs": -7, "simulationMode": [null, null, null, null, null], "rewards": [-10, 10, -10, -10, 10], "path": ["0", "0", "12", "13", "14", "19", "21"], "rt": [24038, 503, 448, 1576, 607], "actions": ["right", "right", "right", "down", "down"], "actionTimes": [27299, 28311, 29272, 31366, 32464], "queries": {"click": {"state": {"target": ["6", "11", "29", "32", "21", "14", "12", "16", "26", "31", "2", "3", "8", "9"], "time": [5637, 6832, 7999, 9159, 10387, 11606, 12677, 15026, 16488, 18375, 21111, 22165, 23220, 24513]}, "edge": {"target": [], "time": []}}, "mouseover": {"state": {"target": ["1", "2", "3", "5", "6", "4", "3", "8", "11", "27", "29", "33", "32", "21", "19", "14", "13", "12", "15", "16", "1", "26", "25", "30", "31", "24", "10", "2", "3", "8", "9"], "time": [4024, 4125, 4194, 4292, 5324, 6177, 6227, 6275, 6541, 7375, 7775, 8675, 8875, 10040, 10948, 11274, 12191, 12391, 13323, 14743, 15674, 16242, 17024, 17796, 18174, 20255, 20559, 20605, 21890, 22939, 24140]}, "edge": {"target": [], "time": []}}, "mouseout": {"state": {"target": ["2", "9", "5", "3", "0", "0", "1", "2", "3", "5", "6", "4", "3", "8", "11", "27", "29", "33", "32", "21", "19", "14", "13", "12", "15", "16", "1", "26", "25", "30", "31", "24", "10", "2", "3", "8"], "time": [1711, 1775, 2010, 2059, 2241, 3973, 4076, 4158, 4224, 5163, 6175, 6210, 6241, 6358, 7357, 7475, 8525, 8709, 9674, 10824, 11074, 12158, 12290, 13107, 14547, 15558, 15757, 16907, 17709, 18009, 20238, 20290, 20590, 21806, 22756, 23942]}, "edge": {"target": [], "time": []}}}, "displayed_time": "32.97", "trialTime": 34904, "trial_type": "mouselab-mdp", "trial_index": 4, "time_elapsed": 455866, "internal_node_id": "0.0-2.0-2.0-1.0"}}, {"uniqueid": "w56311035:a11587295", "current_trial": 5, "dateTime": 1693660759644, "trialdata": {"view_history": [{"page_index": 0, "viewing_time": 13744}, {"page_index": 1, "viewing_time": 4267}], "rt": 18012, "trial_id": "mouselab_instructions_2_control", "trial_type": "instructions", "trial_index": 5, "time_elapsed": 473880, "internal_node_id": "0.0-2.0-3.0"}}, {"uniqueid": "w56311035:a11587295", "current_trial": 6, "dateTime": 1693660791599, "trialdata": {"rt": 31948, "response": {"Q0": "The cost for clicking on nodes may vary between nodes.", "Q1": "The better I perform the higher my bonus will be.", "Q2": "No, the amount of cash at each node of the web may be different each time.", "Q3": "To get the highest total score.", "Q4": "Only before moving the spider.", "Q5": "3 seconds"}, "question_order": [0, 1, 2, 3, 4, 5], "correct": {"Q0": "The cost for clicking on nodes may vary between nodes.", "Q1": "The better I perform the higher my bonus will be.", "Q2": "No, the amount of cash at each node of the web may be different each time.", "Q3": "To get the highest total score.", "Q4": "Only before moving the spider.", "Q5": "3 seconds"}, "trial_id": "mouselab_quiz_control", "trial_type": "survey-multi-choice", "trial_index": 6, "time_elapsed": 505835, "internal_node_id": "0.0-2.0-4.0"}}, {"uniqueid": "w56311035:a11587295", "current_trial": 7, "dateTime": 1693660798492, "trialdata": {"rt": 6876, "response": {"Q0": "No"}, "question_order": [0], "trial_id": "repeat_check", "trial_type": "survey-multi-choice", "trial_index": 7, "time_elapsed": 512727, "internal_node_id": "0.0-4.0-0.0"}}, {"uniqueid": "w56311035:a11587295", "current_trial": 8, "dateTime": 1693660871238, "trialdata": {"rt": 72732, "stimulus": "\n<h1> Get ready to start the game! </h1>\n\nThank you for reading the instructions. Get ready start with the 40 rounds of this game.\n<br><br>\nIf you need to take a break, feel free to take one after the end of a round, before continuing to the next one.\n<br><br>\nRemember, the more money the spider gets, the bigger your bonus will be!\n<br><br>\n<div style='text-align: center;'>Press <code>space</code> to begin.</div>\n\n<br><br>\n(If, at any point, the <code>space</code> key does not take you to the next page, click once on the text and try again.)", "response": " ", "trial_id": "mdp_ready", "trial_type": "html-keyboard-response", "trial_index": 8, "time_elapsed": 585473, "internal_node_id": "0.0-6.0-0.0"}}, {"uniqueid": "w56311035:a11587295", "current_trial": 9, "dateTime": 1693660915207, "trialdata": {"revealed_states": [], "clicked_states": [], "num_clicks_accrued": [0, 0, 0, 0, 0, 0, 0, 0, 0, 0, 0, 0, 0], "stateRewards": ["", 2, -1, 5, 6, 10, 86, 55, 10, -45, 63, -71, 1, -2, 5, -8, -50, -72, 36, 15, 61, 12, 33, -1, -4, 6, 5, 79, -56, -21, -16, -87, 60, -81], "withholdReward": false, "trial_id": "mdp_trial_1", "block": "test", "trialIndex": 2, "score": -29, "costs": 0, "simulationMode": [null, null, null, null, null], "rewards": [2, -1, 5, 10, -45], "path": ["0", "0", "1", "2", "3", "8", "9"], "rt": [21874, 218, 271, 1683, 1165], "actions": ["up", "up", "up", "left", "up"], "actionTimes": [30508, 31231, 32018, 34195, 35860], "queries": {"click": {"state": {"target": [], "time": []}, "edge": {"target": [], "time": []}}, "mouseover": {"state": {"target": ["1", "7", "19", "12", "12", "13", "14", "13"], "time": [11399, 11414, 15515, 16045, 16396, 16596, 16912, 19428]}, "edge": {"target": [], "time": []}}, "mouseout": {"state": {"target": ["26", "23", "0", "0", "1", "7", "19", "12", "12", "13", "14", "13"], "time": [5914, 6450, 6917, 9964, 11413, 11445, 15547, 16096, 16565, 16812, 19414, 19445]}, "edge": {"target": [], "time": []}}}, "displayed_time": "36.38", "trialTime": 43741, "trial_type": "mouselab-mdp", "trial_index": 9, "time_elapsed": 629442, "internal_node_id": "0.0-6.0-1.0-0.0"}}, {"uniqueid": "w56311035:a11587295", "current_trial": 10, "dateTime": 1693660955572, "trialdata": {"revealed_states": [], "clicked_states": ["13", "5", "9", "3", "24", "14", "21"], "num_clicks_accrued": [0, 0, 0, 0, 0, 0, 0, 0, 0, 0, 0, 0, 0], "stateRewards": ["", -1, -4, 8, 8, -68, 47, 24, -7, -61, 49, -69, -1, -1, 8, -7, 42, 1, -45, -11, 10, -63, -6, 1, 4, 6, -16, 79, -37, -58, -12, 81, 18, -53], "withholdReward": false, "trial_id": "mdp_trial_2", "block": "test", "trialIndex": 3, "score": 31.2, "costs": -9.8, "simulationMode": [null, null, null, null, null], "rewards": [-1, -1, 8, -7, 42], "path": ["0", "0", "12", "13", "14", "15", "16"], "rt": [18813, 130, 331, 1323, 112], "actions": ["right", "right", "right", "up", "up"], "actionTimes": [21711, 22341, 23175, 25001, 25622], "queries": {"click": {"state": {"target": ["13", "5", "9", "3", "24", "14", "21"], "time": [3794, 5940, 8666, 10834, 12676, 15152, 18545]}, "edge": {"target": [], "time": []}}, "mouseover": {"state": {"target": ["12", "13", "15", "6", "5", "9", "8", "10", "2", "3", "2", "24", "13", "14", "19", "21", "21", "22", "31"], "time": [3343, 3513, 4344, 5446, 5694, 6561, 9111, 9694, 10043, 10408, 11409, 11642, 14027, 14793, 15693, 16075, 17931, 19376, 20542]}, "edge": {"target": [], "time": []}}, "mouseout": {"state": {"target": ["30", "23", "0", "12", "13", "15", "6", "5", "5", "9", "8", "10", "2", "3", "2", "24", "13", "14", "19", "21", "21", "22", "31", "23", "1", "2", "8", "6", "16", "15", "23", "24", "25", "1", "25"], "time": [1923, 2261, 3314, 3393, 4160, 5194, 5561, 6102, 6379, 9093, 9628, 10010, 10259, 11360, 11426, 13312, 14765, 15625, 15976, 17646, 19310, 19393, 20553, 29743, 29862, 29906, 30195, 30476, 31973, 32276, 32445, 32490, 35712, 36562, 36635]}, "edge": {"target": [], "time": []}}}, "displayed_time": "26.13", "trialTime": 40140, "trial_type": "mouselab-mdp", "trial_index": 10, "time_elapsed": 669807, "internal_node_id": "0.0-6.0-1.0-1.0"}}, {"uniqueid": "w56311035:a11587295", "current_trial": 11, "dateTime": 1693660979756, "trialdata": {"revealed_states": [], "clicked_states": ["2", "21", "31", "32"], "num_clicks_accrued": [0, 0, 0, 0, 0, 0, 0, 0, 0, 0, 0, 0, 0], "stateRewards": ["", 1, 1, 4, 11, 83, -66, 18, -16, -23, 5, 25, 1, -3, 1, -12, 18, 24, -86, -11, -64, 36, 40, 2, 1, -6, 13, 55, 29, 72, -2, 81, -72, -41], "withholdReward": false, "trial_id": "mdp_trial_3", "block": "test", "trialIndex": 4, "score": 70.4, "costs": -5.6, "simulationMode": [null, null, null, null, null], "rewards": [2, 1, -6, -2, 81], "path": ["0", "0", "23", "24", "25", "30", "31"], "rt": [10826, 306, 503, 1260, 676], "actions": ["left", "left", "left", "down", "right"], "actionTimes": [14069, 14884, 15897, 17656, 18855], "queries": {"click": {"state": {"target": ["2", "21", "31", "32"], "time": [4205, 6634, 8478, 10051]}, "edge": {"target": [], "time": []}}, "mouseover": {"state": {"target": ["1", "2", "7", "15", "17", "14", "19", "21", "31", "32", "24", "28", "10", "11"], "time": [3635, 3897, 4647, 4729, 4829, 5161, 5927, 6233, 8161, 9195, 10878, 11113, 11228, 12982]}, "edge": {"target": [], "time": []}}, "mouseout": {"state": {"target": ["23", "1", "2", "7", "15", "17", "14", "19", "21", "31", "32", "24", "28", "10", "11"], "time": [1365, 3746, 4645, 4662, 4761, 4861, 5900, 6113, 6799, 8994, 10577, 11028, 11161, 11294, 12996]}, "edge": {"target": [], "time": []}}}, "displayed_time": "19.34", "trialTime": 23963, "trial_type": "mouselab-mdp", "trial_index": 11, "time_elapsed": 693990, "internal_node_id": "0.0-6.0-1.0-2.0"}}, {"uniqueid": "w56311035:a11587295", "current_trial": 12, "dateTime": 1693661004437, "trialdata": {"revealed_states": [], "clicked_states": ["3", "21", "24", "32", "9", "5"], "num_clicks_accrued": [0, 0, 0, 0, 0, 0, 0, 0, 0, 0, 0, 0, 0], "stateRewards": ["", -1, 4, -3, 3, 57, -61, 5, -11, 23, -1, 34, -2, -4, -1, -13, 27, 38, -36, 4, -45, 21, 88, 1, -2, -1, 1, -69, -5, -78, -12, -9, 38, -54], "withholdReward": false, "trial_id": "mdp_trial_4", "block": "test", "trialIndex": 5, "score": 3.6000000000000014, "costs": -8.4, "simulationMode": [null, null, null, null, null], "rewards": [-1, 4, -3, -11, 23], "path": ["0", "0", "1", "2", "3", "8", "9"], "rt": [15516, 184, 386, 736, 974], "actions": ["up", "up", "up", "left", "up"], "actionTimes": [17952, 18631, 19515, 20765, 22236], "queries": {"click": {"state": {"target": ["3", "21", "24", "32", "9", "5"], "time": [3530, 6170, 8064, 10135, 12073, 14405]}, "edge": {"target": [], "time": []}}, "mouseover": {"state": {"target": ["1", "2", "3", "7", "13", "14", "19", "21", "24", "32", "30", "28", "8", "9", "5", "4"], "time": [2947, 3063, 3229, 4046, 4147, 4545, 5445, 5782, 6896, 9082, 10683, 10729, 10794, 11011, 12795, 15894]}, "edge": {"target": [], "time": []}}, "mouseout": {"state": {"target": ["23", "1", "2", "3", "3", "7", "13", "14", "19", "21", "24", "32", "30", "28", "8", "9", "5", "4"], "time": [1863, 2979, 3185, 3654, 4029, 4063, 4263, 5417, 5495, 6679, 8728, 10681, 10698, 10745, 10844, 12494, 15761, 16761]}, "edge": {"target": [], "time": []}}}, "displayed_time": "22.75", "trialTime": 24467, "trial_type": "mouselab-mdp", "trial_index": 12, "time_elapsed": 718672, "internal_node_id": "0.0-6.0-1.0-3.0"}}, {"uniqueid": "w56311035:a11587295", "current_trial": 13, "dateTime": 1693661024147, "trialdata": {"revealed_states": [], "clicked_states": ["21", "14", "16", "6"], "num_clicks_accrued": [0, 0, 0, 0, 0, 0, 0, 0, 0, 0, 0, 0, 0], "stateRewards": ["", 1, 4, 5, 8, -55, -11, 8, 16, -37, 77, -22, -2, 3, -8, -10, 45, 87, -67, 4, 17, -33, -22, -1, -3, 7, 6, -39, -85, 75, -1, 7, -48, 45], "withholdReward": false, "trial_id": "mdp_trial_5", "block": "test", "trialIndex": 6, "score": 22.4, "costs": -5.6, "simulationMode": [null, null, null, null, null], "rewards": [-2, 3, -8, -10, 45], "path": ["0", "0", "12", "13", "14", "15", "16"], "rt": [9598, 224, 291, 806, 186], "actions": ["right", "right", "right", "up", "up"], "actionTimes": [13308, 14024, 14824, 16139, 16818], "queries": {"click": {"state": {"target": ["21", "14", "16", "6"], "time": [4932, 6821, 8566, 10230]}, "edge": {"target": [], "time": []}}, "mouseover": {"state": {"target": ["13", "20", "21", "19", "14", "15", "16", "6", "5", "4", "1", "23", "30"], "time": [4131, 4214, 4631, 5467, 5799, 7381, 7765, 9349, 11364, 11893, 12099, 12149, 12180]}, "edge": {"target": [], "time": []}}, "mouseout": {"state": {"target": ["0", "13", "20", "21", "19", "14", "15", "16", "6", "5", "4", "1", "23", "30"], "time": [4015, 4165, 4483, 5382, 5649, 7315, 7637, 9098, 11181, 11887, 11917, 12130, 12165, 12187]}, "edge": {"target": [], "time": []}}}, "displayed_time": "17.71", "trialTime": 19499, "trial_type": "mouselab-mdp", "trial_index": 13, "time_elapsed": 738382, "internal_node_id": "0.0-6.0-1.0-4.0"}}, {"uniqueid": "w56311035:a11587295", "current_trial": 14, "dateTime": 1693661045504, "trialdata": {"revealed_states": [], "clicked_states": ["5", "8", "2", "4"], "num_clicks_accrued": [0, 0, 0, 0, 0, 0, 0, 0, 0, 0, 0, 0, 0], "stateRewards": ["", 1, 2, 7, 13, 88, -71, 27, 3, 60, 5, -53, -2, 2, -6, -1, -30, 79, 47, -4, -14, 46, 68, 1, 1, 8, 10, -14, 86, 48, -11, -67, -44, 5], "withholdReward": false, "trial_id": "mdp_trial_6", "block": "test", "trialIndex": 7, "score": 105.4, "costs": -5.6, "simulationMode": [null, null, null, null, null], "rewards": [1, 2, 7, 13, 88], "path": ["0", "0", "1", "2", "3", "4", "5"], "rt": [11169, 218, 528, 874, 1547], "actions": ["up", "up", "up", "right", "up"], "actionTimes": [13582, 14298, 15341, 16720, 18760], "queries": {"click": {"state": {"target": ["5", "8", "2", "4"], "time": [3498, 5631, 7723, 11552]}, "edge": {"target": [], "time": []}}, "mouseover": {"state": {"target": ["7", "5", "9", "8", "2", "1", "25", "3", "4", "10", "26"], "time": [2729, 3099, 4364, 4901, 7062, 9747, 10296, 11081, 11178, 12545, 12590]}, "edge": {"target": [], "time": []}}, "mouseout": {"state": {"target": ["32", "0", "7", "5", "9", "8", "2", "1", "25", "3", "4", "10", "26"], "time": [1348, 2674, 2782, 4080, 4885, 6829, 9529, 9832, 10302, 11127, 12495, 12562, 12594]}, "edge": {"target": [], "time": []}}}, "displayed_time": "19.26", "trialTime": 21155, "trial_type": "mouselab-mdp", "trial_index": 14, "time_elapsed": 759738, "internal_node_id": "0.0-6.0-1.0-5.0"}}, {"uniqueid": "w56311035:a11587295", "current_trial": 15, "dateTime": 1693661073791, "trialdata": {"revealed_states": [], "clicked_states": ["5", "3", "9", "1", "24", "13", "19", "21", "32", "25"], "num_clicks_accrued": [0, 0, 0, 0, 0, 0, 0, 0, 0, 0, 0, 0, 0], "stateRewards": ["", -1, 3, 8, 9, -53, 20, -84, 2, -28, -62, -31, -1, -2, -7, 2, 51, 58, 45, -4, -17, -41, 36, 2, -2, -7, -15, 29, -54, -37, -16, -43, 65, -17], "withholdReward": false, "trial_id": "mdp_trial_7", "block": "test", "trialIndex": 8, "score": 28, "costs": -14.000000000000002, "simulationMode": [null, null, null, null, null], "rewards": [2, -2, -7, -16, 65], "path": ["0", "0", "23", "24", "25", "30", "32"], "rt": [19321, 137, 268, 868, 288], "actions": ["left", "left", "left", "down", "down"], "actionTimes": [22810, 23462, 24244, 25609, 26396], "queries": {"click": {"state": {"target": ["5", "3", "9", "1", "24", "13", "19", "21", "32", "25"], "time": [4729, 6432, 8188, 10335, 11903, 13570, 15158, 16711, 18254, 20069]}, "edge": {"target": [], "time": []}}, "mouseover": {"state": {"target": ["1", "4", "5", "3", "9", "8", "10", "1", "24", "23", "0", "12", "13", "19", "21", "32", "30", "25"], "time": [3858, 3964, 4212, 5693, 7409, 9026, 9559, 9995, 11308, 12391, 12425, 12508, 12758, 14358, 15941, 17641, 18958, 19675]}, "edge": {"target": [], "time": []}}, "mouseout": {"state": {"target": ["32", "31", "0", "1", "4", "5", "3", "9", "8", "10", "1", "24", "23", "0", "12", "13", "19", "21", "32", "30", "25", "25"], "time": [1367, 1448, 3849, 3876, 3992, 5294, 7042, 8926, 9409, 9792, 11009, 12375, 12408, 12458, 12614, 14175, 15774, 17208, 18808, 19141, 21613, 21679]}, "edge": {"target": [], "time": []}}}, "displayed_time": "26.89", "trialTime": 28079, "trial_type": "mouselab-mdp", "trial_index": 15, "time_elapsed": 788027, "internal_node_id": "0.0-6.0-1.0-6.0"}}, {"uniqueid": "w56311035:a11587295", "current_trial": 16, "dateTime": 1693661096037, "trialdata": {"revealed_states": [], "clicked_states": ["9", "5", "3", "2", "21"], "num_clicks_accrued": [0, 0, 0, 0, 0, 0, 0, 0, 0, 0, 0, 0, 0], "stateRewards": ["", -2, 2, -1, -6, 22, 6, 6, -5, 70, -42, 65, 1, 3, 5, -6, -67, -9, 3, 14, 7, -62, -13, -2, 4, 1, 16, 42, -21, -52, -8, 32, 53, 81], "withholdReward": false, "trial_id": "mdp_trial_8", "block": "test", "trialIndex": 9, "score": 57, "costs": -7, "simulationMode": [null, null, null, null, null], "rewards": [-2, 2, -1, -5, 70], "path": ["0", "0", "1", "2", "3", "8", "9"], "rt": [12593, 149, 232, 711, 601], "actions": ["up", "up", "up", "left", "up"], "actionTimes": [16584, 17252, 17985, 19214, 20320], "queries": {"click": {"state": {"target": ["9", "5", "3", "2", "21"], "time": [5028, 6991, 9207, 11866, 14038]}, "edge": {"target": [], "time": []}}, "mouseover": {"state": {"target": ["1", "2", "9", "5", "6", "4", "3", "2", "1", "0", "22", "21", "31", "30"], "time": [4235, 4320, 4722, 5802, 8052, 8487, 8889, 10018, 12968, 13219, 13268, 13768, 15675, 15700]}, "edge": {"target": [], "time": []}}, "mouseout": {"state": {"target": ["30", "31", "23", "0", "1", "2", "9", "5", "6", "4", "3", "2", "1", "0", "22", "21", "31", "30"], "time": [2770, 2937, 3351, 4195, 4308, 4336, 5485, 7669, 8485, 8502, 9855, 12818, 13185, 13235, 13607, 15251, 15685, 15703]}, "edge": {"target": [], "time": []}}}, "displayed_time": "20.82", "trialTime": 22018, "trial_type": "mouselab-mdp", "trial_index": 16, "time_elapsed": 810272, "internal_node_id": "0.0-6.0-1.0-7.0"}}, {"uniqueid": "w56311035:a11587295", "current_trial": 17, "dateTime": 1693661117261, "trialdata": {"revealed_states": [], "clicked_states": ["9", "5", "21", "32", "24"], "num_clicks_accrued": [0, 0, 0, 0, 0, 0, 0, 0, 0, 0, 0, 0, 0], "stateRewards": ["", -2, 2, -5, 1, 42, -63, -58, -6, 2, 16, 81, -2, 4, 7, -10, 33, 3, -33, -2, -52, -84, -27, 2, -3, -3, 15, -74, -14, -5, -5, -84, 79, -31], "withholdReward": false, "trial_id": "mdp_trial_9", "block": "test", "trialIndex": 10, "score": 63, "costs": -7, "simulationMode": [null, null, null, null, null], "rewards": [2, -3, -3, -5, 79], "path": ["0", "0", "23", "24", "25", "30", "32"], "rt": [14413, 156, 312, 480, 111], "actions": ["left", "left", "left", "down", "down"], "actionTimes": [16557, 17224, 18029, 19013, 19628], "queries": {"click": {"state": {"target": ["9", "5", "21", "32", "24"], "time": [3081, 4934, 7531, 10587, 14276]}, "edge": {"target": [], "time": []}}, "mouseover": {"state": {"target": ["8", "9", "5", "6", "18", "13", "22", "21", "32", "32", "30", "24", "24", "25"], "time": [2533, 2783, 3801, 5716, 6534, 6572, 6913, 7235, 9952, 10354, 12804, 13001, 13955, 15635]}, "edge": {"target": [], "time": []}}, "mouseout": {"state": {"target": ["30", "31", "0", "8", "9", "5", "6", "18", "13", "22", "21", "32", "32", "30", "24", "24", "25"], "time": [1137, 1199, 2410, 2685, 3583, 5616, 6316, 6551, 6582, 7088, 8367, 10035, 10753, 12817, 13018, 15633, 15641]}, "edge": {"target": [], "time": []}}}, "displayed_time": "20.13", "trialTime": 21010, "trial_type": "mouselab-mdp", "trial_index": 17, "time_elapsed": 831495, "internal_node_id": "0.0-6.0-1.0-8.0"}}, {"uniqueid": "w56311035:a11587295", "current_trial": 18, "dateTime": 1693661142631, "trialdata": {"revealed_states": [], "clicked_states": ["9", "11", "5", "6", "14", "21", "32"], "num_clicks_accrued": [0, 0, 0, 0, 0, 0, 0, 0, 0, 0, 0, 0, 0], "stateRewards": ["", 1, -4, -4, 8, 1, -79, 68, -10, -79, 8, -74, -1, -3, -6, 14, 43, 23, 9, 5, -51, 63, 61, -2, 4, 6, -10, 69, -32, 57, 15, -80, -80, -77], "withholdReward": false, "trial_id": "mdp_trial_10", "block": "test", "trialIndex": 11, "score": 48.2, "costs": -9.8, "simulationMode": [null, null, null, null, null], "rewards": [-1, -3, -6, 5, 63], "path": ["0", "0", "12", "13", "14", "19", "21"], "rt": [18016, 61, 172, 900, 71], "actions": ["right", "right", "right", "down", "down"], "actionTimes": [20398, 20966, 21643, 23038, 23608], "queries": {"click": {"state": {"target": ["9", "11", "5", "6", "14", "21", "32"], "time": [3448, 5388, 7229, 9215, 12342, 14108, 15983]}, "edge": {"target": [], "time": []}}, "mouseover": {"state": {"target": ["9", "11", "5", "4", "6", "16", "18", "1", "18", "14", "17", "14", "19", "21", "32", "30", "25", "24", "23", "12", "13", "23"], "time": [3139, 4372, 6437, 7805, 8307, 9919, 10271, 10725, 11105, 11356, 11686, 12157, 13087, 13370, 15386, 16620, 16787, 17952, 18004, 18322, 18370, 19272]}, "edge": {"target": [], "time": []}}, "mouseout": {"state": {"target": ["25", "24", "23", "9", "11", "5", "4", "6", "16", "18", "1", "18", "14", "17", "14", "14", "19", "21", "32", "30", "25", "24", "23", "12", "13", "23"], "time": [706, 1141, 1456, 4105, 5872, 7787, 7837, 9754, 10154, 10288, 11059, 11138, 11403, 11939, 12474, 12970, 13253, 14636, 16353, 16653, 17903, 17992, 18020, 18354, 19007, 19286]}, "edge": {"target": [], "time": []}}}, "displayed_time": "24.10", "trialTime": 25137, "trial_type": "mouselab-mdp", "trial_index": 18, "time_elapsed": 856865, "internal_node_id": "0.0-6.0-1.0-9.0"}}, {"uniqueid": "w56311035:a11587295", "current_trial": 19, "dateTime": 1693661179057, "trialdata": {"revealed_states": [], "clicked_states": ["9", "5", "17", "21", "32", "25", "27", "2", "24"], "num_clicks_accrued": [0, 0, 0, 0, 0, 0, 0, 0, 0, 0, 0, 0, 0], "stateRewards": ["", -1, -3, -3, 1, -38, 2, -53, -2, -1, -81, 70, -1, 1, -5, -9, 46, 15, 35, -1, -22, 38, 59, -2, 4, -8, 13, 1, -83, -43, 4, 76, 13, 48], "withholdReward": false, "trial_id": "mdp_trial_11", "block": "test", "trialIndex": 12, "score": -1.6000000000000014, "costs": -12.600000000000001, "simulationMode": [null, null, null, null, null], "rewards": [-2, 4, -8, 4, 13], "path": ["0", "0", "23", "24", "25", "30", "32"], "rt": [29155, 170, 258, 285, 857], "actions": ["left", "left", "left", "down", "down"], "actionTimes": [31260, 31938, 32693, 33485, 34860], "queries": {"click": {"state": {"target": ["9", "5", "17", "21", "32", "25", "27", "2", "24"], "time": [3186, 4894, 6782, 8691, 10563, 12574, 14683, 17524, 20278]}, "edge": {"target": [], "time": []}}, "mouseover": {"state": {"target": ["1", "8", "9", "5", "16", "17", "19", "21", "32", "30", "25", "26", "27", "10", "2", "24", "26", "29"], "time": [2468, 2641, 2907, 3837, 5819, 6002, 7636, 7785, 9835, 11551, 11785, 13451, 14251, 16939, 17237, 20018, 22155, 25233]}, "edge": {"target": [], "time": []}}, "mouseout": {"state": {"target": ["25", "24", "23", "0", "1", "8", "9", "5", "16", "17", "19", "21", "32", "30", "25", "26", "27", "10", "2", "2", "24", "26", "29"], "time": [822, 1175, 1268, 2447, 2522, 2740, 3702, 5353, 5868, 7336, 7652, 9369, 11402, 11719, 13251, 13934, 16866, 17035, 17640, 19666, 22115, 22168, 26308]}, "edge": {"target": [], "time": []}}}, "displayed_time": "35.37", "trialTime": 36213, "trial_type": "mouselab-mdp", "trial_index": 19, "time_elapsed": 893292, "internal_node_id": "0.0-6.0-1.0-10.0"}}, {"uniqueid": "w56311035:a11587295", "current_trial": 20, "dateTime": 1693661207551, "trialdata": {"revealed_states": [], "clicked_states": ["29", "33", "32", "21", "16", "5", "9"], "num_clicks_accrued": [0, 0, 0, 0, 0, 0, 0, 0, 0, 0, 0, 0, 0], "stateRewards": ["", 2, -4, -4, 13, -80, 62, 13, -11, 57, -13, -44, 1, 4, 3, -4, -29, -88, 15, 16, -58, 68, -45, -1, -3, -1, -9, -44, -86, -19, -7, -36, 59, 66], "withholdReward": false, "trial_id": "mdp_trial_12", "block": "test", "trialIndex": 13, "score": 44.2, "costs": -9.8, "simulationMode": [null, null, null, null, null], "rewards": [-1, -3, -1, -7, 66], "path": ["0", "0", "23", "24", "25", "30", "33"], "rt": [17009, 197, 312, 1125, 891], "actions": ["left", "left", "left", "down", "left"], "actionTimes": [18972, 19670, 20502, 22132, 23531], "queries": {"click": {"state": {"target": ["29", "33", "32", "21", "16", "5", "9"], "time": [2840, 4689, 6517, 8526, 10459, 12839, 14766]}, "edge": {"target": [], "time": []}}, "mouseover": {"state": {"target": ["23", "24", "25", "29", "33", "32", "22", "21", "19", "14", "15", "16", "6", "5", "9", "8", "10", "24", "25"], "time": [2223, 2307, 2379, 2542, 3541, 5574, 7324, 7707, 9190, 9257, 9457, 9574, 12225, 12607, 14022, 15706, 15773, 16090, 17955]}, "edge": {"target": [], "time": []}}, "mouseout": {"state": {"target": ["26", "28", "23", "0", "23", "24", "25", "29", "33", "32", "22", "21", "19", "14", "15", "16", "6", "5", "5", "9", "8", "10", "24", "25"], "time": [1227, 1324, 1475, 2207, 2257, 2341, 2423, 3324, 5391, 6907, 7340, 9157, 9224, 9390, 9507, 12111, 12459, 12972, 13423, 15657, 15756, 15856, 17938, 17988]}, "edge": {"target": [], "time": []}}}, "displayed_time": "24.04", "trialTime": 28254, "trial_type": "mouselab-mdp", "trial_index": 20, "time_elapsed": 921786, "internal_node_id": "0.0-6.0-1.0-11.0"}}, {"uniqueid": "w56311035:a11587295", "current_trial": 21, "dateTime": 1693661228324, "trialdata": {"revealed_states": [], "clicked_states": ["29", "9", "5", "33", "25", "21"], "num_clicks_accrued": [0, 0, 0, 0, 0, 0, 0, 0, 0, 0, 0, 0, 0], "stateRewards": ["", -1, -2, -8, 8, -27, -82, 19, -14, -62, 4, 1, -2, 2, 6, 10, 73, -51, -2, 2, 73, -48, 54, -1, 2, -4, 11, -25, 47, 86, 15, 33, 43, -42], "withholdReward": false, "trial_id": "mdp_trial_13", "block": "test", "trialIndex": 14, "score": 85.6, "costs": -8.4, "simulationMode": [null, null, null, null, null], "rewards": [-1, 2, -4, 11, 86], "path": ["0", "0", "23", "24", "25", "26", "29"], "rt": [13558, 100, 95, 602, 622], "actions": ["left", "left", "left", "up", "left"], "actionTimes": [15517, 16129, 16740, 17846, 18983], "queries": {"click": {"state": {"target": ["29", "9", "5", "33", "25", "21"], "time": [2841, 4741, 6627, 8459, 10254, 12220]}, "edge": {"target": [], "time": []}}, "mouseover": {"state": {"target": ["23", "24", "26", "29", "11", "9", "5", "3", "10", "28", "25", "30", "33", "25", "24", "23", "0", "12", "22", "21", "22", "24"], "time": [2262, 2295, 2432, 2600, 3512, 3812, 5344, 6961, 7027, 7111, 7278, 7328, 7561, 9229, 10910, 11461, 11494, 11529, 11577, 11883, 13126, 14343]}, "edge": {"target": [], "time": []}}, "mouseout": {"state": {"target": ["29", "23", "0", "23", "24", "26", "29", "11", "9", "5", "3", "10", "28", "25", "30", "33", "25", "24", "23", "0", "12", "22", "21", "22", "24", "25"], "time": [1043, 1426, 2250, 2278, 2311, 2477, 3325, 3529, 5178, 6927, 6995, 7044, 7195, 7294, 7378, 9011, 10828, 10961, 11477, 11527, 11544, 11627, 12844, 13327, 14360, 14659]}, "edge": {"target": [], "time": []}}}, "displayed_time": "19.49", "trialTime": 20515, "trial_type": "mouselab-mdp", "trial_index": 21, "time_elapsed": 942559, "internal_node_id": "0.0-6.0-1.0-12.0"}}, {"uniqueid": "w56311035:a11587295", "current_trial": 22, "dateTime": 1693661253947, "trialdata": {"revealed_states": [], "clicked_states": ["9", "29", "5", "17", "21", "32", "3"], "num_clicks_accrued": [0, 0, 0, 0, 0, 0, 0, 0, 0, 0, 0, 0, 0], "stateRewards": ["", 1, 3, -2, 15, 51, 15, -19, 11, 67, -45, -73, 2, 4, -2, -13, 36, 9, -28, 10, -30, 31, 16, 1, 2, -1, -16, 14, -22, 36, -1, 88, -5, 45], "withholdReward": false, "trial_id": "mdp_trial_14", "block": "test", "trialIndex": 15, "score": 70.2, "costs": -9.8, "simulationMode": [null, null, null, null, null], "rewards": [1, 3, -2, 11, 67], "path": ["0", "0", "1", "2", "3", "8", "9"], "rt": [17208, 76, 144, 1278, 519], "actions": ["up", "up", "up", "left", "up"], "actionTimes": [20060, 20629, 21279, 23095, 24152], "queries": {"click": {"state": {"target": ["9", "29", "5", "17", "21", "32", "3"], "time": [3926, 5865, 7877, 9904, 11933, 14016, 17616]}, "edge": {"target": [], "time": []}}, "mouseover": {"state": {"target": ["8", "9", "11", "29", "11", "5", "6", "16", "17", "21", "32", "24", "2", "8", "3"], "time": [3454, 3704, 4602, 5085, 6452, 7184, 8552, 8686, 9001, 11101, 13134, 14650, 16068, 16450, 17353]}, "edge": {"target": [], "time": []}}, "mouseout": {"state": {"target": ["26", "24", "23", "0", "8", "9", "11", "29", "11", "5", "6", "16", "17", "21", "32", "24", "2", "8", "3"], "time": [1169, 1519, 1601, 3220, 3502, 4585, 4672, 6426, 6468, 8468, 8601, 8851, 10485, 12618, 14224, 14684, 16151, 16886, 18986]}, "edge": {"target": [], "time": []}}}, "displayed_time": "24.67", "trialTime": 25381, "trial_type": "mouselab-mdp", "trial_index": 22, "time_elapsed": 968182, "internal_node_id": "0.0-6.0-1.0-13.0"}}, {"uniqueid": "w56311035:a11587295", "current_trial": 23, "dateTime": 1693661281197, "trialdata": {"revealed_states": [], "clicked_states": ["9", "5", "6", "16", "17", "20", "21", "32", "29", "24"], "num_clicks_accrued": [0, 0, 0, 0, 0, 0, 0, 0, 0, 0, 0, 0, 0], "stateRewards": ["", -2, 1, -8, 12, -65, -79, 16, 7, -80, -17, -45, -2, 2, -5, -2, -85, 23, -4, -7, 48, 27, -76, 2, 3, 5, 2, 43, 71, -13, 7, -49, 59, -31], "withholdReward": false, "trial_id": "mdp_trial_15", "block": "test", "trialIndex": 16, "score": 62, "costs": -14.000000000000002, "simulationMode": [null, null, null, null, null], "rewards": [2, 3, 5, 7, 59], "path": ["0", "0", "23", "24", "25", "30", "32"], "rt": [21281, 146, 261, 441, 104], "actions": ["left", "left", "left", "down", "down"], "actionTimes": [22924, 23588, 24349, 25296, 25894], "queries": {"click": {"state": {"target": ["9", "5", "6", "16", "17", "20", "21", "32", "29", "24"], "time": [2567, 4396, 6276, 8144, 9994, 11868, 13872, 16326, 18504, 20872]}, "edge": {"target": [], "time": []}}, "mouseover": {"state": {"target": ["1", "9", "5", "6", "16", "17", "16", "17", "20", "21", "32", "30", "25", "29", "25", "24", "25"], "time": [1812, 2308, 3206, 4957, 6772, 7090, 7439, 8706, 10706, 12523, 15841, 17204, 17438, 18003, 20323, 20537, 22023]}, "edge": {"target": [], "time": []}}, "mouseout": {"state": {"target": ["29", "26", "24", "23", "0", "1", "9", "5", "6", "16", "17", "16", "17", "20", "21", "32", "30", "25", "29", "25", "24", "25"], "time": [824, 840, 856, 889, 1323, 1824, 3056, 4824, 6724, 6839, 7389, 8556, 10439, 12323, 14822, 16475, 17388, 17838, 20077, 20421, 22021, 22038]}, "edge": {"target": [], "time": []}}}, "displayed_time": "26.40", "trialTime": 27022, "trial_type": "mouselab-mdp", "trial_index": 23, "time_elapsed": 995432, "internal_node_id": "0.0-6.0-1.0-14.0"}}, {"uniqueid": "w56311035:a11587295", "current_trial": 24, "dateTime": 1693661304837, "trialdata": {"revealed_states": [], "clicked_states": ["9", "5", "16", "21", "32", "33", "29"], "num_clicks_accrued": [0, 0, 0, 0, 0, 0, 0, 0, 0, 0, 0, 0, 0], "stateRewards": ["", -2, -3, 8, 14, -73, 73, 84, -12, -2, -50, -17, 2, 1, -2, -9, -44, -27, -33, 16, -63, -47, -66, -2, 1, 4, -5, -33, -11, 50, 9, 38, -79, 31], "withholdReward": false, "trial_id": "mdp_trial_16", "block": "test", "trialIndex": 17, "score": 38.2, "costs": -9.8, "simulationMode": [null, null, null, null, null], "rewards": [-2, 1, 4, -5, 50], "path": ["0", "0", "23", "24", "25", "26", "29"], "rt": [16807, 66, 173, 634, 510], "actions": ["left", "left", "left", "up", "left"], "actionTimes": [18563, 19127, 19799, 20927, 21953], "queries": {"click": {"state": {"target": ["9", "5", "16", "21", "32", "33", "29"], "time": [2661, 4354, 6250, 8148, 10084, 11969, 13947]}, "edge": {"target": [], "time": []}}, "mouseover": {"state": {"target": ["1", "10", "8", "9", "5", "6", "16", "15", "21", "32", "33", "29", "26", "24", "25", "25"], "time": [1921, 1965, 2031, 2412, 3409, 5110, 5626, 6744, 7242, 9026, 11193, 12775, 16291, 16974, 17442, 17574]}, "edge": {"target": [], "time": []}}, "mouseout": {"state": {"target": ["28", "23", "0", "1", "10", "8", "9", "5", "6", "16", "15", "21", "32", "33", "29", "26", "24", "25", "25"], "time": [725, 1021, 1908, 1931, 1992, 2076, 3043, 4862, 5542, 6676, 6761, 8559, 10576, 12325, 16259, 16444, 16991, 17459, 17590]}, "edge": {"target": [], "time": []}}}, "displayed_time": "22.46", "trialTime": 23402, "trial_type": "mouselab-mdp", "trial_index": 24, "time_elapsed": 1019072, "internal_node_id": "0.0-6.0-1.0-15.0"}}, {"uniqueid": "w56311035:a11587295", "current_trial": 25, "dateTime": 1693661333278, "trialdata": {"revealed_states": [], "clicked_states": ["9", "11", "29", "33", "32", "21", "17", "20", "16"], "num_clicks_accrued": [0, 0, 0, 0, 0, 0, 0, 0, 0, 0, 0, 0, 0], "stateRewards": ["", -2, 4, -5, -12, 85, -24, -18, -15, -78, -22, 26, -1, -1, 2, 14, -45, 52, -23, 7, -33, 24, -6, -2, -4, 5, -7, -16, 36, -39, 5, 71, -87, -23], "withholdReward": false, "trial_id": "mdp_trial_17", "block": "test", "trialIndex": 18, "score": 53.4, "costs": -12.600000000000001, "simulationMode": [null, null, null, null, null], "rewards": [-1, -1, 2, 14, 52], "path": ["0", "0", "12", "13", "14", "15", "17"], "rt": [20957, 28, 135, 710, 359], "actions": ["right", "right", "right", "up", "right"], "actionTimes": [23016, 23541, 24180, 25405, 26303], "queries": {"click": {"state": {"target": ["9", "11", "29", "33", "32", "21", "17", "20", "16"], "time": [3259, 5151, 7098, 9064, 11015, 12951, 15027, 17195, 19738]}, "edge": {"target": [], "time": []}}, "mouseover": {"state": {"target": ["1", "2", "8", "9", "11", "29", "33", "32", "21", "19", "17", "20", "14", "15", "16", "18", "0", "24", "25"], "time": [2528, 2578, 2711, 2946, 4296, 6429, 7745, 10212, 12311, 13444, 13861, 16145, 17761, 19261, 19444, 21127, 21393, 21976, 22060]}, "edge": {"target": [], "time": []}}, "mouseout": {"state": {"target": ["0", "1", "2", "8", "9", "11", "29", "33", "32", "21", "19", "17", "20", "14", "15", "16", "18", "0", "24", "25", "29"], "time": [2510, 2561, 2628, 2830, 3846, 5779, 7545, 9628, 11544, 13083, 13495, 15478, 17677, 17960, 19309, 21093, 21160, 21443, 22047, 22076, 27077]}, "edge": {"target": [], "time": []}}}, "displayed_time": "26.81", "trialTime": 28215, "trial_type": "mouselab-mdp", "trial_index": 25, "time_elapsed": 1047513, "internal_node_id": "0.0-6.0-1.0-16.0"}}, {"uniqueid": "w56311035:a11587295", "current_trial": 26, "dateTime": 1693661361502, "trialdata": {"revealed_states": [], "clicked_states": ["2", "5", "9", "11", "6", "29", "33", "32", "21", "16"], "num_clicks_accrued": [0, 0, 0, 0, 0, 0, 0, 0, 0, 0, 0, 0, 0], "stateRewards": ["", 1, 2, -3, 6, -88, 74, -45, 7, -46, 40, -77, 1, -4, 4, 3, 22, -25, -59, 8, -83, 19, -60, -1, -1, -1, -8, 26, -29, 64, -7, -88, -51, -55], "withholdReward": false, "trial_id": "mdp_trial_18", "block": "test", "trialIndex": 19, "score": 66, "costs": -14.000000000000002, "simulationMode": [null, null, null, null, null], "rewards": [1, 2, -3, 6, 74], "path": ["0", "0", "1", "2", "3", "4", "6"], "rt": [22184, 74, 342, 476, 73], "actions": ["up", "up", "up", "right", "right"], "actionTimes": [23688, 24253, 25104, 26088, 26650], "queries": {"click": {"state": {"target": ["2", "5", "9", "11", "6", "29", "33", "32", "21", "16"], "time": [2620, 4145, 6002, 7883, 9836, 11858, 13858, 15719, 18164, 20487]}, "edge": {"target": [], "time": []}}, "mouseover": {"state": {"target": ["1", "2", "4", "5", "9", "11", "8", "3", "4", "6", "6", "10", "26", "29", "33", "32", "21", "21", "17", "16", "7", "2"], "time": [2113, 2328, 3329, 3380, 5162, 6746, 8246, 8278, 8311, 8345, 8778, 10495, 10801, 10962, 12695, 14511, 17331, 17962, 19061, 20142, 22199, 22259]}, "edge": {"target": [], "time": []}}, "mouseout": {"state": {"target": ["31", "1", "2", "4", "5", "9", "11", "8", "3", "4", "6", "6", "10", "26", "29", "33", "32", "21", "21", "17", "16", "7", "2"], "time": [511, 2178, 3146, 3346, 4813, 6514, 8245, 8261, 8295, 8328, 8379, 10396, 10514, 10815, 12413, 14261, 16361, 17784, 18292, 20126, 20610, 22226, 22276]}, "edge": {"target": [], "time": []}}}, "displayed_time": "27.16", "trialTime": 27993, "trial_type": "mouselab-mdp", "trial_index": 26, "time_elapsed": 1075736, "internal_node_id": "0.0-6.0-1.0-17.0"}}, {"uniqueid": "w56311035:a11587295", "current_trial": 27, "dateTime": 1693661388513, "trialdata": {"revealed_states": [], "clicked_states": ["9", "5", "6", "17", "11", "29", "33", "32", "2"], "num_clicks_accrued": [0, 0, 0, 0, 0, 0, 0, 0, 0, 0, 0, 0, 0], "stateRewards": ["", 1, 2, 8, -2, 23, -69, -18, -16, 54, -21, 71, -1, -4, 7, 11, 43, -6, 88, 6, -55, 72, 43, 1, -3, -2, -1, 68, -31, -54, 4, -8, 25, -2], "withholdReward": false, "trial_id": "mdp_trial_19", "block": "test", "trialIndex": 20, "score": 53.4, "costs": -12.600000000000001, "simulationMode": [null, null, null, null, null], "rewards": [1, 2, 8, -16, 71], "path": ["0", "0", "1", "2", "3", "8", "11"], "rt": [18980, 26, 169, 852, 67], "actions": ["up", "up", "up", "left", "left"], "actionTimes": [21794, 22336, 22995, 24346, 24928], "queries": {"click": {"state": {"target": ["9", "5", "6", "17", "11", "29", "33", "32", "2"], "time": [3822, 5654, 7499, 9427, 11389, 13406, 15629, 17415, 19741]}, "edge": {"target": [], "time": []}}, "mouseover": {"state": {"target": ["10", "8", "9", "5", "6", "16", "17", "2", "8", "11", "26", "29", "33", "32", "24", "2", "10"], "time": [3016, 3127, 3494, 4632, 6611, 8110, 8493, 9860, 10243, 10459, 12147, 12510, 15129, 16959, 18242, 18592, 20708]}, "edge": {"target": [], "time": []}}, "mouseout": {"state": {"target": ["29", "23", "0", "10", "8", "9", "5", "6", "16", "17", "2", "8", "11", "26", "29", "33", "32", "24", "2", "10"], "time": [1709, 2296, 2966, 3029, 3382, 4227, 6443, 8060, 8293, 9777, 9877, 10260, 11944, 12213, 14793, 16609, 18159, 18276, 20659, 20793]}, "edge": {"target": [], "time": []}}}, "displayed_time": "25.43", "trialTime": 26756, "trial_type": "mouselab-mdp", "trial_index": 27, "time_elapsed": 1102748, "internal_node_id": "0.0-6.0-1.0-18.0"}}, {"uniqueid": "w56311035:a11587295", "current_trial": 28, "dateTime": 1693661418818, "trialdata": {"revealed_states": [], "clicked_states": ["9", "5", "6", "17", "11", "29", "33", "32", "21"], "num_clicks_accrued": [0, 0, 0, 0, 0, 0, 0, 0, 0, 0, 0, 0, 0], "stateRewards": ["", 1, -2, -8, -3, 31, -84, -55, -14, 15, -58, 17, -2, -3, 7, 7, -12, 48, 67, 4, -44, -68, 46, 2, 3, -5, -7, 76, 27, 5, 11, 57, 52, 59], "withholdReward": false, "trial_id": "mdp_trial_20", "block": "test", "trialIndex": 21, "score": 57.4, "costs": -12.600000000000001, "simulationMode": [null, null, null, null, null], "rewards": [2, 3, -5, 11, 59], "path": ["0", "0", "23", "24", "25", "30", "33"], "rt": [21300, 27, 137, 447, 887], "actions": ["left", "left", "left", "down", "left"], "actionTimes": [25475, 26016, 26642, 27586, 28975], "queries": {"click": {"state": {"target": ["9", "5", "6", "17", "11", "29", "33", "32", "21"], "time": [4821, 6684, 8732, 10655, 12761, 15275, 17280, 19420, 21407]}, "edge": {"target": [], "time": []}}, "mouseover": {"state": {"target": ["10", "8", "9", "5", "4", "6", "6", "16", "17", "15", "18", "2", "11", "29", "33", "32", "22", "21", "31"], "time": [4373, 4438, 4505, 5640, 7706, 8123, 8271, 9357, 9523, 11067, 11088, 11139, 11789, 14956, 16622, 18022, 19971, 20422, 24286]}, "edge": {"target": [], "time": []}}, "mouseout": {"state": {"target": ["24", "23", "0", "10", "8", "9", "5", "4", "6", "6", "16", "17", "15", "18", "2", "11", "29", "33", "32", "22", "21", "31"], "time": [3443, 3560, 4314, 4406, 4488, 5323, 7589, 8089, 8140, 9273, 9423, 11063, 11078, 11106, 11156, 13572, 16222, 17756, 19838, 19988, 23807, 24302]}, "edge": {"target": [], "time": []}}}, "displayed_time": "29.49", "trialTime": 30059, "trial_type": "mouselab-mdp", "trial_index": 28, "time_elapsed": 1133052, "internal_node_id": "0.0-6.0-1.0-19.0"}}, {"uniqueid": "w56311035:a11587295", "current_trial": 29, "dateTime": 1693661436760, "trialdata": {"revealed_states": [], "clicked_states": ["9", "5", "11", "2"], "num_clicks_accrued": [0, 0, 0, 0, 0, 0, 0, 0, 0, 0, 0, 0, 0], "stateRewards": ["", -1, 2, 6, 11, 21, -21, -21, -6, 48, -71, 88, -1, -3, 3, 7, 64, 2, 9, -4, 37, -67, 72, 2, 2, -8, -8, -10, 71, -40, -3, 73, 80, 47], "withholdReward": false, "trial_id": "mdp_trial_21", "block": "test", "trialIndex": 22, "score": 83.4, "costs": -5.6, "simulationMode": [null, null, null, null, null], "rewards": [-1, 2, 6, -6, 88], "path": ["0", "0", "1", "2", "3", "8", "11"], "rt": [10652, 698, 210, 759, 153], "actions": ["up", "up", "up", "left", "left"], "actionTimes": [12637, 13852, 14564, 15813, 16473], "queries": {"click": {"state": {"target": ["9", "5", "11", "2"], "time": [3109, 5024, 6990, 9567]}, "edge": {"target": [], "time": []}}, "mouseover": {"state": {"target": ["1", "2", "8", "9", "5", "11", "10", "2", "10"], "time": [2442, 2486, 2707, 2769, 3753, 6256, 8888, 9154, 11439]}, "edge": {"target": [], "time": []}}, "mouseout": {"state": {"target": ["28", "23", "0", "0", "1", "2", "8", "9", "5", "11", "10", "2", "10"], "time": [1169, 1236, 1285, 1555, 2454, 2603, 2736, 3236, 5969, 8589, 8935, 11412, 11452]}, "edge": {"target": [], "time": []}}}, "displayed_time": "16.99", "trialTime": 17703, "trial_type": "mouselab-mdp", "trial_index": 29, "time_elapsed": 1150994, "internal_node_id": "0.0-6.0-1.0-20.0"}}, {"uniqueid": "w56311035:a11587295", "current_trial": 30, "dateTime": 1693661454813, "trialdata": {"revealed_states": [], "clicked_states": ["9", "11", "5", "6"], "num_clicks_accrued": [0, 0, 0, 0, 0, 0, 0, 0, 0, 0, 0, 0, 0], "stateRewards": ["", 1, 1, -3, 7, 49, 78, 26, -5, 26, 48, -43, -1, -3, 2, -5, 4, -1, -60, 10, -35, 51, 81, -2, 1, -7, -5, -39, -86, -54, 4, -3, 74, 77], "withholdReward": false, "trial_id": "mdp_trial_22", "block": "test", "trialIndex": 23, "score": 78.4, "costs": -5.6, "simulationMode": [null, null, null, null, null], "rewards": [1, 1, -3, 7, 78], "path": ["0", "0", "1", "2", "3", "4", "6"], "rt": [10615, 719, 172, 1181, 119], "actions": ["up", "up", "up", "right", "right"], "actionTimes": [12258, 13477, 14164, 15839, 16477], "queries": {"click": {"state": {"target": ["9", "11", "5", "6"], "time": [2478, 4326, 6197, 8115]}, "edge": {"target": [], "time": []}}, "mouseover": {"state": {"target": ["1", "9", "11", "5", "6", "7", "1", "23", "25"], "time": [1847, 2226, 3192, 4891, 6907, 10426, 10923, 11146, 11189]}, "edge": {"target": [], "time": []}}, "mouseout": {"state": {"target": ["26", "23", "0", "1", "9", "11", "5", "6", "7", "1", "23", "25"], "time": [729, 774, 1194, 1874, 3041, 4674, 6691, 10173, 10574, 11041, 11156, 11240]}, "edge": {"target": [], "time": []}}}, "displayed_time": "16.99", "trialTime": 17796, "trial_type": "mouselab-mdp", "trial_index": 30, "time_elapsed": 1169048, "internal_node_id": "0.0-6.0-1.0-21.0"}}, {"uniqueid": "w56311035:a11587295", "current_trial": 31, "dateTime": 1693661483600, "trialdata": {"revealed_states": [], "clicked_states": ["9", "11", "5", "6", "16", "21", "32", "33", "29"], "num_clicks_accrued": [0, 0, 0, 0, 0, 0, 0, 0, 0, 0, 0, 0, 0], "stateRewards": ["", -1, 3, 8, 10, -86, 61, -36, 10, 17, -60, 24, -1, -3, 3, 11, 50, 60, 33, -3, -20, 58, -6, 1, -4, -4, 13, -70, -71, 43, 14, 52, 82, -11], "withholdReward": false, "trial_id": "mdp_trial_23", "block": "test", "trialIndex": 24, "score": 76.4, "costs": -12.600000000000001, "simulationMode": [null, null, null, null, null], "rewards": [1, -4, -4, 14, 82], "path": ["0", "0", "23", "24", "25", "30", "32"], "rt": [20387, 90, 175, 737, 124], "actions": ["left", "left", "left", "down", "down"], "actionTimes": [24491, 25092, 25778, 27007, 27643], "queries": {"click": {"state": {"target": ["9", "11", "5", "6", "16", "21", "32", "33", "29"], "time": [5215, 7144, 9144, 11058, 13521, 15601, 18191, 20279, 22236]}, "edge": {"target": [], "time": []}}, "mouseover": {"state": {"target": ["10", "8", "9", "11", "5", "6", "16", "15", "14", "19", "21", "32", "33", "29"], "time": [4619, 4669, 4903, 5909, 7986, 9870, 13202, 14387, 14503, 14586, 14786, 17968, 19468, 21051]}, "edge": {"target": [], "time": []}}, "mouseout": {"state": {"target": ["28", "23", "0", "10", "8", "9", "11", "5", "6", "16", "15", "14", "19", "21", "32", "33", "29"], "time": [3235, 3285, 3671, 4635, 4837, 5703, 7274, 9720, 12953, 14335, 14453, 14552, 14652, 17204, 19202, 20407, 23017]}, "edge": {"target": [], "time": []}}}, "displayed_time": "28.15", "trialTime": 28532, "trial_type": "mouselab-mdp", "trial_index": 31, "time_elapsed": 1197836, "internal_node_id": "0.0-6.0-1.0-22.0"}}, {"uniqueid": "w56311035:a11587295", "current_trial": 32, "dateTime": 1693661512737, "trialdata": {"revealed_states": [], "clicked_states": ["32", "33", "29", "21", "16", "17", "5", "9", "2", "11"], "num_clicks_accrued": [0, 0, 0, 0, 0, 0, 0, 0, 0, 0, 0, 0, 0], "stateRewards": ["", 2, 3, 3, 10, 19, -21, 6, 9, 54, 68, 16, 2, 2, -6, -8, 40, -2, -75, -2, -42, 55, 59, -1, 2, 4, -14, 11, -34, -30, -6, 61, -53, 13], "withholdReward": false, "trial_id": "mdp_trial_24", "block": "test", "trialIndex": 25, "score": 57, "costs": -14.000000000000002, "simulationMode": [null, null, null, null, null], "rewards": [2, 3, 3, 9, 54], "path": ["0", "0", "1", "2", "3", "8", "9"], "rt": [23071, 219, 160, 571, 346], "actions": ["up", "up", "up", "left", "up"], "actionTimes": [24446, 25153, 25812, 26873, 27731], "queries": {"click": {"state": {"target": ["32", "33", "29", "21", "16", "17", "5", "9", "2", "11"], "time": [2312, 4241, 6200, 8291, 10333, 12401, 14479, 16433, 19386, 21419]}, "edge": {"target": [], "time": []}}, "mouseover": {"state": {"target": ["0", "31", "32", "33", "29", "26", "23", "0", "21", "19", "14", "15", "16", "17", "6", "5", "9", "8", "2", "10", "11"], "time": [1625, 1737, 2004, 3404, 5253, 6720, 6786, 6825, 7537, 8969, 9103, 9186, 9319, 11052, 13635, 13886, 15136, 18533, 19073, 20933, 21088]}, "edge": {"target": [], "time": []}}, "mouseout": {"state": {"target": ["0", "31", "32", "33", "29", "26", "23", "0", "21", "19", "14", "15", "16", "17", "6", "5", "9", "8", "2", "10", "11"], "time": [1640, 1769, 2430, 4836, 6335, 6736, 6803, 6853, 8836, 9036, 9153, 9236, 10785, 13019, 13668, 14902, 18483, 18954, 20900, 20967, 23499]}, "edge": {"target": [], "time": []}}}, "displayed_time": "28.25", "trialTime": 28891, "trial_type": "mouselab-mdp", "trial_index": 32, "time_elapsed": 1226973, "internal_node_id": "0.0-6.0-1.0-23.0"}}, {"uniqueid": "w56311035:a11587295", "current_trial": 33, "dateTime": 1693661538229, "trialdata": {"revealed_states": [], "clicked_states": ["9", "5", "16", "21", "32", "33", "29", "2", "25"], "num_clicks_accrued": [0, 0, 0, 0, 0, 0, 0, 0, 0, 0, 0, 0, 0], "stateRewards": ["", -1, 3, 1, -11, -22, -36, 19, -5, -70, -52, 50, -2, -4, 4, -2, -41, -83, 29, -2, 22, 10, -6, -2, 3, -2, 14, 54, 44, 77, -9, -65, -37, -40], "withholdReward": false, "trial_id": "mdp_trial_25", "block": "test", "trialIndex": 26, "score": 77.4, "costs": -12.600000000000001, "simulationMode": [null, null, null, null, null], "rewards": [-2, 3, -2, 14, 77], "path": ["0", "0", "23", "24", "25", "26", "29"], "rt": [19184, 157, 194, 493, 561], "actions": ["left", "left", "left", "up", "left"], "actionTimes": [20929, 21578, 22282, 23295, 24348], "queries": {"click": {"state": {"target": ["9", "5", "16", "21", "32", "33", "29", "2", "25"], "time": [2977, 4802, 6672, 8555, 10522, 12456, 14342, 16384, 18047]}, "edge": {"target": [], "time": []}}, "mouseover": {"state": {"target": ["1", "8", "9", "5", "6", "16", "21", "32", "33", "29", "26", "28", "2", "28", "25"], "time": [2336, 2520, 2736, 3787, 5371, 5687, 7570, 9003, 11303, 13269, 14886, 14919, 15587, 17569, 17686]}, "edge": {"target": [], "time": []}}, "mouseout": {"state": {"target": ["28", "23", "0", "1", "8", "9", "5", "6", "16", "21", "32", "33", "29", "26", "28", "2", "28", "25"], "time": [687, 1002, 2294, 2369, 2638, 3470, 5337, 5471, 7153, 8903, 10969, 12581, 14853, 14903, 14952, 17168, 17585, 20035]}, "edge": {"target": [], "time": []}}}, "displayed_time": "24.87", "trialTime": 25219, "trial_type": "mouselab-mdp", "trial_index": 33, "time_elapsed": 1252463, "internal_node_id": "0.0-6.0-1.0-24.0"}}, {"uniqueid": "w56311035:a11587295", "current_trial": 34, "dateTime": 1693661560261, "trialdata": {"revealed_states": [], "clicked_states": ["9", "5", "16", "21", "32", "29", "33"], "num_clicks_accrued": [0, 0, 0, 0, 0, 0, 0, 0, 0, 0, 0, 0, 0], "stateRewards": ["", -2, 2, -5, -6, 10, -66, -58, -10, -11, -63, -70, -1, -4, -5, 7, 66, -64, -43, -3, 45, -37, 4, -2, -2, -6, -4, -30, 33, 43, 15, -32, -65, -59], "withholdReward": false, "trial_id": "mdp_trial_26", "block": "test", "trialIndex": 27, "score": 53.2, "costs": -9.8, "simulationMode": [null, null, null, null, null], "rewards": [-1, -4, -5, 7, 66], "path": ["0", "0", "12", "13", "14", "15", "16"], "rt": [15221, 431, 185, 663, 114], "actions": ["right", "right", "right", "up", "up"], "actionTimes": [17179, 18131, 18819, 19997, 20614], "queries": {"click": {"state": {"target": ["9", "5", "16", "21", "32", "29", "33"], "time": [2765, 4633, 6562, 8433, 10323, 12231, 14108]}, "edge": {"target": [], "time": []}}, "mouseover": {"state": {"target": ["10", "8", "9", "5", "6", "16", "20", "21", "21", "32", "30", "29", "33", "31", "25"], "time": [2132, 2182, 2249, 3366, 5267, 6016, 7383, 7449, 7761, 9316, 10699, 11049, 13149, 16167, 16247]}, "edge": {"target": [], "time": []}}, "mouseout": {"state": {"target": ["29", "23", "12", "13", "13", "12", "0", "10", "8", "9", "5", "6", "16", "20", "21", "21", "32", "30", "29", "33", "31", "25"], "time": [466, 788, 833, 866, 1219, 1418, 2099, 2167, 2216, 2822, 4983, 5700, 6983, 7434, 7617, 8849, 10648, 10716, 12799, 15565, 16181, 16515]}, "edge": {"target": [], "time": []}}}, "displayed_time": "21.12", "trialTime": 21766, "trial_type": "mouselab-mdp", "trial_index": 34, "time_elapsed": 1274496, "internal_node_id": "0.0-6.0-1.0-25.0"}}, {"uniqueid": "w56311035:a11587295", "current_trial": 35, "dateTime": 1693661590073, "trialdata": {"revealed_states": [], "clicked_states": ["9", "5", "6", "11", "3", "29", "33", "32", "21"], "num_clicks_accrued": [0, 0, 0, 0, 0, 0, 0, 0, 0, 0, 0, 0, 0], "stateRewards": ["", 1, -4, -6, 11, -20, 8, -30, 1, -38, 88, 42, 2, 3, 5, -12, -8, -74, 30, -8, 67, -19, 42, 2, -1, 4, 13, 50, -68, 2, -8, -15, 87, -46], "withholdReward": false, "trial_id": "mdp_trial_27", "block": "test", "trialIndex": 28, "score": 71.4, "costs": -12.600000000000001, "simulationMode": [null, null, null, null, null], "rewards": [2, -1, 4, -8, 87], "path": ["0", "0", "23", "24", "25", "30", "32"], "rt": [20794, 523, 229, 557, 136], "actions": ["left", "left", "left", "down", "down"], "actionTimes": [23544, 24575, 25298, 26376, 27022], "queries": {"click": {"state": {"target": ["9", "5", "6", "11", "3", "29", "33", "32", "21"], "time": [3696, 5674, 7590, 9612, 12131, 14032, 15996, 18204, 20146]}, "edge": {"target": [], "time": []}}, "mouseover": {"state": {"target": ["8", "9", "5", "6", "4", "3", "8", "11", "10", "2", "3", "3", "10", "29", "33", "32", "21", "19", "13", "7", "1", "29"], "time": [3192, 3386, 5304, 7103, 8286, 8336, 8403, 8636, 10386, 11353, 11418, 11821, 12769, 13185, 15002, 16902, 19318, 21135, 21501, 21570, 22139, 22700]}, "edge": {"target": [], "time": []}}, "mouseout": {"state": {"target": ["25", "24", "23", "0", "8", "9", "5", "6", "4", "3", "8", "11", "10", "2", "3", "3", "10", "29", "33", "32", "21", "19", "13", "7", "1", "29"], "time": [1822, 1954, 2136, 2946, 3259, 4903, 6886, 8269, 8319, 8369, 8506, 10153, 10436, 11372, 11491, 12752, 12819, 14603, 16487, 18324, 21018, 21452, 21524, 22000, 22216, 22717]}, "edge": {"target": [], "time": []}}}, "displayed_time": "27.54", "trialTime": 29551, "trial_type": "mouselab-mdp", "trial_index": 35, "time_elapsed": 1304308, "internal_node_id": "0.0-6.0-1.0-26.0"}}, {"uniqueid": "w56311035:a11587295", "current_trial": 36, "dateTime": 1693661625240, "trialdata": {"revealed_states": [], "clicked_states": ["9", "5", "6", "11", "29", "33", "32", "21", "16", "17"], "num_clicks_accrued": [0, 0, 0, 0, 0, 0, 0, 0, 0, 0, 0, 0, 0], "stateRewards": ["", -2, -1, -3, -1, -78, -6, 2, -1, 22, -88, 32, 2, 2, -7, -8, -51, -17, 54, 2, -44, 54, 75, 2, -2, -8, -15, -29, 12, -67, 15, -1, -47, -47], "withholdReward": false, "trial_id": "mdp_trial_28", "block": "test", "trialIndex": 29, "score": 39, "costs": -14.000000000000002, "simulationMode": [null, null, null, null, null], "rewards": [2, 2, -7, 2, 54], "path": ["0", "0", "12", "13", "14", "19", "21"], "rt": [26398, 399, 144, 1117, 402], "actions": ["right", "right", "right", "down", "down"], "actionTimes": [29642, 30550, 31210, 32817, 33735], "queries": {"click": {"state": {"target": ["9", "5", "6", "11", "29", "33", "32", "21", "16", "17"], "time": [4101, 6077, 8188, 10407, 12265, 14194, 16110, 17956, 19711, 21588]}, "edge": {"target": [], "time": []}}, "mouseover": {"state": {"target": ["1", "9", "5", "6", "11", "29", "33", "32", "22", "19", "21", "19", "17", "15", "16", "17", "15", "18", "2", "7", "18", "14", "19", "19", "21", "22", "13", "19", "21", "22", "24", "25"], "time": [3423, 3788, 5101, 7202, 9967, 11452, 13186, 15317, 16600, 16633, 17034, 18300, 18634, 18783, 18916, 20550, 22632, 22666, 23100, 23470, 23548, 23650, 23698, 24138, 24436, 25515, 25564, 26764, 27049, 28553, 28614, 28924]}, "edge": {"target": [], "time": []}}, "mouseout": {"state": {"target": ["10", "8", "8", "1", "1", "9", "5", "6", "11", "29", "33", "32", "22", "19", "21", "19", "17", "15", "16", "17", "15", "18", "2", "7", "18", "14", "19", "19", "21", "22", "13", "19", "21", "22", "24", "25"], "time": [1518, 2119, 2386, 2634, 3450, 4718, 6967, 9450, 11001, 12750, 15121, 16517, 16617, 16933, 18250, 18317, 18717, 18799, 20416, 22600, 22650, 22699, 23467, 23482, 23582, 23681, 23714, 24201, 25434, 25531, 26614, 26820, 28534, 28565, 28630, 28931]}, "edge": {"target": [], "time": []}}}, "displayed_time": "34.23", "trialTime": 34903, "trial_type": "mouselab-mdp", "trial_index": 36, "time_elapsed": 1339475, "internal_node_id": "0.0-6.0-1.0-27.0"}}, {"uniqueid": "w56311035:a11587295", "current_trial": 37, "dateTime": 1693661654277, "trialdata": {"revealed_states": [], "clicked_states": ["9", "11", "5", "6", "2", "17", "21", "32", "29"], "num_clicks_accrued": [0, 0, 0, 0, 0, 0, 0, 0, 0, 0, 0, 0, 0], "stateRewards": ["", -2, 3, -1, 2, -72, 63, 20, -1, 62, -66, 39, -2, 3, -6, 14, 22, 47, 1, 8, -49, -1, -41, 2, 2, -6, -16, -64, -60, -34, 16, 54, 22, -7], "withholdReward": false, "trial_id": "mdp_trial_29", "block": "test", "trialIndex": 30, "score": 52.4, "costs": -12.600000000000001, "simulationMode": [null, null, null, null, null], "rewards": [-2, 3, -1, 2, 63], "path": ["0", "0", "1", "2", "3", "4", "6"], "rt": [21297, 5, 284, 615, 1343], "actions": ["up", "up", "up", "right", "right"], "actionTimes": [23556, 24075, 24871, 25985, 27848], "queries": {"click": {"state": {"target": ["9", "11", "5", "6", "2", "17", "21", "32", "29"], "time": [3247, 5131, 6997, 8945, 11082, 14117, 16034, 18481, 20532]}, "edge": {"target": [], "time": []}}, "mouseover": {"state": {"target": ["1", "10", "8", "9", "11", "5", "6", "4", "2", "1", "13", "14", "15", "17", "14", "19", "21", "32", "33", "29", "10", "2"], "time": [2539, 2603, 2636, 2720, 4054, 5704, 8054, 10071, 10471, 12972, 13193, 13537, 13635, 13906, 14819, 14919, 15286, 18238, 19586, 19752, 21119, 21169]}, "edge": {"target": [], "time": []}}, "mouseout": {"state": {"target": ["1", "10", "8", "9", "11", "5", "6", "4", "2", "2", "1", "13", "14", "15", "17", "14", "19", "21", "32", "33", "29", "10", "2"], "time": [2555, 2620, 2687, 3855, 5504, 7737, 9954, 10103, 11214, 12769, 13008, 13519, 13603, 13652, 14719, 14869, 15136, 16669, 18608, 19719, 21069, 21153, 21236]}, "edge": {"target": [], "time": []}}}, "displayed_time": "28.35", "trialTime": 28764, "trial_type": "mouselab-mdp", "trial_index": 37, "time_elapsed": 1368512, "internal_node_id": "0.0-6.0-1.0-28.0"}}, {"uniqueid": "w56311035:a11587295", "current_trial": 38, "dateTime": 1693661687796, "trialdata": {"revealed_states": [], "clicked_states": ["9", "11", "5", "6", "16", "17", "20", "21", "22", "32", "33", "29"], "num_clicks_accrued": [0, 0, 0, 0, 0, 0, 0, 0, 0, 0, 0, 0, 0], "stateRewards": ["", -1, 3, 2, 9, 41, 4, -46, -12, -54, -87, -25, 2, 3, -1, 11, -77, 12, -33, -9, -32, 35, 72, 1, 3, -7, 4, 37, 65, -73, 6, 77, -43, 8], "withholdReward": false, "trial_id": "mdp_trial_30", "block": "test", "trialIndex": 31, "score": 13.2, "costs": -16.8, "simulationMode": [null, null, null, null, null], "rewards": [2, 3, -1, -9, 35], "path": ["0", "0", "12", "13", "14", "19", "21"], "rt": [24749, 161, 173, 644, 220], "actions": ["right", "right", "right", "down", "down"], "actionTimes": [26425, 27080, 27758, 28895, 29605], "queries": {"click": {"state": {"target": ["9", "11", "5", "6", "16", "17", "20", "21", "22", "32", "33", "29"], "time": [2551, 4408, 6280, 8098, 9972, 11795, 13640, 15522, 17441, 19386, 21167, 22990]}, "edge": {"target": [], "time": []}}, "mouseover": {"state": {"target": ["1", "8", "9", "9", "11", "8", "5", "6", "16", "17", "20", "21", "22", "32", "33", "26", "29"], "time": [1842, 1919, 1953, 2338, 3303, 4837, 5136, 6886, 8603, 10568, 12602, 14385, 16184, 18635, 20068, 21674, 22369]}, "edge": {"target": [], "time": []}}, "mouseout": {"state": {"target": ["26", "28", "0", "1", "8", "9", "9", "9", "11", "8", "5", "6", "16", "17", "20", "21", "22", "32", "33", "26", "29"], "time": [587, 619, 1356, 1867, 1936, 2003, 2663, 3071, 4803, 4854, 6703, 8536, 10419, 12291, 14052, 15660, 17951, 19817, 21651, 21687, 25033]}, "edge": {"target": [], "time": []}}}, "displayed_time": "30.12", "trialTime": 33251, "trial_type": "mouselab-mdp", "trial_index": 38, "time_elapsed": 1402031, "internal_node_id": "0.0-6.0-1.0-29.0"}}, {"uniqueid": "w56311035:a11587295", "current_trial": 39, "dateTime": 1693661724672, "trialdata": {"revealed_states": [], "clicked_states": ["9", "11", "5", "6", "16", "18", "22", "17", "20", "21", "32", "33", "29", "28"], "num_clicks_accrued": [0, 0, 0, 0, 0, 0, 0, 0, 0, 0, 0, 0, 0], "stateRewards": ["", 2, 4, -6, -13, -75, -81, 30, 7, 5, 59, -65, -1, -1, 7, 14, -38, 36, -41, 1, -54, -5, 64, 2, -1, 5, 6, -19, 79, 11, 16, -33, -50, 58], "withholdReward": false, "trial_id": "mdp_trial_31", "block": "test", "trialIndex": 32, "score": 71.4, "costs": -19.599999999999998, "simulationMode": [null, null, null, null, null], "rewards": [2, -1, 5, 6, 79], "path": ["0", "0", "23", "24", "25", "26", "28"], "rt": [29473, 191, 269, 552, 457], "actions": ["left", "left", "left", "up", "right"], "actionTimes": [31672, 32372, 33133, 34199, 35153], "queries": {"click": {"state": {"target": ["9", "11", "5", "6", "16", "18", "22", "17", "20", "21", "32", "33", "29", "28"], "time": [3296, 5157, 7018, 8890, 10715, 12632, 14472, 16371, 18220, 20103, 22046, 23897, 25763, 27724]}, "edge": {"target": [], "time": []}}, "mouseover": {"state": {"target": ["1", "2", "3", "8", "9", "11", "5", "6", "16", "15", "18", "13", "22", "14", "17", "20", "21", "32", "33", "29", "26", "28", "26", "29"], "time": [2498, 2548, 2639, 2782, 3034, 3949, 5999, 7665, 9482, 11581, 11864, 13232, 13432, 14848, 15197, 17231, 19030, 21130, 23030, 24712, 26380, 26846, 30328, 30362]}, "edge": {"target": [], "time": []}}, "mouseout": {"state": {"target": ["25", "24", "0", "1", "2", "3", "8", "9", "11", "5", "6", "16", "15", "18", "13", "22", "14", "17", "17", "20", "21", "32", "33", "29", "26", "28", "26", "29"], "time": [1198, 1215, 1715, 2531, 2598, 2732, 2966, 3783, 5749, 7498, 9248, 11381, 11630, 13116, 13348, 14798, 14998, 16502, 16847, 18798, 20555, 22713, 24279, 26163, 26729, 30303, 30344, 30727]}, "edge": {"target": [], "time": []}}}, "displayed_time": "35.65", "trialTime": 36578, "trial_type": "mouselab-mdp", "trial_index": 39, "time_elapsed": 1438907, "internal_node_id": "0.0-6.0-1.0-30.0"}}, {"uniqueid": "w56311035:a11587295", "current_trial": 40, "dateTime": 1693661763971, "trialdata": {"revealed_states": [], "clicked_states": ["9", "11", "5", "6", "16", "17", "20", "18", "22", "21", "32", "33", "31", "29"], "num_clicks_accrued": [0, 0, 0, 0, 0, 0, 0, 0, 0, 0, 0, 0, 0], "stateRewards": ["", 2, -4, 7, 3, 23, -42, 4, 7, -81, -33, 7, -2, -4, 5, -1, 50, -57, -14, -13, -14, 44, 55, -2, -2, 5, -2, 33, 1, 57, -13, -7, 58, 87], "withholdReward": false, "trial_id": "mdp_trial_32", "block": "test", "trialIndex": 33, "score": 55.400000000000006, "costs": -19.599999999999998, "simulationMode": [null, null, null, null, null], "rewards": [-2, -2, 5, -13, 87], "path": ["0", "0", "23", "24", "25", "30", "33"], "rt": [29031, 104, 168, 662, 1073], "actions": ["left", "left", "left", "down", "left"], "actionTimes": [33721, 34342, 35005, 36183, 37760], "queries": {"click": {"state": {"target": ["9", "11", "5", "6", "16", "17", "20", "18", "22", "21", "32", "33", "31", "29"], "time": [5496, 7144, 9002, 10933, 12819, 14671, 16574, 18520, 20396, 22357, 24665, 26548, 28594, 30437]}, "edge": {"target": [], "time": []}}, "mouseover": {"state": {"target": ["10", "8", "9", "11", "8", "5", "6", "16", "17", "20", "14", "18", "13", "22", "21", "32", "33", "31", "24", "26", "29", "26", "28", "25"], "time": [4875, 4938, 5228, 6123, 7722, 8056, 9622, 11505, 13405, 15621, 17003, 17354, 19054, 19371, 21070, 24055, 25420, 27720, 29303, 29502, 29653, 31238, 31577, 32559]}, "edge": {"target": [], "time": []}}, "mouseout": {"state": {"target": ["10", "8", "9", "11", "8", "5", "6", "16", "17", "20", "14", "18", "13", "22", "21", "32", "33", "31", "24", "26", "29", "26", "28", "25"], "time": [4904, 5157, 6006, 7672, 7738, 9472, 11405, 13221, 15121, 16954, 17037, 18937, 19321, 20821, 23353, 25120, 26681, 29253, 29352, 29537, 31152, 31403, 32418, 32584]}, "edge": {"target": [], "time": []}}}, "displayed_time": "38.25", "trialTime": 39022, "trial_type": "mouselab-mdp", "trial_index": 40, "time_elapsed": 1478206, "internal_node_id": "0.0-6.0-1.0-31.0"}}, {"uniqueid": "w56311035:a11587295", "current_trial": 41, "dateTime": 1693661782589, "trialdata": {"revealed_states": [], "clicked_states": ["33", "32"], "num_clicks_accrued": [0, 0, 0, 0, 0, 0, 0, 0, 0, 0, 0, 0, 0], "stateRewards": ["", -2, -3, 4, 1, 33, -53, 15, 9, -12, 61, -6, -2, 4, 6, -11, 47, -43, -7, -11, 46, 23, -28, -1, -1, 3, -10, 11, 76, -76, 10, 18, -38, 87], "withholdReward": false, "trial_id": "mdp_trial_33", "block": "test", "trialIndex": 34, "score": 95.2, "costs": -2.8, "simulationMode": [null, null, null, null, null], "rewards": [-1, -1, 3, 10, 87], "path": ["0", "0", "23", "24", "25", "30", "33"], "rt": [5857, 114, 186, 443, 412], "actions": ["left", "left", "left", "down", "left"], "actionTimes": [8880, 9516, 10206, 11161, 12079], "queries": {"click": {"state": {"target": ["33", "32"], "time": [3938, 5840]}, "edge": {"target": [], "time": []}}, "mouseover": {"state": {"target": ["23", "30", "33", "32", "32", "31"], "time": [3333, 3450, 3621, 4519, 4767, 6350]}, "edge": {"target": [], "time": []}}, "mouseout": {"state": {"target": ["26", "24", "23", "0", "23", "30", "33", "32", "32", "31"], "time": [1967, 2287, 2484, 3316, 3367, 3500, 4417, 4552, 6200, 7100]}, "edge": {"target": [], "time": []}}}, "displayed_time": "17.03", "trialTime": 18339, "trial_type": "mouselab-mdp", "trial_index": 41, "time_elapsed": 1496823, "internal_node_id": "0.0-6.0-1.0-32.0"}}, {"uniqueid": "w56311035:a11587295", "current_trial": 42, "dateTime": 1693661811346, "trialdata": {"revealed_states": [], "clicked_states": ["29", "33", "32", "21", "31", "20", "16", "17"], "num_clicks_accrued": [0, 0, 0, 0, 0, 0, 0, 0, 0, 0, 0, 0, 0], "stateRewards": ["", 1, 1, 1, 15, -76, 52, -32, 14, -57, 37, 49, 1, -4, -3, 6, 83, -76, 25, 9, 36, -1, -17, -1, 4, 4, -2, -22, -21, 58, -15, -57, 49, -24], "withholdReward": false, "trial_id": "mdp_trial_34", "block": "test", "trialIndex": 35, "score": 71.8, "costs": -11.200000000000001, "simulationMode": [null, null, null, null, null], "rewards": [1, -4, -3, 6, 83], "path": ["0", "0", "12", "13", "14", "15", "16"], "rt": [18155, 57, 158, 1193, 144], "actions": ["right", "right", "right", "up", "up"], "actionTimes": [22963, 23559, 24211, 25912, 26563], "queries": {"click": {"state": {"target": ["29", "33", "32", "21", "31", "20", "16", "17"], "time": [5842, 7707, 9642, 11537, 13549, 15517, 17452, 19385]}, "edge": {"target": [], "time": []}}, "mouseover": {"state": {"target": ["23", "24", "29", "33", "32", "21", "31", "20", "20", "15", "16", "17", "15", "18", "0", "25"], "time": [5265, 5278, 5586, 6619, 8503, 10880, 12585, 14919, 15086, 16202, 16385, 18151, 20484, 20751, 21740, 22169]}, "edge": {"target": [], "time": []}}, "mouseout": {"state": {"target": ["29", "2", "8", "10", "0", "23", "24", "29", "33", "32", "21", "31", "20", "20", "15", "16", "17", "15", "18", "0", "25"], "time": [1016, 1427, 3336, 3935, 5249, 5275, 5302, 6336, 8269, 10137, 11885, 14135, 14935, 15614, 16252, 18002, 20251, 20650, 21387, 21756, 22184]}, "edge": {"target": [], "time": []}}}, "displayed_time": "27.05", "trialTime": 28470, "trial_type": "mouselab-mdp", "trial_index": 42, "time_elapsed": 1525582, "internal_node_id": "0.0-6.0-1.0-33.0"}}, {"uniqueid": "w56311035:a11587295", "current_trial": 43, "dateTime": 1693661841149, "trialdata": {"revealed_states": [], "clicked_states": ["9", "5", "29", "33", "32", "21", "16", "17", "20", "18"], "num_clicks_accrued": [0, 0, 0, 0, 0, 0, 0, 0, 0, 0, 0, 0, 0], "stateRewards": ["", 2, 4, 4, 9, -88, -10, 44, 16, -54, 64, 78, 1, 2, 5, 16, 80, 36, 7, -4, 9, -47, -70, -1, -3, 6, -16, 11, 80, 28, 8, -1, 34, -17], "withholdReward": false, "trial_id": "mdp_trial_35", "block": "test", "trialIndex": 36, "score": 90, "costs": -14.000000000000002, "simulationMode": [null, null, null, null, null], "rewards": [1, 2, 5, 16, 80], "path": ["0", "0", "12", "13", "14", "15", "16"], "rt": [22428, 115, 197, 970, 84], "actions": ["right", "right", "right", "up", "up"], "actionTimes": [24429, 25054, 25769, 27242, 27840], "queries": {"click": {"state": {"target": ["9", "5", "29", "33", "32", "21", "16", "17", "20", "18"], "time": [2905, 4839, 6701, 8574, 10468, 12468, 14351, 16281, 19186, 21445]}, "edge": {"target": [], "time": []}}, "mouseover": {"state": {"target": ["10", "8", "9", "5", "8", "29", "33", "32", "21", "19", "15", "16", "17", "20", "14", "18", "1", "28", "29"], "time": [2338, 2388, 2639, 3872, 5190, 5656, 7405, 9622, 11805, 12837, 13070, 13187, 15038, 18989, 20655, 21226, 23526, 23543, 23865]}, "edge": {"target": [], "time": []}}, "mouseout": {"state": {"target": ["28", "24", "23", "0", "10", "8", "9", "5", "8", "29", "33", "32", "21", "19", "15", "16", "17", "20", "14", "18", "1", "28", "29"], "time": [1054, 1271, 1454, 2243, 2371, 2522, 3606, 5156, 5206, 7089, 9139, 10873, 12611, 12871, 13103, 14805, 18720, 20521, 20854, 23475, 23540, 23553, 23882]}, "edge": {"target": [], "time": []}}}, "displayed_time": "28.34", "trialTime": 29528, "trial_type": "mouselab-mdp", "trial_index": 43, "time_elapsed": 1555383, "internal_node_id": "0.0-6.0-1.0-34.0"}}, {"uniqueid": "w56311035:a11587295", "current_trial": 44, "dateTime": 1693661871373, "trialdata": {"revealed_states": [], "clicked_states": ["9", "11", "5", "6", "16", "17", "18", "21", "32", "29"], "num_clicks_accrued": [0, 0, 0, 0, 0, 0, 0, 0, 0, 0, 0, 0, 0], "stateRewards": ["", 1, 1, 5, 6, -29, -7, 3, -16, 9, -46, 65, -1, 4, -1, -16, -63, -77, -87, 8, 80, -50, 43, -1, -1, -5, 5, -38, -71, -62, 9, 81, -50, -52], "withholdReward": false, "trial_id": "mdp_trial_36", "block": "test", "trialIndex": 37, "score": 42, "costs": -14.000000000000002, "simulationMode": [null, null, null, null, null], "rewards": [1, 1, 5, -16, 65], "path": ["0", "0", "1", "2", "3", "8", "11"], "rt": [22413, 141, 254, 720, 223], "actions": ["up", "up", "up", "left", "left"], "actionTimes": [24264, 24902, 25653, 26880, 27601], "queries": {"click": {"state": {"target": ["9", "11", "5", "6", "16", "17", "18", "21", "32", "29"], "time": [2887, 4768, 6649, 8513, 10428, 12265, 14182, 16328, 18976, 20884]}, "edge": {"target": [], "time": []}}, "mouseover": {"state": {"target": ["1", "8", "9", "11", "8", "5", "6", "15", "16", "17", "17", "15", "18", "13", "19", "20", "21", "32", "29", "26", "28", "28"], "time": [2328, 2445, 2527, 3696, 5095, 5462, 7548, 9444, 9746, 11027, 11310, 12727, 12995, 14964, 15394, 15594, 15894, 18559, 19876, 21525, 21592, 23193]}, "edge": {"target": [], "time": []}}, "mouseout": {"state": {"target": ["28", "0", "1", "8", "9", "9", "11", "8", "5", "6", "15", "16", "17", "17", "15", "18", "13", "19", "20", "21", "32", "29", "26", "28", "28"], "time": [1016, 2313, 2364, 2511, 2970, 3462, 5078, 5112, 7278, 9327, 9744, 10977, 11194, 12661, 12877, 14844, 15276, 15444, 15610, 17594, 19626, 21459, 21576, 21609, 23221]}, "edge": {"target": [], "time": []}}}, "displayed_time": "28.11", "trialTime": 29928, "trial_type": "mouselab-mdp", "trial_index": 44, "time_elapsed": 1585607, "internal_node_id": "0.0-6.0-1.0-35.0"}}, {"uniqueid": "w56311035:a11587295", "current_trial": 45, "dateTime": 1693661907027, "trialdata": {"revealed_states": [], "clicked_states": ["9", "11", "5", "6", "16", "17", "20", "21", "18", "32", "33", "29", "31", "28"], "num_clicks_accrued": [0, 0, 0, 0, 0, 0, 0, 0, 0, 0, 0, 0, 0], "stateRewards": ["", -2, 2, 2, -6, 9, 37, 50, -13, -7, -18, -75, -2, -4, 4, 7, 23, -57, -66, -7, -81, -48, -76, 1, 1, -8, 1, 51, -2, 70, 14, 59, 71, -37], "withholdReward": false, "trial_id": "mdp_trial_37", "block": "test", "trialIndex": 38, "score": 59.400000000000006, "costs": -19.599999999999998, "simulationMode": [null, null, null, null, null], "rewards": [1, 1, -8, 14, 71], "path": ["0", "0", "23", "24", "25", "30", "32"], "rt": [28425, 105, 168, 635, 99], "actions": ["left", "left", "left", "down", "down"], "actionTimes": [31332, 31929, 32592, 33742, 34356], "queries": {"click": {"state": {"target": ["9", "11", "5", "6", "16", "17", "20", "21", "18", "32", "33", "29", "31", "28"], "time": [3714, 5573, 7424, 9288, 11129, 13053, 14951, 16808, 18698, 20627, 22485, 24389, 26483, 28401]}, "edge": {"target": [], "time": []}}, "mouseover": {"state": {"target": ["10", "8", "9", "11", "5", "6", "16", "17", "20", "21", "13", "18", "12", "0", "31", "32", "33", "29", "25", "31", "24", "28", "26"], "time": [3075, 3157, 3247, 4291, 6441, 8140, 9840, 12248, 13823, 15739, 17506, 17673, 19073, 19092, 19189, 19539, 21222, 23223, 24906, 25074, 26954, 27054, 30388]}, "edge": {"target": [], "time": []}}, "mouseout": {"state": {"target": ["29", "10", "8", "9", "11", "5", "6", "16", "17", "20", "20", "21", "13", "18", "12", "0", "31", "32", "33", "29", "25", "31", "24", "28", "26"], "time": [1495, 3107, 3207, 4109, 5925, 7891, 9724, 11924, 13407, 15070, 15489, 16952, 17589, 19057, 19090, 19106, 19206, 20768, 22922, 24788, 24955, 26905, 27005, 30370, 30415]}, "edge": {"target": [], "time": []}}}, "displayed_time": "34.87", "trialTime": 35383, "trial_type": "mouselab-mdp", "trial_index": 45, "time_elapsed": 1621262, "internal_node_id": "0.0-6.0-1.0-36.0"}}, {"uniqueid": "w56311035:a11587295", "current_trial": 46, "dateTime": 1693661924649, "trialdata": {"revealed_states": [], "clicked_states": ["33", "32", "29", "28"], "num_clicks_accrued": [0, 0, 0, 0, 0, 0, 0, 0, 0, 0, 0, 0, 0], "stateRewards": ["", -1, 1, -2, 5, 73, 15, 61, 8, 7, 38, 76, 2, 2, -4, -6, -6, -26, 43, -5, -45, -85, -35, -2, 1, -4, 15, -10, 69, 72, -11, 84, -49, -38], "withholdReward": false, "trial_id": "mdp_trial_38", "block": "test", "trialIndex": 39, "score": 76.4, "costs": -5.6, "simulationMode": [null, null, null, null, null], "rewards": [-2, 1, -4, 15, 72], "path": ["0", "0", "23", "24", "25", "26", "29"], "rt": [10661, 565, 202, 405, 443], "actions": ["left", "left", "left", "up", "left"], "actionTimes": [12204, 13283, 13987, 14906, 15859], "queries": {"click": {"state": {"target": ["33", "32", "29", "28"], "time": [2524, 4419, 6308, 8446]}, "edge": {"target": [], "time": []}}, "mouseover": {"state": {"target": ["0", "31", "30", "33", "32", "30", "29", "26", "28", "24"], "time": [1665, 1867, 1949, 2166, 3233, 4866, 5150, 6699, 7016, 10382]}, "edge": {"target": [], "time": []}}, "mouseout": {"state": {"target": ["28", "0", "31", "30", "33", "32", "30", "29", "26", "28", "24"], "time": [898, 1683, 1917, 2067, 3033, 4832, 4899, 6683, 6817, 10265, 10865]}, "edge": {"target": [], "time": []}}}, "displayed_time": "16.35", "trialTime": 17184, "trial_type": "mouselab-mdp", "trial_index": 46, "time_elapsed": 1638884, "internal_node_id": "0.0-6.0-1.0-37.0"}}, {"uniqueid": "w56311035:a11587295", "current_trial": 47, "dateTime": 1693661942615, "trialdata": {"revealed_states": [], "clicked_states": ["9", "5", "6", "11", "16"], "num_clicks_accrued": [0, 0, 0, 0, 0, 0, 0, 0, 0, 0, 0, 0, 0], "stateRewards": ["", -1, -4, -1, -11, 43, 69, 39, 4, 17, -20, -82, -2, -1, 4, 8, -79, 24, -79, 11, 36, 64, 41, 2, 4, -1, 11, -79, -47, 75, -3, 63, -36, -19], "withholdReward": false, "trial_id": "mdp_trial_39", "block": "test", "trialIndex": 40, "score": 45, "costs": -7, "simulationMode": [null, null, null, null, null], "rewards": [-1, -4, -1, -11, 69], "path": ["0", "0", "1", "2", "3", "4", "6"], "rt": [11915, 113, 224, 411, 119], "actions": ["up", "up", "up", "right", "right"], "actionTimes": [13619, 14254, 14994, 15913, 16537], "queries": {"click": {"state": {"target": ["9", "5", "6", "11", "16"], "time": [2732, 4591, 6451, 8332, 10348]}, "edge": {"target": [], "time": []}}, "mouseover": {"state": {"target": ["10", "8", "9", "9", "5", "6", "4", "3", "8", "11", "16", "18", "1", "28"], "time": [2021, 2088, 2134, 2467, 3484, 5318, 6784, 6851, 6919, 7135, 9667, 11767, 11982, 12539]}, "edge": {"target": [], "time": []}}, "mouseout": {"state": {"target": ["29", "26", "23", "0", "10", "8", "9", "9", "5", "6", "4", "3", "8", "11", "16", "18", "1", "28"], "time": [635, 654, 1183, 1889, 2075, 2117, 2151, 3101, 5084, 6768, 6818, 6884, 7018, 9134, 10483, 11801, 12050, 12556]}, "edge": {"target": [], "time": []}}}, "displayed_time": "17.05", "trialTime": 17686, "trial_type": "mouselab-mdp", "trial_index": 47, "time_elapsed": 1656849, "internal_node_id": "0.0-6.0-1.0-38.0"}}, {"uniqueid": "w56311035:a11587295", "current_trial": 48, "dateTime": 1693661964359, "trialdata": {"revealed_states": [], "clicked_states": ["32", "33", "29", "28", "31", "21"], "num_clicks_accrued": [0, 0, 0, 0, 0, 0, 0, 0, 0, 0, 0, 0, 0], "stateRewards": ["", 1, 1, 1, -3, -7, -1, -41, -10, 20, -72, -63, 1, -4, -2, 2, -66, 30, -84, -2, 49, 23, 71, -1, -4, 4, -12, 67, 5, 18, -16, 88, 56, -5], "withholdReward": false, "trial_id": "mdp_trial_40", "block": "test", "trialIndex": 41, "score": 62.6, "costs": -8.4, "simulationMode": [null, null, null, null, null], "rewards": [-1, -4, 4, -16, 88], "path": ["0", "0", "23", "24", "25", "30", "31"], "rt": [13705, 195, 436, 430, 562], "actions": ["left", "left", "left", "down", "right"], "actionTimes": [15846, 16553, 17494, 18437, 19520], "queries": {"click": {"state": {"target": ["32", "33", "29", "28", "31", "21"], "time": [3103, 4968, 6868, 8798, 10682, 12605]}, "edge": {"target": [], "time": []}}, "mouseover": {"state": {"target": ["31", "32", "33", "29", "26", "28", "24", "31", "21"], "time": [2447, 2758, 3791, 5941, 7391, 7641, 9290, 9558, 11857]}, "edge": {"target": [], "time": []}}, "mouseout": {"state": {"target": ["26", "23", "0", "31", "32", "33", "29", "26", "28", "24", "31", "21"], "time": [1108, 1440, 2365, 2575, 3230, 5475, 7359, 7541, 9257, 9407, 11240, 13490]}, "edge": {"target": [], "time": []}}}, "displayed_time": "20.04", "trialTime": 21456, "trial_type": "mouselab-mdp", "trial_index": 48, "time_elapsed": 1678593, "internal_node_id": "0.0-6.0-1.0-39.0"}}, {"uniqueid": "w56311035:a11587295", "current_trial": 49, "dateTime": 1693662018210, "trialdata": {"rt": 53845, "response": {"Q0": "$-2 to $2", "Q1": "$-16 to $16", "Q2": "$-88 to $88", "Q3": "The cost for clicking on nodes varied between nodes.", "Q4": "Very motivated"}, "question_order": [0, 1, 2, 3, 4], "trial_id": "final_quiz_control", "trial_type": "survey-multi-choice", "trial_index": 49, "time_elapsed": 1732445, "internal_node_id": "0.0-6.0-2.0"}}, {"uniqueid": "w56311035:a11587295", "current_trial": 50, "dateTime": 1693662142867, "trialdata": {"rt": 124635, "response": {"Q0": "To try and find highest value nodes at the furthest points.", "Q1": "if I found one that was high quickly, I would look at less nodes and take the higher amount to avoid losing more money.", "Q2": "it was always in different places so an element of luck in picking the highest nodes first."}, "trial_id": "self_report_control", "trial_type": "survey-text", "trial_index": 50, "time_elapsed": 1857103, "internal_node_id": "0.0-6.0-3.0"}}, {"uniqueid": "w56311035:a11587295", "current_trial": 51, "dateTime": 1693662168740, "trialdata": {"rt": 25869, "response": {"gender": "female", "age": "48", "colorblind": "0", "effort": "0"}, "trial_type": "survey-html-form", "trial_index": 51, "time_elapsed": 1882976, "internal_node_id": "0.0-6.0-4.0"}}, {"uniqueid": "w56311035:a11587295", "current_trial": 52, "dateTime": 1693662225690, "trialdata": {"rt": 56934, "response": {"Q0": "No it was clearly explained.", "Q1": "I think I might have done something similar...", "Q2": ""}, "trial_type": "survey-text", "trial_index": 52, "time_elapsed": 1939926, "internal_node_id": "0.0-6.0-5.0"}}, {"uniqueid": "w56311035:a11587295", "current_trial": 53, "dateTime": 1693662252350, "trialdata": {"rt": 26654, "stimulus": "<h1>Completion Code Instructions (1/2)</h1>\n<br><br><br><br>\nYou have reached the end of the experiment! The completion code consists of two parts: (1) a code with 2 characters (2) a code with 6 characters. On this page, you will receive the second part of the code. The first part of the completion code will be on the next page.\n<br><br>\nThe second part of your completion code is: <b>EWEK22</b>\n<br><br>\nPlease note this down. Then, press 'Next' in order to find the first part of your completion code. Once the data has been saved, you will receive this code either in this window or in the original browser window where you started the experiment.\n <br><br>\n<h2 style='color: red;'>Note: this is <strong>NOT</strong> the full completion code. Copy this down and click 'Next' to get the full completion code on the next page.</h2>", "response": 0, "trial_type": "html-button-response", "trial_index": 53, "time_elapsed": 1966586, "internal_node_id": "0.0-6.0-6.0"}}, {"uniqueid": "w56311035:a11587295", "current_trial": 54, "dateTime": 1693662253357, "trialdata": {"success": true, "trial_type": "fullscreen", "trial_index": 54, "time_elapsed": 1967593, "internal_node_id": "0.0-7.0"}}], "questiondata": {"params": {"CODE": "C6DMOQA6", "MIN_TIME": 14, "inspectCost": 1, "startTime": "Sat Sep 02 2023 14:11:24 GMT+0100 (British Summer Time)", "bonusRate": 0.002, "variance": "1_2_4_8_44", "branching": "31123"}, "final_score": 2200}, "eventdata": [{"eventtype": "initialized", "value": null, "timestamp": 1693660282906, "interval": 0}, {"eventtype": "window_resize", "value": [1280, 636], "timestamp": 1693660282906, "interval": 0}, {"eventtype": "window_resize", "value": [1280, 636], "timestamp": 1693660284506, "interval": 1600}, {"eventtype": "window_resize", "value": [1280, 720], "timestamp": 1693660288336, "interval": 3830}, {"eventtype": "focus", "value": "off", "timestamp": 1693660590423, "interval": 302087}, {"eventtype": "focus", "value": "on", "timestamp": 1693660591924, "interval": 1501}, {"eventtype": "focus", "value": "off", "timestamp": 1693660650604, "interval": 58680}, {"eventtype": "focus", "value": "on", "timestamp": 1693660652581, "interval": 1977}, {"eventtype": "focus", "value": "off", "timestamp": 1693660658657, "interval": 6076}, {"eventtype": "focus", "value": "on", "timestamp": 1693660662097, "interval": 3440}, {"eventtype": "focus", "value": "off", "timestamp": 1693660808997, "interval": 146900}, {"eventtype": "focus", "value": "on", "timestamp": 1693660844806, "interval": 35809}, {"eventtype": "focus", "value": "off", "timestamp": 1693660854949, "interval": 10143}, {"eventtype": "focus", "value": "on", "timestamp": 1693660857235, "interval": 2286}, {"eventtype": "focus", "value": "off", "timestamp": 1693660860946, "interval": 3711}, {"eventtype": "focus", "value": "on", "timestamp": 1693660862113, "interval": 1167}, {"eventtype": "focus", "value": "off", "timestamp": 1693660874493, "interval": 12380}, {"eventtype": "focus", "value": "on", "timestamp": 1693660877097, "interval": 2604}, {"eventtype": "focus", "value": "off", "timestamp": 1693660898194, "interval": 21097}, {"eventtype": "focus", "value": "on", "timestamp": 1693660900760, "interval": 2566}, {"eventtype": "focus", "value": "off", "timestamp": 1693661166134, "interval": 265374}, {"eventtype": "focus", "value": "on", "timestamp": 1693661167510, "interval": 1376}, {"eventtype": "focus", "value": "off", "timestamp": 1693661966957, "interval": 799447}, {"eventtype": "focus", "value": "on", "timestamp": 1693661974051, "interval": 7094}, {"eventtype": "focus", "value": "off", "timestamp": 1693661975190, "interval": 1139}, {"eventtype": "focus", "value": "on", "timestamp": 1693661975357, "interval": 167}, {"eventtype": "window_resize", "value": [1280, 720], "timestamp": 1693662025126, "interval": 49769}, {"eventtype": "window_resize", "value": [1280, 720], "timestamp": 1693662049990, "interval": 24864}, {"eventtype": "window_resize", "value": [1280, 720], "timestamp": 1693662052826, "interval": 2836}, {"eventtype": "window_resize", "value": [1280, 720], "timestamp": 1693662108891, "interval": 56065}, {"eventtype": "window_resize", "value": [1280, 720], "timestamp": 1693662111662, "interval": 2771}, {"eventtype": "window_resize", "value": [1280, 720], "timestamp": 1693662141219, "interval": 29557}, {"eventtype": "window_resize", "value": [1280, 720], "timestamp": 1693662147223, "interval": 6004}, {"eventtype": "window_resize", "value": [1280, 720], "timestamp": 1693662149383, "interval": 2160}, {"eventtype": "window_resize", "value": [1280, 720], "timestamp": 1693662169303, "interval": 19920}, {"eventtype": "window_resize", "value": [1280, 720], "timestamp": 1693662170739, "interval": 1436}, {"eventtype": "window_resize", "value": [1280, 720], "timestamp": 1693662178405, "interval": 7666}, {"eventtype": "window_resize", "value": [1280, 720], "timestamp": 1693662186431, "interval": 8026}, {"eventtype": "window_resize", "value": [1280, 720], "timestamp": 1693662195368, "interval": 8937}, {"eventtype": "window_resize", "value": [1280, 720], "timestamp": 1693662224462, "interval": 29094}, {"eventtype": "window_resize", "value": [1280, 636], "timestamp": 1693662252581, "interval": 28119}], "useragent": "Mozilla/5.0 (Windows NT 10.0; Win64; x64) AppleWebKit/537.36 (KHTML, like Gecko) Chrome/116.0.0.0 Safari/537.36", "mode": "live", "id": "w56311035:a11587295", "status": "user data saved", "Beginhit": "2023-09-02 13:11:19.803921", "Beginexp": "2023-09-02 13:11:27.585981", "Endhit": "2023-09-02 13:44:12.51391", "psiturkStatus": 3, "browser": "<redacted>", "platform": "windows", "language": "en-GB"}