{"condition": 0, "counterbalance": 0, "assignmentId": "a43408746", "workerId": "w52189751", "hitId": "h76301026", "currenttrial": 55, "bonus": 0, "data": [{"uniqueid": "w52189751:a43408746", "current_trial": 0, "dateTime": 1691074208312, "trialdata": {"success": true, "trial_type": "fullscreen", "trial_index": 0, "time_elapsed": 27195, "internal_node_id": "0.0-0.0"}}, {"uniqueid": "w52189751:a43408746", "current_trial": 1, "dateTime": 1691074247976, "trialdata": {"view_history": [{"page_index": 0, "viewing_time": 39645}], "rt": 39647, "trial_id": "exp_instructions_control", "trial_type": "instructions", "trial_index": 1, "time_elapsed": 66860, "internal_node_id": "0.0-1.0"}}, {"uniqueid": "w52189751:a43408746", "current_trial": 2, "dateTime": 1691074254722, "trialdata": {"success": true, "trial_type": "fullscreen", "trial_index": 2, "time_elapsed": 73606, "internal_node_id": "0.0-2.0-0.0"}}, {"uniqueid": "w52189751:a43408746", "current_trial": 3, "dateTime": 1691075036460, "trialdata": {"view_history": [{"page_index": 0, "viewing_time": 313575}, {"page_index": 1, "viewing_time": 106299}, {"page_index": 2, "viewing_time": 38494}, {"page_index": 3, "viewing_time": 323363}], "rt": 781731, "trial_id": "mouselab_instructions_1_control", "trial_type": "instructions", "trial_index": 3, "time_elapsed": 855344, "internal_node_id": "0.0-2.0-1.0"}}, {"uniqueid": "w52189751:a43408746", "current_trial": 4, "dateTime": 1691075088225, "trialdata": {"revealed_states": [], "clicked_states": ["26", "15", "1"], "num_clicks_accrued": [0, 0, 0, 0, 0, 0, 0, 0, 0, 0, 0, 0, 0], "stateRewards": ["", 10, -10, -10, -10, 10, -10, 10, -10, 10, -10, 10, -10, 10, 10, -10, -10, -10, -10, 10, -10, 10, 10, 10, -10, -10, 10, -10, -10, 10, 10, 10, 10, 10], "withholdReward": false, "trial_id": "practice_1", "block": "test", "trialIndex": 0, "score": -8, "costs": -1.5, "simulationMode": [null, null, null, null, null], "rewards": [10, -10, -10, -10, 10], "path": ["0", "0", "1", "2", "3", "8", "9"], "rt": [12931, 1172, 7386, 4730, 290], "actions": ["up", "up", "up", "left", "up"], "actionTimes": [18198, 19884, 27765, 33008, 33802], "queries": {"click": {"state": {"target": ["26", "15", "1"], "time": [9943, 11975, 13926]}, "edge": {"target": [], "time": []}}, "mouseover": {"state": {"target": ["23", "24", "26", "28", "1", "18", "15", "15", "12", "1"], "time": [7889, 8599, 8984, 10915, 11008, 11060, 11082, 11419, 13074, 13371]}, "edge": {"target": [], "time": []}}, "mouseout": {"state": {"target": ["0", "23", "24", "26", "28", "1", "18", "15", "15", "12", "1", "1", "0", "10", "8"], "time": [2939, 8033, 8850, 10895, 10958, 11026, 11077, 11126, 12828, 13251, 14039, 15749, 43849, 43947, 44014]}, "edge": {"target": [], "time": []}}}, "displayed_time": "34.31", "trialTime": 50279, "trial_type": "mouselab-mdp", "trial_index": 4, "time_elapsed": 907106, "internal_node_id": "0.0-2.0-2.0-0.0"}}, {"uniqueid": "w52189751:a43408746", "current_trial": 5, "dateTime": 1691075109156, "trialdata": {"revealed_states": [], "clicked_states": ["1"], "num_clicks_accrued": [0, 0, 0, 0, 0, 0, 0, 0, 0, 0, 0, 0, 0], "stateRewards": ["", 10, -10, -10, -10, -10, 10, -10, 10, -10, -10, -10, 10, -10, 10, 10, -10, 10, 10, 10, 10, 10, 10, 10, -10, -10, -10, 10, -10, 10, 10, -10, 10, -10], "withholdReward": false, "trial_id": "practice_2", "block": "test", "trialIndex": 1, "score": -7, "costs": -0.5, "simulationMode": [null, null, null, null, null], "rewards": [10, -10, -10, -10, 10], "path": ["0", "0", "1", "2", "3", "4", "6"], "rt": [7035, 1540, 435, 364, 695], "actions": ["up", "up", "up", "right", "right"], "actionTimes": [12625, 14660, 15614, 16507, 17710], "queries": {"click": {"state": {"target": ["1"], "time": [8913]}, "edge": {"target": [], "time": []}}, "mouseover": {"state": {"target": ["1"], "time": [6924]}, "edge": {"target": [], "time": []}}, "mouseout": {"state": {"target": ["9", "2", "1", "0", "0"], "time": [3553, 4005, 4026, 4051, 6468]}, "edge": {"target": [], "time": []}}}, "displayed_time": "18.22", "trialTime": 20432, "trial_type": "mouselab-mdp", "trial_index": 5, "time_elapsed": 928039, "internal_node_id": "0.0-2.0-2.0-1.0"}}, {"uniqueid": "w52189751:a43408746", "current_trial": 6, "dateTime": 1691075191963, "trialdata": {"view_history": [{"page_index": 0, "viewing_time": 59522}, {"page_index": 1, "viewing_time": 23279}], "rt": 82801, "trial_id": "mouselab_instructions_2_control", "trial_type": "instructions", "trial_index": 6, "time_elapsed": 1010847, "internal_node_id": "0.0-2.0-3.0"}}, {"uniqueid": "w52189751:a43408746", "current_trial": 7, "dateTime": 1691075261664, "trialdata": {"rt": 69640, "response": {"Q0": "The cost for clicking on nodes may vary between nodes.", "Q1": "The better I perform the higher my bonus will be.", "Q2": "No, the amount of cash at each node of the web may be different each time.", "Q3": "To get the highest total score.", "Q4": "Only before moving the spider.", "Q5": "3 seconds"}, "question_order": [0, 1, 2, 3, 4, 5], "correct": {"Q0": "The cost for clicking on nodes may vary between nodes.", "Q1": "The better I perform the higher my bonus will be.", "Q2": "No, the amount of cash at each node of the web may be different each time.", "Q3": "To get the highest total score.", "Q4": "Only before moving the spider.", "Q5": "3 seconds"}, "trial_id": "mouselab_quiz_control", "trial_type": "survey-multi-choice", "trial_index": 7, "time_elapsed": 1080547, "internal_node_id": "0.0-2.0-4.0"}}, {"uniqueid": "w52189751:a43408746", "current_trial": 8, "dateTime": 1691075288584, "trialdata": {"rt": 26886, "stimulus": "\n<h1> Get ready to start the game! </h1>\n\nThank you for reading the instructions. Get ready start with the 40 rounds of this game.\n<br><br>\nIf you need to take a break, feel free to take one after the end of a round, before continuing to the next one.\n<br><br>\nRemember, the more money the spider gets, the bigger your bonus will be!\n<br><br>\n<div style='text-align: center;'>Press <code>space</code> to begin.</div>\n\n<br><br>\n(If, at any point, the <code>space</code> key does not take you to the next page, click once on the text and try again.)", "response": " ", "trial_id": "mdp_ready", "trial_type": "html-keyboard-response", "trial_index": 8, "time_elapsed": 1107468, "internal_node_id": "0.0-4.0-0.0"}}, {"uniqueid": "w52189751:a43408746", "current_trial": 9, "dateTime": 1691075315025, "trialdata": {"revealed_states": [], "clicked_states": ["15", "23"], "num_clicks_accrued": [0, 0, 0, 0, 0, 0, 0, 0, 0, 0, 0, 0, 0], "stateRewards": ["", 1, 4, 5, -5, 58, -80, 75, 6, 25, -39, 46, 2, -2, 4, 2, 59, 31, -22, -12, -61, 15, 72, 1, -2, -7, 8, 77, 76, -23, -7, 71, -15, -3], "withholdReward": false, "trial_id": "mdp_trial_1", "block": "test", "trialIndex": 2, "score": 74.2, "costs": -2.8, "simulationMode": [null, null, null, null, null, null], "rewards": [1, -2, -7, 8, 77], "path": ["0", "0", "23", "24", "25", "26", "27"], "rt": [7157, 1913, 458, 472, 767, 769], "actions": ["left", "left", "left", "left", "up", "up"], "actionTimes": [13891, 15809, 16779, 17798, 19088, 20358], "queries": {"click": {"state": {"target": ["15", "23"], "time": [9366, 13259]}, "edge": {"target": [], "time": []}}, "mouseover": {"state": {"target": ["12", "13", "15", "29", "26", "24", "23"], "time": [7572, 7844, 8109, 10602, 10737, 11083, 11456]}, "edge": {"target": [], "time": []}}, "mouseout": {"state": {"target": ["0", "12", "13", "15", "29", "26", "24", "23"], "time": [7523, 7710, 7866, 9470, 10620, 10916, 11116, 24676]}, "edge": {"target": [], "time": []}}}, "displayed_time": "20.87", "trialTime": 25974, "trial_type": "mouselab-mdp", "trial_index": 9, "time_elapsed": 1133907, "internal_node_id": "0.0-4.0-1.0-0.0"}}, {"uniqueid": "w52189751:a43408746", "current_trial": 10, "dateTime": 1691075334654, "trialdata": {"revealed_states": [], "clicked_states": [], "num_clicks_accrued": [0, 0, 0, 0, 0, 0, 0, 0, 0, 0, 0, 0, 0], "stateRewards": ["", 1, -4, -4, 8, 1, -79, 68, -10, -79, 8, -74, -1, -3, -6, 14, 43, 23, 9, 5, -51, 63, 61, -2, 4, 6, -10, 69, -32, 57, 15, -80, -80, -77], "withholdReward": false, "trial_id": "mdp_trial_2", "block": "test", "trialIndex": 3, "score": -96, "costs": 0, "simulationMode": [null, null, null, null, null], "rewards": [1, -4, -4, -10, -79], "path": ["0", "0", "1", "2", "3", "8", "9"], "rt": [2360, 271, 821, 289, 152], "actions": ["up", "up", "up", "left", "up"], "actionTimes": [4714, 5514, 6853, 7666, 8336], "queries": {"click": {"state": {"target": [], "time": []}, "edge": {"target": [], "time": []}}, "mouseover": {"state": {"target": [], "time": []}, "edge": {"target": [], "time": []}}, "mouseout": {"state": {"target": ["0", "0", "12"], "time": [1430, 12396, 12427]}, "edge": {"target": [], "time": []}}}, "displayed_time": "16.36", "trialTime": 19196, "trial_type": "mouselab-mdp", "trial_index": 10, "time_elapsed": 1153535, "internal_node_id": "0.0-4.0-1.0-1.0"}}, {"uniqueid": "w52189751:a43408746", "current_trial": 11, "dateTime": 1691075355899, "trialdata": {"revealed_states": [], "clicked_states": [], "num_clicks_accrued": [0, 0, 0, 0, 0, 0, 0, 0, 0, 0, 0, 0, 0], "stateRewards": ["", -1, 3, 8, 9, -53, 20, -84, 2, -28, -62, -31, -1, -2, -7, 2, 51, 58, 45, -4, -17, -41, 36, 2, -2, -7, -15, 29, -54, -37, -16, -43, 65, -17], "withholdReward": false, "trial_id": "mdp_trial_3", "block": "test", "trialIndex": 4, "score": -55, "costs": 0, "simulationMode": [null, null, null, null, null], "rewards": [-1, -2, -7, -4, -41], "path": ["0", "0", "12", "13", "14", "19", "21"], "rt": [9658, 350, 342, 529, 387], "actions": ["right", "right", "right", "down", "down"], "actionTimes": [14825, 15672, 16529, 17586, 18499], "queries": {"click": {"state": {"target": [], "time": []}, "edge": {"target": [], "time": []}}, "mouseover": {"state": {"target": ["12", "13", "14", "14", "19", "20"], "time": [5991, 6935, 7307, 7923, 8055, 11655]}, "edge": {"target": [], "time": []}}, "mouseout": {"state": {"target": ["12", "13", "14", "14", "19", "20"], "time": [6846, 7157, 7343, 8002, 11622, 11702]}, "edge": {"target": [], "time": []}}}, "displayed_time": "19.17", "trialTime": 20681, "trial_type": "mouselab-mdp", "trial_index": 11, "time_elapsed": 1174780, "internal_node_id": "0.0-4.0-1.0-2.0"}}, {"uniqueid": "w52189751:a43408746", "current_trial": 12, "dateTime": 1691075374026, "trialdata": {"revealed_states": [], "clicked_states": [], "num_clicks_accrued": [0, 0, 0, 0, 0, 0, 0, 0, 0, 0, 0, 0, 0], "stateRewards": ["", 2, 4, 7, -6, -76, -81, 2, 5, -66, -3, 36, -2, -4, 6, -2, -69, 4, -49, -6, 67, 38, -67, 2, 1, 1, 6, -68, -21, 52, -16, -16, 6, -70], "withholdReward": false, "trial_id": "mdp_trial_4", "block": "test", "trialIndex": 5, "score": -58, "costs": 0, "simulationMode": [null, null, null, null, null], "rewards": [2, 1, 1, 6, -68], "path": ["0", "0", "23", "24", "25", "26", "27"], "rt": [4605, 168, 237, 498, 238], "actions": ["left", "left", "left", "up", "up"], "actionTimes": [6800, 7481, 8246, 9261, 10011], "queries": {"click": {"state": {"target": [], "time": []}, "edge": {"target": [], "time": []}}, "mouseover": {"state": {"target": ["23", "24", "25"], "time": [4127, 4326, 4593]}, "edge": {"target": [], "time": []}}, "mouseout": {"state": {"target": ["12", "23", "0", "23", "24", "25", "1"], "time": [737, 1156, 1454, 4277, 4428, 13009, 13075]}, "edge": {"target": [], "time": []}}}, "displayed_time": "16.20", "trialTime": 17610, "trial_type": "mouselab-mdp", "trial_index": 12, "time_elapsed": 1192907, "internal_node_id": "0.0-4.0-1.0-3.0"}}, {"uniqueid": "w52189751:a43408746", "current_trial": 13, "dateTime": 1691075393672, "trialdata": {"revealed_states": [], "clicked_states": [], "num_clicks_accrued": [0, 0, 0, 0, 0, 0, 0, 0, 0, 0, 0, 0, 0], "stateRewards": ["", 1, 2, -3, -6, 50, -7, 7, -7, -80, 21, -1, 2, 2, 4, -1, 33, 84, 1, 14, -53, 81, 6, -2, -2, -3, -9, -87, -38, -59, -5, -74, -3, -71], "withholdReward": false, "trial_id": "mdp_trial_5", "block": "test", "trialIndex": 6, "score": 44, "costs": 0, "simulationMode": [null, null, null, null, null], "rewards": [1, 2, -3, -6, 50], "path": ["0", "0", "1", "2", "3", "4", "5"], "rt": [1803, 403, 525, 245, 17], "actions": ["up", "up", "up", "right", "up"], "actionTimes": [5028, 5956, 7011, 7766, 8310], "queries": {"click": {"state": {"target": [], "time": []}, "edge": {"target": [], "time": []}}, "mouseover": {"state": {"target": [], "time": []}, "edge": {"target": [], "time": []}}, "mouseout": {"state": {"target": ["14", "13", "12"], "time": [1788, 1853, 2206]}, "edge": {"target": [], "time": []}}}, "displayed_time": "17.23", "trialTime": 19056, "trial_type": "mouselab-mdp", "trial_index": 13, "time_elapsed": 1212554, "internal_node_id": "0.0-4.0-1.0-4.0"}}, {"uniqueid": "w52189751:a43408746", "current_trial": 14, "dateTime": 1691075412470, "trialdata": {"revealed_states": [], "clicked_states": ["26"], "num_clicks_accrued": [0, 0, 0, 0, 0, 0, 0, 0, 0, 0, 0, 0, 0], "stateRewards": ["", -2, -4, 6, 14, -34, 49, 36, -8, -3, 32, -4, 1, -2, 1, -8, -20, -71, -57, -7, -86, -62, -16, -2, -3, -5, 11, 23, -21, 53, 5, -5, 85, 73], "withholdReward": false, "trial_id": "mdp_trial_6", "block": "test", "trialIndex": 7, "score": 52.6, "costs": -1.4, "simulationMode": [null, null, null, null, null], "rewards": [-2, -3, -5, 11, 53], "path": ["0", "0", "23", "24", "25", "26", "29"], "rt": [6047, 361, 255, 357, 348], "actions": ["left", "left", "left", "up", "left"], "actionTimes": [8609, 9502, 10273, 11129, 12006], "queries": {"click": {"state": {"target": ["26"], "time": [4817]}, "edge": {"target": [], "time": []}}, "mouseover": {"state": {"target": ["23", "28", "26"], "time": [3639, 3685, 4122]}, "edge": {"target": [], "time": []}}, "mouseout": {"state": {"target": ["21", "0", "23", "28", "26", "28", "7"], "time": [986, 3612, 3653, 3703, 14305, 14345, 14371]}, "edge": {"target": [], "time": []}}}, "displayed_time": "16.56", "trialTime": 18270, "trial_type": "mouselab-mdp", "trial_index": 14, "time_elapsed": 1231352, "internal_node_id": "0.0-4.0-1.0-5.0"}}, {"uniqueid": "w52189751:a43408746", "current_trial": 15, "dateTime": 1691075432322, "trialdata": {"revealed_states": [], "clicked_states": ["1"], "num_clicks_accrued": [0, 0, 0, 0, 0, 0, 0, 0, 0, 0, 0, 0, 0], "stateRewards": ["", -1, 4, -6, -5, -22, -38, -38, -2, -56, 88, 14, -1, -1, -7, -6, 61, -60, 21, 11, 57, 31, -30, -2, -2, 6, -9, -44, -70, -44, -15, 34, 16, -78], "withholdReward": false, "trial_id": "mdp_trial_7", "block": "test", "trialIndex": 8, "score": 1.5999999999999996, "costs": -1.4, "simulationMode": [null, null, null, null, null], "rewards": [-2, -2, 6, -15, 16], "path": ["0", "0", "23", "24", "25", "30", "32"], "rt": [5666, 207, 403, 255, 1927], "actions": ["left", "left", "left", "down", "down"], "actionTimes": [7993, 8736, 9638, 10407, 12849], "queries": {"click": {"state": {"target": ["1"], "time": [4189]}, "edge": {"target": [], "time": []}}, "mouseover": {"state": {"target": ["1", "18", "15", "18", "12", "13", "14", "13", "12", "0", "23"], "time": [3101, 4848, 5249, 5865, 6178, 6251, 6383, 6713, 6782, 7025, 7131]}, "edge": {"target": [], "time": []}}, "mouseout": {"state": {"target": ["0", "1", "18", "15", "18", "12", "13", "14", "13", "12", "0", "23"], "time": [1586, 4748, 4914, 5821, 5892, 6217, 6300, 6672, 6736, 6989, 7080, 18654]}, "edge": {"target": [], "time": []}}}, "displayed_time": "16.33", "trialTime": 19273, "trial_type": "mouselab-mdp", "trial_index": 15, "time_elapsed": 1251204, "internal_node_id": "0.0-4.0-1.0-6.0"}}, {"uniqueid": "w52189751:a43408746", "current_trial": 16, "dateTime": 1691075451757, "trialdata": {"revealed_states": [], "clicked_states": ["13"], "num_clicks_accrued": [0, 0, 0, 0, 0, 0, 0, 0, 0, 0, 0, 0, 0], "stateRewards": ["", -1, 3, 1, -11, -22, -36, 19, -5, -70, -52, 50, -2, -4, 4, -2, -41, -83, 29, -2, 22, 10, -6, -2, 3, -2, 14, 54, 44, 77, -9, -65, -37, -40], "withholdReward": false, "trial_id": "mdp_trial_8", "block": "test", "trialIndex": 9, "score": 9.6, "costs": -1.4, "simulationMode": [null, null, null, null, null], "rewards": [-1, 3, 1, -11, 19], "path": ["0", "0", "1", "2", "3", "4", "7"], "rt": [5767, 355, 391, 261, 747], "actions": ["up", "up", "up", "right", "down"], "actionTimes": [9335, 10212, 11114, 11903, 13189], "queries": {"click": {"state": {"target": ["13"], "time": [5536]}, "edge": {"target": [], "time": []}}, "mouseover": {"state": {"target": ["12", "18", "13", "12"], "time": [4021, 4205, 4918, 6698]}, "edge": {"target": [], "time": []}}, "mouseout": {"state": {"target": ["1", "0", "0", "12", "18", "13", "12"], "time": [573, 653, 3889, 4090, 4606, 5638, 6815]}, "edge": {"target": [], "time": []}}}, "displayed_time": "17.57", "trialTime": 18875, "trial_type": "mouselab-mdp", "trial_index": 16, "time_elapsed": 1270639, "internal_node_id": "0.0-4.0-1.0-7.0"}}, {"uniqueid": "w52189751:a43408746", "current_trial": 17, "dateTime": 1691075471170, "trialdata": {"revealed_states": [], "clicked_states": [], "num_clicks_accrued": [0, 0, 0, 0, 0, 0, 0, 0, 0, 0, 0, 0, 0], "stateRewards": ["", -2, -3, 7, -13, 60, 9, 37, -6, 37, 20, 1, 2, -2, -8, 6, -80, -31, -10, -7, 70, -65, -44, -1, 1, 7, 6, -11, 73, -85, 16, -21, 47, 34], "withholdReward": false, "trial_id": "mdp_trial_9", "block": "test", "trialIndex": 10, "score": 2, "costs": 0, "simulationMode": [null, null, null, null, null], "rewards": [-1, 1, 7, 16, -21], "path": ["0", "0", "23", "24", "25", "30", "31"], "rt": [2065, 485, 291, 32, 467], "actions": ["left", "left", "left", "down", "right"], "actionTimes": [5843, 6868, 7664, 8211, 9177], "queries": {"click": {"state": {"target": [], "time": []}, "edge": {"target": [], "time": []}}, "mouseover": {"state": {"target": ["0", "23"], "time": [4310, 4547]}, "edge": {"target": [], "time": []}}, "mouseout": {"state": {"target": ["0"], "time": [4426]}, "edge": {"target": [], "time": []}}}, "displayed_time": "17.78", "trialTime": 18846, "trial_type": "mouselab-mdp", "trial_index": 17, "time_elapsed": 1290052, "internal_node_id": "0.0-4.0-1.0-8.0"}}, {"uniqueid": "w52189751:a43408746", "current_trial": 18, "dateTime": 1691075488643, "trialdata": {"revealed_states": [], "clicked_states": [], "num_clicks_accrued": [0, 0, 0, 0, 0, 0, 0, 0, 0, 0, 0, 0, 0], "stateRewards": ["", 2, -1, -2, -5, -47, -57, -33, -11, 31, -18, -72, -2, 1, -4, -8, -46, -53, -50, 15, -85, -9, 39, -2, -2, 1, 14, -1, -8, 53, -12, -41, -74, 62], "withholdReward": false, "trial_id": "mdp_trial_10", "block": "test", "trialIndex": 11, "score": -30, "costs": 0, "simulationMode": [null, null, null, null, null], "rewards": [2, -1, -2, -11, -18], "path": ["0", "0", "1", "2", "3", "8", "10"], "rt": [1632, 1019, 310, 1257, 44], "actions": ["up", "up", "up", "left", "down"], "actionTimes": [3473, 5006, 5823, 7591, 8143], "queries": {"click": {"state": {"target": [], "time": []}, "edge": {"target": [], "time": []}}, "mouseover": {"state": {"target": ["1"], "time": [2720]}, "edge": {"target": [], "time": []}}, "mouseout": {"state": {"target": ["23", "0"], "time": [623, 2589]}, "edge": {"target": [], "time": []}}}, "displayed_time": "15.84", "trialTime": 16912, "trial_type": "mouselab-mdp", "trial_index": 18, "time_elapsed": 1307525, "internal_node_id": "0.0-4.0-1.0-9.0"}}, {"uniqueid": "w52189751:a43408746", "current_trial": 19, "dateTime": 1691075508145, "trialdata": {"revealed_states": [], "clicked_states": [], "num_clicks_accrued": [0, 0, 0, 0, 0, 0, 0, 0, 0, 0, 0, 0, 0], "stateRewards": ["", 2, -3, -2, 14, -4, 85, 46, 15, -28, 41, 31, -1, -1, -1, 5, 62, 79, 57, 12, -73, -64, 86, -1, 1, -3, -5, 68, 11, -32, 8, -80, -21, -56], "withholdReward": false, "trial_id": "mdp_trial_11", "block": "test", "trialIndex": 12, "score": 59, "costs": 0, "simulationMode": [null, null, null, null, null], "rewards": [-1, -1, -1, 5, 57], "path": ["0", "0", "12", "13", "14", "15", "18"], "rt": [1088, 174, 200, 413, 587], "actions": ["right", "right", "right", "up", "left"], "actionTimes": [4711, 5402, 6096, 7026, 8124], "queries": {"click": {"state": {"target": [], "time": []}, "edge": {"target": [], "time": []}}, "mouseover": {"state": {"target": [], "time": []}, "edge": {"target": [], "time": []}}, "mouseout": {"state": {"target": ["1"], "time": [1078]}, "edge": {"target": [], "time": []}}}, "displayed_time": "17.63", "trialTime": 18962, "trial_type": "mouselab-mdp", "trial_index": 19, "time_elapsed": 1327028, "internal_node_id": "0.0-4.0-1.0-10.0"}}, {"uniqueid": "w52189751:a43408746", "current_trial": 20, "dateTime": 1691075529437, "trialdata": {"revealed_states": [], "clicked_states": [], "num_clicks_accrued": [0, 0, 0, 0, 0, 0, 0, 0, 0, 0, 0, 0, 0], "stateRewards": ["", -2, -3, 1, -14, 48, -49, 67, -1, -35, -48, 3, -2, 1, -4, -5, 86, -84, 39, 1, 48, 41, -42, -1, -4, 2, -7, 18, -86, 17, 7, -9, 57, -69], "withholdReward": false, "trial_id": "mdp_trial_12", "block": "test", "trialIndex": 13, "score": 29, "costs": 0, "simulationMode": [null, null, null, null, null], "rewards": [-2, 1, -4, -5, 39], "path": ["0", "0", "12", "13", "14", "15", "18"], "rt": [2025, 119, 150, 227, 68], "actions": ["right", "right", "right", "up", "left"], "actionTimes": [6181, 6825, 7482, 8222, 8813], "queries": {"click": {"state": {"target": [], "time": []}, "edge": {"target": [], "time": []}}, "mouseover": {"state": {"target": [], "time": []}, "edge": {"target": [], "time": []}}, "mouseout": {"state": {"target": ["0"], "time": [3223]}, "edge": {"target": [], "time": []}}}, "displayed_time": "18.16", "trialTime": 20770, "trial_type": "mouselab-mdp", "trial_index": 20, "time_elapsed": 1348319, "internal_node_id": "0.0-4.0-1.0-11.0"}}, {"uniqueid": "w52189751:a43408746", "current_trial": 21, "dateTime": 1691075549043, "trialdata": {"revealed_states": [], "clicked_states": [], "num_clicks_accrued": [0, 0, 0, 0, 0, 0, 0, 0, 0, 0, 0, 0, 0], "stateRewards": ["", -2, -3, -6, -7, 9, 16, 65, 5, -41, 20, -25, -1, -4, 1, -11, -49, -4, 71, 1, 39, -62, 52, -2, -3, 7, -9, -28, -70, 84, 8, 24, -58, 82], "withholdReward": false, "trial_id": "mdp_trial_13", "block": "test", "trialIndex": 14, "score": 56, "costs": 0, "simulationMode": [null, null, null, null, null], "rewards": [-1, -4, 1, -11, 71], "path": ["0", "0", "12", "13", "14", "15", "18"], "rt": [1375, 214, 393, 1113, 401], "actions": ["right", "right", "right", "up", "left"], "actionTimes": [4756, 5506, 6426, 8076, 8998], "queries": {"click": {"state": {"target": [], "time": []}, "edge": {"target": [], "time": []}}, "mouseover": {"state": {"target": [], "time": []}, "edge": {"target": [], "time": []}}, "mouseout": {"state": {"target": ["0"], "time": [2985]}, "edge": {"target": [], "time": []}}}, "displayed_time": "17.38", "trialTime": 19028, "trial_type": "mouselab-mdp", "trial_index": 21, "time_elapsed": 1367925, "internal_node_id": "0.0-4.0-1.0-12.0"}}, {"uniqueid": "w52189751:a43408746", "current_trial": 22, "dateTime": 1691075570463, "trialdata": {"revealed_states": [], "clicked_states": [], "num_clicks_accrued": [0, 0, 0, 0, 0, 0, 0, 0, 0, 0, 0, 0, 0], "stateRewards": ["", 1, -1, 1, 13, 31, -56, 72, 2, 41, 5, 63, -2, -3, -2, 3, -71, -26, 52, 13, -31, 24, -67, 2, -2, 5, 4, 66, 43, 72, 9, 86, -26, 44], "withholdReward": false, "trial_id": "mdp_trial_14", "block": "test", "trialIndex": 15, "score": 48, "costs": 0, "simulationMode": [null, null, null, null, null], "rewards": [-2, -3, -2, 3, 52], "path": ["0", "0", "12", "13", "14", "15", "18"], "rt": [1681, 138, 327, 172, 243], "actions": ["right", "right", "right", "up", "left"], "actionTimes": [6172, 6832, 7703, 8409, 9167], "queries": {"click": {"state": {"target": [], "time": []}, "edge": {"target": [], "time": []}}, "mouseover": {"state": {"target": [], "time": []}, "edge": {"target": [], "time": []}}, "mouseout": {"state": {"target": ["0"], "time": [4123]}, "edge": {"target": [], "time": []}}}, "displayed_time": "18.50", "trialTime": 20841, "trial_type": "mouselab-mdp", "trial_index": 22, "time_elapsed": 1389344, "internal_node_id": "0.0-4.0-1.0-13.0"}}, {"uniqueid": "w52189751:a43408746", "current_trial": 23, "dateTime": 1691075590345, "trialdata": {"revealed_states": [], "clicked_states": [], "num_clicks_accrued": [0, 0, 0, 0, 0, 0, 0, 0, 0, 0, 0, 0, 0], "stateRewards": ["", 1, 2, -5, 14, 54, -14, -25, 16, -5, -87, 78, -1, 1, 3, -3, 52, 53, 53, -10, 73, -69, -48, 2, 3, 1, 8, -62, -7, 85, 7, 82, 52, -28], "withholdReward": false, "trial_id": "mdp_trial_15", "block": "test", "trialIndex": 16, "score": 53, "costs": 0, "simulationMode": [null, null, null, null, null], "rewards": [-1, 1, 3, -3, 53], "path": ["0", "0", "12", "13", "14", "15", "18"], "rt": [942, 22, 171, 333, 63], "actions": ["right", "right", "right", "up", "left"], "actionTimes": [4933, 5484, 6215, 7081, 7695], "queries": {"click": {"state": {"target": [], "time": []}, "edge": {"target": [], "time": []}}, "mouseover": {"state": {"target": [], "time": []}, "edge": {"target": [], "time": []}}, "mouseout": {"state": {"target": ["0"], "time": [3610]}, "edge": {"target": [], "time": []}}}, "displayed_time": "18.04", "trialTime": 19263, "trial_type": "mouselab-mdp", "trial_index": 23, "time_elapsed": 1409226, "internal_node_id": "0.0-4.0-1.0-14.0"}}, {"uniqueid": "w52189751:a43408746", "current_trial": 24, "dateTime": 1691075618328, "trialdata": {"revealed_states": [], "clicked_states": [], "num_clicks_accrued": [0, 0, 0, 0, 0, 0, 0, 0, 0, 0, 0, 0, 0], "stateRewards": ["", -1, -1, 4, -16, -75, 81, -51, -7, -84, 73, -30, -2, 1, -3, -16, -77, 33, 14, 1, 45, 87, -66, 2, 2, -5, -7, -19, -17, 79, -3, 8, 49, 47], "withholdReward": false, "trial_id": "mdp_trial_16", "block": "test", "trialIndex": 17, "score": -6, "costs": 0, "simulationMode": [null, null, null, null, null], "rewards": [-2, 1, -3, -16, 14], "path": ["0", "0", "12", "13", "14", "15", "18"], "rt": [1277, 289, 204, 217, 122], "actions": ["right", "right", "right", "up", "left"], "actionTimes": [5452, 6312, 7063, 7843, 8504], "queries": {"click": {"state": {"target": [], "time": []}, "edge": {"target": [], "time": []}}, "mouseover": {"state": {"target": [], "time": []}, "edge": {"target": [], "time": []}}, "mouseout": {"state": {"target": ["0"], "time": [2729]}, "edge": {"target": [], "time": []}}}, "displayed_time": "18.18", "trialTime": 27338, "trial_type": "mouselab-mdp", "trial_index": 24, "time_elapsed": 1437209, "internal_node_id": "0.0-4.0-1.0-15.0"}}, {"uniqueid": "w52189751:a43408746", "current_trial": 25, "dateTime": 1691075640137, "trialdata": {"revealed_states": [], "clicked_states": [], "num_clicks_accrued": [0, 0, 0, 0, 0, 0, 0, 0, 0, 0, 0, 0, 0], "stateRewards": ["", -1, -3, -6, -2, -7, 80, -45, -3, -38, -72, 76, 2, 1, 7, 4, -62, 14, -74, 14, -87, -21, -88, -2, 1, -7, -10, 66, 56, -76, 10, -29, -72, -70], "withholdReward": false, "trial_id": "mdp_trial_17", "block": "test", "trialIndex": 18, "score": -60, "costs": 0, "simulationMode": [null, null, null, null, null], "rewards": [2, 1, 7, 4, -74], "path": ["0", "0", "12", "13", "14", "15", "18"], "rt": [1671, 58, 52, 280, 493], "actions": ["right", "right", "right", "up", "left"], "actionTimes": [6726, 7343, 7933, 8781, 9803], "queries": {"click": {"state": {"target": [], "time": []}, "edge": {"target": [], "time": []}}, "mouseover": {"state": {"target": [], "time": []}, "edge": {"target": [], "time": []}}, "mouseout": {"state": {"target": ["0", "12", "23"], "time": [3440, 3557, 3888]}, "edge": {"target": [], "time": []}}}, "displayed_time": "19.06", "trialTime": 21216, "trial_type": "mouselab-mdp", "trial_index": 25, "time_elapsed": 1459019, "internal_node_id": "0.0-4.0-1.0-16.0"}}, {"uniqueid": "w52189751:a43408746", "current_trial": 26, "dateTime": 1691075661200, "trialdata": {"revealed_states": [], "clicked_states": [], "num_clicks_accrued": [0, 0, 0, 0, 0, 0, 0, 0, 0, 0, 0, 0, 0], "stateRewards": ["", 2, 2, 3, -15, 23, -14, 73, -7, -32, -20, -6, 1, 1, -5, -12, 73, 6, -84, 11, -81, -57, 13, -2, -1, -4, -8, -52, -58, 49, 13, 5, -41, -41], "withholdReward": false, "trial_id": "mdp_trial_18", "block": "test", "trialIndex": 19, "score": -73, "costs": 0, "simulationMode": [null, null, null, null, null], "rewards": [-2, -1, -4, -8, -58], "path": ["0", "0", "23", "24", "25", "26", "28"], "rt": [1203, 62, 97, 284, 227], "actions": ["left", "left", "left", "up", "right"], "actionTimes": [4576, 5153, 5784, 6658, 7419], "queries": {"click": {"state": {"target": [], "time": []}, "edge": {"target": [], "time": []}}, "mouseover": {"state": {"target": [], "time": []}, "edge": {"target": [], "time": []}}, "mouseout": {"state": {"target": [], "time": []}, "edge": {"target": [], "time": []}}}, "displayed_time": "17.38", "trialTime": 20417, "trial_type": "mouselab-mdp", "trial_index": 26, "time_elapsed": 1480081, "internal_node_id": "0.0-4.0-1.0-17.0"}}, {"uniqueid": "w52189751:a43408746", "current_trial": 27, "dateTime": 1691075680472, "trialdata": {"revealed_states": [], "clicked_states": [], "num_clicks_accrued": [0, 0, 0, 0, 0, 0, 0, 0, 0, 0, 0, 0, 0], "stateRewards": ["", -1, 1, 8, -3, -24, 11, -65, -6, -77, 48, 44, -2, 1, -2, -7, -55, -35, 33, 8, -28, 19, -53, -1, -1, -5, -5, -70, 10, 44, 8, -58, -70, 51], "withholdReward": false, "trial_id": "mdp_trial_19", "block": "test", "trialIndex": 20, "score": -69, "costs": 0, "simulationMode": [null, null, null, null, null], "rewards": [-1, -1, -5, 8, -70], "path": ["0", "0", "23", "24", "25", "30", "32"], "rt": [2086, 5, 220, 72, 340], "actions": ["left", "left", "left", "down", "down"], "actionTimes": [4891, 5415, 6221, 6842, 7715], "queries": {"click": {"state": {"target": [], "time": []}, "edge": {"target": [], "time": []}}, "mouseover": {"state": {"target": [], "time": []}, "edge": {"target": [], "time": []}}, "mouseout": {"state": {"target": [], "time": []}, "edge": {"target": [], "time": []}}}, "displayed_time": "16.81", "trialTime": 18652, "trial_type": "mouselab-mdp", "trial_index": 27, "time_elapsed": 1499354, "internal_node_id": "0.0-4.0-1.0-18.0"}}, {"uniqueid": "w52189751:a43408746", "current_trial": 28, "dateTime": 1691075702243, "trialdata": {"revealed_states": [], "clicked_states": [], "num_clicks_accrued": [0, 0, 0, 0, 0, 0, 0, 0, 0, 0, 0, 0, 0], "stateRewards": ["", -1, -3, 3, 5, 56, 39, 50, -1, -80, 33, -46, 1, -2, -6, -8, 87, 48, 54, -11, -20, -64, -54, -2, 3, -7, -3, 12, 88, 35, -16, -46, -70, -3], "withholdReward": false, "trial_id": "mdp_trial_20", "block": "test", "trialIndex": 21, "score": 31, "costs": 0, "simulationMode": [null, null, null, null, null], "rewards": [-1, -3, 3, -1, 33], "path": ["0", "0", "1", "2", "3", "8", "10"], "rt": [1801, 9, 147, 630, 428], "actions": ["up", "up", "up", "left", "down"], "actionTimes": [7970, 8499, 9186, 10366, 11371], "queries": {"click": {"state": {"target": [], "time": []}, "edge": {"target": [], "time": []}}, "mouseover": {"state": {"target": [], "time": []}, "edge": {"target": [], "time": []}}, "mouseout": {"state": {"target": ["0"], "time": [4878]}, "edge": {"target": [], "time": []}}}, "displayed_time": "20.17", "trialTime": 21132, "trial_type": "mouselab-mdp", "trial_index": 28, "time_elapsed": 1521126, "internal_node_id": "0.0-4.0-1.0-19.0"}}, {"uniqueid": "w52189751:a43408746", "current_trial": 29, "dateTime": 1691075723194, "trialdata": {"revealed_states": [], "clicked_states": [], "num_clicks_accrued": [0, 0, 0, 0, 0, 0, 0, 0, 0, 0, 0, 0, 0], "stateRewards": ["", -1, -2, 4, 9, 10, -75, 39, 16, -43, 88, -19, -1, 1, 2, 4, -31, 10, 73, 12, 41, -64, -81, -2, 2, -6, 1, -81, -1, -26, 3, -59, -3, -20], "withholdReward": false, "trial_id": "mdp_trial_21", "block": "test", "trialIndex": 22, "score": 105, "costs": 0, "simulationMode": [null, null, null, null, null], "rewards": [-1, -2, 4, 16, 88], "path": ["0", "0", "1", "2", "3", "8", "10"], "rt": [1414, 88, 203, 282, 232], "actions": ["up", "up", "up", "left", "down"], "actionTimes": [3962, 4569, 5308, 6123, 7809], "queries": {"click": {"state": {"target": [], "time": []}, "edge": {"target": [], "time": []}}, "mouseover": {"state": {"target": ["0"], "time": [3047]}, "edge": {"target": [], "time": []}}, "mouseout": {"state": {"target": ["0"], "time": [2713]}, "edge": {"target": [], "time": []}}}, "displayed_time": "16.55", "trialTime": 20132, "trial_type": "mouselab-mdp", "trial_index": 29, "time_elapsed": 1542076, "internal_node_id": "0.0-4.0-1.0-20.0"}}, {"uniqueid": "w52189751:a43408746", "current_trial": 30, "dateTime": 1691075748391, "trialdata": {"revealed_states": [], "clicked_states": [], "num_clicks_accrued": [0, 0, 0, 0, 0, 0, 0, 0, 0, 0, 0, 0, 0], "stateRewards": ["", 1, -4, -6, 11, -20, 8, -30, 1, -38, 88, 42, 2, 3, 5, -12, -8, -74, 30, -8, 67, -19, 42, 2, -1, 4, 13, 50, -68, 2, -8, -15, 87, -46], "withholdReward": false, "trial_id": "mdp_trial_22", "block": "test", "trialIndex": 23, "score": 80, "costs": 0, "simulationMode": [null, null, null, null, null], "rewards": [1, -4, -6, 1, 88], "path": ["0", "0", "1", "2", "3", "8", "10"], "rt": [1013, 735, 234, 73, 72], "actions": ["up", "up", "up", "left", "down"], "actionTimes": [7583, 8905, 9671, 10292, 10902], "queries": {"click": {"state": {"target": [], "time": []}, "edge": {"target": [], "time": []}}, "mouseover": {"state": {"target": [], "time": []}, "edge": {"target": [], "time": []}}, "mouseout": {"state": {"target": [], "time": []}, "edge": {"target": [], "time": []}}}, "displayed_time": "20.57", "trialTime": 24615, "trial_type": "mouselab-mdp", "trial_index": 30, "time_elapsed": 1567273, "internal_node_id": "0.0-4.0-1.0-21.0"}}, {"uniqueid": "w52189751:a43408746", "current_trial": 31, "dateTime": 1691075771560, "trialdata": {"revealed_states": [], "clicked_states": [], "num_clicks_accrued": [0, 0, 0, 0, 0, 0, 0, 0, 0, 0, 0, 0, 0], "stateRewards": ["", 1, 1, 1, -3, -7, -1, -41, -10, 20, -72, -63, 1, -4, -2, 2, -66, 30, -84, -2, 49, 23, 71, -1, -4, 4, -12, 67, 5, 18, -16, 88, 56, -5], "withholdReward": false, "trial_id": "mdp_trial_23", "block": "test", "trialIndex": 24, "score": -79, "costs": 0, "simulationMode": [null, null, null, null, null], "rewards": [1, 1, 1, -10, -72], "path": ["0", "0", "1", "2", "3", "8", "10"], "rt": [1313, 15, 298, 36, 32], "actions": ["up", "up", "up", "left", "down"], "actionTimes": [6600, 7157, 8024, 8616, 9230], "queries": {"click": {"state": {"target": [], "time": []}, "edge": {"target": [], "time": []}}, "mouseover": {"state": {"target": [], "time": []}, "edge": {"target": [], "time": []}}, "mouseout": {"state": {"target": [], "time": []}, "edge": {"target": [], "time": []}}}, "displayed_time": "19.29", "trialTime": 22566, "trial_type": "mouselab-mdp", "trial_index": 31, "time_elapsed": 1590442, "internal_node_id": "0.0-4.0-1.0-22.0"}}, {"uniqueid": "w52189751:a43408746", "current_trial": 32, "dateTime": 1691075791825, "trialdata": {"revealed_states": [], "clicked_states": [], "num_clicks_accrued": [0, 0, 0, 0, 0, 0, 0, 0, 0, 0, 0, 0, 0], "stateRewards": ["", -1, -4, 8, 8, -68, 47, 24, -7, -61, 49, -69, -1, -1, 8, -7, 42, 1, -45, -11, 10, -63, -6, 1, 4, 6, -16, 79, -37, -58, -12, 81, 18, -53], "withholdReward": false, "trial_id": "mdp_trial_24", "block": "test", "trialIndex": 25, "score": 35, "costs": 0, "simulationMode": [null, null, null, null, null], "rewards": [-1, -4, 8, 8, 24], "path": ["0", "0", "1", "2", "3", "4", "7"], "rt": [1201, 360, 96, 108, 58], "actions": ["up", "up", "up", "right", "down"], "actionTimes": [5405, 6313, 6942, 7582, 8171], "queries": {"click": {"state": {"target": [], "time": []}, "edge": {"target": [], "time": []}}, "mouseover": {"state": {"target": [], "time": []}, "edge": {"target": [], "time": []}}, "mouseout": {"state": {"target": ["0", "12", "0"], "time": [2361, 2660, 2875]}, "edge": {"target": [], "time": []}}}, "displayed_time": "18.21", "trialTime": 19614, "trial_type": "mouselab-mdp", "trial_index": 32, "time_elapsed": 1610707, "internal_node_id": "0.0-4.0-1.0-23.0"}}, {"uniqueid": "w52189751:a43408746", "current_trial": 33, "dateTime": 1691075810920, "trialdata": {"revealed_states": [], "clicked_states": [], "num_clicks_accrued": [0, 0, 0, 0, 0, 0, 0, 0, 0, 0, 0, 0, 0], "stateRewards": ["", -1, -2, -1, -10, -57, 73, -72, -16, 75, -14, -46, -2, -3, -7, -1, -61, -60, 76, -4, 50, 4, 14, 2, 2, -7, 12, -65, -32, 15, -8, -76, -25, -61], "withholdReward": false, "trial_id": "mdp_trial_25", "block": "test", "trialIndex": 26, "score": -86, "costs": 0, "simulationMode": [null, null, null, null, null], "rewards": [-1, -2, -1, -10, -72], "path": ["0", "0", "1", "2", "3", "4", "7"], "rt": [1060, 541, 239, 37, 17], "actions": ["up", "up", "up", "right", "down"], "actionTimes": [4597, 5706, 6486, 7082, 7647], "queries": {"click": {"state": {"target": [], "time": []}, "edge": {"target": [], "time": []}}, "mouseover": {"state": {"target": [], "time": []}, "edge": {"target": [], "time": []}}, "mouseout": {"state": {"target": ["0", "12"], "time": [2285, 2579]}, "edge": {"target": [], "time": []}}}, "displayed_time": "17.54", "trialTime": 18481, "trial_type": "mouselab-mdp", "trial_index": 33, "time_elapsed": 1629802, "internal_node_id": "0.0-4.0-1.0-24.0"}}, {"uniqueid": "w52189751:a43408746", "current_trial": 34, "dateTime": 1691075830127, "trialdata": {"revealed_states": [], "clicked_states": [], "num_clicks_accrued": [0, 0, 0, 0, 0, 0, 0, 0, 0, 0, 0, 0, 0], "stateRewards": ["", -2, 2, -5, -6, 10, -66, -58, -10, -11, -63, -70, -1, -4, -5, 7, 66, -64, -43, -3, 45, -37, 4, -2, -2, -6, -4, -30, 33, 43, 15, -32, -65, -59], "withholdReward": false, "trial_id": "mdp_trial_26", "block": "test", "trialIndex": 27, "score": -1, "costs": 0, "simulationMode": [null, null, null, null, null], "rewards": [-2, 2, -5, -6, 10], "path": ["0", "0", "1", "2", "3", "4", "5"], "rt": [1420, 1610, 157, 230, 266], "actions": ["up", "up", "up", "right", "up"], "actionTimes": [4621, 6761, 7438, 8231, 9035], "queries": {"click": {"state": {"target": [], "time": []}, "edge": {"target": [], "time": []}}, "mouseover": {"state": {"target": [], "time": []}, "edge": {"target": [], "time": []}}, "mouseout": {"state": {"target": ["0"], "time": [2767]}, "edge": {"target": [], "time": []}}}, "displayed_time": "17.20", "trialTime": 18427, "trial_type": "mouselab-mdp", "trial_index": 34, "time_elapsed": 1649008, "internal_node_id": "0.0-4.0-1.0-25.0"}}, {"uniqueid": "w52189751:a43408746", "current_trial": 35, "dateTime": 1691075853659, "trialdata": {"revealed_states": [], "clicked_states": [], "num_clicks_accrued": [0, 0, 0, 0, 0, 0, 0, 0, 0, 0, 0, 0, 0], "stateRewards": ["", -2, 1, -8, 12, -65, -79, 16, 7, -80, -17, -45, -2, 2, -5, -2, -85, 23, -4, -7, 48, 27, -76, 2, 3, 5, 2, 43, 71, -13, 7, -49, 59, -31], "withholdReward": false, "trial_id": "mdp_trial_27", "block": "test", "trialIndex": 28, "score": 15, "costs": 0, "simulationMode": [null, null, null, null, null], "rewards": [-2, 2, -5, -7, 27], "path": ["0", "0", "12", "13", "14", "19", "21"], "rt": [2158, 502, 276, 58, 249], "actions": ["right", "right", "right", "down", "down"], "actionTimes": [6912, 7935, 8712, 9308, 10114], "queries": {"click": {"state": {"target": [], "time": []}, "edge": {"target": [], "time": []}}, "mouseover": {"state": {"target": ["0"], "time": [5352]}, "edge": {"target": [], "time": []}}, "mouseout": {"state": {"target": ["0"], "time": [3022]}, "edge": {"target": [], "time": []}}}, "displayed_time": "18.75", "trialTime": 22855, "trial_type": "mouselab-mdp", "trial_index": 35, "time_elapsed": 1672541, "internal_node_id": "0.0-4.0-1.0-26.0"}}, {"uniqueid": "w52189751:a43408746", "current_trial": 36, "dateTime": 1691075875179, "trialdata": {"revealed_states": [], "clicked_states": [], "num_clicks_accrued": [0, 0, 0, 0, 0, 0, 0, 0, 0, 0, 0, 0, 0], "stateRewards": ["", -2, 2, 3, -7, -31, -33, 29, -8, -57, 50, -83, -1, -1, 5, 13, -23, -62, 25, 5, -66, -85, 14, 1, -2, -1, 16, 71, 33, -19, -14, 5, -43, 79], "withholdReward": false, "trial_id": "mdp_trial_28", "block": "test", "trialIndex": 29, "score": -77, "costs": 0, "simulationMode": [null, null, null, null, null], "rewards": [-1, -1, 5, 5, -85], "path": ["0", "0", "12", "13", "14", "19", "21"], "rt": [1367, 464, 334, 64, 277], "actions": ["right", "right", "right", "down", "down"], "actionTimes": [7051, 8072, 8948, 9570, 10385], "queries": {"click": {"state": {"target": [], "time": []}, "edge": {"target": [], "time": []}}, "mouseover": {"state": {"target": [], "time": []}, "edge": {"target": [], "time": []}}, "mouseout": {"state": {"target": ["0"], "time": [4197]}, "edge": {"target": [], "time": []}}}, "displayed_time": "19.69", "trialTime": 20869, "trial_type": "mouselab-mdp", "trial_index": 36, "time_elapsed": 1694061, "internal_node_id": "0.0-4.0-1.0-27.0"}}, {"uniqueid": "w52189751:a43408746", "current_trial": 37, "dateTime": 1691075895489, "trialdata": {"revealed_states": [], "clicked_states": [], "num_clicks_accrued": [0, 0, 0, 0, 0, 0, 0, 0, 0, 0, 0, 0, 0], "stateRewards": ["", 2, -1, -3, 16, -3, -16, -62, -1, 13, -26, 43, -1, 4, 3, -9, -54, -37, -3, -12, -71, -68, -57, 1, -3, 2, -9, 2, -2, -9, -11, 84, -52, 55], "withholdReward": false, "trial_id": "mdp_trial_29", "block": "test", "trialIndex": 30, "score": 44, "costs": 0, "simulationMode": [null, null, null, null, null], "rewards": [1, -3, 2, -11, 55], "path": ["0", "0", "23", "24", "25", "30", "33"], "rt": [476, 198, 315, 362, 846], "actions": ["left", "left", "left", "down", "left"], "actionTimes": [3880, 4604, 5519, 6445, 7862], "queries": {"click": {"state": {"target": [], "time": []}, "edge": {"target": [], "time": []}}, "mouseover": {"state": {"target": [], "time": []}, "edge": {"target": [], "time": []}}, "mouseout": {"state": {"target": [], "time": []}, "edge": {"target": [], "time": []}}}, "displayed_time": "17.41", "trialTime": 19537, "trial_type": "mouselab-mdp", "trial_index": 37, "time_elapsed": 1714370, "internal_node_id": "0.0-4.0-1.0-28.0"}}, {"uniqueid": "w52189751:a43408746", "current_trial": 38, "dateTime": 1691075916886, "trialdata": {"revealed_states": [], "clicked_states": [], "num_clicks_accrued": [0, 0, 0, 0, 0, 0, 0, 0, 0, 0, 0, 0, 0], "stateRewards": ["", -2, 4, -3, -13, 63, -36, 62, 11, 78, 34, -51, 2, -2, 8, -6, -40, -18, 31, 9, 64, 39, 79, 1, 4, -4, 15, -12, 76, 73, -10, -77, 86, -4], "withholdReward": false, "trial_id": "mdp_trial_30", "block": "test", "trialIndex": 31, "score": 81, "costs": 0, "simulationMode": [null, null, null, null, null], "rewards": [2, -2, 8, 9, 64], "path": ["0", "0", "12", "13", "14", "19", "20"], "rt": [929, 10, 353, 563, 237], "actions": ["right", "right", "right", "down", "right"], "actionTimes": [5117, 5641, 6548, 7637, 8420], "queries": {"click": {"state": {"target": [], "time": []}, "edge": {"target": [], "time": []}}, "mouseover": {"state": {"target": [], "time": []}, "edge": {"target": [], "time": []}}, "mouseout": {"state": {"target": ["0", "12"], "time": [2499, 2797]}, "edge": {"target": [], "time": []}}}, "displayed_time": "18.19", "trialTime": 20736, "trial_type": "mouselab-mdp", "trial_index": 38, "time_elapsed": 1735769, "internal_node_id": "0.0-4.0-1.0-29.0"}}, {"uniqueid": "w52189751:a43408746", "current_trial": 39, "dateTime": 1691075935812, "trialdata": {"revealed_states": [], "clicked_states": [], "num_clicks_accrued": [0, 0, 0, 0, 0, 0, 0, 0, 0, 0, 0, 0, 0], "stateRewards": ["", 2, -2, 7, -11, -76, -65, -23, 16, -58, 30, 81, 1, 2, 7, 14, 9, 55, -2, 6, 11, -15, 31, -1, -1, -3, 2, 15, 2, 46, 15, 18, 45, -34], "withholdReward": false, "trial_id": "mdp_trial_31", "block": "test", "trialIndex": 32, "score": 47, "costs": 0, "simulationMode": [null, null, null, null, null], "rewards": [1, 2, 7, 6, 31], "path": ["0", "0", "12", "13", "14", "19", "22"], "rt": [1745, 302, 295, 206, 359], "actions": ["right", "right", "right", "down", "left"], "actionTimes": [4204, 5034, 5886, 6616, 7512], "queries": {"click": {"state": {"target": [], "time": []}, "edge": {"target": [], "time": []}}, "mouseover": {"state": {"target": [], "time": []}, "edge": {"target": [], "time": []}}, "mouseout": {"state": {"target": [], "time": []}, "edge": {"target": [], "time": []}}}, "displayed_time": "16.46", "trialTime": 18319, "trial_type": "mouselab-mdp", "trial_index": 39, "time_elapsed": 1754694, "internal_node_id": "0.0-4.0-1.0-30.0"}}, {"uniqueid": "w52189751:a43408746", "current_trial": 40, "dateTime": 1691075977466, "trialdata": {"revealed_states": [], "clicked_states": [], "num_clicks_accrued": [0, 0, 0, 0, 0, 0, 0, 0, 0, 0, 0, 0, 0], "stateRewards": ["", 1, -3, -1, 9, -34, -40, 22, -7, 45, 53, -11, 2, 4, 5, 15, 21, 37, -49, -3, 80, -28, -34, 1, -3, 1, 1, -40, -6, -5, -16, -85, -86, 59], "withholdReward": false, "trial_id": "mdp_trial_32", "block": "test", "trialIndex": 33, "score": -102, "costs": 0, "simulationMode": [null, null, null, null, null], "rewards": [1, -3, 1, -16, -85], "path": ["0", "0", "23", "24", "25", "30", "31"], "rt": [1966, 1052, 129, 997, 299], "actions": ["left", "left", "left", "down", "right"], "actionTimes": [27265, 28869, 29549, 31091, 31900], "queries": {"click": {"state": {"target": [], "time": []}, "edge": {"target": [], "time": []}}, "mouseover": {"state": {"target": [], "time": []}, "edge": {"target": [], "time": []}}, "mouseout": {"state": {"target": ["0"], "time": [24862]}, "edge": {"target": [], "time": []}}}, "displayed_time": "39.30", "trialTime": 40972, "trial_type": "mouselab-mdp", "trial_index": 40, "time_elapsed": 1796346, "internal_node_id": "0.0-4.0-1.0-31.0"}}, {"uniqueid": "w52189751:a43408746", "current_trial": 41, "dateTime": 1691075995246, "trialdata": {"revealed_states": [], "clicked_states": [], "num_clicks_accrued": [0, 0, 0, 0, 0, 0, 0, 0, 0, 0, 0, 0, 0], "stateRewards": ["", 1, -3, -4, -11, -56, 61, -47, -16, -28, -9, 69, -2, -3, -4, -8, 40, -86, 59, -4, 80, 27, 54, -1, 3, -1, 8, 67, 23, 50, 6, 83, -43, -29], "withholdReward": false, "trial_id": "mdp_trial_33", "block": "test", "trialIndex": 34, "score": 42, "costs": 0, "simulationMode": [null, null, null, null, null], "rewards": [-2, -3, -4, -8, 59], "path": ["0", "0", "12", "13", "14", "15", "18"], "rt": [1264, 172, 315, 575, 44], "actions": ["right", "right", "right", "up", "left"], "actionTimes": [3575, 4302, 5163, 6281, 6851], "queries": {"click": {"state": {"target": [], "time": []}, "edge": {"target": [], "time": []}}, "mouseover": {"state": {"target": [], "time": []}, "edge": {"target": [], "time": []}}, "mouseout": {"state": {"target": ["0"], "time": [1867]}, "edge": {"target": [], "time": []}}}, "displayed_time": "16.31", "trialTime": 17101, "trial_type": "mouselab-mdp", "trial_index": 41, "time_elapsed": 1814128, "internal_node_id": "0.0-4.0-1.0-32.0"}}, {"uniqueid": "w52189751:a43408746", "current_trial": 42, "dateTime": 1691076015453, "trialdata": {"revealed_states": [], "clicked_states": [], "num_clicks_accrued": [0, 0, 0, 0, 0, 0, 0, 0, 0, 0, 0, 0, 0], "stateRewards": ["", -2, 1, -3, -16, -39, -52, 30, -7, -41, -59, 11, 2, 1, 8, 2, -11, -26, -42, -13, 87, -59, -48, -1, -1, -1, 16, -79, 31, 50, -1, -84, 34, -82], "withholdReward": false, "trial_id": "mdp_trial_34", "block": "test", "trialIndex": 35, "score": -13, "costs": 0, "simulationMode": [null, null, null, null, null], "rewards": [2, 1, 8, 2, -26], "path": ["0", "0", "12", "13", "14", "15", "17"], "rt": [1572, 70, 181, 75, 28], "actions": ["right", "right", "right", "up", "right"], "actionTimes": [5044, 5665, 6398, 7001, 7573], "queries": {"click": {"state": {"target": [], "time": []}, "edge": {"target": [], "time": []}}, "mouseover": {"state": {"target": ["12", "0"], "time": [4049, 4410]}, "edge": {"target": [], "time": []}}, "mouseout": {"state": {"target": ["0", "0", "12"], "time": [2218, 3807, 4167]}, "edge": {"target": [], "time": []}}}, "displayed_time": "17.47", "trialTime": 19530, "trial_type": "mouselab-mdp", "trial_index": 42, "time_elapsed": 1834334, "internal_node_id": "0.0-4.0-1.0-33.0"}}, {"uniqueid": "w52189751:a43408746", "current_trial": 43, "dateTime": 1691076035664, "trialdata": {"revealed_states": [], "clicked_states": [], "num_clicks_accrued": [0, 0, 0, 0, 0, 0, 0, 0, 0, 0, 0, 0, 0], "stateRewards": ["", -1, -1, 7, -15, -43, -21, -84, -9, -45, -66, 2, 1, -2, 2, 8, -27, 44, -52, -5, -84, 11, 53, 1, 4, -4, 16, 83, -82, -15, -16, 68, -43, 81], "withholdReward": false, "trial_id": "mdp_trial_35", "block": "test", "trialIndex": 36, "score": -88, "costs": 0, "simulationMode": [null, null, null, null, null], "rewards": [1, -2, 2, -5, -84], "path": ["0", "0", "12", "13", "14", "19", "20"], "rt": [1792, 389, 265, 72, 308], "actions": ["right", "right", "right", "down", "right"], "actionTimes": [4131, 5047, 5833, 6473, 7309], "queries": {"click": {"state": {"target": [], "time": []}, "edge": {"target": [], "time": []}}, "mouseover": {"state": {"target": ["0"], "time": [3076]}, "edge": {"target": [], "time": []}}, "mouseout": {"state": {"target": ["0"], "time": [2795]}, "edge": {"target": [], "time": []}}}, "displayed_time": "16.34", "trialTime": 19492, "trial_type": "mouselab-mdp", "trial_index": 43, "time_elapsed": 1854546, "internal_node_id": "0.0-4.0-1.0-34.0"}}, {"uniqueid": "w52189751:a43408746", "current_trial": 44, "dateTime": 1691076054265, "trialdata": {"revealed_states": [], "clicked_states": [], "num_clicks_accrued": [0, 0, 0, 0, 0, 0, 0, 0, 0, 0, 0, 0, 0], "stateRewards": ["", -1, -3, -5, -14, -13, -47, 79, 8, -60, -64, 41, -1, 2, 3, 13, -46, 61, -79, -11, -64, -65, 23, 1, -2, 6, -14, 46, 32, 21, 7, 75, -66, 15], "withholdReward": false, "trial_id": "mdp_trial_36", "block": "test", "trialIndex": 37, "score": 56, "costs": 0, "simulationMode": [null, null, null, null, null], "rewards": [-1, -3, -5, -14, 79], "path": ["0", "0", "1", "2", "3", "4", "7"], "rt": [1396, 214, 333, 589, 896], "actions": ["up", "up", "up", "right", "down"], "actionTimes": [4383, 5150, 6047, 7164, 8592], "queries": {"click": {"state": {"target": [], "time": []}, "edge": {"target": [], "time": []}}, "mouseover": {"state": {"target": [], "time": []}, "edge": {"target": [], "time": []}}, "mouseout": {"state": {"target": [], "time": []}, "edge": {"target": [], "time": []}}}, "displayed_time": "16.99", "trialTime": 17893, "trial_type": "mouselab-mdp", "trial_index": 44, "time_elapsed": 1873146, "internal_node_id": "0.0-4.0-1.0-35.0"}}, {"uniqueid": "w52189751:a43408746", "current_trial": 45, "dateTime": 1691076075371, "trialdata": {"revealed_states": [], "clicked_states": [], "num_clicks_accrued": [0, 0, 0, 0, 0, 0, 0, 0, 0, 0, 0, 0, 0], "stateRewards": ["", 1, -1, 8, -3, 38, 85, -20, -4, 8, 23, 73, 2, -4, 6, -13, 44, 7, -28, -11, -77, 45, -69, 1, -1, -7, -11, 75, -51, -87, 7, 36, -53, -26], "withholdReward": false, "trial_id": "mdp_trial_37", "block": "test", "trialIndex": 38, "score": 27, "costs": 0, "simulationMode": [null, null, null, null, null], "rewards": [1, -1, 8, -4, 23], "path": ["0", "0", "1", "2", "3", "8", "10"], "rt": [1185, 175, 170, 47, 132], "actions": ["up", "up", "up", "left", "down"], "actionTimes": [4479, 5193, 5946, 6547, 7272], "queries": {"click": {"state": {"target": [], "time": []}, "edge": {"target": [], "time": []}}, "mouseover": {"state": {"target": [], "time": []}, "edge": {"target": [], "time": []}}, "mouseout": {"state": {"target": [], "time": []}, "edge": {"target": [], "time": []}}}, "displayed_time": "17.30", "trialTime": 20418, "trial_type": "mouselab-mdp", "trial_index": 45, "time_elapsed": 1894253, "internal_node_id": "0.0-4.0-1.0-36.0"}}, {"uniqueid": "w52189751:a43408746", "current_trial": 46, "dateTime": 1691076094339, "trialdata": {"revealed_states": [], "clicked_states": [], "num_clicks_accrued": [0, 0, 0, 0, 0, 0, 0, 0, 0, 0, 0, 0, 0], "stateRewards": ["", -1, -3, 1, 13, -64, -29, 12, -4, -33, 50, 56, 2, -3, 4, 11, -64, -58, -55, 12, 47, 38, -25, -2, 2, 5, -15, 85, 7, 84, 10, 8, 57, 26], "withholdReward": false, "trial_id": "mdp_trial_38", "block": "test", "trialIndex": 39, "score": 22, "costs": 0, "simulationMode": [null, null, null, null, null], "rewards": [-1, -3, 1, 13, 12], "path": ["0", "0", "1", "2", "3", "4", "7"], "rt": [219, 347, 232, 718, 228], "actions": ["up", "up", "up", "right", "down"], "actionTimes": [3382, 4226, 5010, 6285, 7072], "queries": {"click": {"state": {"target": [], "time": []}, "edge": {"target": [], "time": []}}, "mouseover": {"state": {"target": [], "time": []}, "edge": {"target": [], "time": []}}, "mouseout": {"state": {"target": [], "time": []}, "edge": {"target": [], "time": []}}}, "displayed_time": "17.17", "trialTime": 18009, "trial_type": "mouselab-mdp", "trial_index": 46, "time_elapsed": 1913220, "internal_node_id": "0.0-4.0-1.0-37.0"}}, {"uniqueid": "w52189751:a43408746", "current_trial": 47, "dateTime": 1691076118946, "trialdata": {"revealed_states": [], "clicked_states": [], "num_clicks_accrued": [0, 0, 0, 0, 0, 0, 0, 0, 0, 0, 0, 0, 0], "stateRewards": ["", -2, 2, 2, -6, 9, 37, 50, -13, -7, -18, -75, -2, -4, 4, 7, 23, -57, -66, -7, -81, -48, -76, 1, 1, -8, 1, 51, -2, 70, 14, 59, 71, -37], "withholdReward": false, "trial_id": "mdp_trial_39", "block": "test", "trialIndex": 40, "score": -7, "costs": 0, "simulationMode": [null, null, null, null, null], "rewards": [1, 1, -8, 1, -2], "path": ["0", "0", "23", "24", "25", "26", "28"], "rt": [1840, 13, 357, 944, 546], "actions": ["left", "left", "left", "up", "right"], "actionTimes": [5898, 6463, 7404, 8898, 9967], "queries": {"click": {"state": {"target": [], "time": []}, "edge": {"target": [], "time": []}}, "mouseover": {"state": {"target": [], "time": []}, "edge": {"target": [], "time": []}}, "mouseout": {"state": {"target": ["0", "12"], "time": [2535, 3004]}, "edge": {"target": [], "time": []}}}, "displayed_time": "18.06", "trialTime": 23858, "trial_type": "mouselab-mdp", "trial_index": 47, "time_elapsed": 1937827, "internal_node_id": "0.0-4.0-1.0-38.0"}}, {"uniqueid": "w52189751:a43408746", "current_trial": 48, "dateTime": 1691076144730, "trialdata": {"revealed_states": [], "clicked_states": [], "num_clicks_accrued": [0, 0, 0, 0, 0, 0, 0, 0, 0, 0, 0, 0, 0], "stateRewards": ["", -1, 1, -1, 2, 19, 85, -18, 2, -3, -26, 36, 2, 4, 7, -9, -18, 70, 72, -5, 35, -20, -28, 1, -2, -4, -3, -59, -11, -63, -2, -72, 59, -69], "withholdReward": false, "trial_id": "mdp_trial_40", "block": "test", "trialIndex": 41, "score": -14, "costs": 0, "simulationMode": [null, null, null, null, null], "rewards": [2, 4, 7, -9, -18], "path": ["0", "0", "12", "13", "14", "15", "16"], "rt": [1360, 534, 109, 449, 292], "actions": ["right", "right", "right", "up", "up"], "actionTimes": [4942, 6016, 6681, 7699, 8524], "queries": {"click": {"state": {"target": [], "time": []}, "edge": {"target": [], "time": []}}, "mouseover": {"state": {"target": [], "time": []}, "edge": {"target": [], "time": []}}, "mouseout": {"state": {"target": ["0", "0"], "time": [2268, 4145]}, "edge": {"target": [], "time": []}}}, "displayed_time": "17.58", "trialTime": 24984, "trial_type": "mouselab-mdp", "trial_index": 48, "time_elapsed": 1963612, "internal_node_id": "0.0-4.0-1.0-39.0"}}, {"uniqueid": "w52189751:a43408746", "current_trial": 49, "dateTime": 1691076244093, "trialdata": {"rt": 98820, "response": {"Q0": "$-2 to $2", "Q1": "$-4 to $4", "Q2": "$-16 to $16", "Q3": "The cost was always $1.4.", "Q4": "Very motivated"}, "question_order": [0, 1, 2, 3, 4], "trial_id": "final_quiz_control", "trial_type": "survey-multi-choice", "trial_index": 49, "time_elapsed": 2062975, "internal_node_id": "0.0-4.0-2.0"}}, {"uniqueid": "w52189751:a43408746", "current_trial": 50, "dateTime": 1691076500960, "trialdata": {"rt": 256029, "response": {"Q0": "the strategy i used was to follow the instructions, by checking the node first, and then to see that it costed me much, i ended up using no strategy but rather just make a choice", "Q1": "yes, as i saw that i am getting more cash, i would repeatedly go to the same spot then if the cash decreases i would choose a different path", "Q2": "not difficult at all"}, "trial_id": "self_report_control", "trial_type": "survey-text", "trial_index": 50, "time_elapsed": 2319843, "internal_node_id": "0.0-4.0-3.0"}}, {"uniqueid": "w52189751:a43408746", "current_trial": 51, "dateTime": 1691076538373, "trialdata": {"rt": 37232, "response": {"gender": "female", "age": "28", "colorblind": "0", "effort": "0"}, "trial_type": "survey-html-form", "trial_index": 51, "time_elapsed": 2357257, "internal_node_id": "0.0-4.0-4.0"}}, {"uniqueid": "w52189751:a43408746", "current_trial": 52, "dateTime": 1691076602226, "trialdata": {"rt": 63846, "response": {"Q0": "everything was clear", "Q1": "no, i have not", "Q2": "the study was interesting"}, "trial_type": "survey-text", "trial_index": 52, "time_elapsed": 2421110, "internal_node_id": "0.0-4.0-5.0"}}, {"uniqueid": "w52189751:a43408746", "current_trial": 53, "dateTime": 1691076605180, "trialdata": {"rt": 2555, "stimulus": "Press 'Finish HIT' in order to reach the completion code. Once the data has been saved, you will receive the code either in this window or in the original browser window where you started the experiment.\n", "response": 0, "trial_type": "html-button-response", "trial_index": 53, "time_elapsed": 2424064, "internal_node_id": "0.0-5.0"}}, {"uniqueid": "w52189751:a43408746", "current_trial": 54, "dateTime": 1691076607187, "trialdata": {"success": true, "trial_type": "fullscreen", "trial_index": 54, "time_elapsed": 2426070, "internal_node_id": "0.0-6.0"}}], "questiondata": {"params": {"CODE": "C6DMOQA6", "MIN_TIME": 14, "inspectCost": 1, "startTime": "Thu Aug 03 2023 16:49:37 GMT+0200 (South Africa Standard Time)", "bonusRate": 0.002, "variance": "1_2_4_8_44", "branching": "31123"}, "final_score": 100}, "eventdata": [{"eventtype": "initialized", "value": null, "timestamp": 1691074176521, "interval": 0}, {"eventtype": "window_resize", "value": [1024, 654], "timestamp": 1691074176521, "interval": 0}, {"eventtype": "window_resize", "value": [1024, 654], "timestamp": 1691074177733, "interval": 1212}, {"eventtype": "focus", "value": "off", "timestamp": 1691074189406, "interval": 11673}, {"eventtype": "focus", "value": "on", "timestamp": 1691074202902, "interval": 13496}, {"eventtype": "window_resize", "value": [1366, 768], "timestamp": 1691074207580, "interval": 4678}, {"eventtype": "focus", "value": "off", "timestamp": 1691076588327, "interval": 2380747}, {"eventtype": "window_resize", "value": [1366, 767], "timestamp": 1691076589310, "interval": 983}, {"eventtype": "focus", "value": "on", "timestamp": 1691076590487, "interval": 1177}, {"eventtype": "window_resize", "value": [1366, 768], "timestamp": 1691076590994, "interval": 507}, {"eventtype": "window_resize", "value": [1024, 654], "timestamp": 1691076607056, "interval": 16062}], "useragent": "Mozilla/5.0 (Windows NT 10.0; Win64; x64) AppleWebKit/537.36 (KHTML, like Gecko) Chrome/115.0.0.0 Safari/537.36", "mode": "live", "id": "w52189751:a43408746", "status": "user data saved", "Beginhit": "2023-08-03 14:49:31.543843", "Beginexp": "2023-08-03 14:50:08.049546", "Endhit": "2023-08-03 15:30:09.355549", "psiturkStatus": 3, "browser": "<redacted>", "platform": "windows", "language": "en-ZA"}