{"condition": 1, "counterbalance": 0, "assignmentId": "a90912466", "workerId": "w62929331", "hitId": "h48318424", "currenttrial": 56, "bonus": 0, "data": [{"uniqueid": "w62929331:a90912466", "current_trial": 0, "dateTime": 1693388855279, "trialdata": {"success": true, "trial_type": "fullscreen", "trial_index": 0, "time_elapsed": 7298, "internal_node_id": "0.0-0.0"}}, {"uniqueid": "w62929331:a90912466", "current_trial": 1, "dateTime": 1693388869096, "trialdata": {"view_history": [{"page_index": 0, "viewing_time": 13766}], "rt": 13771, "trial_id": "exp_instructions_misaligned", "trial_type": "instructions", "trial_index": 1, "time_elapsed": 21117, "internal_node_id": "0.0-1.0"}}, {"uniqueid": "w62929331:a90912466", "current_trial": 2, "dateTime": 1693389052366, "trialdata": {"view_history": [{"page_index": 0, "viewing_time": 47520}, {"page_index": 1, "viewing_time": 68156}, {"page_index": 2, "viewing_time": 19392}, {"page_index": 3, "viewing_time": 48187}], "rt": 183256, "trial_id": "mouselab_instructions_1_misaligned", "trial_type": "instructions", "trial_index": 2, "time_elapsed": 204387, "internal_node_id": "0.0-2.0-1.0"}}, {"uniqueid": "w62929331:a90912466", "current_trial": 3, "dateTime": 1693389075300, "trialdata": {"revealed_states": [], "clicked_states": [], "num_clicks_accrued": [0, 0, 0, 0, 0, 0, 0, 0, 0, 0, 0, 0, 0], "stateRewards": ["", -10, 10, -10, 10, -10, -10, -10, 10, 10, -10, 10, -10, -10, 10, 10, 10, 10, -10, 10, 10, 10, -10, -10, -10, -10, -10, 10, 10, 10, -10, 10, -10, 10], "withholdReward": false, "trial_id": "practice_1", "block": "test", "trialIndex": 0, "score": -6.5, "costs": 0, "simulationMode": [null, null, null, null, null], "rewards": [-10, 10, -10, 10, -10], "path": ["0", "0", "1", "2", "3", "4", "5"], "rt": [2349, 591, 198, 568, 207], "actions": ["up", "up", "up", "right", "up"], "actionTimes": [9487, 10609, 11334, 12419, 13142], "queries": {"click": {"state": {"target": [], "time": []}, "edge": {"target": [], "time": []}}, "mouseover": {"state": {"target": ["0"], "time": [7806]}, "edge": {"target": [], "time": []}}, "mouseout": {"state": {"target": ["14", "14", "13", "12", "0", "12", "13", "14"], "time": [3736, 3953, 3985, 5689, 18379, 18399, 18429, 18463]}, "edge": {"target": [], "time": []}}}, "displayed_time": "13.65", "trialTime": 21476, "trial_type": "mouselab-mdp", "trial_index": 3, "time_elapsed": 227318, "internal_node_id": "0.0-2.0-2.0-0.0"}}, {"uniqueid": "w62929331:a90912466", "current_trial": 4, "dateTime": 1693389101711, "trialdata": {"revealed_states": [], "clicked_states": ["29", "27"], "num_clicks_accrued": [0, 0, 0, 0, 0, 0, 0, 0, 0, 0, 0, 0, 0], "stateRewards": ["", 10, -10, 10, 10, -10, -10, 10, 10, 10, -10, 10, 10, -10, 10, -10, 10, -10, 10, -10, 10, -10, 10, -10, 10, 10, -10, 10, -10, -10, -10, 10, 10, -10], "withholdReward": false, "trial_id": "practice_2", "block": "test", "trialIndex": 1, "score": 12.5, "costs": -1, "simulationMode": [null, null, null, null, null], "rewards": [-10, 10, 10, -10, 10], "path": ["0", "0", "23", "24", "25", "26", "27"], "rt": [8766, 680, 139, 580, 149], "actions": ["left", "left", "left", "up", "up"], "actionTimes": [14617, 15810, 16467, 17559, 18245], "queries": {"click": {"state": {"target": ["29", "27"], "time": [7263, 8868]}, "edge": {"target": [], "time": []}}, "mouseover": {"state": {"target": ["28", "29", "27", "8", "9"], "time": [6545, 6907, 8448, 10064, 10232]}, "edge": {"target": [], "time": []}}, "mouseout": {"state": {"target": ["0", "0", "28", "29", "27", "8", "9"], "time": [4395, 6485, 6566, 8004, 9625, 10149, 21691]}, "edge": {"target": [], "time": []}}}, "displayed_time": "18.76", "trialTime": 25436, "trial_type": "mouselab-mdp", "trial_index": 4, "time_elapsed": 253730, "internal_node_id": "0.0-2.0-2.0-1.0"}}, {"uniqueid": "w62929331:a90912466", "current_trial": 5, "dateTime": 1693389133018, "trialdata": {"view_history": [{"page_index": 0, "viewing_time": 19092}, {"page_index": 1, "viewing_time": 12197}], "rt": 31291, "trial_id": "mouselab_instructions_2_misaligned", "trial_type": "instructions", "trial_index": 5, "time_elapsed": 285039, "internal_node_id": "0.0-2.0-3.0"}}, {"uniqueid": "w62929331:a90912466", "current_trial": 6, "dateTime": 1693389177831, "trialdata": {"rt": 44791, "response": {"Q0": "The cost for clicking on nodes may vary between nodes.", "Q1": "The better I perform the higher my bonus will be.", "Q2": "No, the amount of cash at each node of the web may be different each time.", "Q3": "To get the highest total score.", "Q4": "Only before moving the spider.", "Q5": "3 seconds"}, "question_order": [0, 1, 2, 3, 4, 5], "correct": {"Q0": "The cost for clicking on nodes may vary between nodes.", "Q1": "The better I perform the higher my bonus will be.", "Q2": "No, the amount of cash at each node of the web may be different each time.", "Q3": "To get the highest total score.", "Q4": "Only before moving the spider.", "Q5": "3 seconds"}, "trial_id": "mouselab_quiz_misaligned", "trial_type": "survey-multi-choice", "trial_index": 6, "time_elapsed": 329851, "internal_node_id": "0.0-2.0-4.0"}}, {"uniqueid": "w62929331:a90912466", "current_trial": 7, "dateTime": 1693389187514, "trialdata": {"rt": 9635, "response": {"Q0": "No"}, "question_order": [0], "trial_id": "repeat_check", "trial_type": "survey-multi-choice", "trial_index": 7, "time_elapsed": 339534, "internal_node_id": "0.0-4.0-0.0"}}, {"uniqueid": "w62929331:a90912466", "current_trial": 8, "dateTime": 1693389199596, "trialdata": {"rt": 12050, "stimulus": "\n<h1> Get ready to start the game! </h1>\n\nThank you for reading the instructions. Get ready start with the 40 rounds of this game.\n<br><br>\nIf you need to take a break, feel free to take one after the end of a round, before continuing to the next one.\n<br><br>\nRemember, the more money the spider gets, the bigger your bonus will be!\n<br><br>\n<div style='text-align: center;'>Press <code>space</code> to begin.</div>\n\n<br><br>\n(If, at any point, the <code>space</code> key does not take you to the next page, click once on the text and try again.)", "response": " ", "trial_id": "mdp_ready", "trial_type": "html-keyboard-response", "trial_index": 8, "time_elapsed": 351616, "internal_node_id": "0.0-6.0-0.0"}}, {"uniqueid": "w62929331:a90912466", "current_trial": 9, "dateTime": 1693389230628, "trialdata": {"revealed_states": [], "clicked_states": ["27"], "num_clicks_accrued": [0, 0, 0, 0, 0, 0, 0, 0, 0, 0, 0, 0, 0], "stateRewards": ["", 2, -4, -8, -15, 71, -43, -41, 7, -17, 20, 67, -1, -1, -4, 6, 37, -24, -47, 9, 34, 57, 45, 1, 2, -4, -5, -23, 88, -5, 13, -40, 43, 44], "withholdReward": false, "trial_id": "mdp_trial_1", "block": "test", "trialIndex": 2, "score": 53.85, "costs": -2.15, "simulationMode": [null, null, null, null, null], "rewards": [1, 2, -4, 13, 44], "path": ["0", "0", "23", "24", "25", "30", "33"], "rt": [11727, 366, 98, 335, 470], "actions": ["left", "left", "left", "down", "left"], "actionTimes": [17456, 18368, 18987, 19839, 20824], "queries": {"click": {"state": {"target": ["27"], "time": [7479]}, "edge": {"target": [], "time": []}}, "mouseover": {"state": {"target": ["28", "27", "33", "33"], "time": [6688, 7037, 8903, 14188]}, "edge": {"target": [], "time": []}}, "mouseout": {"state": {"target": ["0", "28", "27", "33", "33", "20"], "time": [6608, 6771, 8264, 13436, 28052, 29486]}, "edge": {"target": [], "time": []}}}, "displayed_time": "21.34", "trialTime": 30023, "trial_type": "mouselab-mdp", "trial_index": 9, "time_elapsed": 382646, "internal_node_id": "0.0-6.0-1.0-0.0"}}, {"uniqueid": "w62929331:a90912466", "current_trial": 10, "dateTime": 1693389267397, "trialdata": {"revealed_states": [], "clicked_states": ["5", "17", "9", "11"], "num_clicks_accrued": [0, 0, 0, 0, 0, 0, 0, 0, 0, 0, 0, 0, 0], "stateRewards": ["", 2, -1, -2, -5, -47, -57, -33, -11, 31, -18, -72, -2, 1, -4, -8, -46, -53, -50, 15, -85, -9, 39, -2, -2, 1, 14, -1, -8, 53, -12, -41, -74, 62], "withholdReward": false, "trial_id": "mdp_trial_2", "block": "test", "trialIndex": 3, "score": 10.399999999999999, "costs": -8.6, "simulationMode": [null, null, null, null, null], "rewards": [2, -1, -2, -11, 31], "path": ["0", "0", "1", "2", "3", "8", "9"], "rt": [16279, 70, 80, 761, 1176], "actions": ["up", "up", "up", "left", "up"], "actionTimes": [22620, 23265, 23879, 25154, 26836], "queries": {"click": {"state": {"target": ["5", "17", "9", "11"], "time": [7784, 10821, 14509, 17568]}, "edge": {"target": [], "time": []}}, "mouseover": {"state": {"target": ["7", "5", "17", "7", "3", "9", "11"], "time": [7122, 7397, 8628, 11371, 11474, 11911, 15378]}, "edge": {"target": [], "time": []}}, "mouseout": {"state": {"target": ["14", "13", "12", "7", "5", "17", "7", "3", "9", "9"], "time": [4622, 4688, 4822, 7161, 8292, 11045, 11403, 11778, 14696, 15308]}, "edge": {"target": [], "time": []}}}, "displayed_time": "27.34", "trialTime": 35614, "trial_type": "mouselab-mdp", "trial_index": 10, "time_elapsed": 419416, "internal_node_id": "0.0-6.0-1.0-1.0"}}, {"uniqueid": "w62929331:a90912466", "current_trial": 11, "dateTime": 1693389295716, "trialdata": {"revealed_states": [], "clicked_states": ["32", "5", "21"], "num_clicks_accrued": [0, 0, 0, 0, 0, 0, 0, 0, 0, 0, 0, 0, 0], "stateRewards": ["", 1, -4, 6, -3, 40, 76, -51, 5, -24, -63, 44, -2, -2, 8, 1, 76, -85, -58, 10, 59, 20, 11, -2, 3, -3, 3, -82, -10, 54, -7, -57, -6, -32], "withholdReward": false, "trial_id": "mdp_trial_3", "block": "test", "trialIndex": 4, "score": 33.55, "costs": -6.449999999999999, "simulationMode": [null, null, null, null, null], "rewards": [1, -4, 6, -3, 40], "path": ["0", "0", "1", "2", "3", "4", "5"], "rt": [13790, 54, 59, 457, 753], "actions": ["up", "up", "up", "right", "up"], "actionTimes": [17014, 17583, 18155, 19139, 20400], "queries": {"click": {"state": {"target": ["32", "5", "21"], "time": [4974, 7769, 11304]}, "edge": {"target": [], "time": []}}, "mouseover": {"state": {"target": ["32", "21", "18", "4", "5", "9", "3", "13", "19", "21"], "time": [4496, 5993, 6872, 7024, 7311, 9002, 10238, 10343, 10402, 10867]}, "edge": {"target": [], "time": []}}, "mouseout": {"state": {"target": ["11", "32", "21", "18", "4", "5", "5", "9", "3", "13", "19", "21"], "time": [1610, 5173, 6823, 6900, 7237, 8003, 8687, 10228, 10269, 10370, 10828, 12756]}, "edge": {"target": [], "time": []}}}, "displayed_time": "20.91", "trialTime": 27087, "trial_type": "mouselab-mdp", "trial_index": 11, "time_elapsed": 447735, "internal_node_id": "0.0-6.0-1.0-2.0"}}, {"uniqueid": "w62929331:a90912466", "current_trial": 12, "dateTime": 1693389348277, "trialdata": {"revealed_states": [], "clicked_states": ["27", "5", "9", "33", "21"], "num_clicks_accrued": [0, 0, 0, 0, 0, 0, 0, 0, 0, 0, 0, 0, 0], "stateRewards": ["", -2, -4, -2, 10, -8, -15, -47, 7, -84, 53, 5, -1, 2, -7, 3, 83, 31, 47, -1, 30, -8, 69, 2, -4, -1, 8, -7, 12, -8, -8, -13, 30, -84], "withholdReward": false, "trial_id": "mdp_trial_4", "block": "test", "trialIndex": 5, "score": -34.75, "costs": -10.75, "simulationMode": [null, null, null, null, null], "rewards": [2, -4, -1, -8, -13], "path": ["0", "0", "23", "24", "25", "30", "31"], "rt": [28107, 96, 1603, 418, 157], "actions": ["left", "left", "left", "down", "right"], "actionTimes": [38833, 39487, 41607, 42540, 43212], "queries": {"click": {"state": {"target": ["27", "5", "9", "33", "21"], "time": [12083, 15563, 19881, 22773, 27020]}, "edge": {"target": [], "time": []}}, "mouseover": {"state": {"target": ["27", "9", "5", "5", "5", "9", "8", "9", "27", "29", "29", "33", "23", "20", "21", "22", "12", "23", "31"], "time": [11580, 12646, 13001, 14549, 15020, 16426, 19380, 19450, 20482, 20842, 21325, 21923, 23736, 24261, 24887, 29038, 31997, 32056, 32580]}, "edge": {"target": [], "time": []}}, "mouseout": {"state": {"target": ["1", "2", "1", "0", "1", "1", "27", "9", "5", "5", "5", "5", "9", "8", "9", "27", "29", "29", "33", "23", "20", "21", "22", "12", "23"], "time": [7980, 7998, 8327, 8749, 8777, 9135, 12605, 12677, 14301, 14602, 15756, 16045, 19196, 19420, 20066, 20596, 21071, 21873, 22969, 23781, 24544, 28967, 29146, 32024, 32526]}, "edge": {"target": [], "time": []}}}, "displayed_time": "43.72", "trialTime": 51355, "trial_type": "mouselab-mdp", "trial_index": 12, "time_elapsed": 500296, "internal_node_id": "0.0-6.0-1.0-3.0"}}, {"uniqueid": "w62929331:a90912466", "current_trial": 13, "dateTime": 1693389380592, "trialdata": {"revealed_states": [], "clicked_states": ["5", "9", "17", "20"], "num_clicks_accrued": [0, 0, 0, 0, 0, 0, 0, 0, 0, 0, 0, 0, 0], "stateRewards": ["", -1, 2, 6, 11, 21, -21, -21, -6, 48, -71, 88, -1, -3, 3, 7, 64, 2, 9, -4, 37, -67, 72, 2, 2, -8, -8, -10, 71, -40, -3, 73, 80, 47], "withholdReward": false, "trial_id": "mdp_trial_5", "block": "test", "trialIndex": 6, "score": 40.4, "costs": -8.6, "simulationMode": [null, null, null, null, null], "rewards": [-1, 2, 6, -6, 48], "path": ["0", "0", "1", "2", "3", "8", "9"], "rt": [15928, 57, 215, 535, 199], "actions": ["up", "up", "up", "left", "up"], "actionTimes": [19789, 20397, 21126, 22181, 22894], "queries": {"click": {"state": {"target": ["5", "9", "17", "20"], "time": [5640, 8682, 11503, 14487]}, "edge": {"target": [], "time": []}}, "mouseover": {"state": {"target": ["7", "4", "5", "5", "9", "17", "14", "13", "20", "21", "12"], "time": [4596, 4686, 4996, 5243, 6478, 10164, 12887, 12961, 13551, 18175, 18244]}, "edge": {"target": [], "time": []}}, "mouseout": {"state": {"target": ["31", "23", "1", "1", "7", "4", "5", "5", "9", "17", "17", "14", "13", "20", "20", "21", "12"], "time": [1605, 1639, 1658, 2253, 4657, 4945, 5125, 5811, 9385, 11735, 12836, 12918, 12992, 14543, 17979, 18222, 18278]}, "edge": {"target": [], "time": []}}}, "displayed_time": "23.41", "trialTime": 30993, "trial_type": "mouselab-mdp", "trial_index": 13, "time_elapsed": 532610, "internal_node_id": "0.0-6.0-1.0-4.0"}}, {"uniqueid": "w62929331:a90912466", "current_trial": 14, "dateTime": 1693389427652, "trialdata": {"revealed_states": [], "clicked_states": ["27", "9", "5", "17", "6", "29"], "num_clicks_accrued": [0, 0, 0, 0, 0, 0, 0, 0, 0, 0, 0, 0, 0], "stateRewards": ["", 2, 4, 7, -6, -76, -81, 2, 5, -66, -3, 36, -2, -4, 6, -2, -69, 4, -49, -6, 67, 38, -67, 2, 1, 1, 6, -68, -21, 52, -16, -16, 6, -70], "withholdReward": false, "trial_id": "mdp_trial_6", "block": "test", "trialIndex": 7, "score": 49.1, "costs": -12.9, "simulationMode": [null, null, null, null, null, null], "rewards": [2, 1, 1, 6, 52], "path": ["0", "0", "23", "24", "25", "26", "29"], "rt": [19806, 3237, 316, 208, 891, 80], "actions": ["right", "left", "left", "left", "up", "left"], "actionTimes": [30534, 33784, 34615, 35346, 36755, 37343], "queries": {"click": {"state": {"target": ["27", "9", "5", "17", "6", "29"], "time": [12944, 16394, 19406, 22379, 25234, 28103]}, "edge": {"target": [], "time": []}}, "mouseover": {"state": {"target": ["26", "27", "9", "5", "17", "16", "6", "2", "10", "26", "29"], "time": [11944, 12627, 15310, 17206, 20705, 22810, 23131, 25963, 26076, 26380, 26468]}, "edge": {"target": [], "time": []}}, "mouseout": {"state": {"target": ["0", "23", "23", "26", "27", "9", "5", "17", "16", "6", "2", "10", "26", "29"], "time": [8585, 8646, 8902, 12193, 15299, 16974, 20109, 22780, 22841, 25906, 25997, 26128, 26415, 28832]}, "edge": {"target": [], "time": []}}}, "displayed_time": "37.86", "trialTime": 45736, "trial_type": "mouselab-mdp", "trial_index": 14, "time_elapsed": 579671, "internal_node_id": "0.0-6.0-1.0-5.0"}}, {"uniqueid": "w62929331:a90912466", "current_trial": 15, "dateTime": 1693389471078, "trialdata": {"revealed_states": [], "clicked_states": ["29", "28", "18", "17", "16", "6", "11"], "num_clicks_accrued": [0, 0, 0, 0, 0, 0, 0, 0, 0, 0, 0, 0, 0], "stateRewards": ["", 2, -4, -4, 13, -80, 62, 13, -11, 57, -13, -44, 1, 4, 3, -4, -29, -88, 15, 16, -58, 68, -45, -1, -3, -1, -9, -44, -86, -19, -7, -36, 59, 66], "withholdReward": false, "trial_id": "mdp_trial_7", "block": "test", "trialIndex": 8, "score": 53.95, "costs": -15.05, "simulationMode": [null, null, null, null, null, null], "rewards": [2, -4, -4, 13, 62], "path": ["0", "0", "1", "2", "3", "4", "6"], "rt": [23250, 3034, 21, 43, 678, 645], "actions": ["up", "up", "up", "up", "right", "right"], "actionTimes": [27434, 30481, 31043, 31595, 32795, 33945], "queries": {"click": {"state": {"target": ["29", "28", "18", "17", "16", "6", "11"], "time": [5850, 8690, 11686, 15028, 17871, 21917, 24713]}, "edge": {"target": [], "time": []}}, "mouseover": {"state": {"target": ["0", "23", "24", "29", "29", "26", "28", "7", "18", "15", "17", "16", "6", "4", "3", "8", "11", "8"], "time": [4694, 4741, 4771, 4827, 5559, 6462, 6708, 9547, 10176, 12284, 12348, 15836, 18856, 22621, 22666, 22836, 23019, 29550]}, "edge": {"target": [], "time": []}}, "mouseout": {"state": {"target": ["1", "0", "23", "24", "29", "29", "26", "28", "7", "18", "15", "17", "16", "6", "4", "3", "8", "11", "8"], "time": [2457, 4714, 4762, 4797, 4849, 6430, 6550, 8713, 9583, 11706, 12317, 15643, 18645, 22613, 22655, 22719, 22987, 24778, 29655]}, "edge": {"target": [], "time": []}}}, "displayed_time": "34.45", "trialTime": 42029, "trial_type": "mouselab-mdp", "trial_index": 15, "time_elapsed": 623097, "internal_node_id": "0.0-6.0-1.0-6.0"}}, {"uniqueid": "w62929331:a90912466", "current_trial": 16, "dateTime": 1693389498821, "trialdata": {"revealed_states": [], "clicked_states": ["29", "33", "31"], "num_clicks_accrued": [0, 0, 0, 0, 0, 0, 0, 0, 0, 0, 0, 0, 0], "stateRewards": ["", -1, 3, 2, 9, 41, 4, -46, -12, -54, -87, -25, 2, 3, -1, 11, -77, 12, -33, -9, -32, 35, 72, 1, 3, -7, 4, 37, 65, -73, 6, 77, -43, 8], "withholdReward": false, "trial_id": "mdp_trial_8", "block": "test", "trialIndex": 9, "score": 73.55, "costs": -6.449999999999999, "simulationMode": [null, null, null, null, null], "rewards": [1, 3, -7, 6, 77], "path": ["0", "0", "23", "24", "25", "30", "31"], "rt": [13279, 206, 162, 403, 178], "actions": ["left", "left", "left", "down", "right"], "actionTimes": [20462, 21190, 21863, 22786, 23478], "queries": {"click": {"state": {"target": ["29", "33", "31"], "time": [8952, 11820, 14810]}, "edge": {"target": [], "time": []}}, "mouseover": {"state": {"target": ["23", "28", "26", "29", "33", "31", "24", "28", "11"], "time": [8159, 8209, 8266, 8532, 10010, 12862, 15393, 15686, 18519]}, "edge": {"target": [], "time": []}}, "mouseout": {"state": {"target": ["16", "15", "12", "0", "23", "28", "26", "29", "33", "31", "24", "28"], "time": [5058, 5241, 5579, 8122, 8185, 8237, 8450, 9739, 12553, 15337, 15586, 17965]}, "edge": {"target": [], "time": []}}}, "displayed_time": "23.98", "trialTime": 26385, "trial_type": "mouselab-mdp", "trial_index": 16, "time_elapsed": 650840, "internal_node_id": "0.0-6.0-1.0-7.0"}}, {"uniqueid": "w62929331:a90912466", "current_trial": 17, "dateTime": 1693389541093, "trialdata": {"revealed_states": [], "clicked_states": ["29", "31", "17"], "num_clicks_accrued": [0, 0, 0, 0, 0, 0, 0, 0, 0, 0, 0, 0, 0], "stateRewards": ["", 2, 3, -3, 12, -43, 81, -82, -15, 58, -7, -75, -1, -1, 3, -5, 50, -25, -8, 4, 66, 65, -66, 2, -4, 2, -1, -10, 10, 37, 11, 88, -37, 8], "withholdReward": false, "trial_id": "mdp_trial_9", "block": "test", "trialIndex": 10, "score": 92.55, "costs": -6.449999999999999, "simulationMode": [null, null, null, null, null], "rewards": [2, -4, 2, 11, 88], "path": ["0", "0", "23", "24", "25", "30", "31"], "rt": [14177, 196, 145, 359, 188], "actions": ["left", "left", "left", "down", "right"], "actionTimes": [28605, 29319, 29971, 30856, 31562], "queries": {"click": {"state": {"target": ["29", "31", "17"], "time": [16717, 19539, 22439]}, "edge": {"target": [], "time": []}}, "mouseover": {"state": {"target": ["23", "24", "25", "29", "24", "31", "17", "15", "18", "12"], "time": [15627, 15710, 15774, 16260, 17440, 17657, 20819, 23158, 23518, 27561]}, "edge": {"target": [], "time": []}}, "mouseout": {"state": {"target": ["11", "2", "8", "2", "1", "23", "24", "25", "29", "24", "31", "17", "15", "18"], "time": [12073, 12372, 12583, 12969, 13070, 15684, 15741, 15857, 17296, 17472, 19563, 23125, 23189, 27478]}, "edge": {"target": [], "time": []}}}, "displayed_time": "32.08", "trialTime": 40929, "trial_type": "mouselab-mdp", "trial_index": 17, "time_elapsed": 693112, "internal_node_id": "0.0-6.0-1.0-8.0"}}, {"uniqueid": "w62929331:a90912466", "current_trial": 18, "dateTime": 1693389577816, "trialdata": {"revealed_states": [], "clicked_states": ["20", "22", "31", "33"], "num_clicks_accrued": [0, 0, 0, 0, 0, 0, 0, 0, 0, 0, 0, 0, 0], "stateRewards": ["", -1, 3, 8, 9, -53, 20, -84, 2, -28, -62, -31, -1, -2, -7, 2, 51, 58, 45, -4, -17, -41, 36, 2, -2, -7, -15, 29, -54, -37, -16, -43, 65, -17], "withholdReward": false, "trial_id": "mdp_trial_10", "block": "test", "trialIndex": 11, "score": 13.399999999999999, "costs": -8.6, "simulationMode": [null, null, null, null, null], "rewards": [-1, -2, -7, -4, 36], "path": ["0", "0", "12", "13", "14", "19", "22"], "rt": [16599, 615, 343, 539, 282], "actions": ["right", "right", "right", "down", "left"], "actionTimes": [21445, 22575, 23439, 24483, 25277], "queries": {"click": {"state": {"target": ["20", "22", "31", "33"], "time": [6515, 9466, 13948, 16886]}, "edge": {"target": [], "time": []}}, "mouseover": {"state": {"target": ["0", "13", "14", "20", "19", "22", "31", "31", "30", "33", "30"], "time": [5367, 5435, 5471, 6075, 7156, 7461, 10276, 13560, 14790, 15349, 20385]}, "edge": {"target": [], "time": []}}, "mouseout": {"state": {"target": ["12", "0", "13", "14", "20", "19", "22", "31", "31", "30", "33", "30"], "time": [3572, 5425, 5460, 5902, 7123, 7187, 10177, 13403, 14780, 15099, 20358, 20409]}, "edge": {"target": [], "time": []}}}, "displayed_time": "25.80", "trialTime": 35331, "trial_type": "mouselab-mdp", "trial_index": 18, "time_elapsed": 729835, "internal_node_id": "0.0-6.0-1.0-9.0"}}, {"uniqueid": "w62929331:a90912466", "current_trial": 19, "dateTime": 1693389620181, "trialdata": {"revealed_states": [], "clicked_states": ["32", "21", "5", "9", "29", "31"], "num_clicks_accrued": [0, 0, 0, 0, 0, 0, 0, 0, 0, 0, 0, 0, 0], "stateRewards": ["", -1, -3, -7, -7, -76, 30, -49, 11, -70, 56, 2, 1, 4, -3, -14, -59, -83, -25, -9, -21, -67, -73, -2, 4, 4, -9, -11, -32, 60, 9, -87, 22, -64], "withholdReward": false, "trial_id": "mdp_trial_11", "block": "test", "trialIndex": 12, "score": 44.1, "costs": -12.9, "simulationMode": [null, null, null, null, null], "rewards": [-2, 4, 4, -9, 60], "path": ["0", "0", "23", "24", "25", "26", "29"], "rt": [22010, 5, 171, 1640, 610], "actions": ["left", "left", "left", "up", "left"], "actionTimes": [31426, 31945, 32661, 34813, 35943], "queries": {"click": {"state": {"target": ["32", "21", "5", "9", "29", "31"], "time": [11041, 14038, 16880, 19860, 25135, 28101]}, "edge": {"target": [], "time": []}}, "mouseover": {"state": {"target": ["31", "32", "12", "14", "20", "21", "18", "5", "9", "11", "29", "28", "26", "29", "26", "25", "31"], "time": [10403, 10535, 11790, 11835, 12241, 12740, 15486, 15913, 18355, 20878, 21824, 24108, 24159, 24478, 26175, 26353, 26485]}, "edge": {"target": [], "time": []}}, "mouseout": {"state": {"target": ["0", "1", "2", "0", "31", "32", "12", "14", "20", "21", "18", "5", "9", "11", "29", "28", "26", "29", "26", "25"], "time": [1227, 6564, 6731, 10179, 10437, 11710, 11823, 11871, 12287, 15405, 15519, 18034, 20758, 21223, 23779, 24131, 24242, 26075, 26251, 26385]}, "edge": {"target": [], "time": []}}}, "displayed_time": "36.46", "trialTime": 40870, "trial_type": "mouselab-mdp", "trial_index": 19, "time_elapsed": 772200, "internal_node_id": "0.0-6.0-1.0-10.0"}}, {"uniqueid": "w62929331:a90912466", "current_trial": 20, "dateTime": 1693389647844, "trialdata": {"revealed_states": [], "clicked_states": ["29", "31", "16", "20"], "num_clicks_accrued": [0, 0, 0, 0, 0, 0, 0, 0, 0, 0, 0, 0, 0], "stateRewards": ["", 2, -4, 7, 3, 23, -42, 4, 7, -81, -33, 7, -2, -4, 5, -1, 50, -57, -14, -13, -14, 44, 55, -2, -2, 5, -2, 33, 1, 57, -13, -7, 58, 87], "withholdReward": false, "trial_id": "mdp_trial_12", "block": "test", "trialIndex": 13, "score": 47.4, "costs": -8.6, "simulationMode": [null, null, null, null, null], "rewards": [-2, -2, 5, -2, 57], "path": ["0", "0", "23", "24", "25", "26", "29"], "rt": [16718, 188, 234, 527, 79], "actions": ["left", "left", "left", "up", "left"], "actionTimes": [19993, 20698, 21496, 22545, 23139], "queries": {"click": {"state": {"target": ["29", "31", "16", "20"], "time": [5232, 8139, 12552, 15391]}, "edge": {"target": [], "time": []}}, "mouseover": {"state": {"target": ["29", "24", "31", "7", "16", "17", "20", "12"], "time": [4815, 5933, 6317, 9013, 9537, 14306, 15223, 19344]}, "edge": {"target": [], "time": []}}, "mouseout": {"state": {"target": ["31", "0", "29", "24", "31", "7", "16", "16", "17", "20", "12"], "time": [770, 4078, 5888, 5961, 8955, 9047, 12588, 14275, 14338, 19300, 19400]}, "edge": {"target": [], "time": []}}}, "displayed_time": "23.74", "trialTime": 26188, "trial_type": "mouselab-mdp", "trial_index": 20, "time_elapsed": 799863, "internal_node_id": "0.0-6.0-1.0-11.0"}}, {"uniqueid": "w62929331:a90912466", "current_trial": 21, "dateTime": 1693389672173, "trialdata": {"revealed_states": [], "clicked_states": [], "num_clicks_accrued": [0, 0, 0, 0, 0, 0, 0, 0, 0, 0, 0, 0, 0], "stateRewards": ["", -2, 1, -7, -8, -37, -76, -87, 11, 30, -63, 80, -1, 4, 2, -1, 42, 17, 52, -3, -75, -80, -68, 2, -3, -5, -15, -48, 82, 24, -7, 5, -22, -71], "withholdReward": false, "trial_id": "mdp_trial_13", "block": "test", "trialIndex": 14, "score": 33, "costs": 0, "simulationMode": [null, null, null, null, null], "rewards": [-2, 1, -7, 11, 30], "path": ["0", "0", "1", "2", "3", "8", "9"], "rt": [10466, 382, 132, 408, 169], "actions": ["up", "up", "up", "left", "up"], "actionTimes": [14413, 15301, 15953, 16895, 17576], "queries": {"click": {"state": {"target": [], "time": []}, "edge": {"target": [], "time": []}}, "mouseover": {"state": {"target": ["23", "24", "25", "26", "28", "29"], "time": [5330, 5502, 5600, 5671, 6312, 6702]}, "edge": {"target": [], "time": []}}, "mouseout": {"state": {"target": ["23", "24", "25", "26", "28"], "time": [5362, 5537, 5624, 6085, 6388]}, "edge": {"target": [], "time": []}}}, "displayed_time": "18.10", "trialTime": 22917, "trial_type": "mouselab-mdp", "trial_index": 21, "time_elapsed": 824193, "internal_node_id": "0.0-6.0-1.0-12.0"}}, {"uniqueid": "w62929331:a90912466", "current_trial": 22, "dateTime": 1693389701835, "trialdata": {"revealed_states": [], "clicked_states": ["5", "9", "27"], "num_clicks_accrued": [0, 0, 0, 0, 0, 0, 0, 0, 0, 0, 0, 0, 0], "stateRewards": ["", 2, -1, -1, -9, -81, -30, 55, -6, 78, 25, 62, 2, 4, -1, 9, -85, 1, -19, 1, -60, 12, -34, 1, 4, -1, -13, -24, -16, -83, -8, 16, 43, 9], "withholdReward": false, "trial_id": "mdp_trial_14", "block": "test", "trialIndex": 15, "score": 65.55, "costs": -6.449999999999999, "simulationMode": [null, null, null, null, null], "rewards": [2, -1, -1, -6, 78], "path": ["0", "0", "1", "2", "3", "8", "9"], "rt": [11118, 249, 164, 343, 10], "actions": ["up", "up", "up", "left", "up"], "actionTimes": [17383, 18148, 18829, 19692, 20209], "queries": {"click": {"state": {"target": ["5", "9", "27"], "time": [8388, 11214, 14130]}, "edge": {"target": [], "time": []}}, "mouseover": {"state": {"target": ["1", "4", "5", "9", "11", "27", "29"], "time": [6984, 7265, 7629, 9218, 12218, 12616, 15008]}, "edge": {"target": [], "time": []}}, "mouseout": {"state": {"target": ["29", "25", "24", "23", "1", "4", "5", "9", "9", "11", "27", "27", "29"], "time": [4080, 4216, 4346, 4413, 7016, 7342, 9156, 11234, 12152, 12279, 14188, 14794, 15190]}, "edge": {"target": [], "time": []}}}, "displayed_time": "20.75", "trialTime": 28158, "trial_type": "mouselab-mdp", "trial_index": 22, "time_elapsed": 853853, "internal_node_id": "0.0-6.0-1.0-13.0"}}, {"uniqueid": "w62929331:a90912466", "current_trial": 23, "dateTime": 1693389739708, "trialdata": {"revealed_states": [], "clicked_states": ["16", "17", "5", "9", "29"], "num_clicks_accrued": [0, 0, 0, 0, 0, 0, 0, 0, 0, 0, 0, 0, 0], "stateRewards": ["", 1, 1, -5, 8, -6, 45, 16, -6, -7, -22, -38, -1, -4, 8, -11, -16, 21, -45, -15, -59, -32, 42, -1, 3, 6, 11, -7, 34, -27, -8, 85, 43, -9], "withholdReward": false, "trial_id": "mdp_trial_15", "block": "test", "trialIndex": 16, "score": -34.75, "costs": -10.75, "simulationMode": [null, null, null, null, null], "rewards": [-1, -4, 8, -11, -16], "path": ["0", "0", "12", "13", "14", "15", "16"], "rt": [19450, 203, 1352, 1019, 62], "actions": ["right", "right", "right", "up", "up"], "actionTimes": [24250, 24966, 27640, 29170, 29743], "queries": {"click": {"state": {"target": ["16", "17", "5", "9", "29"], "time": [7419, 10334, 13274, 17281, 20323]}, "edge": {"target": [], "time": []}}, "mouseover": {"state": {"target": ["18", "15", "16", "17", "6", "5", "9", "27", "29"], "time": [6333, 6367, 6963, 8393, 10982, 11324, 13789, 18227, 18412]}, "edge": {"target": [], "time": []}}, "mouseout": {"state": {"target": ["28", "18", "15", "16", "17", "16", "6", "5", "5", "9", "27", "29"], "time": [3028, 6358, 6834, 8027, 10358, 10949, 11018, 13333, 13755, 18085, 18289, 20345]}, "edge": {"target": [], "time": []}}}, "displayed_time": "30.27", "trialTime": 36400, "trial_type": "mouselab-mdp", "trial_index": 23, "time_elapsed": 891727, "internal_node_id": "0.0-6.0-1.0-14.0"}}, {"uniqueid": "w62929331:a90912466", "current_trial": 24, "dateTime": 1693389769854, "trialdata": {"revealed_states": [], "clicked_states": ["32", "33", "27", "9"], "num_clicks_accrued": [0, 0, 0, 0, 0, 0, 0, 0, 0, 0, 0, 0, 0], "stateRewards": ["", -1, 3, -7, 16, -32, -74, -48, 2, 10, 15, -30, 1, 1, -2, 10, 12, -83, 67, 13, -66, 47, 65, -2, 4, 2, -14, -8, -57, 24, 9, 65, 12, 46], "withholdReward": false, "trial_id": "mdp_trial_16", "block": "test", "trialIndex": 17, "score": 50.4, "costs": -8.6, "simulationMode": [null, null, null, null, null], "rewards": [-2, 4, 2, 9, 46], "path": ["0", "0", "23", "24", "25", "30", "33"], "rt": [17331, 207, 200, 313, 179], "actions": ["left", "left", "left", "down", "left"], "actionTimes": [23829, 24590, 25384, 26224, 26928], "queries": {"click": {"state": {"target": ["32", "33", "27", "9"], "time": [9034, 11833, 14798, 18067]}, "edge": {"target": [], "time": []}}, "mouseover": {"state": {"target": ["23", "31", "32", "33", "26", "27", "11", "9"], "time": [8330, 8391, 8557, 10182, 12939, 14025, 15849, 16157]}, "edge": {"target": [], "time": []}}, "mouseout": {"state": {"target": ["29", "26", "1", "23", "31", "32", "33", "26", "27", "11", "9", "9"], "time": [1207, 1424, 5036, 8354, 8439, 10068, 12853, 12994, 14821, 15908, 18090, 22227]}, "edge": {"target": [], "time": []}}}, "displayed_time": "27.46", "trialTime": 28541, "trial_type": "mouselab-mdp", "trial_index": 24, "time_elapsed": 921872, "internal_node_id": "0.0-6.0-1.0-15.0"}}, {"uniqueid": "w62929331:a90912466", "current_trial": 25, "dateTime": 1693389796300, "trialdata": {"revealed_states": [], "clicked_states": ["27", "11", "6", "18", "22"], "num_clicks_accrued": [0, 0, 0, 0, 0, 0, 0, 0, 0, 0, 0, 0, 0], "stateRewards": ["", -2, 3, 3, -14, 62, 36, 49, 16, 11, 17, -84, 2, -1, 6, 2, -82, -73, 49, -6, -87, 48, 50, -1, -2, -1, -16, -11, 37, -44, 4, 55, 73, -10], "withholdReward": false, "trial_id": "mdp_trial_17", "block": "test", "trialIndex": 18, "score": 40.25, "costs": -10.75, "simulationMode": [null, null, null, null, null, null], "rewards": [2, -1, 6, -6, 50], "path": ["0", "0", "12", "13", "14", "19", "22"], "rt": [15431, 1584, 283, 212, 393, 72], "actions": ["right", "right", "right", "right", "down", "left"], "actionTimes": [18498, 20092, 20897, 21630, 22541, 23136], "queries": {"click": {"state": {"target": ["27", "11", "6", "18", "22"], "time": [4795, 7610, 10534, 13338, 16268]}, "edge": {"target": [], "time": []}}, "mouseover": {"state": {"target": ["28", "27", "11", "6", "16", "18", "13", "22"], "time": [4077, 4391, 5648, 8885, 11660, 11988, 14050, 14236]}, "edge": {"target": [], "time": []}}, "mouseout": {"state": {"target": ["0", "28", "27", "11", "6", "16", "18", "13"], "time": [4019, 4116, 5543, 8484, 11369, 11857, 14015, 14124]}, "edge": {"target": [], "time": []}}}, "displayed_time": "23.66", "trialTime": 24797, "trial_type": "mouselab-mdp", "trial_index": 25, "time_elapsed": 948319, "internal_node_id": "0.0-6.0-1.0-16.0"}}, {"uniqueid": "w62929331:a90912466", "current_trial": 26, "dateTime": 1693389827875, "trialdata": {"revealed_states": [], "clicked_states": ["29", "31", "18", "6", "11", "20"], "num_clicks_accrued": [0, 0, 0, 0, 0, 0, 0, 0, 0, 0, 0, 0, 0], "stateRewards": ["", 2, -4, 1, -12, -59, -53, -74, 16, -88, -66, 66, 1, -2, 8, -9, -14, 22, 25, -1, -39, 47, -14, -1, -1, -2, 1, -4, 52, -26, 15, -7, 46, 43], "withholdReward": false, "trial_id": "mdp_trial_18", "block": "test", "trialIndex": 19, "score": 68.1, "costs": -12.9, "simulationMode": [null, null, null, null, null], "rewards": [2, -4, 1, 16, 66], "path": ["0", "0", "1", "2", "3", "8", "11"], "rt": [20483, 133, 183, 245, 129], "actions": ["up", "up", "up", "left", "left"], "actionTimes": [25186, 25844, 26543, 27313, 27955], "queries": {"click": {"state": {"target": ["29", "31", "18", "6", "11", "20"], "time": [6326, 9259, 12222, 15145, 18119, 20950]}, "edge": {"target": [], "time": []}}, "mouseover": {"state": {"target": ["23", "26", "29", "24", "31", "23", "18", "6", "4", "3", "8", "11", "11", "10", "13", "14", "20", "14", "18", "7", "2"], "time": [5505, 5637, 5724, 7348, 7742, 10230, 10401, 13115, 15623, 15668, 15715, 15795, 16372, 19177, 19288, 19489, 19710, 22827, 22881, 22959, 23894]}, "edge": {"target": [], "time": []}}, "mouseout": {"state": {"target": ["22", "23", "23", "26", "29", "24", "31", "23", "18", "6", "4", "3", "8", "11", "11", "10", "13", "14", "20", "14", "18", "7", "2"], "time": [2734, 3029, 5558, 5667, 7291, 7411, 9292, 10269, 12822, 15613, 15658, 15703, 15751, 15893, 19138, 19217, 19323, 19576, 22817, 22869, 22922, 23845, 23940]}, "edge": {"target": [], "time": []}}}, "displayed_time": "28.47", "trialTime": 29527, "trial_type": "mouselab-mdp", "trial_index": 26, "time_elapsed": 979894, "internal_node_id": "0.0-6.0-1.0-17.0"}}, {"uniqueid": "w62929331:a90912466", "current_trial": 27, "dateTime": 1693389860363, "trialdata": {"revealed_states": [], "clicked_states": ["33", "5", "29", "18", "22", "6"], "num_clicks_accrued": [0, 0, 0, 0, 0, 0, 0, 0, 0, 0, 0, 0, 0], "stateRewards": ["", -1, -3, -3, 1, -38, 2, -53, -2, -1, -81, 70, -1, 1, -5, -9, 46, 15, 35, -1, -22, 38, 59, -2, 4, -8, 13, 1, -83, -43, 4, 76, 13, 48], "withholdReward": false, "trial_id": "mdp_trial_19", "block": "test", "trialIndex": 20, "score": 40.1, "costs": -12.9, "simulationMode": [null, null, null, null, null], "rewards": [-1, 1, -5, -1, 59], "path": ["0", "0", "12", "13", "14", "19", "22"], "rt": [22382, 689, 139, 543, 118], "actions": ["right", "right", "right", "down", "left"], "actionTimes": [25704, 26933, 27603, 28673, 29324], "queries": {"click": {"state": {"target": ["33", "5", "29", "18", "22", "6"], "time": [5166, 8111, 11669, 14906, 17811, 20644]}, "edge": {"target": [], "time": []}}, "mouseover": {"state": {"target": ["0", "30", "33", "33", "3", "5", "9", "29", "23", "22", "22", "18", "13", "22", "13", "6", "4", "3", "8", "11"], "time": [3920, 4041, 4358, 4676, 6645, 7380, 9271, 11262, 12609, 12710, 13023, 14349, 15784, 15897, 18853, 19330, 21120, 21169, 21248, 21515]}, "edge": {"target": [], "time": []}}, "mouseout": {"state": {"target": ["10", "1", "0", "30", "33", "33", "3", "5", "9", "29", "23", "22", "22", "18", "18", "13", "22", "13", "6", "4", "3", "8"], "time": [1342, 1686, 3992, 4075, 4393, 5313, 6680, 8132, 10955, 12548, 12645, 12746, 14226, 15075, 15746, 15830, 18818, 18889, 21111, 21156, 21212, 21318]}, "edge": {"target": [], "time": []}}}, "displayed_time": "29.87", "trialTime": 30929, "trial_type": "mouselab-mdp", "trial_index": 27, "time_elapsed": 1012382, "internal_node_id": "0.0-6.0-1.0-18.0"}}, {"uniqueid": "w62929331:a90912466", "current_trial": 28, "dateTime": 1693389886469, "trialdata": {"revealed_states": [], "clicked_states": ["17", "18", "28", "29"], "num_clicks_accrued": [0, 0, 0, 0, 0, 0, 0, 0, 0, 0, 0, 0, 0], "stateRewards": ["", 1, 4, -4, 14, 35, 51, 19, -13, 54, 78, -74, -2, -1, -3, 13, -11, -42, -73, -15, -24, -3, -69, 2, -1, 5, 16, -27, 73, 58, 9, -60, 5, -60], "withholdReward": false, "trial_id": "mdp_trial_20", "block": "test", "trialIndex": 21, "score": 86.4, "costs": -8.6, "simulationMode": [null, null, null, null, null, null], "rewards": [2, -1, 5, 16, 73], "path": ["0", "0", "23", "24", "25", "26", "28"], "rt": [13448, 939, 197, 174, 734, 53], "actions": ["left", "left", "left", "left", "up", "right"], "actionTimes": [18883, 19832, 20553, 21243, 22494, 23058], "queries": {"click": {"state": {"target": ["17", "18", "28", "29"], "time": [7001, 10638, 13650, 16638]}, "edge": {"target": [], "time": []}}, "mouseover": {"state": {"target": ["0", "18", "17", "15", "18", "18", "1", "28", "26", "29", "27", "9"], "time": [5571, 6185, 6667, 8074, 8454, 10312, 11427, 11742, 14484, 14937, 17084, 17547]}, "edge": {"target": [], "time": []}}, "mouseout": {"state": {"target": ["11", "10", "0", "18", "17", "15", "18", "18", "1", "28", "26", "29", "27", "9"], "time": [3664, 3764, 6153, 6217, 8053, 8134, 9812, 11392, 11508, 14447, 14621, 17053, 17119, 17578]}, "edge": {"target": [], "time": []}}}, "displayed_time": "23.59", "trialTime": 24709, "trial_type": "mouselab-mdp", "trial_index": 28, "time_elapsed": 1038487, "internal_node_id": "0.0-6.0-1.0-19.0"}}, {"uniqueid": "w62929331:a90912466", "current_trial": 29, "dateTime": 1693389952163, "trialdata": {"revealed_states": [], "clicked_states": ["27", "29", "11", "16"], "num_clicks_accrued": [0, 0, 0, 0, 0, 0, 0, 0, 0, 0, 0, 0, 0], "stateRewards": ["", 2, 4, 4, 9, -88, -10, 44, 16, -54, 64, 78, 1, 2, 5, 16, 80, 36, 7, -4, 9, -47, -70, -1, -3, 6, -16, 11, 80, 28, 8, -1, 34, -17], "withholdReward": false, "trial_id": "mdp_trial_21", "block": "test", "trialIndex": 22, "score": 95.4, "costs": -8.6, "simulationMode": [null, null, null, null, null], "rewards": [2, 4, 4, 16, 78], "path": ["0", "0", "1", "2", "3", "8", "11"], "rt": [14377, 45, 3218, 268, 96], "actions": ["up", "up", "up", "left", "left"], "actionTimes": [56491, 57069, 60834, 61642, 62258], "queries": {"click": {"state": {"target": ["27", "29", "11", "16"], "time": [43940, 46837, 49639, 52880]}, "edge": {"target": [], "time": []}}, "mouseover": {"state": {"target": ["27", "29", "11", "8", "16", "18"], "time": [43484, 44572, 48192, 50438, 50974, 53809]}, "edge": {"target": [], "time": []}}, "mouseout": {"state": {"target": ["2", "1", "0", "27", "29", "27", "11", "8", "16", "18"], "time": [40064, 40180, 42848, 44519, 47653, 47741, 50428, 50475, 53666, 55141]}, "edge": {"target": [], "time": []}}}, "displayed_time": "62.77", "trialTime": 63679, "trial_type": "mouselab-mdp", "trial_index": 29, "time_elapsed": 1104183, "internal_node_id": "0.0-6.0-1.0-20.0"}}, {"uniqueid": "w62929331:a90912466", "current_trial": 30, "dateTime": 1693389984900, "trialdata": {"revealed_states": [], "clicked_states": ["16", "18", "11", "6", "29", "33", "22"], "num_clicks_accrued": [0, 0, 0, 0, 0, 0, 0, 0, 0, 0, 0, 0, 0], "stateRewards": ["", -2, -1, -2, -15, 87, 57, 29, -10, 77, -80, -7, 1, -3, 6, 14, -11, 87, -59, 4, -71, 16, -11, 2, 2, -7, 2, -47, 61, 50, 14, -20, 17, 81], "withholdReward": false, "trial_id": "mdp_trial_22", "block": "test", "trialIndex": 23, "score": 76.95, "costs": -15.05, "simulationMode": [null, null, null, null, null, null], "rewards": [2, 2, -7, 14, 81], "path": ["0", "0", "23", "24", "25", "30", "33"], "rt": [21630, 1296, 405, 201, 521, 260], "actions": ["left", "left", "left", "left", "down", "left"], "actionTimes": [24979, 26286, 27206, 27928, 28968, 29737], "queries": {"click": {"state": {"target": ["16", "18", "11", "6", "29", "33", "22"], "time": [5327, 8260, 11116, 14140, 17032, 19998, 23018]}, "edge": {"target": [], "time": []}}, "mouseover": {"state": {"target": ["16", "16", "18", "2", "8", "11", "11", "3", "6", "29", "29", "26", "25", "33", "22", "22", "22"], "time": [4399, 4807, 6290, 8923, 9096, 9192, 9472, 11846, 12164, 14842, 15129, 18295, 18550, 18894, 21301, 21440, 21777]}, "edge": {"target": [], "time": []}}, "mouseout": {"state": {"target": ["23", "16", "16", "18", "2", "8", "11", "11", "3", "6", "29", "29", "26", "25", "33", "22", "22"], "time": [1664, 4445, 6166, 8862, 8957, 9132, 9227, 11811, 11880, 14166, 14880, 18260, 18330, 18611, 20023, 21362, 21475]}, "edge": {"target": [], "time": []}}}, "displayed_time": "30.24", "trialTime": 30938, "trial_type": "mouselab-mdp", "trial_index": 30, "time_elapsed": 1136919, "internal_node_id": "0.0-6.0-1.0-21.0"}}, {"uniqueid": "w62929331:a90912466", "current_trial": 31, "dateTime": 1693390009953, "trialdata": {"revealed_states": [], "clicked_states": ["17", "18", "33", "29"], "num_clicks_accrued": [0, 0, 0, 0, 0, 0, 0, 0, 0, 0, 0, 0, 0], "stateRewards": ["", 2, 3, -2, -8, -8, -41, 74, 15, -23, -80, 1, 1, 3, 3, -15, -63, -78, 67, 13, 75, -41, 86, 2, -2, 6, -3, -8, -49, 50, -6, 83, 74, 80], "withholdReward": false, "trial_id": "mdp_trial_23", "block": "test", "trialIndex": 24, "score": 71.4, "costs": -8.6, "simulationMode": [null, null, null, null, null], "rewards": [2, -2, 6, -6, 80], "path": ["0", "0", "23", "24", "25", "30", "33"], "rt": [14482, 115, 134, 155, 83], "actions": ["left", "left", "left", "down", "left"], "actionTimes": [18017, 18667, 19321, 20010, 20618], "queries": {"click": {"state": {"target": ["17", "18", "33", "29"], "time": [4946, 7835, 11777, 14615]}, "edge": {"target": [], "time": []}}, "mouseover": {"state": {"target": ["0", "12", "15", "17", "15", "18", "28", "26", "29", "33", "29"], "time": [4066, 4101, 4186, 4402, 5848, 5947, 8385, 8430, 8998, 11374, 13533]}, "edge": {"target": [], "time": []}}, "mouseout": {"state": {"target": ["0", "12", "15", "17", "15", "18", "28", "26", "29", "33"], "time": [4090, 4136, 4236, 5813, 5883, 8322, 8420, 8464, 11002, 13232]}, "edge": {"target": [], "time": []}}}, "displayed_time": "21.14", "trialTime": 23343, "trial_type": "mouselab-mdp", "trial_index": 31, "time_elapsed": 1161972, "internal_node_id": "0.0-6.0-1.0-22.0"}}, {"uniqueid": "w62929331:a90912466", "current_trial": 32, "dateTime": 1693390043355, "trialdata": {"revealed_states": [], "clicked_states": ["5", "9", "27", "29", "32", "21", "16"], "num_clicks_accrued": [0, 0, 0, 0, 0, 0, 0, 0, 0, 0, 0, 0, 0], "stateRewards": ["", -1, -3, -5, -14, -13, -47, 79, 8, -60, -64, 41, -1, 2, 3, 13, -46, 61, -79, -11, -64, -65, 23, 1, -2, 6, -14, 46, 32, 21, 7, 75, -66, 15], "withholdReward": false, "trial_id": "mdp_trial_24", "block": "test", "trialIndex": 25, "score": 21.95, "costs": -15.05, "simulationMode": [null, null, null, null, null], "rewards": [1, -2, 6, -14, 46], "path": ["0", "0", "23", "24", "25", "26", "27"], "rt": [23167, 99, 149, 790, 77], "actions": ["left", "left", "left", "up", "up"], "actionTimes": [26675, 27308, 27993, 29318, 29905], "queries": {"click": {"state": {"target": ["5", "9", "27", "29", "32", "21", "16"], "time": [5227, 8170, 11021, 13920, 16775, 19641, 22563]}, "edge": {"target": [], "time": []}}, "mouseover": {"state": {"target": ["7", "4", "5", "9", "9", "11", "27", "29", "30", "32", "21", "15", "16", "16"], "time": [4397, 4476, 4830, 6329, 6653, 9274, 9590, 12243, 14698, 15118, 18027, 20709, 20781, 21240]}, "edge": {"target": [], "time": []}}, "mouseout": {"state": {"target": ["29", "26", "28", "7", "4", "5", "9", "9", "11", "27", "27", "29", "30", "32", "21", "15", "16"], "time": [1457, 1519, 1786, 4467, 4506, 6256, 6426, 8192, 9320, 11069, 11975, 13942, 14956, 16803, 20674, 20745, 20818]}, "edge": {"target": [], "time": []}}}, "displayed_time": "30.42", "trialTime": 31736, "trial_type": "mouselab-mdp", "trial_index": 32, "time_elapsed": 1195373, "internal_node_id": "0.0-6.0-1.0-23.0"}}, {"uniqueid": "w62929331:a90912466", "current_trial": 33, "dateTime": 1693390068560, "trialdata": {"revealed_states": [], "clicked_states": [], "num_clicks_accrued": [0, 0, 0, 0, 0, 0, 0, 0, 0, 0, 0, 0, 0], "stateRewards": ["", -2, -1, -1, 5, -54, -87, 35, 2, -8, 20, -22, 1, 3, 6, 13, -75, -32, -55, -3, 56, 62, -22, -1, -4, -1, -7, -51, 84, 70, 7, -15, 5, 55], "withholdReward": false, "trial_id": "mdp_trial_25", "block": "test", "trialIndex": 26, "score": -15, "costs": 0, "simulationMode": [null, null, null, null, null], "rewards": [1, 3, 6, -3, -22], "path": ["0", "0", "12", "13", "14", "19", "22"], "rt": [5438, 591, 14, 174, 225], "actions": ["right", "right", "right", "down", "left"], "actionTimes": [10810, 11959, 12491, 13208, 13942], "queries": {"click": {"state": {"target": [], "time": []}, "edge": {"target": [], "time": []}}, "mouseover": {"state": {"target": ["18", "15", "17", "17", "12"], "time": [6089, 6169, 6384, 8195, 9652]}, "edge": {"target": [], "time": []}}, "mouseout": {"state": {"target": ["16", "18", "15", "17", "17", "12", "13", "12", "0", "23", "31", "0"], "time": [3486, 6158, 6201, 6587, 9517, 9785, 20797, 20826, 20890, 20976, 22035, 22839]}, "edge": {"target": [], "time": []}}}, "displayed_time": "19.37", "trialTime": 23504, "trial_type": "mouselab-mdp", "trial_index": 33, "time_elapsed": 1220579, "internal_node_id": "0.0-6.0-1.0-24.0"}}, {"uniqueid": "w62929331:a90912466", "current_trial": 34, "dateTime": 1693390090851, "trialdata": {"revealed_states": [], "clicked_states": ["5", "16", "17"], "num_clicks_accrued": [0, 0, 0, 0, 0, 0, 0, 0, 0, 0, 0, 0, 0], "stateRewards": ["", -2, 4, -7, -3, -76, 39, -28, 10, 14, 12, 60, 2, -3, 6, -10, 88, -34, -41, -3, 72, -13, -56, 1, 3, 2, 8, -51, 23, -57, 1, 14, -46, -16], "withholdReward": false, "trial_id": "mdp_trial_26", "block": "test", "trialIndex": 27, "score": 76.55, "costs": -6.449999999999999, "simulationMode": [null, null, null, null, null], "rewards": [2, -3, 6, -10, 88], "path": ["0", "0", "12", "13", "14", "15", "16"], "rt": [12535, 39, 372, 383, 398], "actions": ["right", "right", "right", "up", "up"], "actionTimes": [15547, 16131, 17050, 17956, 18879], "queries": {"click": {"state": {"target": ["5", "16", "17"], "time": [4892, 7862, 11719]}, "edge": {"target": [], "time": []}}, "mouseover": {"state": {"target": ["1", "2", "3", "5", "6", "16", "18", "15", "17"], "time": [3856, 3926, 3960, 4143, 5916, 6130, 8606, 10732, 10797]}, "edge": {"target": [], "time": []}}, "mouseout": {"state": {"target": ["1", "2", "3", "5", "6", "16", "16", "18", "15", "17"], "time": [3917, 3951, 4077, 5857, 5952, 8026, 8553, 10723, 10766, 11780]}, "edge": {"target": [], "time": []}}}, "displayed_time": "19.41", "trialTime": 20512, "trial_type": "mouselab-mdp", "trial_index": 34, "time_elapsed": 1242870, "internal_node_id": "0.0-6.0-1.0-25.0"}}, {"uniqueid": "w62929331:a90912466", "current_trial": 35, "dateTime": 1693390118710, "trialdata": {"revealed_states": [], "clicked_states": ["33", "29", "17", "16", "21"], "num_clicks_accrued": [0, 0, 0, 0, 0, 0, 0, 0, 0, 0, 0, 0, 0], "stateRewards": ["", 1, 1, 6, -14, -40, 37, 16, -13, 33, -68, 49, 2, 4, 3, 6, 55, 27, 32, 10, -65, 20, -87, 2, 1, -6, -5, -42, 12, 29, -8, 16, 76, -33], "withholdReward": false, "trial_id": "mdp_trial_27", "block": "test", "trialIndex": 28, "score": 59.25, "costs": -10.75, "simulationMode": [null, null, null, null, null], "rewards": [2, 4, 3, 6, 55], "path": ["0", "0", "12", "13", "14", "15", "16"], "rt": [18106, 160, 256, 726, 62], "actions": ["right", "right", "right", "up", "up"], "actionTimes": [21286, 22004, 22766, 24020, 24602], "queries": {"click": {"state": {"target": ["33", "29", "17", "16", "21"], "time": [5377, 8426, 11270, 14204, 17049]}, "edge": {"target": [], "time": []}}, "mouseover": {"state": {"target": ["0", "25", "33", "29", "28", "18", "17", "16", "19", "21"], "time": [4001, 4113, 4453, 7006, 9475, 9607, 10085, 12427, 15286, 15820]}, "edge": {"target": [], "time": []}}, "mouseout": {"state": {"target": ["17", "15", "18", "0", "25", "33", "29", "28", "18", "17", "16", "19"], "time": [1120, 1200, 1318, 4087, 4270, 6676, 9439, 9512, 9644, 12253, 14258, 15322]}, "edge": {"target": [], "time": []}}}, "displayed_time": "25.13", "trialTime": 26138, "trial_type": "mouselab-mdp", "trial_index": 35, "time_elapsed": 1270728, "internal_node_id": "0.0-6.0-1.0-26.0"}}, {"uniqueid": "w62929331:a90912466", "current_trial": 36, "dateTime": 1693390155284, "trialdata": {"revealed_states": [], "clicked_states": ["9", "27", "33", "21", "16", "18", "17"], "num_clicks_accrued": [0, 0, 0, 0, 0, 0, 0, 0, 0, 0, 0, 0, 0], "stateRewards": ["", -2, -1, -6, -14, -55, 78, -13, 11, 14, -71, 59, 2, 2, 6, -6, 9, 38, 14, 7, 85, 11, 68, 1, -4, -1, -3, -63, -85, 9, -2, 63, -86, -10], "withholdReward": false, "trial_id": "mdp_trial_28", "block": "test", "trialIndex": 29, "score": 26.95, "costs": -15.05, "simulationMode": [null, null, null, null, null], "rewards": [2, 2, 6, -6, 38], "path": ["0", "0", "12", "13", "14", "15", "17"], "rt": [26971, 72, 167, 716, 30], "actions": ["right", "right", "right", "up", "right"], "actionTimes": [30698, 31287, 31977, 33212, 33762], "queries": {"click": {"state": {"target": ["9", "27", "33", "21", "16", "18", "17"], "time": [5328, 8211, 11190, 16780, 19790, 22834, 25768]}, "edge": {"target": [], "time": []}}, "mouseover": {"state": {"target": ["1", "9", "9", "11", "27", "26", "33", "32", "21", "21", "16", "18", "18", "15", "17", "20", "19", "22"], "time": [4507, 4602, 4864, 7026, 7585, 9470, 9914, 12082, 14526, 16326, 18284, 20909, 21353, 24208, 24374, 26586, 29146, 29427]}, "edge": {"target": [], "time": []}}, "mouseout": {"state": {"target": ["21", "0", "1", "9", "9", "11", "27", "26", "33", "32", "21", "21", "16", "18", "18", "15", "17", "20", "19"], "time": [1496, 1825, 4568, 4651, 6989, 7124, 9459, 9506, 11702, 13727, 14720, 17783, 20845, 21025, 24152, 24306, 26429, 29098, 29197]}, "edge": {"target": [], "time": []}}}, "displayed_time": "34.29", "trialTime": 34860, "trial_type": "mouselab-mdp", "trial_index": 36, "time_elapsed": 1307303, "internal_node_id": "0.0-6.0-1.0-27.0"}}, {"uniqueid": "w62929331:a90912466", "current_trial": 37, "dateTime": 1693390178782, "trialdata": {"revealed_states": [], "clicked_states": ["29", "33"], "num_clicks_accrued": [0, 0, 0, 0, 0, 0, 0, 0, 0, 0, 0, 0, 0], "stateRewards": ["", -1, 1, -6, -1, 80, 23, 2, -11, 73, -81, 59, 1, 3, 5, -1, -26, 28, -3, 16, -59, -13, -50, -2, -2, 2, 15, -50, 86, 17, -4, 37, 35, 44], "withholdReward": false, "trial_id": "mdp_trial_29", "block": "test", "trialIndex": 30, "score": 33.7, "costs": -4.3, "simulationMode": [null, null, null, null, null], "rewards": [-2, -2, 2, -4, 44], "path": ["0", "0", "23", "24", "25", "30", "33"], "rt": [9388, 85, 184, 263, 295], "actions": ["left", "left", "left", "down", "left"], "actionTimes": [13252, 13891, 14599, 15377, 16184], "queries": {"click": {"state": {"target": ["29", "33"], "time": [5609, 8438]}, "edge": {"target": [], "time": []}}, "mouseover": {"state": {"target": ["28", "26", "29", "33", "32", "32"], "time": [4871, 4941, 5105, 6723, 9455, 11909]}, "edge": {"target": [], "time": []}}, "mouseout": {"state": {"target": ["22", "0", "28", "26", "29", "33", "32"], "time": [1986, 4806, 4906, 5038, 6650, 9213, 11459]}, "edge": {"target": [], "time": []}}}, "displayed_time": "17.87", "trialTime": 21877, "trial_type": "mouselab-mdp", "trial_index": 37, "time_elapsed": 1330800, "internal_node_id": "0.0-6.0-1.0-28.0"}}, {"uniqueid": "w62929331:a90912466", "current_trial": 38, "dateTime": 1693390243980, "trialdata": {"revealed_states": [], "clicked_states": ["9", "11", "29", "27", "33", "32"], "num_clicks_accrued": [0, 0, 0, 0, 0, 0, 0, 0, 0, 0, 0, 0, 0], "stateRewards": ["", 2, -3, -8, 14, -7, -51, 73, 2, 36, 36, -43, -1, 3, -4, 1, 6, 87, -65, 15, 61, -42, -83, -1, 3, -2, -7, 30, -48, 35, 13, 26, 60, 78], "withholdReward": false, "trial_id": "mdp_trial_30", "block": "test", "trialIndex": 31, "score": 78.1, "costs": -12.9, "simulationMode": [null, null, null, null, null], "rewards": [-1, 3, -2, 13, 78], "path": ["0", "0", "23", "24", "25", "30", "33"], "rt": [20028, 29, 531, 97, 244], "actions": ["left", "left", "left", "down", "left"], "actionTimes": [52661, 53216, 54284, 54921, 55709], "queries": {"click": {"state": {"target": ["9", "11", "29", "27", "33", "32"], "time": [34185, 37267, 40953, 43769, 46581, 49610]}, "edge": {"target": [], "time": []}}, "mouseover": {"state": {"target": ["11", "9", "11", "27", "29", "27", "33", "30", "32", "22", "0"], "time": [33299, 33757, 35195, 38260, 40276, 42331, 45391, 47443, 47724, 50800, 51976]}, "edge": {"target": [], "time": []}}, "mouseout": {"state": {"target": ["32", "30", "1", "0", "11", "9", "11", "27", "29", "27", "33", "30", "32", "22", "0"], "time": [30201, 30237, 31117, 33239, 33408, 35012, 37992, 39982, 42034, 44775, 47382, 47479, 49655, 51938, 52014]}, "edge": {"target": [], "time": []}}}, "displayed_time": "56.94", "trialTime": 63570, "trial_type": "mouselab-mdp", "trial_index": 38, "time_elapsed": 1395999, "internal_node_id": "0.0-6.0-1.0-29.0"}}, {"uniqueid": "w62929331:a90912466", "current_trial": 39, "dateTime": 1693390272777, "trialdata": {"revealed_states": [], "clicked_states": [], "num_clicks_accrued": [0, 0, 0, 0, 0, 0, 0, 0, 0, 0, 0, 0, 0], "stateRewards": ["", 1, 2, -3, -6, 50, -7, 7, -7, -80, 21, -1, 2, 2, 4, -1, 33, 84, 1, 14, -53, 81, 6, -2, -2, -3, -9, -87, -38, -59, -5, -74, -3, -71], "withholdReward": false, "trial_id": "mdp_trial_31", "block": "test", "trialIndex": 32, "score": -86, "costs": 0, "simulationMode": [null, null, null, null, null], "rewards": [-2, -2, -3, -5, -74], "path": ["0", "0", "23", "24", "25", "30", "31"], "rt": [9161, 592, 336, 327, 20], "actions": ["left", "left", "left", "down", "right"], "actionTimes": [14607, 17043, 18126, 19008, 19554], "queries": {"click": {"state": {"target": [], "time": []}, "edge": {"target": [], "time": []}}, "mouseover": {"state": {"target": ["2", "16"], "time": [10061, 10580]}, "edge": {"target": [], "time": []}}, "mouseout": {"state": {"target": ["1", "0", "2"], "time": [3149, 9381, 10121]}, "edge": {"target": [], "time": []}}}, "displayed_time": "20.09", "trialTime": 26679, "trial_type": "mouselab-mdp", "trial_index": 39, "time_elapsed": 1424796, "internal_node_id": "0.0-6.0-1.0-30.0"}}, {"uniqueid": "w62929331:a90912466", "current_trial": 40, "dateTime": 1693390305919, "trialdata": {"revealed_states": [], "clicked_states": ["9", "6", "5", "16", "17", "20"], "num_clicks_accrued": [0, 0, 0, 0, 0, 0, 0, 0, 0, 0, 0, 0, 0], "stateRewards": ["", -1, 2, -6, 6, 43, 78, 78, -2, 55, -29, -17, -2, -4, 1, -15, 13, 7, -79, 8, -28, -68, 36, -1, -3, 3, -16, 84, -18, 87, 10, 32, 13, -81], "withholdReward": false, "trial_id": "mdp_trial_32", "block": "test", "trialIndex": 33, "score": 66.1, "costs": -12.9, "simulationMode": [null, null, null, null, null], "rewards": [-1, 2, -6, 6, 78], "path": ["0", "0", "1", "2", "3", "4", "6"], "rt": [21742, 312, 148, 534, 69], "actions": ["up", "up", "up", "right", "right"], "actionTimes": [24917, 25746, 26431, 27486, 28092], "queries": {"click": {"state": {"target": ["9", "6", "5", "16", "17", "20"], "time": [5881, 9547, 12419, 15662, 18569, 21383]}, "edge": {"target": [], "time": []}}, "mouseover": {"state": {"target": ["10", "8", "9", "9", "5", "6", "5", "16", "17", "20"], "time": [4236, 4293, 4512, 5416, 6720, 9027, 10664, 14226, 16944, 20323]}, "edge": {"target": [], "time": []}}, "mouseout": {"state": {"target": ["16", "10", "8", "9", "9", "5", "6", "5", "16", "17"], "time": [1254, 4263, 4504, 4695, 5979, 8728, 10537, 13104, 16596, 19857]}, "edge": {"target": [], "time": []}}}, "displayed_time": "28.60", "trialTime": 29705, "trial_type": "mouselab-mdp", "trial_index": 40, "time_elapsed": 1457938, "internal_node_id": "0.0-6.0-1.0-31.0"}}, {"uniqueid": "w62929331:a90912466", "current_trial": 41, "dateTime": 1693390348648, "trialdata": {"revealed_states": [], "clicked_states": ["27", "29", "33", "20", "22", "16", "21", "32"], "num_clicks_accrued": [0, 0, 0, 0, 0, 0, 0, 0, 0, 0, 0, 0, 0], "stateRewards": ["", 2, 3, 8, 14, 69, -27, 17, 2, -71, -65, -10, 2, -3, 7, 8, 65, -10, 65, -12, 73, -12, 13, -2, -2, 6, 10, -79, -69, -18, 10, -85, 67, 74], "withholdReward": false, "trial_id": "mdp_trial_33", "block": "test", "trialIndex": 34, "score": 68.8, "costs": -17.2, "simulationMode": [null, null, null, null, null], "rewards": [-2, -2, 6, 10, 74], "path": ["0", "0", "23", "24", "25", "30", "33"], "rt": [27213, 91, 154, 216, 171], "actions": ["left", "left", "left", "down", "left"], "actionTimes": [33598, 34228, 34981, 35723, 36405], "queries": {"click": {"state": {"target": ["27", "29", "33", "20", "22", "16", "21", "32"], "time": [9173, 12140, 15086, 17905, 20712, 23696, 26878, 29787]}, "edge": {"target": [], "time": []}}, "mouseover": {"state": {"target": ["28", "27", "27", "29", "29", "33", "22", "19", "20", "19", "22", "13", "16", "19", "21", "32"], "time": [7545, 7889, 8726, 10296, 10597, 13132, 15849, 15899, 16255, 18528, 20095, 22433, 22833, 24868, 24915, 28772]}, "edge": {"target": [], "time": []}}, "mouseout": {"state": {"target": ["20", "13", "0", "28", "27", "27", "29", "29", "33", "22", "19", "20", "19", "22", "13", "16", "19", "21"], "time": [4142, 4453, 7500, 7627, 7956, 10261, 10336, 12789, 15744, 15890, 16247, 18488, 18897, 20861, 22471, 24831, 24905, 27709]}, "edge": {"target": [], "time": []}}}, "displayed_time": "36.91", "trialTime": 39800, "trial_type": "mouselab-mdp", "trial_index": 41, "time_elapsed": 1500668, "internal_node_id": "0.0-6.0-1.0-32.0"}}, {"uniqueid": "w62929331:a90912466", "current_trial": 42, "dateTime": 1693390378926, "trialdata": {"revealed_states": [], "clicked_states": ["5", "9", "21"], "num_clicks_accrued": [0, 0, 0, 0, 0, 0, 0, 0, 0, 0, 0, 0, 0], "stateRewards": ["", -1, -3, -7, -4, -85, -70, 79, 8, 84, -66, 42, 2, -2, -3, -16, -54, -66, 68, -3, 21, -14, 7, -2, -1, -3, -8, 75, 80, 86, -7, -84, 73, -16], "withholdReward": false, "trial_id": "mdp_trial_34", "block": "test", "trialIndex": 35, "score": 74.55, "costs": -6.449999999999999, "simulationMode": [null, null, null, null, null], "rewards": [-1, -3, -7, 8, 84], "path": ["0", "0", "1", "2", "3", "8", "9"], "rt": [13103, 193, 162, 289, 510], "actions": ["up", "up", "up", "left", "up"], "actionTimes": [23049, 23771, 24453, 25264, 26310], "queries": {"click": {"state": {"target": ["5", "9", "21"], "time": [11436, 14240, 17160]}, "edge": {"target": [], "time": []}}, "mouseover": {"state": {"target": ["1", "5", "9", "15", "14", "21", "20"], "time": [10504, 10982, 12550, 14705, 15104, 15876, 18444]}, "edge": {"target": [], "time": []}}, "mouseout": {"state": {"target": ["32", "1", "5", "9", "9", "15", "14", "21"], "time": [7883, 10567, 12480, 14280, 14660, 15062, 15156, 17930]}, "edge": {"target": [], "time": []}}}, "displayed_time": "26.91", "trialTime": 28462, "trial_type": "mouselab-mdp", "trial_index": 42, "time_elapsed": 1530945, "internal_node_id": "0.0-6.0-1.0-33.0"}}, {"uniqueid": "w62929331:a90912466", "current_trial": 43, "dateTime": 1693390411518, "trialdata": {"revealed_states": [], "clicked_states": ["9", "11", "21", "16", "33", "29"], "num_clicks_accrued": [0, 0, 0, 0, 0, 0, 0, 0, 0, 0, 0, 0, 0], "stateRewards": ["", 1, -4, -6, -1, -21, 17, -72, 10, 77, 67, -46, -1, 4, -2, 14, -66, -49, -45, -15, -52, 23, -67, 2, -2, -2, 15, -3, 45, -64, 5, -44, 83, 61], "withholdReward": false, "trial_id": "mdp_trial_35", "block": "test", "trialIndex": 36, "score": 65.1, "costs": -12.9, "simulationMode": [null, null, null, null, null], "rewards": [1, -4, -6, 10, 77], "path": ["0", "0", "1", "2", "3", "8", "9"], "rt": [20992, 245, 146, 369, 384], "actions": ["up", "up", "up", "left", "up"], "actionTimes": [26097, 26889, 27554, 28450, 29373], "queries": {"click": {"state": {"target": ["9", "11", "21", "16", "33", "29"], "time": [6673, 10015, 12975, 16001, 18851, 21878]}, "edge": {"target": [], "time": []}}, "mouseover": {"state": {"target": ["1", "9", "11", "12", "21", "19", "14", "15", "16", "31", "30", "33", "29", "28", "14", "2"], "time": [5839, 6261, 7562, 10860, 11511, 13773, 13824, 13903, 14163, 17099, 17331, 18512, 21348, 23727, 23867, 24423]}, "edge": {"target": [], "time": []}}, "mouseout": {"state": {"target": ["20", "21", "19", "1", "23", "1", "1", "9", "11", "12", "21", "19", "14", "15", "16", "31", "30", "33", "29", "28", "14", "2"], "time": [1226, 2541, 2582, 2728, 3106, 3379, 5917, 7553, 10823, 10900, 13763, 13813, 13863, 14065, 16844, 17231, 17617, 20882, 23687, 23766, 24352, 24492]}, "edge": {"target": [], "time": []}}}, "displayed_time": "29.90", "trialTime": 30606, "trial_type": "mouselab-mdp", "trial_index": 43, "time_elapsed": 1563537, "internal_node_id": "0.0-6.0-1.0-34.0"}}, {"uniqueid": "w62929331:a90912466", "current_trial": 44, "dateTime": 1693390448527, "trialdata": {"revealed_states": [], "clicked_states": ["5", "31", "28", "9", "21", "22", "20"], "num_clicks_accrued": [0, 0, 0, 0, 0, 0, 0, 0, 0, 0, 0, 0, 0], "stateRewards": ["", -1, -3, -6, -2, -7, 80, -45, -3, -38, -72, 76, 2, 1, 7, 4, -62, 14, -74, 14, -87, -21, -88, -2, 1, -7, -10, 66, 56, -76, 10, -29, -72, -70], "withholdReward": false, "trial_id": "mdp_trial_36", "block": "test", "trialIndex": 37, "score": 22.950000000000003, "costs": -15.05, "simulationMode": [null, null, null, null, null], "rewards": [-2, 1, -7, -10, 56], "path": ["0", "0", "23", "24", "25", "26", "28"], "rt": [25751, 189, 237, 153, 304], "actions": ["left", "left", "left", "up", "right"], "actionTimes": [29619, 30338, 31095, 31777, 32621], "queries": {"click": {"state": {"target": ["5", "31", "28", "9", "21", "22", "20"], "time": [5775, 9901, 12871, 15869, 18827, 22863, 25757]}, "edge": {"target": [], "time": []}}, "mouseover": {"state": {"target": ["7", "4", "5", "9", "28", "24", "31", "24", "28", "8", "9", "14", "20", "19", "21", "20", "19", "22", "20"], "time": [4658, 4905, 5307, 7253, 9102, 9268, 9538, 11228, 11683, 13546, 13881, 16522, 16836, 16952, 17293, 19652, 22112, 22470, 23960]}, "edge": {"target": [], "time": []}}, "mouseout": {"state": {"target": ["2", "12", "7", "4", "5", "9", "28", "24", "31", "24", "28", "8", "9", "14", "20", "19", "21", "20", "19", "22"], "time": [1318, 1626, 4722, 5051, 6819, 8972, 9168, 9458, 10033, 11621, 13447, 13782, 16453, 16560, 16879, 16991, 18850, 22070, 22392, 23833]}, "edge": {"target": [], "time": []}}}, "displayed_time": "33.16", "trialTime": 34951, "trial_type": "mouselab-mdp", "trial_index": 44, "time_elapsed": 1600546, "internal_node_id": "0.0-6.0-1.0-35.0"}}, {"uniqueid": "w62929331:a90912466", "current_trial": 45, "dateTime": 1693390479248, "trialdata": {"revealed_states": [], "clicked_states": ["29", "18", "17", "5", "16", "21"], "num_clicks_accrued": [0, 0, 0, 0, 0, 0, 0, 0, 0, 0, 0, 0, 0], "stateRewards": ["", -1, -3, 1, -4, -48, -63, -49, -2, -84, -19, 65, 2, -2, -2, -12, -4, 59, 9, 6, 75, 69, -13, -1, -3, -3, -2, -37, -68, -36, 13, 32, 18, -14], "withholdReward": false, "trial_id": "mdp_trial_37", "block": "test", "trialIndex": 38, "score": 60.1, "costs": -12.9, "simulationMode": [null, null, null, null, null], "rewards": [2, -2, -2, 6, 69], "path": ["0", "0", "12", "13", "14", "19", "21"], "rt": [20105, 138, 96, 375, 122], "actions": ["right", "right", "right", "down", "down"], "actionTimes": [24224, 24885, 25588, 26489, 27153], "queries": {"click": {"state": {"target": ["29", "18", "17", "5", "16", "21"], "time": [5520, 9467, 12341, 15176, 18172, 21055]}, "edge": {"target": [], "time": []}}, "mouseover": {"state": {"target": ["24", "29", "26", "28", "7", "15", "18", "15", "17", "17", "16", "6", "5", "16", "14", "21"], "time": [4823, 5056, 6540, 6894, 8510, 8892, 9080, 10689, 11033, 11595, 13616, 13693, 14014, 16245, 18993, 19743]}, "edge": {"target": [], "time": []}}, "mouseout": {"state": {"target": ["20", "14", "13", "0", "24", "29", "26", "28", "7", "15", "18", "15", "17", "17", "16", "6", "5", "16", "14"], "time": [2136, 2255, 2289, 2754, 4889, 6530, 6659, 8375, 8545, 9009, 10678, 10875, 11132, 13578, 13656, 13824, 15888, 18983, 19030]}, "edge": {"target": [], "time": []}}}, "displayed_time": "27.69", "trialTime": 28897, "trial_type": "mouselab-mdp", "trial_index": 45, "time_elapsed": 1631267, "internal_node_id": "0.0-6.0-1.0-36.0"}}, {"uniqueid": "w62929331:a90912466", "current_trial": 46, "dateTime": 1693390513694, "trialdata": {"revealed_states": [], "clicked_states": ["32", "5", "21"], "num_clicks_accrued": [0, 0, 0, 0, 0, 0, 0, 0, 0, 0, 0, 0, 0], "stateRewards": ["", -2, 4, -5, -12, 85, -24, -18, -15, -78, -22, 26, -1, -1, 2, 14, -45, 52, -23, 7, -33, 24, -6, -2, -4, 5, -7, -16, 36, -39, 5, 71, -87, -23], "withholdReward": false, "trial_id": "mdp_trial_38", "block": "test", "trialIndex": 39, "score": 63.55, "costs": -6.449999999999999, "simulationMode": [null, null, null, null, null, null], "rewards": [-2, 4, -5, -12, 85], "path": ["0", "0", "1", "2", "3", "4", "5"], "rt": [9088, 1702, 586, 125, 525, 317], "actions": ["up", "up", "up", "up", "right", "up"], "actionTimes": [20206, 21920, 23025, 23685, 24728, 25583], "queries": {"click": {"state": {"target": ["32", "5", "21"], "time": [12356, 15224, 18252]}, "edge": {"target": [], "time": []}}, "mouseover": {"state": {"target": ["23", "31", "32", "24", "10", "3", "5", "4", "14", "19", "21"], "time": [11617, 11656, 11864, 13440, 13518, 13567, 13965, 15910, 16049, 16401, 16575]}, "edge": {"target": [], "time": []}}, "mouseout": {"state": {"target": ["21", "13", "12", "23", "31", "32", "24", "10", "3", "5", "4", "14", "19", "21"], "time": [9032, 9310, 9394, 11647, 11814, 13429, 13478, 13558, 13607, 15870, 15950, 16361, 16502, 18748]}, "edge": {"target": [], "time": []}}}, "displayed_time": "26.12", "trialTime": 32401, "trial_type": "mouselab-mdp", "trial_index": 46, "time_elapsed": 1665712, "internal_node_id": "0.0-6.0-1.0-37.0"}}, {"uniqueid": "w62929331:a90912466", "current_trial": 47, "dateTime": 1693390558278, "trialdata": {"revealed_states": [], "clicked_states": ["27", "16", "18", "22", "17"], "num_clicks_accrued": [0, 0, 0, 0, 0, 0, 0, 0, 0, 0, 0, 0, 0], "stateRewards": ["", -1, 3, 1, -11, -22, -36, 19, -5, -70, -52, 50, -2, -4, 4, -2, -41, -83, 29, -2, 22, 10, -6, -2, 3, -2, 14, 54, 44, 77, -9, -65, -37, -40], "withholdReward": false, "trial_id": "mdp_trial_39", "block": "test", "trialIndex": 40, "score": 56.25, "costs": -10.75, "simulationMode": [null, null, null, null, null], "rewards": [-2, 3, -2, 14, 54], "path": ["0", "0", "23", "24", "25", "26", "27"], "rt": [18104, 159, 111, 545, 17], "actions": ["left", "left", "left", "up", "up"], "actionTimes": [35933, 36606, 37251, 38315, 38852], "queries": {"click": {"state": {"target": ["27", "16", "18", "22", "17"], "time": [19505, 22322, 25335, 28269, 31266]}, "edge": {"target": [], "time": []}}, "mouseover": {"state": {"target": ["28", "27", "16", "18", "22", "14", "17", "17", "20"], "time": [18784, 19104, 20813, 23292, 26419, 29055, 29345, 29630, 32043]}, "edge": {"target": [], "time": []}}, "mouseout": {"state": {"target": ["1", "28", "27", "16", "18", "22", "14", "17", "17"], "time": [16035, 18826, 20422, 23079, 25928, 28493, 29126, 29515, 31854]}, "edge": {"target": [], "time": []}}}, "displayed_time": "39.41", "trialTime": 42142, "trial_type": "mouselab-mdp", "trial_index": 47, "time_elapsed": 1710297, "internal_node_id": "0.0-6.0-1.0-38.0"}}, {"uniqueid": "w62929331:a90912466", "current_trial": 48, "dateTime": 1693390588127, "trialdata": {"revealed_states": [], "clicked_states": ["33", "29", "31", "32"], "num_clicks_accrued": [0, 0, 0, 0, 0, 0, 0, 0, 0, 0, 0, 0, 0], "stateRewards": ["", -2, -2, -3, -6, -15, -11, 41, -12, -63, -76, 2, -2, -3, 8, 9, -36, -2, -18, -16, -32, -85, -17, -2, 1, 5, -16, 82, 35, -88, -1, 80, -82, -20], "withholdReward": false, "trial_id": "mdp_trial_40", "block": "test", "trialIndex": 41, "score": 74.4, "costs": -8.6, "simulationMode": [null, null, null, null, null], "rewards": [-2, 1, 5, -1, 80], "path": ["0", "0", "23", "24", "25", "30", "31"], "rt": [13851, 377, 197, 394, 495], "actions": ["left", "left", "left", "down", "right"], "actionTimes": [18863, 19770, 20510, 21435, 22451], "queries": {"click": {"state": {"target": ["33", "29", "31", "32"], "time": [6421, 9225, 12179, 15115]}, "edge": {"target": [], "time": []}}, "mouseover": {"state": {"target": ["23", "30", "33", "29", "31", "31", "32", "28"], "time": [5723, 5835, 6085, 7702, 10359, 10872, 12811, 15879]}, "edge": {"target": [], "time": []}}, "mouseout": {"state": {"target": ["20", "19", "22", "0", "23", "30", "33", "29", "31", "31", "32", "28"], "time": [2666, 2699, 2903, 3531, 5797, 5888, 7344, 10110, 10400, 12707, 15838, 15920]}, "edge": {"target": [], "time": []}}}, "displayed_time": "22.98", "trialTime": 27655, "trial_type": "mouselab-mdp", "trial_index": 48, "time_elapsed": 1740146, "internal_node_id": "0.0-6.0-1.0-39.0"}}, {"uniqueid": "w62929331:a90912466", "current_trial": 49, "dateTime": 1693390663539, "trialdata": {"rt": 74049, "response": {"Q0": "$-16 to 16", "Q1": "$-32 to $32", "Q2": "$-88 to $88", "Q3": "The cost for clicking on nodes varied between nodes.", "Q4": "Slightly motivated"}, "question_order": [0, 1, 2, 3, 4], "trial_id": "final_quiz_control", "trial_type": "survey-multi-choice", "trial_index": 49, "time_elapsed": 1815559, "internal_node_id": "0.0-6.0-2.0"}}, {"uniqueid": "w62929331:a90912466", "current_trial": 50, "dateTime": 1693390792173, "trialdata": {"rt": 127164, "response": {"Q0": "inspect the nodes before moving.", "Q1": "i inspected faster so that i wouldn't pick nodes with negative amounts. ", "Q2": "because the amounts on the nodes aren't the same its hard to have a solid strategy other than inspecting the nodes before hand. "}, "trial_id": "self_report_control", "trial_type": "survey-text", "trial_index": 50, "time_elapsed": 1944193, "internal_node_id": "0.0-6.0-3.0"}}, {"uniqueid": "w62929331:a90912466", "current_trial": 51, "dateTime": 1693390864811, "trialdata": {"rt": 72550, "response": {"Q0": "Disagree", "Q1": "Strongly disagree", "Q2": "Strongly disagree", "Q3": "Strongly disagree", "Q4": "Neither disagree nor agree", "Q5": "Neither disagree nor agree", "Q6": "Neither disagree nor agree"}, "question_order": [0, 1, 2, 3, 4, 5, 6], "trial_id": "self_report_2", "trial_type": "survey-multi-choice", "trial_index": 51, "time_elapsed": 2016832, "internal_node_id": "0.0-6.0-4.0"}}, {"uniqueid": "w62929331:a90912466", "current_trial": 52, "dateTime": 1693390895492, "trialdata": {"rt": 30355, "response": {"gender": "female", "age": "22", "colorblind": "0", "effort": "0"}, "trial_type": "survey-html-form", "trial_index": 52, "time_elapsed": 2047512, "internal_node_id": "0.0-6.0-5.0"}}, {"uniqueid": "w62929331:a90912466", "current_trial": 53, "dateTime": 1693390922958, "trialdata": {"rt": 27418, "response": {"Q0": "no", "Q1": "no", "Q2": "none"}, "trial_type": "survey-text", "trial_index": 53, "time_elapsed": 2074978, "internal_node_id": "0.0-6.0-6.0"}}, {"uniqueid": "w62929331:a90912466", "current_trial": 54, "dateTime": 1693390982030, "trialdata": {"rt": 58944, "stimulus": "<h1>Completion Code Instructions (1/2)</h1>\n<br><br><br><br>\nYou have reached the end of the experiment! The completion code consists of two parts: (1) a code with 2 characters (2) a code with 6 characters. On this page, you will receive the second part of the code. The first part of the completion code will be on the next page.\n<br><br>\nThe second part of your completion code is: <b>EWEK22</b>\n<br><br>\nPlease note this down. Then, press 'Finish HIT' in order to find the first part of your completion code. Once the data has been saved, you will receive this code either in this window or in the original browser window where you started the experiment.\n", "response": 0, "trial_type": "html-button-response", "trial_index": 54, "time_elapsed": 2134051, "internal_node_id": "0.0-6.0-7.0"}}, {"uniqueid": "w62929331:a90912466", "current_trial": 55, "dateTime": 1693390983215, "trialdata": {"success": true, "trial_type": "fullscreen", "trial_index": 55, "time_elapsed": 2135236, "internal_node_id": "0.0-7.0"}}], "questiondata": {"params": {"CODE": "C6DMOQA6", "MIN_TIME": 14, "inspectCost": 1, "startTime": "Wed Aug 30 2023 11:47:22 GMT+0200 (South Africa Standard Time)", "bonusRate": 0.002, "variance": "1_2_4_8_44", "branching": "31123"}, "final_score": 1817.6}, "eventdata": [{"eventtype": "initialized", "value": null, "timestamp": 1693388842119, "interval": 0}, {"eventtype": "window_resize", "value": [1024, 654], "timestamp": 1693388842119, "interval": 0}, {"eventtype": "window_resize", "value": [1024, 654], "timestamp": 1693388842737, "interval": 618}, {"eventtype": "window_resize", "value": [1366, 768], "timestamp": 1693388854546, "interval": 11809}], "useragent": "Mozilla/5.0 (Windows NT 10.0; Win64; x64) AppleWebKit/537.36 (KHTML, like Gecko) Chrome/116.0.0.0 Safari/537.36", "mode": "live", "id": "w62929331:a90912466", "status": "user data saved", "Beginhit": "2023-08-30 09:47:17.670565", "Beginexp": "2023-08-30 09:47:36.527499", "Endhit": "2023-08-30 10:23:13.770346", "psiturkStatus": 3, "browser": "<redacted>", "platform": "windows", "language": "en-ZA"}