{"condition": 0, "counterbalance": 0, "assignmentId": "a12876364", "workerId": "w15442413", "hitId": "h79418939", "currenttrial": 55, "bonus": 0, "data": [{"uniqueid": "w15442413:a12876364", "current_trial": 0, "dateTime": 1691070925075, "trialdata": {"success": true, "trial_type": "fullscreen", "trial_index": 0, "time_elapsed": 4275, "internal_node_id": "0.0-0.0"}}, {"uniqueid": "w15442413:a12876364", "current_trial": 1, "dateTime": 1691070943052, "trialdata": {"view_history": [{"page_index": 0, "viewing_time": 17973}], "rt": 17973, "trial_id": "exp_instructions_control", "trial_type": "instructions", "trial_index": 1, "time_elapsed": 22252, "internal_node_id": "0.0-1.0"}}, {"uniqueid": "w15442413:a12876364", "current_trial": 2, "dateTime": 1691070946142, "trialdata": {"success": true, "trial_type": "fullscreen", "trial_index": 2, "time_elapsed": 25342, "internal_node_id": "0.0-2.0-0.0"}}, {"uniqueid": "w15442413:a12876364", "current_trial": 3, "dateTime": 1691071197572, "trialdata": {"view_history": [{"page_index": 0, "viewing_time": 67930}, {"page_index": 1, "viewing_time": 108406}, {"page_index": 2, "viewing_time": 32333}, {"page_index": 3, "viewing_time": 42760}], "rt": 251429, "trial_id": "mouselab_instructions_1_control", "trial_type": "instructions", "trial_index": 3, "time_elapsed": 276772, "internal_node_id": "0.0-2.0-1.0"}}, {"uniqueid": "w15442413:a12876364", "current_trial": 4, "dateTime": 1691071224048, "trialdata": {"revealed_states": [], "clicked_states": ["1", "2", "23"], "num_clicks_accrued": [0, 0, 0, 0, 0, 0, 0, 0, 0, 0, 0, 0, 0], "stateRewards": ["", 10, 10, -10, 10, -10, 10, -10, 10, -10, -10, 10, -10, -10, -10, 10, -10, 10, 10, 10, 10, -10, -10, -10, -10, -10, 10, -10, 10, 10, -10, -10, 10, 10], "withholdReward": false, "trial_id": "practice_1", "block": "test", "trialIndex": 0, "score": 12, "costs": -1.5, "simulationMode": [null, null, null, null, null], "rewards": [10, 10, -10, 10, -10], "path": ["0", "0", "1", "2", "3", "4", "7"], "rt": [12643, 589, 664, 775, 628], "actions": ["up", "up", "up", "right", "down"], "actionTimes": [15060, 16165, 17323, 18603, 19740], "queries": {"click": {"state": {"target": ["1", "2", "23"], "time": [6907, 9658, 13184]}, "edge": {"target": [], "time": []}}, "mouseover": {"state": {"target": ["23", "1", "2", "23", "0"], "time": [2993, 3243, 7917, 12706, 14946]}, "edge": {"target": [], "time": []}}, "mouseout": {"state": {"target": ["12", "0", "23", "1", "2", "23", "0"], "time": [1658, 2860, 3110, 7799, 12405, 13486, 18401]}, "edge": {"target": [], "time": []}}}, "displayed_time": "20.25", "trialTime": 25909, "trial_type": "mouselab-mdp", "trial_index": 4, "time_elapsed": 303246, "internal_node_id": "0.0-2.0-2.0-0.0"}}, {"uniqueid": "w15442413:a12876364", "current_trial": 5, "dateTime": 1691071243781, "trialdata": {"revealed_states": [], "clicked_states": ["23", "25", "24", "27"], "num_clicks_accrued": [0, 0, 0, 0, 0, 0, 0, 0, 0, 0, 0, 0, 0], "stateRewards": ["", -10, 10, -10, 10, -10, 10, 10, -10, 10, -10, -10, -10, -10, 10, 10, 10, 10, -10, -10, 10, -10, 10, 10, -10, 10, -10, 10, 10, 10, 10, 10, -10, 10], "withholdReward": false, "trial_id": "practice_2", "block": "test", "trialIndex": 1, "score": 11.5, "costs": -2, "simulationMode": [null, null, null, null, null], "rewards": [10, -10, 10, -10, 10], "path": ["0", "0", "23", "24", "25", "26", "27"], "rt": [11651, 242, 172, 180, 140], "actions": ["left", "left", "left", "up", "up"], "actionTimes": [13788, 14537, 15217, 15897, 16537], "queries": {"click": {"state": {"target": ["23", "25", "24", "27"], "time": [3046, 5420, 7680, 10851]}, "edge": {"target": [], "time": []}}, "mouseover": {"state": {"target": ["0", "23", "24", "25", "25", "25", "26", "27", "26", "24", "28", "26", "27", "28"], "time": [2449, 2597, 3764, 4164, 4966, 5116, 6283, 6708, 6952, 7434, 9937, 10124, 10438, 11388]}, "edge": {"target": [], "time": []}}, "mouseout": {"state": {"target": ["20", "19", "22", "0", "0", "23", "24", "25", "25", "25", "26", "27", "26", "24", "24", "28", "26", "27", "28", "0"], "time": [1211, 1244, 1311, 2149, 2498, 3714, 4064, 4690, 5017, 6182, 6417, 6865, 7236, 7746, 7869, 9987, 10204, 11069, 17245, 17413]}, "edge": {"target": [], "time": []}}}, "displayed_time": "17.03", "trialTime": 19337, "trial_type": "mouselab-mdp", "trial_index": 5, "time_elapsed": 322980, "internal_node_id": "0.0-2.0-2.0-1.0"}}, {"uniqueid": "w15442413:a12876364", "current_trial": 6, "dateTime": 1691071297908, "trialdata": {"view_history": [{"page_index": 0, "viewing_time": 42335}, {"page_index": 1, "viewing_time": 11784}], "rt": 54120, "trial_id": "mouselab_instructions_2_control", "trial_type": "instructions", "trial_index": 6, "time_elapsed": 377107, "internal_node_id": "0.0-2.0-3.0"}}, {"uniqueid": "w15442413:a12876364", "current_trial": 7, "dateTime": 1691071326280, "trialdata": {"rt": 28368, "response": {"Q0": "The cost for clicking on nodes may vary between nodes.", "Q1": "The better I perform the higher my bonus will be.", "Q2": "No, the amount of cash at each node of the web may be different each time.", "Q3": "To get the highest total score.", "Q4": "Only before moving the spider.", "Q5": "3 seconds"}, "question_order": [0, 1, 2, 3, 4, 5], "correct": {"Q0": "The cost for clicking on nodes may vary between nodes.", "Q1": "The better I perform the higher my bonus will be.", "Q2": "No, the amount of cash at each node of the web may be different each time.", "Q3": "To get the highest total score.", "Q4": "Only before moving the spider.", "Q5": "3 seconds"}, "trial_id": "mouselab_quiz_control", "trial_type": "survey-multi-choice", "trial_index": 7, "time_elapsed": 405480, "internal_node_id": "0.0-2.0-4.0"}}, {"uniqueid": "w15442413:a12876364", "current_trial": 8, "dateTime": 1691071390924, "trialdata": {"rt": 64636, "stimulus": "\n<h1> Get ready to start the game! </h1>\n\nThank you for reading the instructions. Get ready start with the 40 rounds of this game.\n<br><br>\nIf you need to take a break, feel free to take one after the end of a round, before continuing to the next one.\n<br><br>\nRemember, the more money the spider gets, the bigger your bonus will be!\n<br><br>\n<div style='text-align: center;'>Press <code>space</code> to begin.</div>\n\n<br><br>\n(If, at any point, the <code>space</code> key does not take you to the next page, click once on the text and try again.)", "response": " ", "trial_id": "mdp_ready", "trial_type": "html-keyboard-response", "trial_index": 8, "time_elapsed": 470123, "internal_node_id": "0.0-4.0-0.0"}}, {"uniqueid": "w15442413:a12876364", "current_trial": 9, "dateTime": 1691071414041, "trialdata": {"revealed_states": [], "clicked_states": ["23", "24", "12", "13"], "num_clicks_accrued": [0, 0, 0, 0, 0, 0, 0, 0, 0, 0, 0, 0, 0], "stateRewards": ["", 1, -4, -4, 8, 1, -79, 68, -10, -79, 8, -74, -1, -3, -6, 14, 43, 23, 9, 5, -51, 63, 61, -2, 4, 6, -10, 69, -32, 57, 15, -80, -80, -77], "withholdReward": false, "trial_id": "mdp_trial_1", "block": "test", "trialIndex": 2, "score": 49.4, "costs": -5.6, "simulationMode": [null, null, null, null, null], "rewards": [-2, 4, 6, -10, 57], "path": ["0", "0", "23", "24", "25", "26", "29"], "rt": [10825, 503, 888, 414, 513], "actions": ["left", "left", "left", "up", "left"], "actionTimes": [13039, 14038, 15423, 16334, 17351], "queries": {"click": {"state": {"target": ["23", "24", "12", "13"], "time": [3215, 6035, 8071, 10258]}, "edge": {"target": [], "time": []}}, "mouseover": {"state": {"target": ["23", "24", "25", "12", "13"], "time": [2636, 3624, 6507, 7843, 8426]}, "edge": {"target": [], "time": []}}, "mouseout": {"state": {"target": ["7", "7", "1", "0", "23", "24", "25", "24", "23", "12", "13"], "time": [521, 584, 1385, 2521, 3571, 6458, 7458, 7492, 7508, 8376, 10744]}, "edge": {"target": [], "time": []}}}, "displayed_time": "17.86", "trialTime": 22679, "trial_type": "mouselab-mdp", "trial_index": 9, "time_elapsed": 493240, "internal_node_id": "0.0-4.0-1.0-0.0"}}, {"uniqueid": "w15442413:a12876364", "current_trial": 10, "dateTime": 1691071434775, "trialdata": {"revealed_states": [], "clicked_states": ["1", "2", "23", "24"], "num_clicks_accrued": [0, 0, 0, 0, 0, 0, 0, 0, 0, 0, 0, 0, 0], "stateRewards": ["", 2, 3, -6, -5, -3, 55, 40, 11, 61, 11, 51, 2, -4, -6, 9, -25, 29, -15, -6, 7, -77, -2, -2, -4, 1, 14, -43, -1, 56, -12, -54, 41, -74], "withholdReward": false, "trial_id": "mdp_trial_2", "block": "test", "trialIndex": 3, "score": 43.4, "costs": -5.6, "simulationMode": [null, null, null, null, null], "rewards": [2, 3, -6, -5, 55], "path": ["0", "0", "1", "2", "3", "4", "6"], "rt": [12979, 236, 204, 210, 234], "actions": ["up", "up", "up", "right", "right"], "actionTimes": [14830, 15563, 16265, 16987, 17714], "queries": {"click": {"state": {"target": ["1", "2", "23", "24"], "time": [2708, 5875, 9287, 12271]}, "edge": {"target": [], "time": []}}, "mouseover": {"state": {"target": ["1", "2", "23", "23", "24", "0", "12", "13", "14", "17"], "time": [2244, 3461, 6347, 7875, 9784, 12691, 12771, 13472, 13572, 13672]}, "edge": {"target": [], "time": []}}, "mouseout": {"state": {"target": ["14", "0", "1", "2", "1", "23", "23", "24", "23", "0", "12", "13", "14", "17", "20"], "time": [1058, 1874, 3328, 6214, 6297, 6398, 9667, 12639, 12687, 12721, 13455, 13522, 13622, 13688, 19212]}, "edge": {"target": [], "time": []}}}, "displayed_time": "18.21", "trialTime": 20313, "trial_type": "mouselab-mdp", "trial_index": 10, "time_elapsed": 513974, "internal_node_id": "0.0-4.0-1.0-1.0"}}, {"uniqueid": "w15442413:a12876364", "current_trial": 11, "dateTime": 1691071459061, "trialdata": {"revealed_states": [], "clicked_states": ["12", "13", "1", "2"], "num_clicks_accrued": [0, 0, 0, 0, 0, 0, 0, 0, 0, 0, 0, 0, 0], "stateRewards": ["", 2, 4, 4, -8, -36, -33, 38, 16, -51, 57, 57, 1, 3, 4, -6, 45, 68, 87, 1, 63, 24, -55, -2, 2, -6, -13, -63, -50, 8, 2, 80, 6, 60], "withholdReward": false, "trial_id": "mdp_trial_3", "block": "test", "trialIndex": 4, "score": -30.6, "costs": -5.6, "simulationMode": [null, null, null, null, null], "rewards": [2, 4, 4, 16, -51], "path": ["0", "0", "1", "2", "3", "8", "9"], "rt": [14425, 224, 302, 171, 73], "actions": ["up", "up", "up", "left", "up"], "actionTimes": [17287, 18029, 18837, 19509, 20077], "queries": {"click": {"state": {"target": ["12", "13", "1", "2"], "time": [3911, 6242, 10476, 13328]}, "edge": {"target": [], "time": []}}, "mouseover": {"state": {"target": ["12", "13", "14", "12", "0", "1", "2", "0", "0", "1", "3"], "time": [3385, 4684, 8606, 9797, 9824, 10039, 13144, 13843, 16063, 16083, 16130]}, "edge": {"target": [], "time": []}}, "mouseout": {"state": {"target": ["19", "22", "0", "12", "13", "14", "13", "12", "0", "1", "1", "1", "2", "1", "0", "0", "1", "3", "7", "18", "14"], "time": [1013, 2069, 3368, 4634, 6536, 9765, 9792, 9809, 9872, 10545, 10740, 12962, 13494, 13611, 13910, 16079, 16103, 17331, 17381, 17410, 22619]}, "edge": {"target": [], "time": []}}}, "displayed_time": "20.57", "trialTime": 23901, "trial_type": "mouselab-mdp", "trial_index": 11, "time_elapsed": 538260, "internal_node_id": "0.0-4.0-1.0-2.0"}}, {"uniqueid": "w15442413:a12876364", "current_trial": 12, "dateTime": 1691071483898, "trialdata": {"revealed_states": [], "clicked_states": ["23", "24", "25", "26", "28"], "num_clicks_accrued": [0, 0, 0, 0, 0, 0, 0, 0, 0, 0, 0, 0, 0], "stateRewards": ["", 2, 4, -6, -13, -75, -81, 30, 7, 5, 59, -65, -1, -1, 7, 14, -38, 36, -41, 1, -54, -5, 64, 2, -1, 5, 6, -19, 79, 11, 16, -33, -50, 58], "withholdReward": false, "trial_id": "mdp_trial_4", "block": "test", "trialIndex": 5, "score": 84, "costs": -7, "simulationMode": [null, null, null, null, null], "rewards": [2, -1, 5, 6, 79], "path": ["0", "0", "23", "24", "25", "26", "28"], "rt": [14413, 120, 142, 75, 34], "actions": ["left", "left", "left", "up", "right"], "actionTimes": [17348, 17961, 18601, 19202, 19761], "queries": {"click": {"state": {"target": ["23", "24", "25", "26", "28"], "time": [3590, 5785, 8814, 12015, 15055]}, "edge": {"target": [], "time": []}}, "mouseover": {"state": {"target": ["23", "24", "25", "26", "28"], "time": [3358, 4190, 8079, 11733, 14652]}, "edge": {"target": [], "time": []}}, "mouseout": {"state": {"target": ["0", "23", "24", "25", "25", "26", "28", "0", "12"], "time": [3325, 4158, 8029, 9080, 11532, 14552, 15286, 20493, 20510]}, "edge": {"target": [], "time": []}}}, "displayed_time": "20.29", "trialTime": 24450, "trial_type": "mouselab-mdp", "trial_index": 12, "time_elapsed": 563096, "internal_node_id": "0.0-4.0-1.0-3.0"}}, {"uniqueid": "w15442413:a12876364", "current_trial": 13, "dateTime": 1691071510941, "trialdata": {"revealed_states": [], "clicked_states": ["1", "2", "3", "12", "13", "14", "15", "16"], "num_clicks_accrued": [0, 0, 0, 0, 0, 0, 0, 0, 0, 0, 0, 0, 0], "stateRewards": ["", -2, 1, -5, 2, -68, 80, 33, 10, 67, -59, 20, -1, -3, 3, 14, 74, -2, 24, -16, 63, 80, 46, -1, 4, 6, 12, 83, -38, -43, -4, 43, 14, -79], "withholdReward": false, "trial_id": "mdp_trial_5", "block": "test", "trialIndex": 6, "score": 75.8, "costs": -11.200000000000001, "simulationMode": [null, null, null, null, null], "rewards": [-1, -3, 3, 14, 74], "path": ["0", "0", "12", "13", "14", "15", "16"], "rt": [19679, 94, 119, 77, 74], "actions": ["right", "right", "right", "up", "up"], "actionTimes": [21996, 22587, 23211, 23787, 24371], "queries": {"click": {"state": {"target": ["1", "2", "3", "12", "13", "14", "15", "16"], "time": [3522, 5789, 8331, 10974, 13083, 15176, 17547, 19829]}, "edge": {"target": [], "time": []}}, "mouseover": {"state": {"target": ["1", "2", "3", "7", "12", "13", "13", "14", "15", "16"], "time": [3086, 5311, 7373, 10393, 10709, 11211, 11911, 13546, 17333, 19619]}, "edge": {"target": [], "time": []}}, "mouseout": {"state": {"target": ["0", "0", "0", "1", "2", "3", "7", "12", "13", "13", "14", "15", "16", "20"], "time": [1383, 1633, 2330, 3803, 7206, 10345, 10409, 11195, 11240, 13480, 17216, 19506, 20036, 25493]}, "edge": {"target": [], "time": []}}}, "displayed_time": "24.89", "trialTime": 26683, "trial_type": "mouselab-mdp", "trial_index": 13, "time_elapsed": 590141, "internal_node_id": "0.0-4.0-1.0-4.0"}}, {"uniqueid": "w15442413:a12876364", "current_trial": 14, "dateTime": 1691071535670, "trialdata": {"revealed_states": [], "clicked_states": ["23", "24", "25", "30", "33", "31", "32"], "num_clicks_accrued": [0, 0, 0, 0, 0, 0, 0, 0, 0, 0, 0, 0, 0], "stateRewards": ["", -2, -4, 4, -11, -63, -60, -7, 2, -14, 81, -43, -1, -1, -5, 7, 10, 69, 40, 8, -83, 52, 60, 1, 2, 5, -5, 16, 64, 14, -3, 29, 7, -51], "withholdReward": false, "trial_id": "mdp_trial_6", "block": "test", "trialIndex": 7, "score": 24.2, "costs": -9.8, "simulationMode": [null, null, null, null, null], "rewards": [1, 2, 5, -3, 29], "path": ["0", "0", "23", "24", "25", "30", "31"], "rt": [16791, 47, 41, 11, 70], "actions": ["left", "left", "left", "down", "right"], "actionTimes": [19090, 19633, 20193, 20713, 21289], "queries": {"click": {"state": {"target": ["23", "24", "25", "30", "33", "31", "32"], "time": [3419, 5440, 7565, 10139, 12485, 14673, 16906]}, "edge": {"target": [], "time": []}}, "mouseover": {"state": {"target": ["23", "24", "25", "30", "32", "33", "31", "32"], "time": [2914, 4982, 5734, 7886, 10572, 12257, 13108, 15014]}, "edge": {"target": [], "time": []}}, "mouseout": {"state": {"target": ["0", "23", "24", "25", "30", "32", "33", "31", "32", "31"], "time": [2848, 4883, 5701, 7820, 10506, 12074, 12742, 14894, 17062, 17312]}, "edge": {"target": [], "time": []}}}, "displayed_time": "21.79", "trialTime": 24345, "trial_type": "mouselab-mdp", "trial_index": 14, "time_elapsed": 614869, "internal_node_id": "0.0-4.0-1.0-5.0"}}, {"uniqueid": "w15442413:a12876364", "current_trial": 15, "dateTime": 1691071557826, "trialdata": {"revealed_states": [], "clicked_states": ["1", "2", "3", "4", "8", "10"], "num_clicks_accrued": [0, 0, 0, 0, 0, 0, 0, 0, 0, 0, 0, 0, 0], "stateRewards": ["", -2, 2, 5, -14, -56, 64, 84, -5, 52, 39, 85, -2, 1, 7, 8, 21, 29, -78, -9, -10, -69, 10, -2, -1, -7, 15, 72, 20, 41, -2, 52, 80, 22], "withholdReward": false, "trial_id": "mdp_trial_7", "block": "test", "trialIndex": 8, "score": 30.6, "costs": -8.4, "simulationMode": [null, null, null, null, null], "rewards": [-2, 2, 5, -5, 39], "path": ["0", "0", "1", "2", "3", "8", "10"], "rt": [15212, 47, 41, 14, 13], "actions": ["up", "up", "up", "left", "down"], "actionTimes": [16620, 17177, 17737, 18268, 18801], "queries": {"click": {"state": {"target": ["1", "2", "3", "4", "8", "10"], "time": [2017, 4159, 7158, 9256, 11836, 13914]}, "edge": {"target": [], "time": []}}, "mouseover": {"state": {"target": ["1", "2", "4", "3", "4", "8", "10", "2"], "time": [1660, 2544, 5381, 7015, 7382, 9551, 12438, 14189]}, "edge": {"target": [], "time": []}}, "mouseout": {"state": {"target": ["22", "12", "0", "1", "2", "2", "4", "3", "4", "3", "8", "10", "2", "2"], "time": [368, 574, 1526, 2444, 4236, 4713, 6948, 7350, 9468, 9507, 12237, 14139, 15759, 16825]}, "edge": {"target": [], "time": []}}}, "displayed_time": "19.32", "trialTime": 21770, "trial_type": "mouselab-mdp", "trial_index": 15, "time_elapsed": 637025, "internal_node_id": "0.0-4.0-1.0-6.0"}}, {"uniqueid": "w15442413:a12876364", "current_trial": 16, "dateTime": 1691071581555, "trialdata": {"revealed_states": [], "clicked_states": ["28", "27", "29", "33", "32", "31"], "num_clicks_accrued": [0, 0, 0, 0, 0, 0, 0, 0, 0, 0, 0, 0, 0], "stateRewards": ["", -2, -2, -7, -13, -10, 49, -68, -1, 84, 70, 88, 1, 4, 4, 12, -57, 25, 30, 8, -1, -77, 57, 2, 3, 2, 3, -18, -80, 23, -15, -41, 70, 11], "withholdReward": false, "trial_id": "mdp_trial_8", "block": "test", "trialIndex": 9, "score": 53.6, "costs": -8.4, "simulationMode": [null, null, null, null, null], "rewards": [2, 3, 2, -15, 70], "path": ["0", "0", "23", "24", "25", "30", "32"], "rt": [15196, 2, 671, 149, 246], "actions": ["left", "left", "left", "down", "down"], "actionTimes": [17207, 17715, 18901, 19548, 20295], "queries": {"click": {"state": {"target": ["28", "27", "29", "33", "32", "31"], "time": [4394, 6709, 8740, 11168, 13225, 15312]}, "edge": {"target": [], "time": []}}, "mouseover": {"state": {"target": ["0", "23", "24", "26", "28", "24", "31", "25", "26", "27", "29", "33", "32", "31"], "time": [3300, 3328, 3378, 3612, 3923, 4679, 4863, 5797, 5830, 5998, 6987, 9101, 11492, 13456]}, "edge": {"target": [], "time": []}}, "mouseout": {"state": {"target": ["1", "0", "23", "24", "26", "28", "24", "31", "25", "26", "27", "29", "33", "32", "31"], "time": [1126, 3314, 3361, 3411, 3795, 4581, 4796, 5730, 5814, 5864, 6898, 8985, 11370, 13373, 15575]}, "edge": {"target": [], "time": []}}}, "displayed_time": "20.80", "trialTime": 23325, "trial_type": "mouselab-mdp", "trial_index": 16, "time_elapsed": 660754, "internal_node_id": "0.0-4.0-1.0-7.0"}}, {"uniqueid": "w15442413:a12876364", "current_trial": 17, "dateTime": 1691071602138, "trialdata": {"revealed_states": [], "clicked_states": ["11", "10", "5", "9", "7", "6"], "num_clicks_accrued": [0, 0, 0, 0, 0, 0, 0, 0, 0, 0, 0, 0, 0], "stateRewards": ["", -2, -4, 2, 10, -17, 18, 73, 11, -32, 23, -13, -2, -4, 7, 12, -25, 66, -23, 15, 40, -76, -9, 1, 2, -7, -5, -20, 24, 3, -5, 16, -73, 70], "withholdReward": false, "trial_id": "mdp_trial_9", "block": "test", "trialIndex": 10, "score": 70.6, "costs": -8.4, "simulationMode": [null, null, null, null, null], "rewards": [-2, -4, 2, 10, 73], "path": ["0", "0", "1", "2", "3", "4", "7"], "rt": [14205, 144, 19, 32, 49], "actions": ["up", "up", "up", "right", "down"], "actionTimes": [15758, 16410, 16938, 17482, 18050], "queries": {"click": {"state": {"target": ["11", "10", "5", "9", "7", "6"], "time": [3272, 5354, 7511, 9543, 11611, 13684]}, "edge": {"target": [], "time": []}}, "mouseover": {"state": {"target": ["28", "11", "10", "8", "9", "5", "4", "7", "3", "8", "9", "2", "7", "6"], "time": [2232, 2798, 4183, 5619, 5701, 6018, 7771, 8021, 8539, 8604, 8793, 9857, 10106, 11958]}, "edge": {"target": [], "time": []}}, "mouseout": {"state": {"target": ["0", "28", "11", "10", "8", "9", "5", "4", "7", "3", "8", "9", "2", "7", "6"], "time": [1029, 2281, 3516, 5412, 5651, 5935, 7738, 7854, 8472, 8572, 8704, 9741, 9889, 11743, 13893]}, "edge": {"target": [], "time": []}}}, "displayed_time": "18.57", "trialTime": 20155, "trial_type": "mouselab-mdp", "trial_index": 17, "time_elapsed": 681337, "internal_node_id": "0.0-4.0-1.0-8.0"}}, {"uniqueid": "w15442413:a12876364", "current_trial": 18, "dateTime": 1691071640011, "trialdata": {"revealed_states": [], "clicked_states": ["21", "20", "22", "18", "16", "17", "29", "27", "28", "31", "32", "33"], "num_clicks_accrued": [0, 0, 0, 0, 0, 0, 0, 0, 0, 0, 0, 0, 0], "stateRewards": ["", 2, -1, -1, -9, -81, -30, 55, -6, 78, 25, 62, 2, 4, -1, 9, -85, 1, -19, 1, -60, 12, -34, 1, 4, -1, -13, -24, -16, -83, -8, 16, 43, 9], "withholdReward": false, "trial_id": "mdp_trial_10", "block": "test", "trialIndex": 11, "score": 22.2, "costs": -16.8, "simulationMode": [null, null, null, null, null], "rewards": [1, 4, -1, -8, 43], "path": ["0", "0", "23", "24", "25", "30", "32"], "rt": [30086, 133, 123, 46, 115], "actions": ["left", "left", "left", "down", "down"], "actionTimes": [32771, 33400, 34024, 34575, 35200], "queries": {"click": {"state": {"target": ["21", "20", "22", "18", "16", "17", "29", "27", "28", "31", "32", "33"], "time": [5371, 7724, 9937, 12297, 14312, 16337, 19947, 22198, 24207, 26669, 28701, 30824]}, "edge": {"target": [], "time": []}}, "mouseover": {"state": {"target": ["12", "13", "14", "19", "19", "21", "20", "19", "22", "22", "19", "14", "18", "15", "16", "17", "14", "13", "12", "23", "24", "25", "29", "26", "27", "28", "25", "30", "31", "32", "32", "33", "30", "31", "22", "19", "20"], "time": [3082, 3181, 3415, 4384, 4482, 5118, 7520, 7973, 8007, 9767, 10166, 10240, 12041, 12576, 12741, 14577, 18548, 18715, 18849, 19065, 19199, 19366, 19789, 21284, 21484, 22401, 24454, 25088, 26424, 27040, 27658, 28959, 31128, 31194, 31594, 31627, 31661]}, "edge": {"target": [], "time": []}}, "mouseout": {"state": {"target": ["22", "0", "12", "13", "14", "19", "19", "21", "20", "19", "22", "22", "19", "14", "18", "15", "16", "17", "14", "13", "12", "23", "24", "25", "29", "26", "27", "28", "25", "30", "31", "32", "32", "33", "30", "31", "22", "19", "20"], "time": [2031, 2698, 3098, 3215, 3838, 4416, 5035, 5568, 7953, 7991, 9621, 9994, 10189, 11893, 12542, 12625, 14494, 16629, 18682, 18765, 18915, 19132, 19282, 19600, 20286, 21384, 22336, 24404, 24504, 26331, 26924, 27090, 28909, 31095, 31162, 31311, 31611, 31644, 35765]}, "edge": {"target": [], "time": []}}}, "displayed_time": "35.70", "trialTime": 37472, "trial_type": "mouselab-mdp", "trial_index": 18, "time_elapsed": 719210, "internal_node_id": "0.0-4.0-1.0-9.0"}}, {"uniqueid": "w15442413:a12876364", "current_trial": 19, "dateTime": 1691071657772, "trialdata": {"revealed_states": [], "clicked_states": ["5", "6", "11"], "num_clicks_accrued": [0, 0, 0, 0, 0, 0, 0, 0, 0, 0, 0, 0, 0], "stateRewards": ["", 2, -2, 7, -11, -76, -65, -23, 16, -58, 30, 81, 1, 2, 7, 14, 9, 55, -2, 6, 11, -15, 31, -1, -1, -3, 2, 15, 2, 46, 15, 18, 45, -34], "withholdReward": false, "trial_id": "mdp_trial_11", "block": "test", "trialIndex": 12, "score": 99.8, "costs": -4.199999999999999, "simulationMode": [null, null, null, null, null], "rewards": [2, -2, 7, 16, 81], "path": ["0", "0", "1", "2", "3", "8", "11"], "rt": [9002, 112, 70, 31, 72], "actions": ["up", "up", "up", "left", "left"], "actionTimes": [10653, 11258, 11834, 12378, 12970], "queries": {"click": {"state": {"target": ["5", "6", "11"], "time": [2655, 4780, 7540]}, "edge": {"target": [], "time": []}}, "mouseover": {"state": {"target": ["1", "4", "5", "4", "6", "7", "2", "8", "11", "10"], "time": [1868, 2068, 2285, 3569, 4404, 5137, 5320, 6841, 7022, 8190]}, "edge": {"target": [], "time": []}}, "mouseout": {"state": {"target": ["19", "22", "0", "1", "4", "5", "4", "6", "7", "2", "8", "11", "10", "2", "16"], "time": [798, 848, 1807, 1918, 2186, 2886, 3802, 4971, 5220, 6762, 6905, 8057, 15521, 15548, 15614]}, "edge": {"target": [], "time": []}}}, "displayed_time": "15.65", "trialTime": 17362, "trial_type": "mouselab-mdp", "trial_index": 19, "time_elapsed": 736971, "internal_node_id": "0.0-4.0-1.0-10.0"}}, {"uniqueid": "w15442413:a12876364", "current_trial": 20, "dateTime": 1691071675290, "trialdata": {"revealed_states": [], "clicked_states": ["30", "31"], "num_clicks_accrued": [0, 0, 0, 0, 0, 0, 0, 0, 0, 0, 0, 0, 0], "stateRewards": ["", 2, 3, -3, 4, 72, -28, 34, -12, 57, -64, -15, 2, 1, -4, -15, 2, 49, 31, -1, -42, -58, 31, -2, 1, -2, -13, -75, -19, -22, -6, 61, 10, -56], "withholdReward": false, "trial_id": "mdp_trial_12", "block": "test", "trialIndex": 13, "score": 49.2, "costs": -2.8, "simulationMode": [null, null, null, null, null], "rewards": [-2, 1, -2, -6, 61], "path": ["0", "0", "23", "24", "25", "30", "31"], "rt": [6485, 92, 87, 25, 102], "actions": ["left", "left", "left", "down", "right"], "actionTimes": [8175, 8772, 9350, 9890, 10500], "queries": {"click": {"state": {"target": ["30", "31"], "time": [3249, 5415]}, "edge": {"target": [], "time": []}}, "mouseover": {"state": {"target": ["31", "30", "33", "30", "31", "31", "32"], "time": [2020, 2069, 2504, 2655, 3538, 4839, 5701]}, "edge": {"target": [], "time": []}}, "mouseout": {"state": {"target": ["15", "18", "18", "0", "31", "30", "33", "30", "31", "31", "32"], "time": [785, 903, 1053, 1704, 2036, 2378, 2621, 3489, 3972, 5625, 12142]}, "edge": {"target": [], "time": []}}}, "displayed_time": "15.69", "trialTime": 17097, "trial_type": "mouselab-mdp", "trial_index": 20, "time_elapsed": 754489, "internal_node_id": "0.0-4.0-1.0-11.0"}}, {"uniqueid": "w15442413:a12876364", "current_trial": 21, "dateTime": 1691071696645, "trialdata": {"revealed_states": [], "clicked_states": ["17", "15", "16", "18", "19", "21"], "num_clicks_accrued": [0, 0, 0, 0, 0, 0, 0, 0, 0, 0, 0, 0, 0], "stateRewards": ["", 2, -1, 8, -2, -16, 69, -39, -7, -13, -27, -86, 2, -2, 2, 13, -34, -16, -20, -5, 19, 81, 32, -2, -1, 2, -14, 20, 80, 58, 4, 70, 12, 73], "withholdReward": false, "trial_id": "mdp_trial_13", "block": "test", "trialIndex": 14, "score": 69.6, "costs": -8.4, "simulationMode": [null, null, null, null, null], "rewards": [2, -2, 2, -5, 81], "path": ["0", "0", "12", "13", "14", "19", "21"], "rt": [14739, 73, 75, 92, 116], "actions": ["right", "right", "right", "down", "down"], "actionTimes": [16267, 16840, 17425, 18009, 18617], "queries": {"click": {"state": {"target": ["17", "15", "16", "18", "19", "21"], "time": [2618, 5436, 7645, 9640, 11635, 13565]}, "edge": {"target": [], "time": []}}, "mouseover": {"state": {"target": ["19", "20", "17", "15", "18", "18", "15", "16", "18", "13", "19", "21", "21", "22"], "time": [1546, 1738, 2366, 4578, 4614, 4836, 5153, 6636, 7937, 9840, 10657, 11875, 12592, 13812]}, "edge": {"target": [], "time": []}}, "mouseout": {"state": {"target": ["21", "0", "19", "20", "17", "15", "18", "18", "15", "16", "18", "13", "19", "21", "21", "22", "21"], "time": [679, 1543, 1562, 1982, 2782, 4602, 4625, 5002, 5635, 7889, 9807, 9862, 11825, 12308, 13761, 18900, 19339]}, "edge": {"target": [], "time": []}}}, "displayed_time": "19.12", "trialTime": 20946, "trial_type": "mouselab-mdp", "trial_index": 21, "time_elapsed": 775844, "internal_node_id": "0.0-4.0-1.0-12.0"}}, {"uniqueid": "w15442413:a12876364", "current_trial": 22, "dateTime": 1691071718293, "trialdata": {"revealed_states": [], "clicked_states": ["26", "30", "31", "32", "33", "27"], "num_clicks_accrued": [0, 0, 0, 0, 0, 0, 0, 0, 0, 0, 0, 0, 0], "stateRewards": ["", -1, -4, -6, -15, 21, -67, -63, 9, 51, 69, -14, -1, 3, 8, -8, 39, 72, 63, 15, 19, 47, 15, 1, 4, 5, 16, -18, 34, 35, -14, -80, 40, 1], "withholdReward": false, "trial_id": "mdp_trial_14", "block": "test", "trialIndex": 15, "score": 27.6, "costs": -8.4, "simulationMode": [null, null, null, null, null], "rewards": [1, 4, 5, -14, 40], "path": ["0", "0", "23", "24", "25", "30", "32"], "rt": [14327, 125, 35, 17, 74], "actions": ["left", "left", "left", "down", "down"], "actionTimes": [17033, 17664, 18206, 18734, 19312], "queries": {"click": {"state": {"target": ["26", "30", "31", "32", "33", "27"], "time": [3401, 5906, 8261, 10232, 12419, 14791]}, "edge": {"target": [], "time": []}}, "mouseover": {"state": {"target": ["24", "25", "26", "24", "25", "30", "31", "31", "31", "32", "33", "27", "29"], "time": [2721, 2770, 3002, 3886, 5189, 5406, 6206, 7842, 8040, 8500, 10527, 14413, 15065]}, "edge": {"target": [], "time": []}}, "mouseout": {"state": {"target": ["21", "21", "23", "24", "25", "26", "24", "25", "30", "31", "31", "31", "32", "33", "27", "29", "24"], "time": [641, 783, 2084, 2754, 2801, 3754, 5068, 5322, 5961, 6226, 7907, 8457, 10427, 14321, 14999, 19603, 20004]}, "edge": {"target": [], "time": []}}}, "displayed_time": "19.81", "trialTime": 21208, "trial_type": "mouselab-mdp", "trial_index": 22, "time_elapsed": 797491, "internal_node_id": "0.0-4.0-1.0-13.0"}}, {"uniqueid": "w15442413:a12876364", "current_trial": 23, "dateTime": 1691071735781, "trialdata": {"revealed_states": [], "clicked_states": ["5", "7", "11", "10"], "num_clicks_accrued": [0, 0, 0, 0, 0, 0, 0, 0, 0, 0, 0, 0, 0], "stateRewards": ["", -1, -3, -7, -7, -76, 30, -49, 11, -70, 56, 2, 1, 4, -3, -14, -59, -83, -25, -9, -21, -67, -73, -2, 4, 4, -9, -11, -32, 60, 9, -87, 22, -64], "withholdReward": false, "trial_id": "mdp_trial_15", "block": "test", "trialIndex": 16, "score": 50.4, "costs": -5.6, "simulationMode": [null, null, null, null, null], "rewards": [-1, -3, -7, 11, 56], "path": ["0", "0", "1", "2", "3", "8", "10"], "rt": [11121, 111, 140, 114, 209], "actions": ["up", "up", "up", "left", "down"], "actionTimes": [12585, 13199, 13846, 14455, 15167], "queries": {"click": {"state": {"target": ["5", "7", "11", "10"], "time": [2480, 4590, 7444, 9348]}, "edge": {"target": [], "time": []}}, "mouseover": {"state": {"target": ["1", "2", "3", "4", "5", "4", "4", "7", "6", "3", "8", "11", "10", "10", "9", "6"], "time": [1483, 1590, 1824, 1924, 2098, 3943, 4130, 4326, 5662, 6530, 6549, 6805, 7764, 8181, 9815, 11867]}, "edge": {"target": [], "time": []}}, "mouseout": {"state": {"target": ["0", "1", "2", "3", "4", "5", "4", "4", "7", "6", "3", "8", "11", "10", "10", "9", "6"], "time": [1479, 1510, 1790, 1858, 1957, 3893, 3993, 4276, 4944, 6502, 6545, 6595, 7697, 7831, 9533, 11770, 11884]}, "edge": {"target": [], "time": []}}}, "displayed_time": "15.68", "trialTime": 17046, "trial_type": "mouselab-mdp", "trial_index": 23, "time_elapsed": 814979, "internal_node_id": "0.0-4.0-1.0-14.0"}}, {"uniqueid": "w15442413:a12876364", "current_trial": 24, "dateTime": 1691071753118, "trialdata": {"revealed_states": [], "clicked_states": ["28"], "num_clicks_accrued": [0, 0, 0, 0, 0, 0, 0, 0, 0, 0, 0, 0, 0], "stateRewards": ["", 1, 2, -6, -13, -51, 22, -4, -12, -44, -12, 6, -2, -2, -2, -14, -46, -4, -77, -2, 36, -79, 41, 2, -4, 2, -6, -55, 59, 70, -5, 39, -19, 24], "withholdReward": false, "trial_id": "mdp_trial_16", "block": "test", "trialIndex": 17, "score": 51.6, "costs": -1.4, "simulationMode": [null, null, null, null, null], "rewards": [2, -4, 2, -6, 59], "path": ["0", "0", "23", "24", "25", "26", "28"], "rt": [4976, 131, 43, 27, 72], "actions": ["left", "left", "left", "up", "right"], "actionTimes": [6612, 7240, 7783, 8335, 8914], "queries": {"click": {"state": {"target": ["28"], "time": [4165]}, "edge": {"target": [], "time": []}}, "mouseover": {"state": {"target": ["24", "25", "30", "26", "28", "24", "26"], "time": [2198, 2332, 3333, 3633, 3999, 4433, 5085]}, "edge": {"target": [], "time": []}}, "mouseout": {"state": {"target": ["15", "0", "24", "25", "30", "26", "28", "24", "26", "29", "18", "15"], "time": [330, 1650, 2282, 3303, 3535, 3962, 4368, 4885, 5218, 9089, 9255, 9288]}, "edge": {"target": [], "time": []}}}, "displayed_time": "15.64", "trialTime": 16905, "trial_type": "mouselab-mdp", "trial_index": 24, "time_elapsed": 832316, "internal_node_id": "0.0-4.0-1.0-15.0"}}, {"uniqueid": "w15442413:a12876364", "current_trial": 25, "dateTime": 1691071770270, "trialdata": {"revealed_states": [], "clicked_states": ["21", "22", "20"], "num_clicks_accrued": [0, 0, 0, 0, 0, 0, 0, 0, 0, 0, 0, 0, 0], "stateRewards": ["", -2, 3, 3, -14, 62, 36, 49, 16, 11, 17, -84, 2, -1, 6, 2, -82, -73, 49, -6, -87, 48, 50, -1, -2, -1, -16, -11, 37, -44, 4, 55, 73, -10], "withholdReward": false, "trial_id": "mdp_trial_17", "block": "test", "trialIndex": 18, "score": 46.8, "costs": -4.199999999999999, "simulationMode": [null, null, null, null, null], "rewards": [2, -1, 6, -6, 50], "path": ["0", "0", "12", "13", "14", "19", "22"], "rt": [8182, 64, 98, 112, 144], "actions": ["right", "right", "right", "down", "left"], "actionTimes": [9988, 10568, 11186, 11800, 12449], "queries": {"click": {"state": {"target": ["21", "22", "20"], "time": [2711, 5261, 7436]}, "edge": {"target": [], "time": []}}, "mouseover": {"state": {"target": ["19", "21", "22", "19", "20", "20", "20", "20"], "time": [1858, 2433, 4797, 5481, 5529, 5994, 6581, 7214]}, "edge": {"target": [], "time": []}}, "mouseout": {"state": {"target": ["17", "18", "13", "12", "19", "21", "22", "19", "20", "20", "20", "20"], "time": [774, 1059, 1123, 1239, 2132, 4353, 5463, 5512, 5830, 6008, 6663, 7615]}, "edge": {"target": [], "time": []}}}, "displayed_time": "15.81", "trialTime": 16666, "trial_type": "mouselab-mdp", "trial_index": 25, "time_elapsed": 849469, "internal_node_id": "0.0-4.0-1.0-16.0"}}, {"uniqueid": "w15442413:a12876364", "current_trial": 26, "dateTime": 1691071796525, "trialdata": {"revealed_states": [], "clicked_states": ["11", "9", "10", "7", "6", "5", "17"], "num_clicks_accrued": [0, 0, 0, 0, 0, 0, 0, 0, 0, 0, 0, 0, 0], "stateRewards": ["", -1, -4, -3, 1, -45, -67, -24, 14, 32, 22, 22, -1, 1, -5, -7, 72, 84, -79, -5, 19, -40, -2, -1, -2, 8, -3, 84, -25, -28, 11, 64, -66, 77], "withholdReward": false, "trial_id": "mdp_trial_18", "block": "test", "trialIndex": 19, "score": 62.2, "costs": -9.8, "simulationMode": [null, null, null, null, null], "rewards": [-1, 1, -5, -7, 84], "path": ["0", "0", "12", "13", "14", "15", "17"], "rt": [18070, 34, 37, 64, 40], "actions": ["right", "right", "right", "up", "right"], "actionTimes": [21311, 21852, 22388, 22949, 23492], "queries": {"click": {"state": {"target": ["11", "9", "10", "7", "6", "5", "17"], "time": [4017, 6962, 8949, 11568, 13488, 15342, 18113]}, "edge": {"target": [], "time": []}}, "mouseover": {"state": {"target": ["1", "10", "11", "8", "9", "2", "10", "2", "7", "6", "5", "17", "14"], "time": [3344, 3494, 3661, 6065, 6147, 7649, 8284, 9151, 9335, 12021, 13789, 17495, 18477]}, "edge": {"target": [], "time": []}}, "mouseout": {"state": {"target": ["0", "1", "10", "11", "8", "9", "9", "2", "10", "2", "7", "6", "5", "17", "14"], "time": [3256, 3411, 3511, 4181, 6099, 7024, 7200, 8234, 9134, 9201, 11804, 13625, 15592, 18410, 19044]}, "edge": {"target": [], "time": []}}}, "displayed_time": "23.99", "trialTime": 25789, "trial_type": "mouselab-mdp", "trial_index": 26, "time_elapsed": 875724, "internal_node_id": "0.0-4.0-1.0-17.0"}}, {"uniqueid": "w15442413:a12876364", "current_trial": 27, "dateTime": 1691071824925, "trialdata": {"revealed_states": [], "clicked_states": ["20", "21", "22", "31", "33", "32", "27", "28", "29"], "num_clicks_accrued": [0, 0, 0, 0, 0, 0, 0, 0, 0, 0, 0, 0, 0], "stateRewards": ["", 1, -4, 6, -3, 40, 76, -51, 5, -24, -63, 44, -2, -2, 8, 1, 76, -85, -58, 10, 59, 20, 11, -2, 3, -3, 3, -82, -10, 54, -7, -57, -6, -32], "withholdReward": false, "trial_id": "mdp_trial_19", "block": "test", "trialIndex": 20, "score": 60.4, "costs": -12.600000000000001, "simulationMode": [null, null, null, null, null], "rewards": [-2, -2, 8, 10, 59], "path": ["0", "0", "12", "13", "14", "19", "20"], "rt": [20140, 96, 123, 81, 322], "actions": ["right", "right", "right", "down", "right"], "actionTimes": [23161, 23757, 24383, 24958, 25783], "queries": {"click": {"state": {"target": ["20", "21", "22", "31", "33", "32", "27", "28", "29"], "time": [3796, 6166, 8208, 10274, 12226, 14138, 16044, 18229, 20194]}, "edge": {"target": [], "time": []}}, "mouseover": {"state": {"target": ["21", "20", "21", "22", "30", "31", "30", "33", "32", "27", "28", "26", "29", "13", "14", "20", "19", "12", "0", "12", "13", "14"], "time": [3334, 3485, 4069, 6905, 8657, 8841, 10509, 10695, 12482, 14848, 16348, 18468, 18655, 20820, 21003, 21404, 22058, 22104, 22154, 22889, 22955, 22988]}, "edge": {"target": [], "time": []}}, "mouseout": {"state": {"target": ["20", "21", "0", "21", "20", "21", "22", "30", "31", "31", "30", "33", "32", "27", "28", "26", "29", "29", "13", "14", "20", "19", "12", "0", "12", "13", "14"], "time": [1249, 1688, 3038, 3368, 3969, 6805, 8408, 8723, 10332, 10475, 10542, 12411, 14363, 16299, 18435, 18534, 20262, 20721, 20853, 21036, 22042, 22073, 22121, 22812, 22939, 22971, 23021]}, "edge": {"target": [], "time": []}}}, "displayed_time": "26.28", "trialTime": 27918, "trial_type": "mouselab-mdp", "trial_index": 27, "time_elapsed": 904123, "internal_node_id": "0.0-4.0-1.0-18.0"}}, {"uniqueid": "w15442413:a12876364", "current_trial": 28, "dateTime": 1691071841679, "trialdata": {"revealed_states": [], "clicked_states": ["27"], "num_clicks_accrued": [0, 0, 0, 0, 0, 0, 0, 0, 0, 0, 0, 0, 0], "stateRewards": ["", 1, -1, 8, -3, 38, 85, -20, -4, 8, 23, 73, 2, -4, 6, -13, 44, 7, -28, -11, -77, 45, -69, 1, -1, -7, -11, 75, -51, -87, 7, 36, -53, -26], "withholdReward": false, "trial_id": "mdp_trial_20", "block": "test", "trialIndex": 21, "score": 55.6, "costs": -1.4, "simulationMode": [null, null, null, null, null], "rewards": [1, -1, -7, -11, 75], "path": ["0", "0", "23", "24", "25", "26", "27"], "rt": [4202, 109, 83, 43, 100], "actions": ["left", "left", "left", "up", "up"], "actionTimes": [5691, 6306, 6914, 7457, 8082], "queries": {"click": {"state": {"target": ["27"], "time": [2755]}, "edge": {"target": [], "time": []}}, "mouseover": {"state": {"target": ["10", "2", "27", "27", "26", "28", "1", "15", "17"], "time": [1790, 1839, 2074, 2510, 4410, 4594, 5543, 5593, 5613]}, "edge": {"target": [], "time": []}}, "mouseout": {"state": {"target": ["12", "0", "10", "2", "27", "27", "26", "28", "1", "15", "17"], "time": [805, 1528, 1808, 1856, 2091, 3058, 4427, 5384, 5559, 5609, 5626]}, "edge": {"target": [], "time": []}}}, "displayed_time": "15.49", "trialTime": 16331, "trial_type": "mouselab-mdp", "trial_index": 28, "time_elapsed": 920878, "internal_node_id": "0.0-4.0-1.0-19.0"}}, {"uniqueid": "w15442413:a12876364", "current_trial": 29, "dateTime": 1691071858454, "trialdata": {"revealed_states": [], "clicked_states": ["9", "21", "32", "5"], "num_clicks_accrued": [0, 0, 0, 0, 0, 0, 0, 0, 0, 0, 0, 0, 0], "stateRewards": ["", 1, 2, 2, -15, -84, 28, -26, 13, 31, 86, 30, -2, 1, -1, -8, 66, -40, -1, -10, -32, 57, -17, 1, 2, -2, 9, -23, 77, 85, 12, -32, -62, -35], "withholdReward": false, "trial_id": "mdp_trial_21", "block": "test", "trialIndex": 22, "score": 39.4, "costs": -5.6, "simulationMode": [null, null, null, null, null], "rewards": [-2, 1, -1, -10, 57], "path": ["0", "0", "12", "13", "14", "19", "21"], "rt": [10933, 102, 20, 30, 32], "actions": ["right", "right", "right", "down", "down"], "actionTimes": [12465, 13062, 13581, 14125, 14677], "queries": {"click": {"state": {"target": ["9", "21", "32", "5"], "time": [2522, 5073, 8058, 10064]}, "edge": {"target": [], "time": []}}, "mouseover": {"state": {"target": ["7", "3", "8", "9", "3", "2", "13", "0", "1", "13", "19", "21", "23", "23", "32", "0", "18", "4", "5"], "time": [1578, 1812, 1929, 2079, 2830, 2880, 3848, 4348, 4706, 4723, 4765, 4933, 5516, 7502, 7785, 8369, 8419, 8636, 8719]}, "edge": {"target": [], "time": []}}, "mouseout": {"state": {"target": ["0", "7", "3", "8", "9", "3", "2", "13", "0", "1", "13", "19", "21", "23", "23", "32", "0", "18", "4", "5", "16", "15", "14", "19"], "time": [1551, 1628, 1862, 2028, 2781, 2847, 3565, 3914, 4431, 4719, 4736, 4815, 5284, 7420, 7552, 8270, 8386, 8436, 8653, 10255, 15562, 15595, 15645, 15678]}, "edge": {"target": [], "time": []}}}, "displayed_time": "15.53", "trialTime": 16279, "trial_type": "mouselab-mdp", "trial_index": 29, "time_elapsed": 937653, "internal_node_id": "0.0-4.0-1.0-20.0"}}, {"uniqueid": "w15442413:a12876364", "current_trial": 30, "dateTime": 1691071875676, "trialdata": {"revealed_states": [], "clicked_states": ["29", "20"], "num_clicks_accrued": [0, 0, 0, 0, 0, 0, 0, 0, 0, 0, 0, 0, 0], "stateRewards": ["", 1, 1, 5, 6, -29, -7, 3, -16, 9, -46, 65, -1, 4, -1, -16, -63, -77, -87, 8, 80, -50, 43, -1, -1, -5, 5, -38, -71, -62, 9, 81, -50, -52], "withholdReward": false, "trial_id": "mdp_trial_22", "block": "test", "trialIndex": 23, "score": 87.2, "costs": -2.8, "simulationMode": [null, null, null, null, null], "rewards": [-1, 4, -1, 8, 80], "path": ["0", "0", "12", "13", "14", "19", "20"], "rt": [7889, 65, 4, 12, 47], "actions": ["right", "right", "right", "down", "right"], "actionTimes": [9358, 9921, 10444, 10969, 11522], "queries": {"click": {"state": {"target": ["29", "20"], "time": [4172, 6353]}, "edge": {"target": [], "time": []}}, "mouseover": {"state": {"target": ["25", "29", "27", "29", "12", "20", "19", "20", "17", "17"], "time": [1488, 2197, 2514, 3665, 4448, 4732, 4832, 5249, 7184, 7518]}, "edge": {"target": [], "time": []}}, "mouseout": {"state": {"target": ["0", "25", "29", "27", "29", "12", "20", "19", "20", "17", "17", "14", "22"], "time": [1484, 1834, 2295, 3615, 4399, 4465, 4798, 4982, 6634, 7251, 11790, 12172, 12189]}, "edge": {"target": [], "time": []}}}, "displayed_time": "15.47", "trialTime": 16632, "trial_type": "mouselab-mdp", "trial_index": 30, "time_elapsed": 954875, "internal_node_id": "0.0-4.0-1.0-21.0"}}, {"uniqueid": "w15442413:a12876364", "current_trial": 31, "dateTime": 1691071898047, "trialdata": {"revealed_states": [], "clicked_states": ["33", "17", "9", "21", "32", "27"], "num_clicks_accrued": [0, 0, 0, 0, 0, 0, 0, 0, 0, 0, 0, 0, 0], "stateRewards": ["", 1, 1, 1, 15, -76, 52, -32, 14, -57, 37, 49, 1, -4, -3, 6, 83, -76, 25, 9, 36, -1, -17, -1, 4, 4, -2, -22, -21, 58, -15, -57, 49, -24], "withholdReward": false, "trial_id": "mdp_trial_23", "block": "test", "trialIndex": 24, "score": 32.6, "costs": -8.4, "simulationMode": [null, null, null, null, null], "rewards": [-1, 4, 4, -15, 49], "path": ["0", "0", "23", "24", "25", "30", "32"], "rt": [15884, 31, 651, 58, 61], "actions": ["left", "left", "left", "down", "down"], "actionTimes": [17493, 18017, 19172, 19729, 20299], "queries": {"click": {"state": {"target": ["33", "17", "9", "21", "32", "27"], "time": [2586, 5195, 7304, 9237, 11644, 15439]}, "edge": {"target": [], "time": []}}, "mouseover": {"state": {"target": ["31", "30", "33", "30", "24", "23", "0", "12", "18", "15", "17", "20", "17", "1", "28", "26", "29", "8", "9", "2", "12", "21", "32", "31", "25", "26", "27", "28"], "time": [1673, 1950, 2343, 3067, 3303, 3651, 3684, 3718, 3785, 4018, 4235, 4352, 4969, 5653, 5737, 5787, 6021, 6304, 6554, 7589, 7656, 8022, 11409, 12054, 14580, 14646, 14796, 15682]}, "edge": {"target": [], "time": []}}, "mouseout": {"state": {"target": ["0", "31", "30", "33", "30", "24", "23", "0", "12", "18", "15", "17", "20", "17", "1", "28", "26", "29", "8", "9", "2", "12", "21", "32", "31", "25", "26", "27", "27", "28", "0", "12"], "time": [1624, 1816, 2174, 3001, 3235, 3634, 3668, 3701, 3752, 3835, 4085, 4252, 4914, 5355, 5687, 5754, 5988, 6187, 6471, 7523, 7606, 7689, 9576, 11911, 12117, 14613, 14713, 15480, 15648, 21511, 21570, 21587]}, "edge": {"target": [], "time": []}}}, "displayed_time": "20.81", "trialTime": 21907, "trial_type": "mouselab-mdp", "trial_index": 31, "time_elapsed": 977246, "internal_node_id": "0.0-4.0-1.0-22.0"}}, {"uniqueid": "w15442413:a12876364", "current_trial": 32, "dateTime": 1691071917685, "trialdata": {"revealed_states": [], "clicked_states": ["18", "28", "31", "22", "20"], "num_clicks_accrued": [0, 0, 0, 0, 0, 0, 0, 0, 0, 0, 0, 0, 0], "stateRewards": ["", -2, -1, -4, -15, -14, -67, 32, -3, -59, 63, 31, 2, -1, -7, -15, 71, -66, -27, -3, -54, -39, 72, 2, 1, 1, -13, 77, -40, 35, -9, 35, 75, 57], "withholdReward": false, "trial_id": "mdp_trial_24", "block": "test", "trialIndex": 25, "score": 56, "costs": -7, "simulationMode": [null, null, null, null, null], "rewards": [2, -1, -7, -3, 72], "path": ["0", "0", "12", "13", "14", "19", "22"], "rt": [13708, 12, 31, 25, 101], "actions": ["right", "right", "right", "down", "left"], "actionTimes": [15627, 16135, 16687, 17215, 17809], "queries": {"click": {"state": {"target": ["18", "28", "31", "22", "20"], "time": [4254, 6238, 8117, 10264, 13547]}, "edge": {"target": [], "time": []}}, "mouseover": {"state": {"target": ["15", "18", "18", "18", "13", "13", "28", "24", "24", "31", "22", "19", "20", "30", "19", "20", "19"], "time": [2958, 3140, 3734, 4089, 4641, 4808, 5575, 6427, 6527, 6633, 8695, 10697, 10864, 12068, 13007, 13201, 13785]}, "edge": {"target": [], "time": []}}, "mouseout": {"state": {"target": ["19", "23", "0", "15", "18", "18", "18", "13", "13", "28", "24", "24", "31", "22", "19", "20", "31", "30", "19", "20", "20", "19", "22"], "time": [781, 918, 1935, 3090, 3663, 3874, 4524, 4708, 5459, 6394, 6460, 6544, 8228, 10648, 10797, 11683, 11915, 12267, 13119, 13607, 13734, 13850, 13951]}, "edge": {"target": [], "time": []}}}, "displayed_time": "18.31", "trialTime": 19145, "trial_type": "mouselab-mdp", "trial_index": 32, "time_elapsed": 996884, "internal_node_id": "0.0-4.0-1.0-23.0"}}, {"uniqueid": "w15442413:a12876364", "current_trial": 33, "dateTime": 1691071937480, "trialdata": {"revealed_states": [], "clicked_states": ["10", "7", "17", "29"], "num_clicks_accrued": [0, 0, 0, 0, 0, 0, 0, 0, 0, 0, 0, 0, 0], "stateRewards": ["", -2, -3, -3, 9, 79, 67, 22, -15, -56, 27, -85, -2, 4, -4, -15, -20, -32, 60, 15, 71, 57, 17, 1, 2, -8, 15, -37, -81, 82, 15, 21, -3, 2], "withholdReward": false, "trial_id": "mdp_trial_25", "block": "test", "trialIndex": 26, "score": 86.4, "costs": -5.6, "simulationMode": [null, null, null, null, null], "rewards": [1, 2, -8, 15, 82], "path": ["0", "0", "23", "24", "25", "26", "29"], "rt": [12803, 24, 17, 581, 88], "actions": ["left", "left", "left", "up", "left"], "actionTimes": [14044, 14573, 15101, 16183, 16773], "queries": {"click": {"state": {"target": ["10", "7", "17", "29"], "time": [2056, 4078, 7291, 11008]}, "edge": {"target": [], "time": []}}, "mouseover": {"state": {"target": ["1", "10", "2", "7", "12", "18", "16", "15", "17", "14", "1", "26", "28", "26", "29", "25"], "time": [1533, 1733, 2289, 2335, 4718, 6136, 6337, 6672, 6837, 7655, 9323, 9675, 9914, 10691, 10860, 13413]}, "edge": {"target": [], "time": []}}, "mouseout": {"state": {"target": ["0", "1", "10", "2", "7", "12", "18", "16", "15", "17", "14", "1", "26", "28", "26", "29", "25"], "time": [1371, 1566, 2271, 2319, 4337, 6106, 6170, 6608, 6689, 7506, 9227, 9341, 9692, 10676, 10725, 12844, 13429]}, "edge": {"target": [], "time": []}}}, "displayed_time": "17.29", "trialTime": 19295, "trial_type": "mouselab-mdp", "trial_index": 33, "time_elapsed": 1016679, "internal_node_id": "0.0-4.0-1.0-24.0"}}, {"uniqueid": "w15442413:a12876364", "current_trial": 34, "dateTime": 1691071956054, "trialdata": {"revealed_states": [], "clicked_states": ["31", "33", "32", "21", "20"], "num_clicks_accrued": [0, 0, 0, 0, 0, 0, 0, 0, 0, 0, 0, 0, 0], "stateRewards": ["", -1, 4, -6, -5, -22, -38, -38, -2, -56, 88, 14, -1, -1, -7, -6, 61, -60, 21, 11, 57, 31, -30, -2, -2, 6, -9, -44, -70, -44, -15, 34, 16, -78], "withholdReward": false, "trial_id": "mdp_trial_26", "block": "test", "trialIndex": 27, "score": 52, "costs": -7, "simulationMode": [null, null, null, null, null], "rewards": [-1, -1, -7, 11, 57], "path": ["0", "0", "12", "13", "14", "19", "20"], "rt": [12620, 39, 53, 35, 62], "actions": ["right", "right", "right", "down", "right"], "actionTimes": [13975, 14515, 15067, 15611, 16172], "queries": {"click": {"state": {"target": ["31", "33", "32", "21", "20"], "time": [2616, 4669, 6596, 9134, 11187]}, "edge": {"target": [], "time": []}}, "mouseover": {"state": {"target": ["1", "31", "30", "31", "32", "33", "32", "32", "21", "20", "19", "22"], "time": [1442, 1793, 2078, 2462, 2960, 3477, 4979, 5530, 7299, 9651, 11605, 11836]}, "edge": {"target": [], "time": []}}, "mouseout": {"state": {"target": ["14", "1", "31", "30", "31", "32", "33", "32", "32", "21", "20", "19", "22", "19", "20"], "time": [674, 1553, 1825, 2444, 2910, 3378, 4847, 5096, 6748, 9368, 11587, 11653, 16376, 16475, 16509]}, "edge": {"target": [], "time": []}}}, "displayed_time": "16.68", "trialTime": 18076, "trial_type": "mouselab-mdp", "trial_index": 34, "time_elapsed": 1035253, "internal_node_id": "0.0-4.0-1.0-25.0"}}, {"uniqueid": "w15442413:a12876364", "current_trial": 35, "dateTime": 1691071984006, "trialdata": {"revealed_states": [], "clicked_states": ["13", "19", "30", "33", "32", "31", "27", "29"], "num_clicks_accrued": [0, 0, 0, 0, 0, 0, 0, 0, 0, 0, 0, 0, 0], "stateRewards": ["", 2, 2, 3, -15, 23, -14, 73, -7, -32, -20, -6, 1, 1, -5, -12, 73, 6, -84, 11, -81, -57, 13, -2, -1, -4, -8, -52, -58, 49, 13, 5, -41, -41], "withholdReward": false, "trial_id": "mdp_trial_27", "block": "test", "trialIndex": 28, "score": 22.799999999999997, "costs": -11.200000000000001, "simulationMode": [null, null, null, null, null], "rewards": [-2, -1, -4, -8, 49], "path": ["0", "0", "23", "24", "25", "26", "29"], "rt": [20841, 25, 4, 14, 49], "actions": ["left", "left", "left", "up", "left"], "actionTimes": [23283, 23807, 24320, 24847, 25399], "queries": {"click": {"state": {"target": ["13", "19", "30", "33", "32", "31", "27", "29"], "time": [3876, 6988, 9031, 12261, 14311, 16407, 18391, 20285]}, "edge": {"target": [], "time": []}}, "mouseover": {"state": {"target": ["13", "22", "19", "31", "30", "25", "27", "33", "32", "31", "25", "26", "27", "29", "29", "26", "28"], "time": [3140, 5795, 5843, 7362, 7662, 9397, 10933, 11933, 12534, 14552, 16678, 16707, 16938, 18607, 18828, 20459, 20625]}, "edge": {"target": [], "time": []}}, "mouseout": {"state": {"target": ["20", "19", "22", "13", "22", "19", "31", "30", "25", "27", "30", "33", "32", "31", "25", "26", "27", "29", "29", "26", "28", "14"], "time": [1389, 1409, 1559, 4092, 5826, 7212, 7595, 9331, 9414, 11254, 11517, 12450, 14452, 16618, 16693, 16778, 18558, 18623, 20409, 20492, 25681, 25946]}, "edge": {"target": [], "time": []}}}, "displayed_time": "25.93", "trialTime": 27472, "trial_type": "mouselab-mdp", "trial_index": 35, "time_elapsed": 1063205, "internal_node_id": "0.0-4.0-1.0-26.0"}}, {"uniqueid": "w15442413:a12876364", "current_trial": 36, "dateTime": 1691072000993, "trialdata": {"revealed_states": [], "clicked_states": ["6"], "num_clicks_accrued": [0, 0, 0, 0, 0, 0, 0, 0, 0, 0, 0, 0, 0], "stateRewards": ["", -1, 3, 8, 10, -86, 61, -36, 10, 17, -60, 24, -1, -3, 3, 11, 50, 60, 33, -3, -20, 58, -6, 1, -4, -4, 13, -70, -71, 43, 14, 52, 82, -11], "withholdReward": false, "trial_id": "mdp_trial_28", "block": "test", "trialIndex": 29, "score": 79.6, "costs": -1.4, "simulationMode": [null, null, null, null, null], "rewards": [-1, 3, 8, 10, 61], "path": ["0", "0", "1", "2", "3", "4", "6"], "rt": [3714, 10, 12, 14, 25], "actions": ["up", "up", "up", "right", "right"], "actionTimes": [5496, 6012, 6548, 7084, 7612], "queries": {"click": {"state": {"target": ["6"], "time": [2921]}, "edge": {"target": [], "time": []}}, "mouseover": {"state": {"target": ["12", "7", "4", "6", "5", "9", "11", "11"], "time": [2034, 2145, 2278, 2730, 3364, 3747, 3864, 4180]}, "edge": {"target": [], "time": []}}, "mouseout": {"state": {"target": ["19", "22", "0", "12", "7", "4", "6", "5", "9", "11", "11"], "time": [760, 809, 1797, 2049, 2162, 2531, 3130, 3648, 3797, 3914, 15839]}, "edge": {"target": [], "time": []}}}, "displayed_time": "15.78", "trialTime": 16551, "trial_type": "mouselab-mdp", "trial_index": 36, "time_elapsed": 1080192, "internal_node_id": "0.0-4.0-1.0-27.0"}}, {"uniqueid": "w15442413:a12876364", "current_trial": 37, "dateTime": 1691072020287, "trialdata": {"revealed_states": [], "clicked_states": ["20", "22", "21", "27", "29"], "num_clicks_accrued": [0, 0, 0, 0, 0, 0, 0, 0, 0, 0, 0, 0, 0], "stateRewards": ["", 2, -3, -4, -1, 25, -16, 16, 10, -71, -20, -55, 1, 3, -4, -9, 1, 32, 11, -6, 32, -50, -41, -1, 4, 4, -8, 7, -81, 70, 2, -52, 45, -10], "withholdReward": false, "trial_id": "mdp_trial_29", "block": "test", "trialIndex": 30, "score": 62, "costs": -7, "simulationMode": [null, null, null, null, null], "rewards": [-1, 4, 4, -8, 70], "path": ["0", "0", "23", "24", "25", "26", "29"], "rt": [12093, 90, 49, 24, 712], "actions": ["left", "left", "left", "up", "left"], "actionTimes": [13981, 14579, 15122, 15666, 16916], "queries": {"click": {"state": {"target": ["20", "22", "21", "27", "29"], "time": [2583, 4759, 6911, 9378, 11285]}, "edge": {"target": [], "time": []}}, "mouseover": {"state": {"target": ["19", "20", "19", "22", "21", "33", "29", "27", "29", "26", "28"], "time": [2190, 2396, 3107, 4493, 6712, 7178, 8930, 9199, 9647, 11449, 11649]}, "edge": {"target": [], "time": []}}, "mouseout": {"state": {"target": ["8", "1", "0", "19", "20", "19", "22", "21", "33", "29", "27", "29", "26", "28", "1"], "time": [1158, 1405, 1902, 2222, 3058, 3174, 6494, 7129, 7196, 8948, 9566, 11417, 11500, 17841, 17973]}, "edge": {"target": [], "time": []}}}, "displayed_time": "17.41", "trialTime": 18739, "trial_type": "mouselab-mdp", "trial_index": 37, "time_elapsed": 1099486, "internal_node_id": "0.0-4.0-1.0-28.0"}}, {"uniqueid": "w15442413:a12876364", "current_trial": 38, "dateTime": 1691072046030, "trialdata": {"revealed_states": [], "clicked_states": ["6", "27", "32", "31", "33", "21", "20", "22"], "num_clicks_accrued": [0, 0, 0, 0, 0, 0, 0, 0, 0, 0, 0, 0, 0], "stateRewards": ["", -2, -4, -6, 12, -58, -70, -80, 2, 16, -88, -62, 1, 2, -5, 11, 77, -35, -44, -5, 18, -83, 87, 1, -3, -5, 13, -44, -21, -86, 10, -52, 8, 29], "withholdReward": false, "trial_id": "mdp_trial_30", "block": "test", "trialIndex": 31, "score": 68.8, "costs": -11.200000000000001, "simulationMode": [null, null, null, null, null], "rewards": [1, 2, -5, -5, 87], "path": ["0", "0", "12", "13", "14", "19", "22"], "rt": [19711, 24, 27, 42, 97], "actions": ["right", "right", "right", "down", "left"], "actionTimes": [21163, 21695, 22230, 22798, 23421], "queries": {"click": {"state": {"target": ["6", "27", "32", "31", "33", "21", "20", "22"], "time": [2933, 5086, 7316, 10007, 12097, 14136, 16094, 18119]}, "edge": {"target": [], "time": []}}, "mouseover": {"state": {"target": ["6", "7", "2", "26", "27", "26", "33", "33", "32", "21", "31", "33", "33", "21", "20", "19", "22"], "time": [2030, 3164, 3298, 3831, 4115, 5367, 5550, 6920, 6985, 8186, 9839, 11423, 11880, 12458, 14459, 16512, 16728]}, "edge": {"target": [], "time": []}}, "mouseout": {"state": {"target": ["0", "6", "7", "2", "26", "27", "26", "33", "33", "32", "21", "31", "33", "33", "33", "21", "20", "19", "22", "22"], "time": [1732, 3098, 3247, 3331, 3982, 5317, 5433, 6468, 6953, 7521, 9564, 10223, 11697, 12149, 12343, 14277, 16478, 16595, 19498, 20685]}, "edge": {"target": [], "time": []}}}, "displayed_time": "23.94", "trialTime": 25103, "trial_type": "mouselab-mdp", "trial_index": 38, "time_elapsed": 1125230, "internal_node_id": "0.0-4.0-1.0-29.0"}}, {"uniqueid": "w15442413:a12876364", "current_trial": 39, "dateTime": 1691072073154, "trialdata": {"revealed_states": [], "clicked_states": ["11", "10", "9", "5", "7", "6", "16", "17", "18", "20"], "num_clicks_accrued": [0, 0, 0, 0, 0, 0, 0, 0, 0, 0, 0, 0, 0], "stateRewards": ["", -2, -1, -1, 5, -54, -87, 35, 2, -8, 20, -22, 1, 3, 6, 13, -75, -32, -55, -3, 56, 62, -22, -1, -4, -1, -7, -51, 84, 70, 7, -15, 5, 55], "withholdReward": false, "trial_id": "mdp_trial_31", "block": "test", "trialIndex": 32, "score": 49, "costs": -14.000000000000002, "simulationMode": [null, null, null, null, null], "rewards": [1, 3, 6, -3, 56], "path": ["0", "0", "12", "13", "14", "19", "20"], "rt": [21246, 60, 50, 36, 29], "actions": ["right", "right", "right", "down", "right"], "actionTimes": [22866, 23424, 23998, 24551, 25095], "queries": {"click": {"state": {"target": ["11", "10", "9", "5", "7", "6", "16", "17", "18", "20"], "time": [2355, 4403, 6340, 8232, 10150, 12372, 14300, 16194, 18186, 20176]}, "edge": {"target": [], "time": []}}, "mouseover": {"state": {"target": ["1", "10", "8", "11", "2", "10", "2", "9", "5", "5", "4", "7", "6", "16", "17", "16", "17", "15", "18", "13", "22", "19", "20", "21"], "time": [1738, 1838, 2005, 2155, 3374, 3574, 4542, 5366, 6543, 7060, 8446, 8579, 10347, 12734, 13189, 13317, 14518, 16354, 16454, 18706, 18773, 19061, 19290, 20442]}, "edge": {"target": [], "time": []}}, "mouseout": {"state": {"target": ["19", "22", "0", "1", "10", "8", "11", "2", "10", "2", "9", "5", "5", "4", "7", "6", "6", "16", "17", "16", "17", "15", "18", "13", "22", "19", "20", "21"], "time": [853, 936, 1637, 1788, 1888, 2121, 2540, 3392, 4452, 5277, 6445, 6727, 8414, 8512, 10190, 12441, 12668, 12757, 13206, 14470, 16338, 16403, 18674, 18739, 19041, 19106, 20343, 26182]}, "edge": {"target": [], "time": []}}}, "displayed_time": "25.62", "trialTime": 26656, "trial_type": "mouselab-mdp", "trial_index": 39, "time_elapsed": 1152352, "internal_node_id": "0.0-4.0-1.0-30.0"}}, {"uniqueid": "w15442413:a12876364", "current_trial": 40, "dateTime": 1691072089803, "trialdata": {"revealed_states": [], "clicked_states": ["29"], "num_clicks_accrued": [0, 0, 0, 0, 0, 0, 0, 0, 0, 0, 0, 0, 0], "stateRewards": ["", -2, -4, 6, 14, -34, 49, 36, -8, -3, 32, -4, 1, -2, 1, -8, -20, -71, -57, -7, -86, -62, -16, -2, -3, -5, 11, 23, -21, 53, 5, -5, 85, 73], "withholdReward": false, "trial_id": "mdp_trial_32", "block": "test", "trialIndex": 33, "score": 52.6, "costs": -1.4, "simulationMode": [null, null, null, null, null], "rewards": [-2, -3, -5, 11, 53], "path": ["0", "0", "23", "24", "25", "26", "29"], "rt": [3133, 50, 630, 57, 28], "actions": ["left", "left", "left", "up", "left"], "actionTimes": [4557, 5106, 6236, 6810, 7356], "queries": {"click": {"state": {"target": ["29"], "time": [1970]}, "edge": {"target": [], "time": []}}, "mouseover": {"state": {"target": ["25", "29", "27"], "time": [1444, 1782, 3818]}, "edge": {"target": [], "time": []}}, "mouseout": {"state": {"target": ["21", "22", "0", "25", "29", "27", "1", "12", "22", "21"], "time": [563, 696, 1440, 1581, 3623, 5352, 7755, 7788, 7821, 7855]}, "edge": {"target": [], "time": []}}}, "displayed_time": "15.43", "trialTime": 16037, "trial_type": "mouselab-mdp", "trial_index": 40, "time_elapsed": 1169002, "internal_node_id": "0.0-4.0-1.0-31.0"}}, {"uniqueid": "w15442413:a12876364", "current_trial": 41, "dateTime": 1691072106555, "trialdata": {"revealed_states": [], "clicked_states": ["32", "31", "16"], "num_clicks_accrued": [0, 0, 0, 0, 0, 0, 0, 0, 0, 0, 0, 0, 0], "stateRewards": ["", -2, 2, -4, -4, -59, 88, 62, -3, 69, -15, -34, 1, -2, -5, 7, -54, -20, 78, -16, -74, -53, -21, 2, -4, 2, 13, -8, -44, 26, 9, 72, 4, 17], "withholdReward": false, "trial_id": "mdp_trial_33", "block": "test", "trialIndex": 34, "score": 76.8, "costs": -4.199999999999999, "simulationMode": [null, null, null, null, null], "rewards": [2, -4, 2, 9, 72], "path": ["0", "0", "23", "24", "25", "30", "31"], "rt": [8615, 5, 519, 44, 54], "actions": ["left", "left", "left", "down", "right"], "actionTimes": [9923, 10432, 11464, 12007, 12583], "queries": {"click": {"state": {"target": ["32", "31", "16"], "time": [1852, 3831, 7815]}, "edge": {"target": [], "time": []}}, "mouseover": {"state": {"target": ["32", "31", "31", "30", "33", "14", "16"], "time": [1702, 2365, 2632, 4118, 4284, 6971, 7421]}, "edge": {"target": [], "time": []}}, "mouseout": {"state": {"target": ["0", "32", "31", "31", "30", "33", "14", "16", "15", "14", "19"], "time": [1349, 2115, 2383, 4087, 4167, 6921, 6988, 12944, 12994, 13027, 13060]}, "edge": {"target": [], "time": []}}}, "displayed_time": "15.31", "trialTime": 16121, "trial_type": "mouselab-mdp", "trial_index": 41, "time_elapsed": 1185753, "internal_node_id": "0.0-4.0-1.0-32.0"}}, {"uniqueid": "w15442413:a12876364", "current_trial": 42, "dateTime": 1691072123315, "trialdata": {"revealed_states": [], "clicked_states": ["9", "32"], "num_clicks_accrued": [0, 0, 0, 0, 0, 0, 0, 0, 0, 0, 0, 0, 0], "stateRewards": ["", 1, -2, 7, -14, 88, -56, -44, -14, 64, -51, -57, -2, 3, -4, -9, -11, 19, -77, -1, 68, 75, -67, -1, 1, -2, 5, -37, 70, -34, -10, -72, 63, -41], "withholdReward": false, "trial_id": "mdp_trial_34", "block": "test", "trialIndex": 35, "score": 48.2, "costs": -2.8, "simulationMode": [null, null, null, null, null], "rewards": [-1, 1, -2, -10, 63], "path": ["0", "0", "23", "24", "25", "30", "32"], "rt": [7414, 89, 32, 5, 70], "actions": ["left", "left", "left", "down", "down"], "actionTimes": [8606, 9218, 9745, 10251, 10834], "queries": {"click": {"state": {"target": ["9", "32"], "time": [2205, 6062]}, "edge": {"target": [], "time": []}}, "mouseover": {"state": {"target": ["1", "9", "3", "14", "19", "21", "1", "10", "11", "10", "28", "24", "30", "32", "31", "31"], "time": [1760, 2069, 2435, 2552, 2619, 2953, 4721, 4755, 4788, 5223, 5406, 5538, 5774, 5940, 6289, 6773]}, "edge": {"target": [], "time": []}}, "mouseout": {"state": {"target": ["0", "1", "9", "3", "14", "19", "21", "1", "10", "11", "10", "28", "24", "30", "32", "31", "31"], "time": [1367, 1775, 2402, 2452, 2586, 2936, 4662, 4739, 4771, 5139, 5306, 5505, 5605, 5790, 6081, 6340, 11596]}, "edge": {"target": [], "time": []}}}, "displayed_time": "15.19", "trialTime": 16083, "trial_type": "mouselab-mdp", "trial_index": 42, "time_elapsed": 1202514, "internal_node_id": "0.0-4.0-1.0-33.0"}}, {"uniqueid": "w15442413:a12876364", "current_trial": 43, "dateTime": 1691072140010, "trialdata": {"revealed_states": [], "clicked_states": ["17", "16", "22", "21", "33"], "num_clicks_accrued": [0, 0, 0, 0, 0, 0, 0, 0, 0, 0, 0, 0, 0], "stateRewards": ["", 2, -1, -4, -13, 74, 77, 3, 2, -43, -2, -11, 2, 3, 7, 11, -26, -29, -33, -3, -3, -13, -3, 1, 3, -7, 14, -59, 33, 9, -5, 34, 79, 68], "withholdReward": false, "trial_id": "mdp_trial_35", "block": "test", "trialIndex": 36, "score": 53, "costs": -7, "simulationMode": [null, null, null, null, null], "rewards": [1, 3, -7, -5, 68], "path": ["0", "0", "23", "24", "25", "30", "33"], "rt": [10790, 137, 78, 78, 77], "actions": ["left", "left", "left", "down", "left"], "actionTimes": [12337, 12975, 13549, 14133, 14717], "queries": {"click": {"state": {"target": ["17", "16", "22", "21", "33"], "time": [2068, 4274, 6101, 7976, 9831]}, "edge": {"target": [], "time": []}}, "mouseover": {"state": {"target": ["17", "14", "26", "29", "26", "28", "18", "16", "18", "13", "19", "22", "21", "21", "33", "33", "32"], "time": [1891, 2324, 3158, 3192, 3586, 3597, 3641, 4058, 4459, 4693, 4759, 5060, 6328, 7096, 8246, 8564, 10065]}, "edge": {"target": [], "time": []}}, "mouseout": {"state": {"target": ["22", "19", "0", "17", "14", "26", "29", "26", "28", "18", "16", "18", "13", "19", "22", "21", "21", "33", "33", "32"], "time": [505, 588, 1566, 2274, 2390, 3175, 3582, 3593, 3609, 3658, 4409, 4609, 4743, 4910, 6262, 6462, 8115, 8296, 9998, 15522]}, "edge": {"target": [], "time": []}}}, "displayed_time": "15.54", "trialTime": 16150, "trial_type": "mouselab-mdp", "trial_index": 43, "time_elapsed": 1219208, "internal_node_id": "0.0-4.0-1.0-34.0"}}, {"uniqueid": "w15442413:a12876364", "current_trial": 44, "dateTime": 1691072156213, "trialdata": {"revealed_states": [], "clicked_states": ["5", "27"], "num_clicks_accrued": [0, 0, 0, 0, 0, 0, 0, 0, 0, 0, 0, 0, 0], "stateRewards": ["", 1, 1, -3, 2, 22, -25, -11, -5, 50, 49, 3, 1, -1, 8, 14, -85, -30, 57, -6, -39, -16, 59, -2, -1, 5, 5, 59, -16, 8, 4, 67, 56, -9], "withholdReward": false, "trial_id": "mdp_trial_36", "block": "test", "trialIndex": 37, "score": 63.2, "costs": -2.8, "simulationMode": [null, null, null, null, null], "rewards": [-2, -1, 5, 5, 59], "path": ["0", "0", "23", "24", "25", "26", "27"], "rt": [7105, 72, 625, 59, 75], "actions": ["left", "left", "left", "up", "up"], "actionTimes": [8553, 9127, 10264, 10815, 11399], "queries": {"click": {"state": {"target": ["5", "27"], "time": [2136, 5799]}, "edge": {"target": [], "time": []}}, "mouseover": {"state": {"target": ["6", "5", "4", "6", "6", "10", "25", "25", "28", "27", "28"], "time": [1468, 1948, 2662, 2795, 4154, 4567, 4830, 5026, 5415, 5664, 6065]}, "edge": {"target": [], "time": []}}, "mouseout": {"state": {"target": ["23", "0", "6", "5", "4", "6", "6", "10", "25", "25", "28", "27", "28", "1", "17"], "time": [742, 1464, 1636, 2461, 2696, 2928, 4549, 4582, 4913, 5349, 5515, 5966, 11540, 11604, 11655]}, "edge": {"target": [], "time": []}}}, "displayed_time": "15.45", "trialTime": 15704, "trial_type": "mouselab-mdp", "trial_index": 44, "time_elapsed": 1235411, "internal_node_id": "0.0-4.0-1.0-35.0"}}, {"uniqueid": "w15442413:a12876364", "current_trial": 45, "dateTime": 1691072172916, "trialdata": {"revealed_states": [], "clicked_states": ["21", "27", "5"], "num_clicks_accrued": [0, 0, 0, 0, 0, 0, 0, 0, 0, 0, 0, 0, 0], "stateRewards": ["", -1, -3, -6, -2, -7, 80, -45, -3, -38, -72, 76, 2, 1, 7, 4, -62, 14, -74, 14, -87, -21, -88, -2, 1, -7, -10, 66, 56, -76, 10, -29, -72, -70], "withholdReward": false, "trial_id": "mdp_trial_37", "block": "test", "trialIndex": 38, "score": 43.8, "costs": -4.199999999999999, "simulationMode": [null, null, null, null, null], "rewards": [-2, 1, -7, -10, 66], "path": ["0", "0", "23", "24", "25", "26", "27"], "rt": [9510, 86, 13, 15, 34], "actions": ["left", "left", "left", "up", "up"], "actionTimes": [10925, 11506, 12017, 12553, 13105], "queries": {"click": {"state": {"target": ["21", "27", "5"], "time": [2225, 4816, 8469]}, "edge": {"target": [], "time": []}}, "mouseover": {"state": {"target": ["22", "21", "19", "22", "23", "26", "27", "28", "10", "3", "5", "4"], "time": [1708, 1907, 2727, 2777, 4377, 4426, 4610, 5188, 7902, 7963, 8163, 9215]}, "edge": {"target": [], "time": []}}, "mouseout": {"state": {"target": ["15", "18", "22", "21", "19", "22", "23", "26", "27", "27", "28", "10", "3", "5", "4", "7"], "time": [672, 704, 1790, 2299, 2761, 2793, 4395, 4543, 4874, 5127, 7881, 7930, 7997, 9099, 13320, 13354]}, "edge": {"target": [], "time": []}}}, "displayed_time": "15.41", "trialTime": 16170, "trial_type": "mouselab-mdp", "trial_index": 45, "time_elapsed": 1252115, "internal_node_id": "0.0-4.0-1.0-36.0"}}, {"uniqueid": "w15442413:a12876364", "current_trial": 46, "dateTime": 1691072189716, "trialdata": {"revealed_states": [], "clicked_states": ["33", "6"], "num_clicks_accrued": [0, 0, 0, 0, 0, 0, 0, 0, 0, 0, 0, 0, 0], "stateRewards": ["", 2, 4, -3, 16, -58, 30, -35, 11, -60, 47, 27, -2, -1, -7, -16, 23, -70, 68, -10, -65, -43, -34, -2, 1, 7, 9, -63, 34, -31, -8, -12, -86, 59], "withholdReward": false, "trial_id": "mdp_trial_38", "block": "test", "trialIndex": 39, "score": 54.2, "costs": -2.8, "simulationMode": [null, null, null, null, null], "rewards": [-2, 1, 7, -8, 59], "path": ["0", "0", "23", "24", "25", "30", "33"], "rt": [7451, 56, 38, 561, 97], "actions": ["left", "left", "left", "down", "left"], "actionTimes": [8994, 9557, 10102, 11175, 11798], "queries": {"click": {"state": {"target": ["33", "6"], "time": [2580, 6340]}, "edge": {"target": [], "time": []}}, "mouseover": {"state": {"target": ["30", "30", "33", "30", "31", "1", "7", "4", "5", "6", "7"], "time": [2003, 2271, 2403, 2940, 2988, 4524, 5207, 5413, 5657, 6064, 6557]}, "edge": {"target": [], "time": []}}, "mouseout": {"state": {"target": ["0", "30", "30", "33", "30", "31", "1", "7", "4", "5", "6", "7"], "time": [1056, 2021, 2355, 2631, 2971, 3004, 4540, 5224, 5574, 5830, 6492, 12565]}, "edge": {"target": [], "time": []}}}, "displayed_time": "15.54", "trialTime": 16232, "trial_type": "mouselab-mdp", "trial_index": 46, "time_elapsed": 1268915, "internal_node_id": "0.0-4.0-1.0-37.0"}}, {"uniqueid": "w15442413:a12876364", "current_trial": 47, "dateTime": 1691072207761, "trialdata": {"revealed_states": [], "clicked_states": ["16", "27", "21", "32"], "num_clicks_accrued": [0, 0, 0, 0, 0, 0, 0, 0, 0, 0, 0, 0, 0], "stateRewards": ["", -2, -1, -5, 10, -36, -70, 68, -9, 86, 71, -10, 2, -4, 7, -7, 66, 44, -66, -13, -69, 43, 15, -2, 2, 6, -13, 62, 57, 50, -10, -69, 42, -72], "withholdReward": false, "trial_id": "mdp_trial_39", "block": "test", "trialIndex": 40, "score": 49.4, "costs": -5.6, "simulationMode": [null, null, null, null, null], "rewards": [-2, 2, 6, -13, 62], "path": ["0", "0", "23", "24", "25", "26", "27"], "rt": [11804, 37, 23, 33, 51], "actions": ["left", "left", "left", "up", "up"], "actionTimes": [13505, 14036, 14573, 15100, 15653], "queries": {"click": {"state": {"target": ["16", "27", "21", "32"], "time": [3073, 7092, 9493, 11557]}, "edge": {"target": [], "time": []}}, "mouseover": {"state": {"target": ["18", "16", "15", "1", "10", "10", "27", "28", "23", "22", "19", "14", "19", "21", "21", "31", "25", "30", "32", "31"], "time": [2652, 2936, 3303, 3820, 4204, 4520, 6789, 7324, 7374, 7740, 7771, 8108, 8675, 8725, 9018, 9776, 10176, 10326, 10609, 11889]}, "edge": {"target": [], "time": []}}, "mouseout": {"state": {"target": ["0", "1", "0", "18", "16", "15", "1", "10", "10", "27", "28", "23", "22", "19", "14", "19", "21", "21", "31", "25", "30", "32", "31"], "time": [716, 959, 1735, 2687, 3271, 3320, 3837, 4237, 6738, 7291, 7357, 7391, 7756, 8059, 8641, 8709, 8841, 9683, 9859, 10243, 10543, 11813, 11920]}, "edge": {"target": [], "time": []}}}, "displayed_time": "16.17", "trialTime": 17510, "trial_type": "mouselab-mdp", "trial_index": 47, "time_elapsed": 1286960, "internal_node_id": "0.0-4.0-1.0-38.0"}}, {"uniqueid": "w15442413:a12876364", "current_trial": 48, "dateTime": 1691072233721, "trialdata": {"revealed_states": [], "clicked_states": ["29", "28", "27", "5", "15", "17", "20", "21"], "num_clicks_accrued": [0, 0, 0, 0, 0, 0, 0, 0, 0, 0, 0, 0, 0], "stateRewards": ["", 2, 3, 6, -5, -74, -53, 17, -12, 46, 44, 18, -2, 4, 1, -8, 22, -23, -49, 9, -45, 55, 81, 1, -1, -7, -16, -83, -71, -45, 2, 51, 82, 61], "withholdReward": false, "trial_id": "mdp_trial_40", "block": "test", "trialIndex": 41, "score": 55.8, "costs": -11.200000000000001, "simulationMode": [null, null, null, null, null], "rewards": [-2, 4, 1, 9, 55], "path": ["0", "0", "12", "13", "14", "19", "21"], "rt": [20235, 60, 63, 37, 21], "actions": ["right", "right", "right", "down", "down"], "actionTimes": [21791, 22355, 22924, 23483, 24061], "queries": {"click": {"state": {"target": ["29", "28", "27", "5", "15", "17", "20", "21"], "time": [4055, 6305, 8750, 10620, 13195, 15040, 16972, 18894]}, "edge": {"target": [], "time": []}}, "mouseover": {"state": {"target": ["6", "4", "8", "26", "25", "30", "26", "29", "26", "28", "0", "28", "24", "31", "31", "25", "26", "27", "5", "6", "16", "15", "17", "20", "21", "22"], "time": [1719, 2640, 2820, 3171, 3238, 3488, 3722, 3922, 4172, 4206, 5802, 6107, 6526, 6592, 7244, 7926, 7978, 8567, 9778, 10815, 11146, 12898, 13432, 15534, 17203, 19155]}, "edge": {"target": [], "time": []}}, "mouseout": {"state": {"target": ["0", "6", "4", "8", "26", "25", "30", "26", "29", "26", "28", "0", "28", "24", "31", "31", "25", "26", "27", "28", "5", "6", "16", "15", "17", "20", "21", "22"], "time": [1572, 2622, 2654, 2994, 3205, 3321, 3622, 3872, 4156, 4189, 4223, 5857, 6492, 6542, 6625, 7560, 7961, 7993, 8944, 8994, 10783, 10838, 12866, 13368, 15252, 17137, 19090, 23988]}, "edge": {"target": [], "time": []}}}, "displayed_time": "24.58", "trialTime": 25404, "trial_type": "mouselab-mdp", "trial_index": 48, "time_elapsed": 1312920, "internal_node_id": "0.0-4.0-1.0-39.0"}}, {"uniqueid": "w15442413:a12876364", "current_trial": 49, "dateTime": 1691072296828, "trialdata": {"rt": 63095, "response": {"Q0": "$-2 to $2", "Q1": "$-16 to $16", "Q2": "$-88 to $88", "Q3": "The cost was always $1.4.", "Q4": "Very motivated"}, "question_order": [0, 1, 2, 3, 4], "trial_id": "final_quiz_control", "trial_type": "survey-multi-choice", "trial_index": 49, "time_elapsed": 1376027, "internal_node_id": "0.0-4.0-2.0"}}, {"uniqueid": "w15442413:a12876364", "current_trial": 50, "dateTime": 1691072415251, "trialdata": {"rt": 118415, "response": {"Q0": "I would only inspect the nodes at the far end, since they would be most impactful.", "Q1": "Yes, I tried inspecting closer nodes first, then I learned that they yield reletively low rewards compared to the costs.", "Q2": "Not really, I think I figured it out within around 8 rounds."}, "trial_id": "self_report_control", "trial_type": "survey-text", "trial_index": 50, "time_elapsed": 1494451, "internal_node_id": "0.0-4.0-3.0"}}, {"uniqueid": "w15442413:a12876364", "current_trial": 51, "dateTime": 1691072440190, "trialdata": {"rt": 24934, "response": {"gender": "male", "age": "25", "colorblind": "0", "effort": "0"}, "trial_type": "survey-html-form", "trial_index": 51, "time_elapsed": 1519390, "internal_node_id": "0.0-4.0-4.0"}}, {"uniqueid": "w15442413:a12876364", "current_trial": 52, "dateTime": 1691072479898, "trialdata": {"rt": 39702, "response": {"Q0": "No.", "Q1": "I have never done this before.", "Q2": "It was fun! Thank you! "}, "trial_type": "survey-text", "trial_index": 52, "time_elapsed": 1559098, "internal_node_id": "0.0-4.0-5.0"}}, {"uniqueid": "w15442413:a12876364", "current_trial": 53, "dateTime": 1691072484406, "trialdata": {"rt": 4504, "stimulus": "Press 'Finish HIT' in order to reach the completion code. Once the data has been saved, you will receive the code either in this window or in the original browser window where you started the experiment.\n", "response": 0, "trial_type": "html-button-response", "trial_index": 53, "time_elapsed": 1563606, "internal_node_id": "0.0-5.0"}}, {"uniqueid": "w15442413:a12876364", "current_trial": 54, "dateTime": 1691072485409, "trialdata": {"success": true, "trial_type": "fullscreen", "trial_index": 54, "time_elapsed": 1564609, "internal_node_id": "0.0-6.0"}}], "questiondata": {"params": {"CODE": "C6DMOQA6", "MIN_TIME": 14, "inspectCost": 1, "startTime": "Thu Aug 03 2023 15:55:20 GMT+0200 (Midden-Europese zomertijd)", "bonusRate": 0.002, "variance": "1_2_4_8_44", "branching": "31123"}, "final_score": 2129.2}, "eventdata": [{"eventtype": "initialized", "value": null, "timestamp": 1691070919749, "interval": 0}, {"eventtype": "window_resize", "value": [1024, 767], "timestamp": 1691070919749, "interval": 0}, {"eventtype": "window_resize", "value": [1024, 767], "timestamp": 1691070920078, "interval": 329}, {"eventtype": "window_resize", "value": [1920, 1080], "timestamp": 1691070924295, "interval": 4217}, {"eventtype": "window_resize", "value": [1024, 767], "timestamp": 1691072484680, "interval": 1560385}], "useragent": "Mozilla/5.0 (Windows NT 10.0; Win64; x64) AppleWebKit/537.36 (KHTML, like Gecko) Chrome/115.0.0.0 Safari/537.36", "mode": "live", "id": "w15442413:a12876364", "status": "user data saved", "Beginhit": "2023-08-03 13:55:18.508427", "Beginexp": "2023-08-03 13:55:25.149319", "Endhit": "2023-08-03 14:21:25.913237", "psiturkStatus": 3, "browser": "<redacted>", "platform": "windows", "language": "nl-NL"}