{"condition": 0, "counterbalance": 0, "assignmentId": "a72995169", "workerId": "w54851512", "hitId": "h57947105", "currenttrial": 55, "bonus": 0, "data": [{"uniqueid": "w54851512:a72995169", "current_trial": 0, "dateTime": 1693660292298, "trialdata": {"success": true, "trial_type": "fullscreen", "trial_index": 0, "time_elapsed": 4721, "internal_node_id": "0.0-0.0"}}, {"uniqueid": "w54851512:a72995169", "current_trial": 1, "dateTime": 1693660301132, "trialdata": {"view_history": [{"page_index": 0, "viewing_time": 8830}], "rt": 8831, "trial_id": "exp_instructions_control", "trial_type": "instructions", "trial_index": 1, "time_elapsed": 13555, "internal_node_id": "0.0-1.0"}}, {"uniqueid": "w54851512:a72995169", "current_trial": 2, "dateTime": 1693660525920, "trialdata": {"view_history": [{"page_index": 0, "viewing_time": 38633}, {"page_index": 1, "viewing_time": 51753}, {"page_index": 2, "viewing_time": 23143}, {"page_index": 3, "viewing_time": 111269}], "rt": 224797, "trial_id": "mouselab_instructions_1_control", "trial_type": "instructions", "trial_index": 2, "time_elapsed": 238343, "internal_node_id": "0.0-2.0-1.0"}}, {"uniqueid": "w54851512:a72995169", "current_trial": 3, "dateTime": 1693660588887, "trialdata": {"revealed_states": [], "clicked_states": ["2", "13", "23", "26", "19", "1", "12", "25"], "num_clicks_accrued": [0, 0, 0, 0, 0, 0, 0, 0, 0, 0, 0, 0, 0], "stateRewards": ["", -10, -10, -10, -10, 10, 10, 10, 10, 10, 10, 10, -10, -10, 10, -10, -10, 10, -10, -10, 10, 10, 10, 10, -10, 10, -10, 10, 10, 10, 10, 10, -10, 10], "withholdReward": false, "trial_id": "practice_1", "block": "test", "trialIndex": 0, "score": -10.5, "costs": -4, "simulationMode": [null, null, null, null, null], "rewards": [-10, -10, -10, 10, 10], "path": ["0", "0", "1", "2", "3", "8", "10"], "rt": [37893, 1947, 8236, 1544, 2940], "actions": ["up", "up", "up", "left", "down"], "actionTimes": [40958, 43368, 52108, 54144, 57575], "queries": {"click": {"state": {"target": ["2", "13", "23", "26", "19", "1", "12", "25"], "time": [8936, 11503, 13044, 16644, 20649, 27017, 28885, 33553]}, "edge": {"target": [], "time": []}}, "mouseover": {"state": {"target": ["0", "12", "19", "20", "18", "1", "0", "1", "2", "2", "1", "12", "13", "12", "0", "23", "23", "24", "26", "24", "24", "22", "19", "20", "18", "4", "7", "1", "12", "12", "23", "23", "31", "30", "25", "31"], "time": [3244, 3310, 3380, 3412, 5899, 6081, 6215, 7468, 7983, 8536, 10021, 10253, 10453, 12304, 12372, 12439, 12772, 14374, 16358, 17444, 17927, 18612, 18944, 21897, 25317, 25735, 26269, 26554, 27353, 27821, 30206, 30691, 32708, 32941, 33193, 33960]}, "edge": {"target": [], "time": []}}, "mouseout": {"state": {"target": ["20", "0", "0", "12", "19", "20", "18", "1", "0", "1", "2", "2", "1", "12", "13", "12", "0", "23", "23", "24", "26", "24", "24", "22", "19", "20", "19", "18", "4", "7", "1", "12", "12", "23", "23", "31", "30", "25", "31", "12", "7", "7", "2"], "time": [1843, 2527, 3296, 3328, 3411, 3446, 5930, 6097, 6850, 7885, 8250, 9918, 10102, 10369, 12257, 12337, 12403, 12604, 14341, 16144, 17243, 17544, 18277, 18826, 21833, 23052, 25200, 25369, 26202, 26454, 27287, 27488, 29188, 30324, 31259, 32845, 33112, 33862, 33995, 45339, 45556, 48077, 48325]}, "edge": {"target": [], "time": []}}}, "displayed_time": "58.07", "trialTime": 62345, "trial_type": "mouselab-mdp", "trial_index": 3, "time_elapsed": 301308, "internal_node_id": "0.0-2.0-2.0-0.0"}}, {"uniqueid": "w54851512:a72995169", "current_trial": 4, "dateTime": 1693660611600, "trialdata": {"revealed_states": [], "clicked_states": ["23"], "num_clicks_accrued": [0, 0, 0, 0, 0, 0, 0, 0, 0, 0, 0, 0, 0], "stateRewards": ["", 10, -10, 10, 10, -10, 10, -10, -10, 10, 10, 10, 10, -10, -10, 10, -10, 10, -10, -10, 10, 10, -10, 10, -10, -10, 10, 10, -10, 10, -10, 10, -10, -10], "withholdReward": false, "trial_id": "practice_2", "block": "test", "trialIndex": 1, "score": -7, "costs": -0.5, "simulationMode": [null, null, null, null, null], "rewards": [10, -10, -10, -10, 10], "path": ["0", "0", "23", "24", "25", "30", "31"], "rt": [7381, 1488, 2133, 1209, 2263], "actions": ["left", "left", "left", "down", "right"], "actionTimes": [10235, 12227, 14857, 16567, 19324], "queries": {"click": {"state": {"target": ["23"], "time": [6609]}, "edge": {"target": [], "time": []}}, "mouseover": {"state": {"target": ["0", "23"], "time": [3178, 5933]}, "edge": {"target": [], "time": []}}, "mouseout": {"state": {"target": ["13", "12", "0", "0", "23"], "time": [2126, 2210, 2995, 3245, 8133]}, "edge": {"target": [], "time": []}}}, "displayed_time": "19.81", "trialTime": 22226, "trial_type": "mouselab-mdp", "trial_index": 4, "time_elapsed": 324022, "internal_node_id": "0.0-2.0-2.0-1.0"}}, {"uniqueid": "w54851512:a72995169", "current_trial": 5, "dateTime": 1693660634731, "trialdata": {"view_history": [{"page_index": 0, "viewing_time": 17627}, {"page_index": 1, "viewing_time": 5501}], "rt": 23128, "trial_id": "mouselab_instructions_2_control", "trial_type": "instructions", "trial_index": 5, "time_elapsed": 347154, "internal_node_id": "0.0-2.0-3.0"}}, {"uniqueid": "w54851512:a72995169", "current_trial": 6, "dateTime": 1693660667729, "trialdata": {"rt": 32996, "response": {"Q0": "The cost for clicking on nodes may vary between nodes.", "Q1": "The better I perform the higher my bonus will be.", "Q2": "No, the amount of cash at each node of the web may be different each time.", "Q3": "To get the highest total score.", "Q4": "Only before moving the spider.", "Q5": "3 seconds"}, "question_order": [0, 1, 2, 3, 4, 5], "correct": {"Q0": "The cost for clicking on nodes may vary between nodes.", "Q1": "The better I perform the higher my bonus will be.", "Q2": "No, the amount of cash at each node of the web may be different each time.", "Q3": "To get the highest total score.", "Q4": "Only before moving the spider.", "Q5": "3 seconds"}, "trial_id": "mouselab_quiz_control", "trial_type": "survey-multi-choice", "trial_index": 6, "time_elapsed": 380152, "internal_node_id": "0.0-2.0-4.0"}}, {"uniqueid": "w54851512:a72995169", "current_trial": 7, "dateTime": 1693660672903, "trialdata": {"rt": 5168, "response": {"Q0": "No"}, "question_order": [0], "trial_id": "repeat_check", "trial_type": "survey-multi-choice", "trial_index": 7, "time_elapsed": 385326, "internal_node_id": "0.0-4.0-0.0"}}, {"uniqueid": "w54851512:a72995169", "current_trial": 8, "dateTime": 1693660682926, "trialdata": {"rt": 10019, "stimulus": "\n<h1> Get ready to start the game! </h1>\n\nThank you for reading the instructions. Get ready start with the 40 rounds of this game.\n<br><br>\nIf you need to take a break, feel free to take one after the end of a round, before continuing to the next one.\n<br><br>\nRemember, the more money the spider gets, the bigger your bonus will be!\n<br><br>\n<div style='text-align: center;'>Press <code>space</code> to begin.</div>\n\n<br><br>\n(If, at any point, the <code>space</code> key does not take you to the next page, click once on the text and try again.)", "response": " ", "trial_id": "mdp_ready", "trial_type": "html-keyboard-response", "trial_index": 8, "time_elapsed": 395349, "internal_node_id": "0.0-6.0-0.0"}}, {"uniqueid": "w54851512:a72995169", "current_trial": 9, "dateTime": 1693660707158, "trialdata": {"revealed_states": [], "clicked_states": [], "num_clicks_accrued": [0, 0, 0, 0, 0, 0, 0, 0, 0, 0, 0, 0, 0], "stateRewards": ["", -2, -1, -2, -15, 87, 57, 29, -10, 77, -80, -7, 1, -3, 6, 14, -11, 87, -59, 4, -71, 16, -11, 2, 2, -7, 2, -47, 61, 50, 14, -20, 17, 81], "withholdReward": false, "trial_id": "mdp_trial_1", "block": "test", "trialIndex": 2, "score": -9, "costs": 0, "simulationMode": [null, null, null, null, null], "rewards": [2, 2, -7, 14, -20], "path": ["0", "0", "23", "24", "25", "30", "31"], "rt": [8047, 1296, 2062, 3546, 2231], "actions": ["left", "left", "left", "down", "right"], "actionTimes": [9920, 11721, 14273, 18312, 21035], "queries": {"click": {"state": {"target": [], "time": []}, "edge": {"target": [], "time": []}}, "mouseover": {"state": {"target": ["23", "24", "25", "24", "23", "0"], "time": [3717, 3949, 4103, 4784, 4935, 7537]}, "edge": {"target": [], "time": []}}, "mouseout": {"state": {"target": ["12", "0", "23", "24", "25", "24", "23", "0", "26", "23"], "time": [1315, 3651, 3904, 4017, 4687, 4868, 7489, 15564, 16881, 16984]}, "edge": {"target": [], "time": []}}}, "displayed_time": "21.54", "trialTime": 23790, "trial_type": "mouselab-mdp", "trial_index": 9, "time_elapsed": 419580, "internal_node_id": "0.0-6.0-1.0-0.0"}}, {"uniqueid": "w54851512:a72995169", "current_trial": 10, "dateTime": 1693660738354, "trialdata": {"revealed_states": [], "clicked_states": ["12", "2", "24", "14", "8"], "num_clicks_accrued": [0, 0, 0, 0, 0, 0, 0, 0, 0, 0, 0, 0, 0], "stateRewards": ["", -2, 4, -5, -12, 85, -24, -18, -15, -78, -22, 26, -1, -1, 2, 14, -45, 52, -23, 7, -33, 24, -6, -2, -4, 5, -7, -16, 36, -39, 5, 71, -87, -23], "withholdReward": false, "trial_id": "mdp_trial_2", "block": "test", "trialIndex": 3, "score": -47, "costs": -7, "simulationMode": [null, null, null, null, null], "rewards": [-2, 4, -5, -15, -22], "path": ["0", "0", "1", "2", "3", "8", "10"], "rt": [12359, 1206, 3924, 1411, 2158], "actions": ["up", "up", "up", "left", "down"], "actionTimes": [15319, 17019, 21439, 23346, 25995], "queries": {"click": {"state": {"target": ["12", "2", "24", "14", "8"], "time": [3751, 6236, 7801, 9376, 11468]}, "edge": {"target": [], "time": []}}, "mouseover": {"state": {"target": ["0", "12", "0", "23", "24", "23", "1", "2", "1", "13", "13", "0", "23", "24", "19", "14", "10", "8", "11", "27", "1"], "time": [3380, 3449, 4197, 4283, 4649, 5816, 5884, 6051, 6902, 7204, 7419, 7484, 7519, 7585, 8937, 9153, 10239, 11156, 12109, 12640, 13624]}, "edge": {"target": [], "time": []}}, "mouseout": {"state": {"target": ["0", "0", "12", "0", "23", "24", "23", "1", "2", "2", "1", "13", "13", "12", "0", "23", "24", "19", "14", "14", "10", "8", "11", "27", "1", "14", "21"], "time": [2328, 3418, 4181, 4248, 4516, 5783, 5850, 5969, 6412, 6819, 7105, 7251, 7436, 7470, 7517, 7551, 8405, 9103, 9498, 9938, 11056, 12073, 12557, 13544, 13641, 28109, 28508]}, "edge": {"target": [], "time": []}}}, "displayed_time": "26.49", "trialTime": 30675, "trial_type": "mouselab-mdp", "trial_index": 10, "time_elapsed": 450777, "internal_node_id": "0.0-6.0-1.0-1.0"}}, {"uniqueid": "w54851512:a72995169", "current_trial": 11, "dateTime": 1693660762250, "trialdata": {"revealed_states": [], "clicked_states": ["12", "2", "14", "25"], "num_clicks_accrued": [0, 0, 0, 0, 0, 0, 0, 0, 0, 0, 0, 0, 0], "stateRewards": ["", 1, -4, 6, -3, 40, 76, -51, 5, -24, -63, 44, -2, -2, 8, 1, 76, -85, -58, 10, 59, 20, 11, -2, 3, -3, 3, -82, -10, 54, -7, -57, -6, -32], "withholdReward": false, "trial_id": "mdp_trial_3", "block": "test", "trialIndex": 4, "score": 28.4, "costs": -5.6, "simulationMode": [null, null, null, null, null], "rewards": [-2, -2, 8, 10, 20], "path": ["0", "0", "12", "13", "14", "19", "21"], "rt": [12380, 766, 700, 1311, 622], "actions": ["right", "right", "right", "down", "down"], "actionTimes": [14084, 15345, 16547, 18358, 19474], "queries": {"click": {"state": {"target": ["12", "2", "14", "25"], "time": [2582, 4944, 7521, 10334]}, "edge": {"target": [], "time": []}}, "mouseover": {"state": {"target": ["12", "0", "23", "1", "2", "18", "14", "19", "22", "25", "31"], "time": [2398, 3331, 3451, 4350, 4734, 6985, 7084, 7804, 8286, 8670, 12907]}, "edge": {"target": [], "time": []}}, "mouseout": {"state": {"target": ["0", "12", "0", "23", "1", "2", "18", "14", "14", "19", "22", "25", "31"], "time": [1012, 3280, 3381, 4285, 4698, 5734, 7036, 7637, 7770, 7903, 8304, 10738, 12940]}, "edge": {"target": [], "time": []}}}, "displayed_time": "19.97", "trialTime": 23455, "trial_type": "mouselab-mdp", "trial_index": 11, "time_elapsed": 474673, "internal_node_id": "0.0-6.0-1.0-2.0"}}, {"uniqueid": "w54851512:a72995169", "current_trial": 12, "dateTime": 1693660785166, "trialdata": {"revealed_states": [], "clicked_states": ["14", "25", "3"], "num_clicks_accrued": [0, 0, 0, 0, 0, 0, 0, 0, 0, 0, 0, 0, 0], "stateRewards": ["", 2, 4, -6, -13, -75, -81, 30, 7, 5, 59, -65, -1, -1, 7, 14, -38, 36, -41, 1, -54, -5, 64, 2, -1, 5, 6, -19, 79, 11, 16, -33, -50, 58], "withholdReward": false, "trial_id": "mdp_trial_4", "block": "test", "trialIndex": 5, "score": 50.8, "costs": -4.199999999999999, "simulationMode": [null, null, null, null, null], "rewards": [-1, -1, 7, 14, 36], "path": ["0", "0", "12", "13", "14", "15", "17"], "rt": [9282, 507, 551, 1086, 931], "actions": ["right", "right", "right", "up", "right"], "actionTimes": [11777, 12790, 13834, 15421, 16850], "queries": {"click": {"state": {"target": ["14", "25", "3"], "time": [3583, 5104, 8454]}, "edge": {"target": [], "time": []}}, "mouseover": {"state": {"target": ["12", "13", "14", "19", "22", "23", "24", "25", "24", "10", "3", "2", "13", "3", "7", "18", "15"], "time": [3171, 3220, 3289, 3989, 4137, 4255, 4355, 4573, 5842, 6042, 6292, 7160, 7445, 8329, 8845, 8910, 8962]}, "edge": {"target": [], "time": []}}, "mouseout": {"state": {"target": ["0", "12", "13", "14", "14", "19", "22", "23", "24", "25", "24", "10", "3", "2", "13", "14", "3", "7", "18", "15", "14", "13", "12"], "time": [3157, 3205, 3254, 3733, 3923, 4122, 4155, 4305, 4457, 5809, 5856, 6091, 7092, 7225, 7509, 7678, 8777, 8879, 8926, 8994, 18455, 18737, 18870]}, "edge": {"target": [], "time": []}}}, "displayed_time": "17.35", "trialTime": 22486, "trial_type": "mouselab-mdp", "trial_index": 12, "time_elapsed": 497589, "internal_node_id": "0.0-6.0-1.0-3.0"}}, {"uniqueid": "w54851512:a72995169", "current_trial": 13, "dateTime": 1693660804471, "trialdata": {"revealed_states": [], "clicked_states": ["14", "3", "25"], "num_clicks_accrued": [0, 0, 0, 0, 0, 0, 0, 0, 0, 0, 0, 0, 0], "stateRewards": ["", 2, -4, -4, 13, -80, 62, 13, -11, 57, -13, -44, 1, 4, 3, -4, -29, -88, 15, 16, -58, 68, -45, -1, -3, -1, -9, -44, -86, -19, -7, -36, 59, 66], "withholdReward": false, "trial_id": "mdp_trial_5", "block": "test", "trialIndex": 6, "score": 14.8, "costs": -4.199999999999999, "simulationMode": [null, null, null, null, null], "rewards": [1, 4, 3, -4, 15], "path": ["0", "0", "12", "13", "14", "15", "18"], "rt": [8323, 442, 518, 1347, 1125], "actions": ["right", "right", "right", "up", "left"], "actionTimes": [9744, 10679, 11690, 13535, 15166], "queries": {"click": {"state": {"target": ["14", "3", "25"], "time": [2226, 5004, 6557]}, "edge": {"target": [], "time": []}}, "mouseover": {"state": {"target": ["12", "13", "14", "0", "23", "24", "25", "24", "23", "1", "2", "3", "2", "24", "25", "14"], "time": [1827, 1876, 2012, 2877, 2910, 3028, 3178, 3864, 3979, 4062, 4114, 4330, 5564, 5765, 6081, 8819]}, "edge": {"target": [], "time": []}}, "mouseout": {"state": {"target": ["0", "12", "13", "14", "0", "23", "24", "25", "24", "23", "1", "2", "3", "2", "24", "25", "14", "19"], "time": [1793, 1860, 1927, 2560, 2893, 2977, 3114, 3748, 3944, 3994, 4077, 4162, 5515, 5582, 5797, 7067, 8899, 16793]}, "edge": {"target": [], "time": []}}}, "displayed_time": "15.66", "trialTime": 18890, "trial_type": "mouselab-mdp", "trial_index": 13, "time_elapsed": 516894, "internal_node_id": "0.0-6.0-1.0-4.0"}}, {"uniqueid": "w54851512:a72995169", "current_trial": 14, "dateTime": 1693660824856, "trialdata": {"revealed_states": [], "clicked_states": ["14", "3", "25"], "num_clicks_accrued": [0, 0, 0, 0, 0, 0, 0, 0, 0, 0, 0, 0, 0], "stateRewards": ["", 2, -2, -3, 10, -4, -1, -11, -8, -9, -36, -78, 2, 1, 7, -7, 44, -1, -31, -1, 26, 47, 83, 2, -4, -4, -6, -52, -76, -81, -1, -59, 45, 67], "withholdReward": false, "trial_id": "mdp_trial_6", "block": "test", "trialIndex": 7, "score": -32.2, "costs": -4.199999999999999, "simulationMode": [null, null, null, null, null], "rewards": [2, 1, 7, -7, -31], "path": ["0", "0", "12", "13", "14", "15", "18"], "rt": [10054, 508, 585, 919, 827], "actions": ["right", "right", "right", "up", "left"], "actionTimes": [11916, 12918, 13997, 15414, 16742], "queries": {"click": {"state": {"target": ["14", "3", "25"], "time": [3025, 5454, 8762]}, "edge": {"target": [], "time": []}}, "mouseover": {"state": {"target": ["12", "13", "14", "12", "0", "23", "24", "25", "24", "2", "3", "10", "28", "25", "25", "31", "31", "25", "22", "19", "14"], "time": [2664, 2698, 2746, 3700, 3733, 3782, 3916, 4082, 4569, 4718, 4984, 5751, 5803, 5834, 6321, 6838, 8437, 8604, 10839, 10993, 11074]}, "edge": {"target": [], "time": []}}, "mouseout": {"state": {"target": ["0", "12", "13", "14", "12", "0", "23", "24", "25", "24", "2", "3", "10", "28", "25", "25", "31", "31", "25", "22", "19", "14", "19"], "time": [2616, 2680, 2733, 3383, 3732, 3767, 3836, 4001, 4540, 4617, 4733, 5717, 5769, 5817, 6018, 6789, 6852, 8454, 9054, 10909, 11023, 11225, 18100]}, "edge": {"target": [], "time": []}}}, "displayed_time": "17.23", "trialTime": 19959, "trial_type": "mouselab-mdp", "trial_index": 14, "time_elapsed": 537279, "internal_node_id": "0.0-6.0-1.0-5.0"}}, {"uniqueid": "w54851512:a72995169", "current_trial": 15, "dateTime": 1693660845556, "trialdata": {"revealed_states": [], "clicked_states": ["3", "25", "14", "26"], "num_clicks_accrued": [0, 0, 0, 0, 0, 0, 0, 0, 0, 0, 0, 0, 0], "stateRewards": ["", -2, -4, -8, 8, 63, -50, -19, -7, -17, -31, 31, 1, 3, -5, 12, -35, -63, -29, -4, -17, -75, -79, -2, -3, -2, 8, -3, -85, 10, -2, -82, -82, 56], "withholdReward": false, "trial_id": "mdp_trial_7", "block": "test", "trialIndex": 8, "score": -89.6, "costs": -5.6, "simulationMode": [null, null, null, null, null], "rewards": [-2, -3, -2, 8, -85], "path": ["0", "0", "23", "24", "25", "26", "28"], "rt": [11875, 11, 223, 903, 964], "actions": ["left", "left", "left", "up", "right"], "actionTimes": [13154, 13661, 14391, 15786, 17248], "queries": {"click": {"state": {"target": ["3", "25", "14", "26"], "time": [2081, 4071, 6130, 9516]}, "edge": {"target": [], "time": []}}, "mouseover": {"state": {"target": ["1", "2", "3", "10", "28", "25", "22", "19", "20", "14", "12", "0", "23", "24", "28", "28", "26", "24", "23"], "time": [1635, 1682, 1750, 2819, 2885, 3153, 4736, 4806, 4906, 5539, 8291, 8340, 8409, 8510, 8757, 9107, 9194, 9842, 9879]}, "edge": {"target": [], "time": []}}, "mouseout": {"state": {"target": ["0", "1", "2", "3", "3", "10", "28", "25", "22", "19", "20", "14", "12", "0", "23", "24", "28", "28", "26", "24", "23", "22"], "time": [866, 1668, 1719, 2096, 2752, 2834, 2902, 4554, 4754, 4853, 5386, 6473, 8325, 8373, 8459, 8660, 8875, 9144, 9791, 9858, 9909, 19153]}, "edge": {"target": [], "time": []}}}, "displayed_time": "17.75", "trialTime": 20274, "trial_type": "mouselab-mdp", "trial_index": 15, "time_elapsed": 557979, "internal_node_id": "0.0-6.0-1.0-6.0"}}, {"uniqueid": "w54851512:a72995169", "current_trial": 16, "dateTime": 1693660870352, "trialdata": {"revealed_states": [], "clicked_states": ["3", "25", "14", "15", "26"], "num_clicks_accrued": [0, 0, 0, 0, 0, 0, 0, 0, 0, 0, 0, 0, 0], "stateRewards": ["", 1, 1, -5, 8, -6, 45, 16, -6, -7, -22, -38, -1, -4, 8, -11, -16, 21, -45, -15, -59, -32, 42, -1, 3, 6, 11, -7, 34, -27, -8, 85, 43, -9], "withholdReward": false, "trial_id": "mdp_trial_8", "block": "test", "trialIndex": 9, "score": 5, "costs": -7, "simulationMode": [null, null, null, null, null], "rewards": [-1, 3, 6, 11, -7], "path": ["0", "0", "23", "24", "25", "26", "27"], "rt": [13661, 224, 349, 1375, 1623], "actions": ["left", "left", "left", "up", "up"], "actionTimes": [15834, 16555, 17397, 19275, 21393], "queries": {"click": {"state": {"target": ["3", "25", "14", "15", "26"], "time": [3613, 5502, 8045, 10317, 12747]}, "edge": {"target": [], "time": []}}, "mouseover": {"state": {"target": ["1", "2", "3", "8", "26", "25", "22", "14", "19", "15", "13", "28", "26", "24", "31", "32"], "time": [2999, 3081, 3365, 4182, 4399, 4701, 7453, 7786, 8436, 10091, 10856, 12273, 12374, 13058, 13127, 14246]}, "edge": {"target": [], "time": []}}, "mouseout": {"state": {"target": ["0", "0", "1", "2", "3", "8", "26", "25", "22", "14", "19", "15", "15", "13", "28", "26", "26", "24", "31", "32"], "time": [1581, 2882, 3050, 3232, 4132, 4200, 4568, 5985, 7571, 8370, 9539, 10358, 10722, 10892, 12341, 12856, 13024, 13093, 13210, 14846]}, "edge": {"target": [], "time": []}}}, "displayed_time": "21.89", "trialTime": 24361, "trial_type": "mouselab-mdp", "trial_index": 16, "time_elapsed": 582774, "internal_node_id": "0.0-6.0-1.0-7.0"}}, {"uniqueid": "w54851512:a72995169", "current_trial": 17, "dateTime": 1693660901616, "trialdata": {"revealed_states": [], "clicked_states": ["23", "12", "2", "1", "19", "30", "26"], "num_clicks_accrued": [0, 0, 0, 0, 0, 0, 0, 0, 0, 0, 0, 0, 0], "stateRewards": ["", 1, 1, 4, 11, 83, -66, 18, -16, -23, 5, 25, 1, -3, 1, -12, 18, 24, -86, -11, -64, 36, 40, 2, 1, -6, 13, 55, 29, 72, -2, 81, -72, -41], "withholdReward": false, "trial_id": "mdp_trial_9", "block": "test", "trialIndex": 10, "score": 72.2, "costs": -9.8, "simulationMode": [null, null, null, null, null], "rewards": [2, 1, -6, 13, 72], "path": ["0", "0", "23", "24", "25", "26", "29"], "rt": [21337, 153, 296, 746, 1464], "actions": ["left", "left", "left", "up", "left"], "actionTimes": [22628, 23281, 24078, 25327, 27296], "queries": {"click": {"state": {"target": ["23", "12", "2", "1", "19", "30", "26"], "time": [3950, 5839, 8752, 11251, 14220, 17178, 19575]}, "edge": {"target": [], "time": []}}, "mouseover": {"state": {"target": ["23", "24", "25", "24", "23", "13", "12", "13", "14", "13", "1", "2", "1", "1", "12", "19", "20", "19", "21", "30", "31", "25", "26", "23"], "time": [2140, 2372, 2807, 3590, 3675, 4974, 5327, 6168, 7011, 7847, 7927, 8529, 9211, 10998, 13215, 13566, 13686, 14035, 14501, 16953, 19090, 19189, 19241, 19909]}, "edge": {"target": [], "time": []}}, "mouseout": {"state": {"target": ["0", "23", "24", "25", "24", "23", "13", "12", "13", "14", "13", "1", "2", "1", "1", "12", "19", "20", "19", "21", "30", "31", "25", "26", "23"], "time": [838, 2290, 2656, 3556, 3640, 4340, 5292, 6109, 6493, 7812, 7860, 7944, 9181, 9263, 11553, 13271, 13600, 14001, 14468, 14637, 17554, 19124, 19206, 19824, 19924]}, "edge": {"target": [], "time": []}}}, "displayed_time": "27.80", "trialTime": 30839, "trial_type": "mouselab-mdp", "trial_index": 17, "time_elapsed": 614038, "internal_node_id": "0.0-6.0-1.0-8.0"}}, {"uniqueid": "w54851512:a72995169", "current_trial": 18, "dateTime": 1693660931586, "trialdata": {"revealed_states": [], "clicked_states": ["3", "15", "26", "30", "19", "14", "12", "13"], "num_clicks_accrued": [0, 0, 0, 0, 0, 0, 0, 0, 0, 0, 0, 0, 0], "stateRewards": ["", -2, -1, -6, -14, -55, 78, -13, 11, 14, -71, 59, 2, 2, 6, -6, 9, 38, 14, 7, 85, 11, 68, 1, -4, -1, -3, -63, -85, 9, -2, 63, -86, -10], "withholdReward": false, "trial_id": "mdp_trial_10", "block": "test", "trialIndex": 11, "score": 16.799999999999997, "costs": -11.200000000000001, "simulationMode": [null, null, null, null, null], "rewards": [2, 2, 6, 7, 11], "path": ["0", "0", "12", "13", "14", "19", "21"], "rt": [19424, 375, 440, 768, 1042], "actions": ["right", "right", "right", "down", "down"], "actionTimes": [21761, 22640, 23572, 24832, 26375], "queries": {"click": {"state": {"target": ["3", "15", "26", "30", "19", "14", "12", "13"], "time": [4095, 5985, 8741, 10766, 12690, 14625, 16886, 18833]}, "edge": {"target": [], "time": []}}, "mouseover": {"state": {"target": ["0", "1", "2", "3", "7", "18", "15", "13", "12", "0", "23", "25", "26", "31", "30", "32", "19", "14", "12", "13", "20"], "time": [2357, 3407, 3541, 3824, 4844, 5228, 5626, 6413, 6448, 6478, 6511, 8114, 8547, 9198, 10383, 11101, 11766, 14211, 16722, 17389, 19208]}, "edge": {"target": [], "time": []}}, "mouseout": {"state": {"target": ["0", "0", "1", "2", "3", "7", "18", "15", "13", "12", "0", "23", "25", "26", "31", "30", "32", "19", "14", "14", "12", "13", "20"], "time": [1723, 2407, 3425, 3662, 4743, 5143, 5260, 6347, 6446, 6477, 6494, 6545, 8498, 9048, 10282, 11018, 11117, 13005, 14767, 14936, 17356, 19109, 19241]}, "edge": {"target": [], "time": []}}}, "displayed_time": "26.87", "trialTime": 29512, "trial_type": "mouselab-mdp", "trial_index": 18, "time_elapsed": 644008, "internal_node_id": "0.0-6.0-1.0-9.0"}}, {"uniqueid": "w54851512:a72995169", "current_trial": 19, "dateTime": 1693660963761, "trialdata": {"revealed_states": [], "clicked_states": ["3", "14", "25", "32", "19", "22", "20", "21"], "num_clicks_accrued": [0, 0, 0, 0, 0, 0, 0, 0, 0, 0, 0, 0, 0], "stateRewards": ["", 2, -4, 4, 9, 69, 9, -75, 12, -86, 66, 25, -1, 3, 2, -13, -88, -3, 1, 4, -69, 49, -84, 2, -1, 4, 2, -18, -81, -52, -15, -69, -54, 25], "withholdReward": false, "trial_id": "mdp_trial_11", "block": "test", "trialIndex": 12, "score": 45.8, "costs": -11.200000000000001, "simulationMode": [null, null, null, null, null], "rewards": [-1, 3, 2, 4, 49], "path": ["0", "0", "12", "13", "14", "19", "21"], "rt": [22542, 371, 417, 580, 397], "actions": ["right", "right", "right", "down", "down"], "actionTimes": [24554, 25433, 26342, 27423, 28324], "queries": {"click": {"state": {"target": ["3", "14", "25", "32", "19", "22", "20", "21"], "time": [3603, 6381, 9273, 11489, 14504, 16833, 19218, 21659]}, "edge": {"target": [], "time": []}}, "mouseover": {"state": {"target": ["1", "2", "3", "7", "16", "17", "15", "14", "19", "14", "22", "24", "25", "30", "32", "19", "21", "22", "20", "21"], "time": [2584, 3201, 3333, 4386, 4485, 4617, 4752, 5703, 5955, 6171, 6753, 8474, 9039, 9607, 11274, 14345, 15045, 16513, 18968, 21519]}, "edge": {"target": [], "time": []}}, "mouseout": {"state": {"target": ["0", "1", "2", "3", "3", "7", "16", "17", "15", "14", "19", "14", "22", "24", "25", "30", "32", "19", "21", "22", "19", "20", "21", "21"], "time": [2499, 3151, 3283, 3787, 4018, 4436, 4500, 4669, 5637, 5852, 6103, 6654, 6770, 8488, 9540, 11193, 11504, 14862, 16416, 17251, 18869, 19518, 21890, 29994]}, "edge": {"target": [], "time": []}}}, "displayed_time": "28.83", "trialTime": 31731, "trial_type": "mouselab-mdp", "trial_index": 19, "time_elapsed": 676184, "internal_node_id": "0.0-6.0-1.0-10.0"}}, {"uniqueid": "w54851512:a72995169", "current_trial": 20, "dateTime": 1693660986205, "trialdata": {"revealed_states": [], "clicked_states": ["9", "10", "8", "1", "2", "3"], "num_clicks_accrued": [0, 0, 0, 0, 0, 0, 0, 0, 0, 0, 0, 0, 0], "stateRewards": ["", -1, -3, 1, 13, -64, -29, 12, -4, -33, 50, 56, 2, -3, 4, 11, -64, -58, -55, 12, 47, 38, -25, -2, 2, 5, -15, 85, 7, 84, 10, 8, 57, 26], "withholdReward": false, "trial_id": "mdp_trial_12", "block": "test", "trialIndex": 13, "score": 34.6, "costs": -8.4, "simulationMode": [null, null, null, null, null], "rewards": [-1, -3, 1, -4, 50], "path": ["0", "0", "1", "2", "3", "8", "10"], "rt": [14605, 651, 233, 679, 362], "actions": ["up", "up", "up", "left", "down"], "actionTimes": [15861, 17029, 17763, 18942, 19808], "queries": {"click": {"state": {"target": ["9", "10", "8", "1", "2", "3"], "time": [2571, 4629, 7543, 9658, 11627, 13314]}, "edge": {"target": [], "time": []}}, "mouseover": {"state": {"target": ["1", "2", "3", "9", "9", "8", "10", "2", "7", "4", "3", "8", "3", "2", "1", "2", "3", "4"], "time": [1961, 2008, 2045, 2111, 2378, 3111, 3178, 4980, 5063, 5465, 7050, 7332, 7952, 8902, 9135, 10137, 12079, 14193]}, "edge": {"target": [], "time": []}}, "mouseout": {"state": {"target": ["0", "1", "2", "3", "9", "9", "8", "10", "2", "7", "4", "3", "8", "3", "2", "1", "2", "3", "4", "18", "13", "22"], "time": [1910, 1996, 2044, 2077, 2146, 3044, 3161, 4951, 5030, 5130, 6999, 7115, 7899, 8849, 9037, 10019, 11904, 14156, 14222, 21381, 21415, 21498]}, "edge": {"target": [], "time": []}}}, "displayed_time": "20.31", "trialTime": 22002, "trial_type": "mouselab-mdp", "trial_index": 20, "time_elapsed": 698628, "internal_node_id": "0.0-6.0-1.0-11.0"}}, {"uniqueid": "w54851512:a72995169", "current_trial": 21, "dateTime": 1693661016154, "trialdata": {"revealed_states": [], "clicked_states": ["12", "23", "1", "19", "14", "13", "15", "16"], "num_clicks_accrued": [0, 0, 0, 0, 0, 0, 0, 0, 0, 0, 0, 0, 0], "stateRewards": ["", 1, -3, -6, -5, 47, 80, -29, 11, -71, 10, -29, -2, 3, -6, 12, 2, -78, -6, 8, 34, -16, -5, -1, 3, 3, -13, 84, -36, -62, -3, -27, 66, 15], "withholdReward": false, "trial_id": "mdp_trial_13", "block": "test", "trialIndex": 14, "score": -2.200000000000003, "costs": -11.200000000000001, "simulationMode": [null, null, null, null, null], "rewards": [-2, 3, -6, 12, 2], "path": ["0", "0", "12", "13", "14", "15", "16"], "rt": [20632, 406, 452, 849, 434], "actions": ["right", "right", "right", "up", "up"], "actionTimes": [22624, 23525, 24468, 25818, 26754], "queries": {"click": {"state": {"target": ["12", "23", "1", "19", "14", "13", "15", "16"], "time": [3990, 5711, 8321, 10548, 12528, 14790, 16927, 19451]}, "edge": {"target": [], "time": []}}, "mouseover": {"state": {"target": ["19", "13", "12", "13", "0", "23", "0", "1", "2", "1", "13", "19", "14", "13", "15", "19", "19", "14", "16"], "time": [3361, 3529, 3745, 4246, 5112, 5180, 7449, 7597, 7700, 8184, 8681, 8800, 11052, 13154, 15321, 17642, 17858, 18892, 19195]}, "edge": {"target": [], "time": []}}, "mouseout": {"state": {"target": ["0", "19", "13", "12", "13", "12", "0", "23", "0", "1", "2", "1", "13", "19", "14", "13", "14", "15", "19", "19", "14", "15", "16", "19"], "time": [2011, 3445, 3696, 4194, 5045, 5095, 5146, 6064, 7498, 7648, 8114, 8565, 8716, 10713, 13104, 15078, 15188, 17425, 17724, 18827, 18909, 19009, 19728, 28069]}, "edge": {"target": [], "time": []}}}, "displayed_time": "27.25", "trialTime": 29508, "trial_type": "mouselab-mdp", "trial_index": 21, "time_elapsed": 728576, "internal_node_id": "0.0-6.0-1.0-12.0"}}, {"uniqueid": "w54851512:a72995169", "current_trial": 22, "dateTime": 1693661052469, "trialdata": {"revealed_states": [], "clicked_states": ["23", "24", "25", "30", "32", "9", "8", "4", "6", "2", "1", "3"], "num_clicks_accrued": [0, 0, 0, 0, 0, 0, 0, 0, 0, 0, 0, 0, 0], "stateRewards": ["", -1, 1, 8, -3, -24, 11, -65, -6, -77, 48, 44, -2, 1, -2, -7, -55, -35, 33, 8, -28, 19, -53, -1, -1, -5, -5, -70, 10, 44, 8, -58, -70, 51], "withholdReward": false, "trial_id": "mdp_trial_14", "block": "test", "trialIndex": 15, "score": -0.8000000000000007, "costs": -16.8, "simulationMode": [null, null, null, null, null], "rewards": [-1, 1, 8, -3, 11], "path": ["0", "0", "1", "2", "3", "4", "6"], "rt": [28639, 584, 212, 573, 341], "actions": ["up", "up", "up", "right", "right"], "actionTimes": [29997, 31088, 31798, 32877, 33711], "queries": {"click": {"state": {"target": ["23", "24", "25", "30", "32", "9", "8", "4", "6", "2", "1", "3"], "time": [2509, 5636, 7493, 9361, 11161, 14692, 16617, 18946, 20815, 23435, 25268, 27237]}, "edge": {"target": [], "time": []}}, "mouseover": {"state": {"target": ["0", "23", "23", "24", "25", "24", "24", "25", "30", "32", "5", "9", "8", "10", "3", "4", "6", "7", "2", "1", "3", "16"], "time": [1375, 1853, 2253, 2873, 4539, 4887, 5259, 6022, 7976, 9743, 14048, 14532, 15150, 16986, 18589, 18805, 19470, 21272, 23226, 23826, 25895, 27764]}, "edge": {"target": [], "time": []}}, "mouseout": {"state": {"target": ["0", "0", "23", "23", "24", "25", "24", "24", "25", "30", "32", "5", "9", "8", "10", "3", "4", "6", "7", "2", "1", "2", "3", "16"], "time": [884, 1418, 2038, 2788, 4439, 4875, 4957, 5910, 7876, 9677, 11445, 14250, 15084, 16901, 18503, 18623, 19406, 21123, 21339, 23725, 25560, 25794, 27547, 34805]}, "edge": {"target": [], "time": []}}}, "displayed_time": "34.20", "trialTime": 35869, "trial_type": "mouselab-mdp", "trial_index": 22, "time_elapsed": 764891, "internal_node_id": "0.0-6.0-1.0-13.0"}}, {"uniqueid": "w54851512:a72995169", "current_trial": 23, "dateTime": 1693661069862, "trialdata": {"revealed_states": [], "clicked_states": ["21", "16"], "num_clicks_accrued": [0, 0, 0, 0, 0, 0, 0, 0, 0, 0, 0, 0, 0], "stateRewards": ["", -2, -4, -2, -13, -15, 87, -19, -6, -80, 30, 12, 1, 1, -8, 2, 55, 56, 15, 11, -68, -7, 55, -2, 3, -3, -3, 48, 62, 4, 1, -3, 69, -33], "withholdReward": false, "trial_id": "mdp_trial_15", "block": "test", "trialIndex": 16, "score": 48.2, "costs": -2.8, "simulationMode": [null, null, null, null, null], "rewards": [1, 1, -8, 2, 55], "path": ["0", "0", "12", "13", "14", "15", "16"], "rt": [6643, 214, 196, 888, 351], "actions": ["right", "right", "right", "up", "up"], "actionTimes": [7928, 8638, 9345, 10729, 11574], "queries": {"click": {"state": {"target": ["21", "16"], "time": [2614, 4627]}, "edge": {"target": [], "time": []}}, "mouseover": {"state": {"target": ["22", "20", "21", "19", "14", "16", "17"], "time": [2047, 2196, 2363, 2915, 3297, 3517, 6452]}, "edge": {"target": [], "time": []}}, "mouseout": {"state": {"target": ["0", "22", "20", "21", "19", "14", "16", "17", "14"], "time": [1448, 2082, 2212, 2779, 3217, 3330, 5084, 14244, 16211]}, "edge": {"target": [], "time": []}}}, "displayed_time": "15.29", "trialTime": 16949, "trial_type": "mouselab-mdp", "trial_index": 23, "time_elapsed": 782284, "internal_node_id": "0.0-6.0-1.0-14.0"}}, {"uniqueid": "w54851512:a72995169", "current_trial": 24, "dateTime": 1693661089742, "trialdata": {"revealed_states": [], "clicked_states": ["25", "30", "32", "23", "24"], "num_clicks_accrued": [0, 0, 0, 0, 0, 0, 0, 0, 0, 0, 0, 0, 0], "stateRewards": ["", -2, 3, -1, 2, -72, 63, 20, -1, 62, -66, 39, -2, 3, -6, 14, 22, 47, 1, 8, -49, -1, -41, 2, 2, -6, -16, -64, -60, -34, 16, 54, 22, -7], "withholdReward": false, "trial_id": "mdp_trial_16", "block": "test", "trialIndex": 17, "score": 29, "costs": -7, "simulationMode": [null, null, null, null, null], "rewards": [2, 2, -6, 16, 22], "path": ["0", "0", "23", "24", "25", "30", "32"], "rt": [11945, 107, 250, 868, 326], "actions": ["left", "left", "left", "down", "down"], "actionTimes": [14023, 14653, 15394, 16766, 17589], "queries": {"click": {"state": {"target": ["25", "30", "32", "23", "24"], "time": [3634, 5344, 6888, 9686, 11487]}, "edge": {"target": [], "time": []}}, "mouseover": {"state": {"target": ["0", "31", "30", "25", "25", "30", "32", "23", "24"], "time": [2094, 2813, 2849, 3146, 3364, 3980, 5717, 9536, 10155]}, "edge": {"target": [], "time": []}}, "mouseout": {"state": {"target": ["0", "0", "31", "30", "25", "25", "25", "30", "32", "32", "23", "24"], "time": [1779, 2133, 2848, 2913, 3266, 3766, 3947, 5648, 7045, 7202, 9955, 11741]}, "edge": {"target": [], "time": []}}}, "displayed_time": "18.08", "trialTime": 19444, "trial_type": "mouselab-mdp", "trial_index": 24, "time_elapsed": 802164, "internal_node_id": "0.0-6.0-1.0-15.0"}}, {"uniqueid": "w54851512:a72995169", "current_trial": 25, "dateTime": 1693661107179, "trialdata": {"revealed_states": [], "clicked_states": ["23", "24", "25", "30", "32"], "num_clicks_accrued": [0, 0, 0, 0, 0, 0, 0, 0, 0, 0, 0, 0, 0], "stateRewards": ["", 1, 1, 1, -3, -7, -1, -41, -10, 20, -72, -63, 1, -4, -2, 2, -66, 30, -84, -2, 49, 23, 71, -1, -4, 4, -12, 67, 5, 18, -16, 88, 56, -5], "withholdReward": false, "trial_id": "mdp_trial_17", "block": "test", "trialIndex": 18, "score": 32, "costs": -7, "simulationMode": [null, null, null, null, null], "rewards": [-1, -4, 4, -16, 56], "path": ["0", "0", "23", "24", "25", "30", "32"], "rt": [10867, 215, 238, 215, 330], "actions": ["left", "left", "left", "down", "down"], "actionTimes": [11881, 12590, 13331, 14040, 14874], "queries": {"click": {"state": {"target": ["23", "24", "25", "30", "32"], "time": [1999, 3687, 5273, 6916, 8501]}, "edge": {"target": [], "time": []}}, "mouseover": {"state": {"target": ["23", "24", "25", "30", "32"], "time": [1795, 2595, 4131, 5732, 7350]}, "edge": {"target": [], "time": []}}, "mouseout": {"state": {"target": ["0", "23", "24", "25", "30", "32"], "time": [1746, 2512, 3998, 5698, 7284, 8868]}, "edge": {"target": [], "time": []}}}, "displayed_time": "15.38", "trialTime": 16977, "trial_type": "mouselab-mdp", "trial_index": 25, "time_elapsed": 819601, "internal_node_id": "0.0-6.0-1.0-16.0"}}, {"uniqueid": "w54851512:a72995169", "current_trial": 26, "dateTime": 1693661131334, "trialdata": {"revealed_states": [], "clicked_states": ["4", "5", "6", "7", "3", "1"], "num_clicks_accrued": [0, 0, 0, 0, 0, 0, 0, 0, 0, 0, 0, 0, 0], "stateRewards": ["", 2, 2, 3, -15, 23, -14, 73, -7, -32, -20, -6, 1, 1, -5, -12, 73, 6, -84, 11, -81, -57, 13, -2, -1, -4, -8, -52, -58, 49, 13, 5, -41, -41], "withholdReward": false, "trial_id": "mdp_trial_18", "block": "test", "trialIndex": 19, "score": 56.6, "costs": -8.4, "simulationMode": [null, null, null, null, null], "rewards": [2, 2, 3, -15, 73], "path": ["0", "0", "1", "2", "3", "4", "7"], "rt": [16441, 206, 184, 575, 273], "actions": ["up", "up", "up", "right", "down"], "actionTimes": [18148, 18858, 19538, 20612, 21376], "queries": {"click": {"state": {"target": ["4", "5", "6", "7", "3", "1"], "time": [4139, 6039, 7828, 9943, 12407, 15535]}, "edge": {"target": [], "time": []}}, "mouseover": {"state": {"target": ["1", "2", "3", "4", "4", "5", "6", "7", "3", "2", "1"], "time": [2802, 3369, 3534, 3654, 3818, 5062, 6487, 8710, 10525, 12711, 14445]}, "edge": {"target": [], "time": []}}, "mouseout": {"state": {"target": ["0", "1", "2", "3", "4", "4", "5", "5", "6", "7", "3", "2", "1", "12"], "time": [2685, 2884, 3452, 3619, 3684, 4998, 6183, 6390, 8490, 10261, 12677, 14231, 15816, 23190]}, "edge": {"target": [], "time": []}}}, "displayed_time": "21.87", "trialTime": 23717, "trial_type": "mouselab-mdp", "trial_index": 26, "time_elapsed": 843756, "internal_node_id": "0.0-6.0-1.0-17.0"}}, {"uniqueid": "w54851512:a72995169", "current_trial": 27, "dateTime": 1693661158535, "trialdata": {"revealed_states": [], "clicked_states": ["17", "15", "16", "14", "19", "21", "20", "13"], "num_clicks_accrued": [0, 0, 0, 0, 0, 0, 0, 0, 0, 0, 0, 0, 0], "stateRewards": ["", -2, -3, 7, -13, 60, 9, 37, -6, 37, 20, 1, 2, -2, -8, 6, -80, -31, -10, -7, 70, -65, -44, -1, 1, 7, 6, -11, 73, -85, 16, -21, 47, 34], "withholdReward": false, "trial_id": "mdp_trial_19", "block": "test", "trialIndex": 20, "score": 43.8, "costs": -11.200000000000001, "simulationMode": [null, null, null, null, null], "rewards": [2, -2, -8, -7, 70], "path": ["0", "0", "12", "13", "14", "19", "20"], "rt": [19672, 268, 274, 485, 344], "actions": ["right", "right", "right", "down", "right"], "actionTimes": [21586, 22352, 23126, 24105, 24948], "queries": {"click": {"state": {"target": ["17", "15", "16", "14", "19", "21", "20", "13"], "time": [3300, 4988, 6597, 8970, 10826, 12672, 14606, 17317]}, "edge": {"target": [], "time": []}}, "mouseover": {"state": {"target": ["22", "19", "20", "17", "15", "16", "14", "19", "21", "20", "22", "13", "12", "0", "0", "12"], "time": [2510, 2543, 2612, 2861, 3732, 5514, 7316, 9354, 11140, 14023, 14990, 17161, 17761, 19245, 19294, 20497]}, "edge": {"target": [], "time": []}}, "mouseout": {"state": {"target": ["0", "22", "19", "20", "17", "15", "16", "15", "14", "19", "21", "20", "22", "13", "12", "0", "0", "12"], "time": [1277, 2526, 2580, 2646, 3578, 5280, 7185, 7283, 9267, 11086, 13423, 14907, 17043, 17709, 19164, 19280, 20314, 26322]}, "edge": {"target": [], "time": []}}}, "displayed_time": "25.45", "trialTime": 26771, "trial_type": "mouselab-mdp", "trial_index": 27, "time_elapsed": 870958, "internal_node_id": "0.0-6.0-1.0-18.0"}}, {"uniqueid": "w54851512:a72995169", "current_trial": 28, "dateTime": 1693661190350, "trialdata": {"revealed_states": [], "clicked_states": ["25", "32", "30", "27", "26", "24", "23", "2", "3", "5"], "num_clicks_accrued": [0, 0, 0, 0, 0, 0, 0, 0, 0, 0, 0, 0, 0], "stateRewards": ["", -1, 2, 7, 8, 75, 67, -11, 6, 52, -17, 38, -1, 4, -8, 14, 74, -37, -17, -12, 52, 55, 71, -2, -1, -5, 2, 21, 6, -88, -14, 64, -61, -47], "withholdReward": false, "trial_id": "mdp_trial_20", "block": "test", "trialIndex": 21, "score": 77, "costs": -14.000000000000002, "simulationMode": [null, null, null, null, null], "rewards": [-1, 2, 7, 8, 75], "path": ["0", "0", "1", "2", "3", "4", "5"], "rt": [23404, 555, 323, 753, 403], "actions": ["up", "up", "up", "right", "up"], "actionTimes": [24717, 25775, 26594, 27843, 28743], "queries": {"click": {"state": {"target": ["25", "32", "30", "27", "26", "24", "23", "2", "3", "5"], "time": [2607, 4575, 6375, 9053, 11033, 13035, 14914, 17692, 19661, 21709]}, "edge": {"target": [], "time": []}}, "mouseover": {"state": {"target": ["0", "31", "25", "30", "32", "30", "31", "24", "28", "27", "26", "27", "26", "24", "24", "23", "28", "2", "3", "4", "5", "4"], "time": [1477, 1980, 2129, 2929, 3898, 5348, 6953, 7052, 7125, 7235, 8017, 8820, 9469, 11392, 12591, 13357, 16962, 17514, 18164, 21066, 21265, 22168]}, "edge": {"target": [], "time": []}}, "mouseout": {"state": {"target": ["0", "0", "31", "25", "30", "32", "30", "31", "24", "28", "27", "26", "27", "27", "26", "24", "24", "23", "23", "28", "2", "3", "4", "5", "4"], "time": [929, 1529, 2062, 2887, 3863, 4864, 6917, 7016, 7083, 7140, 7934, 8787, 9199, 9403, 11356, 11471, 13308, 15226, 16893, 17129, 18080, 20030, 21187, 22099, 22255]}, "edge": {"target": [], "time": []}}}, "displayed_time": "29.24", "trialTime": 31308, "trial_type": "mouselab-mdp", "trial_index": 28, "time_elapsed": 902773, "internal_node_id": "0.0-6.0-1.0-19.0"}}, {"uniqueid": "w54851512:a72995169", "current_trial": 29, "dateTime": 1693661212569, "trialdata": {"revealed_states": [], "clicked_states": ["17", "15", "14", "13", "12"], "num_clicks_accrued": [0, 0, 0, 0, 0, 0, 0, 0, 0, 0, 0, 0, 0], "stateRewards": ["", -1, -1, 7, -15, -43, -21, -84, -9, -45, -66, 2, 1, -2, 2, 8, -27, 44, -52, -5, -84, 11, 53, 1, 4, -4, 16, 83, -82, -15, -16, 68, -43, 81], "withholdReward": false, "trial_id": "mdp_trial_21", "block": "test", "trialIndex": 22, "score": 46, "costs": -7, "simulationMode": [null, null, null, null, null], "rewards": [1, -2, 2, 8, 44], "path": ["0", "0", "12", "13", "14", "15", "17"], "rt": [13509, 391, 261, 611, 346], "actions": ["right", "right", "right", "up", "right"], "actionTimes": [15709, 16599, 17351, 18454, 19309], "queries": {"click": {"state": {"target": ["17", "15", "14", "13", "12"], "time": [4164, 6750, 8685, 10531, 12431]}, "edge": {"target": [], "time": []}}, "mouseover": {"state": {"target": ["0", "12", "13", "14", "17", "20", "14", "15", "14", "13", "12", "20"], "time": [3160, 3624, 3674, 3726, 3958, 4993, 6447, 6544, 7195, 9065, 10952, 12902]}, "edge": {"target": [], "time": []}}, "mouseout": {"state": {"target": ["0", "0", "12", "13", "14", "17", "20", "14", "15", "15", "14", "14", "13", "12", "20", "21"], "time": [1588, 3608, 3659, 3711, 3777, 4726, 6363, 6511, 6776, 7114, 8826, 8981, 10850, 12721, 20744, 20877]}, "edge": {"target": [], "time": []}}}, "displayed_time": "19.81", "trialTime": 21772, "trial_type": "mouselab-mdp", "trial_index": 29, "time_elapsed": 924992, "internal_node_id": "0.0-6.0-1.0-20.0"}}, {"uniqueid": "w54851512:a72995169", "current_trial": 30, "dateTime": 1693661242326, "trialdata": {"revealed_states": [], "clicked_states": ["32", "27", "9", "10", "1", "2", "3", "8"], "num_clicks_accrued": [0, 0, 0, 0, 0, 0, 0, 0, 0, 0, 0, 0, 0], "stateRewards": ["", -2, -4, 4, -11, -63, -60, -7, 2, -14, 81, -43, -1, -1, -5, 7, 10, 69, 40, 8, -83, 52, 60, 1, 2, 5, -5, 16, 64, 14, -3, 29, 7, -51], "withholdReward": false, "trial_id": "mdp_trial_22", "block": "test", "trialIndex": 23, "score": 69.8, "costs": -11.200000000000001, "simulationMode": [null, null, null, null, null], "rewards": [-2, -4, 4, 2, 81], "path": ["0", "0", "1", "2", "3", "8", "10"], "rt": [21956, 19, 598, 756, 260], "actions": ["up", "up", "up", "left", "down"], "actionTimes": [23847, 24365, 25479, 26737, 27491], "queries": {"click": {"state": {"target": ["32", "27", "9", "10", "1", "2", "3", "8"], "time": [3840, 5820, 8509, 10534, 13549, 15855, 18577, 21176]}, "edge": {"target": [], "time": []}}, "mouseover": {"state": {"target": ["32", "24", "27", "8", "9", "8", "10", "29", "26", "28", "1", "2", "7", "7", "3", "7", "7", "8", "7"], "time": [3605, 4623, 4740, 7677, 8293, 8962, 9095, 12182, 12750, 12796, 13164, 15584, 16136, 18155, 18421, 18939, 20656, 21025, 21523]}, "edge": {"target": [], "time": []}}, "mouseout": {"state": {"target": ["0", "32", "24", "27", "8", "9", "8", "10", "29", "26", "28", "1", "2", "2", "7", "7", "3", "7", "7", "3", "8", "7"], "time": [1938, 4457, 4656, 7461, 8060, 8896, 9032, 11982, 12716, 12781, 12832, 13852, 15946, 16101, 16167, 18203, 18837, 18956, 20691, 20755, 21442, 21557]}, "edge": {"target": [], "time": []}}}, "displayed_time": "27.98", "trialTime": 29302, "trial_type": "mouselab-mdp", "trial_index": 30, "time_elapsed": 954748, "internal_node_id": "0.0-6.0-1.0-21.0"}}, {"uniqueid": "w54851512:a72995169", "current_trial": 31, "dateTime": 1693661279137, "trialdata": {"revealed_states": [], "clicked_states": ["17", "20", "15", "14", "13", "12", "29", "33", "32", "27"], "num_clicks_accrued": [0, 0, 0, 0, 0, 0, 0, 0, 0, 0, 0, 0, 0], "stateRewards": ["", -1, -3, 3, 5, 56, 39, 50, -1, -80, 33, -46, 1, -2, -6, -8, 87, 48, 54, -11, -20, -64, -54, -2, 3, -7, -3, 12, 88, 35, -16, -46, -70, -3], "withholdReward": false, "trial_id": "mdp_trial_23", "block": "test", "trialIndex": 24, "score": 19, "costs": -14.000000000000002, "simulationMode": [null, null, null, null, null], "rewards": [1, -2, -6, -8, 48], "path": ["0", "0", "12", "13", "14", "15", "17"], "rt": [29319, 270, 334, 884, 318], "actions": ["right", "right", "right", "up", "right"], "actionTimes": [30703, 31469, 32300, 33684, 34505], "queries": {"click": {"state": {"target": ["17", "20", "15", "14", "13", "12", "29", "33", "32", "27"], "time": [3766, 5859, 8233, 10156, 12137, 14139, 16536, 18549, 20744, 22813]}, "edge": {"target": [], "time": []}}, "mouseover": {"state": {"target": ["14", "15", "17", "20", "19", "14", "15", "14", "13", "12", "0", "23", "26", "29", "33", "30", "32", "25", "26", "27", "26", "23", "0", "12", "13", "14", "13", "12", "0", "23"], "time": [2653, 2753, 3234, 4286, 6288, 7826, 7975, 8590, 10627, 12527, 16048, 16115, 16216, 16300, 16954, 18954, 20505, 21521, 21572, 21739, 23209, 25008, 25925, 26792, 26895, 26994, 27409, 27443, 27511, 27695]}, "edge": {"target": [], "time": []}}, "mouseout": {"state": {"target": ["12", "0", "14", "15", "17", "20", "19", "14", "15", "14", "13", "12", "0", "23", "26", "29", "33", "30", "32", "25", "26", "27", "26", "23", "0", "12", "13", "14", "13", "12", "0", "23"], "time": [668, 1404, 2684, 3171, 4173, 6208, 7790, 7890, 8541, 10559, 12462, 14513, 16100, 16132, 16267, 16818, 18884, 20439, 20760, 21555, 21654, 23131, 24892, 25044, 26466, 26862, 26943, 27394, 27427, 27477, 27627, 28212]}, "edge": {"target": [], "time": []}}}, "displayed_time": "35.01", "trialTime": 36362, "trial_type": "mouselab-mdp", "trial_index": 31, "time_elapsed": 991559, "internal_node_id": "0.0-6.0-1.0-22.0"}}, {"uniqueid": "w54851512:a72995169", "current_trial": 32, "dateTime": 1693661297161, "trialdata": {"revealed_states": [], "clicked_states": ["5", "9", "29", "33", "32"], "num_clicks_accrued": [0, 0, 0, 0, 0, 0, 0, 0, 0, 0, 0, 0, 0], "stateRewards": ["", -1, -4, -3, 1, -45, -67, -24, 14, 32, 22, 22, -1, 1, -5, -7, 72, 84, -79, -5, 19, -40, -2, -1, -2, 8, -3, 84, -25, -28, 11, 64, -66, 77], "withholdReward": false, "trial_id": "mdp_trial_24", "block": "test", "trialIndex": 25, "score": 86, "costs": -7, "simulationMode": [null, null, null, null, null], "rewards": [-1, -2, 8, 11, 77], "path": ["0", "0", "23", "24", "25", "30", "33"], "rt": [10972, 203, 231, 600, 433], "actions": ["left", "left", "left", "down", "left"], "actionTimes": [12187, 12886, 13615, 14717, 15651], "queries": {"click": {"state": {"target": ["5", "9", "29", "33", "32"], "time": [2598, 4458, 6400, 8234, 9967]}, "edge": {"target": [], "time": []}}, "mouseover": {"state": {"target": ["12", "12", "2", "3", "4", "5", "9", "10", "28", "26", "29", "33", "33", "32"], "time": [1233, 1686, 1902, 2103, 2237, 2388, 2936, 4855, 5065, 5100, 5166, 6758, 7208, 8592]}, "edge": {"target": [], "time": []}}, "mouseout": {"state": {"target": ["14", "13", "12", "0", "0", "12", "12", "2", "3", "4", "5", "9", "9", "10", "28", "26", "29", "33", "33", "32"], "time": [null, null, 84, 202, 750, 1246, 1751, 2004, 2168, 2301, 2731, 4603, 4822, 4875, 5082, 5148, 6691, 6841, 8525, 10586]}, "edge": {"target": [], "time": []}}}, "displayed_time": "16.15", "trialTime": 17532, "trial_type": "mouselab-mdp", "trial_index": 32, "time_elapsed": 1009584, "internal_node_id": "0.0-6.0-1.0-23.0"}}, {"uniqueid": "w54851512:a72995169", "current_trial": 33, "dateTime": 1693661315891, "trialdata": {"revealed_states": [], "clicked_states": ["21", "20", "17", "14", "13"], "num_clicks_accrued": [0, 0, 0, 0, 0, 0, 0, 0, 0, 0, 0, 0, 0], "stateRewards": ["", 2, 4, 7, -6, -76, -81, 2, 5, -66, -3, 36, -2, -4, 6, -2, -69, 4, -49, -6, 67, 38, -67, 2, 1, 1, 6, -68, -21, 52, -16, -16, 6, -70], "withholdReward": false, "trial_id": "mdp_trial_25", "block": "test", "trialIndex": 26, "score": 54, "costs": -7, "simulationMode": [null, null, null, null, null], "rewards": [-2, -4, 6, -6, 67], "path": ["0", "0", "12", "13", "14", "19", "20"], "rt": [12140, 195, 207, 459, 354], "actions": ["right", "right", "right", "down", "right"], "actionTimes": [13538, 14225, 14921, 15877, 16721], "queries": {"click": {"state": {"target": ["21", "20", "17", "14", "13"], "time": [2286, 4151, 6256, 8371, 10710]}, "edge": {"target": [], "time": []}}, "mouseover": {"state": {"target": ["0", "21", "20", "17", "14", "13", "12", "14"], "time": [1417, 2050, 2625, 4654, 7572, 10474, 11079, 12997]}, "edge": {"target": [], "time": []}}, "mouseout": {"state": {"target": ["0", "0", "21", "20", "17", "14", "13", "12", "13", "14"], "time": [1016, 1484, 2302, 4452, 7444, 9360, 11009, 12862, 12912, 17806]}, "edge": {"target": [], "time": []}}}, "displayed_time": "17.22", "trialTime": 18273, "trial_type": "mouselab-mdp", "trial_index": 33, "time_elapsed": 1028313, "internal_node_id": "0.0-6.0-1.0-24.0"}}, {"uniqueid": "w54851512:a72995169", "current_trial": 34, "dateTime": 1693661341215, "trialdata": {"revealed_states": [], "clicked_states": ["16", "9", "5", "29", "33", "32", "21", "20"], "num_clicks_accrued": [0, 0, 0, 0, 0, 0, 0, 0, 0, 0, 0, 0, 0], "stateRewards": ["", 1, 1, 5, 6, -29, -7, 3, -16, 9, -46, 65, -1, 4, -1, -16, -63, -77, -87, 8, 80, -50, 43, -1, -1, -5, 5, -38, -71, -62, 9, 81, -50, -52], "withholdReward": false, "trial_id": "mdp_trial_26", "block": "test", "trialIndex": 27, "score": 78.8, "costs": -11.200000000000001, "simulationMode": [null, null, null, null, null], "rewards": [-1, 4, -1, 8, 80], "path": ["0", "0", "12", "13", "14", "19", "20"], "rt": [18618, 228, 202, 559, 361], "actions": ["right", "right", "right", "down", "right"], "actionTimes": [19928, 20649, 21356, 22414, 23268], "queries": {"click": {"state": {"target": ["16", "9", "5", "29", "33", "32", "21", "20"], "time": [3026, 5051, 6863, 8786, 10665, 12589, 14512, 16909]}, "edge": {"target": [], "time": []}}, "mouseover": {"state": {"target": ["12", "13", "14", "15", "16", "15", "18", "7", "3", "9", "5", "3", "29", "33", "32", "21", "19", "20", "19"], "time": [1365, 2317, 2402, 2532, 2700, 3383, 3800, 3852, 3900, 3968, 5410, 7220, 7404, 9125, 10999, 13244, 14846, 16680, 17368]}, "edge": {"target": [], "time": []}}, "mouseout": {"state": {"target": ["13", "12", "0", "12", "13", "14", "15", "16", "15", "18", "7", "3", "9", "5", "5", "3", "29", "33", "32", "21", "19", "20", "19"], "time": [731, 797, 1331, 1483, 2368, 2470, 2634, 3334, 3400, 3833, 3867, 3917, 5302, 7015, 7172, 7253, 9040, 10915, 12779, 14761, 16631, 17267, 19133]}, "edge": {"target": [], "time": []}}}, "displayed_time": "23.77", "trialTime": 24843, "trial_type": "mouselab-mdp", "trial_index": 34, "time_elapsed": 1053637, "internal_node_id": "0.0-6.0-1.0-25.0"}}, {"uniqueid": "w54851512:a72995169", "current_trial": 35, "dateTime": 1693661364547, "trialdata": {"revealed_states": [], "clicked_states": ["29", "33", "21", "32", "20", "17", "14"], "num_clicks_accrued": [0, 0, 0, 0, 0, 0, 0, 0, 0, 0, 0, 0, 0], "stateRewards": ["", 1, 1, 7, -11, 80, -20, -53, -14, 3, 31, 27, 2, -1, -8, -10, 33, 41, 86, 9, 78, -37, -13, -1, -2, -6, -8, -80, 75, 4, -16, -49, -74, 24], "withholdReward": false, "trial_id": "mdp_trial_27", "block": "test", "trialIndex": 28, "score": 70.2, "costs": -9.8, "simulationMode": [null, null, null, null, null], "rewards": [2, -1, -8, 9, 78], "path": ["0", "0", "12", "13", "14", "19", "20"], "rt": [16616, 17, 125, 600, 306], "actions": ["right", "right", "right", "down", "right"], "actionTimes": [18052, 18570, 19211, 20302, 21112], "queries": {"click": {"state": {"target": ["29", "33", "21", "32", "20", "17", "14"], "time": [3345, 5156, 7091, 8958, 10770, 12750, 15630]}, "edge": {"target": [], "time": []}}, "mouseover": {"state": {"target": ["0", "12", "0", "23", "24", "25", "29", "33", "30", "21", "32", "20", "20", "17", "19", "14"], "time": [1456, 1533, 2584, 2700, 2783, 2883, 3185, 3784, 5437, 5760, 8021, 9425, 9857, 11342, 14896, 15415]}, "edge": {"target": [], "time": []}}, "mouseout": {"state": {"target": ["12", "0", "0", "12", "0", "23", "24", "25", "29", "33", "30", "21", "32", "20", "20", "17", "19", "14"], "time": [665, 699, 1485, 1566, 2668, 2750, 2834, 2983, 3605, 5420, 5470, 7492, 9206, 9440, 11059, 13998, 15349, 16048]}, "edge": {"target": [], "time": []}}}, "displayed_time": "21.61", "trialTime": 22833, "trial_type": "mouselab-mdp", "trial_index": 35, "time_elapsed": 1076970, "internal_node_id": "0.0-6.0-1.0-26.0"}}, {"uniqueid": "w54851512:a72995169", "current_trial": 36, "dateTime": 1693661384494, "trialdata": {"revealed_states": [], "clicked_states": ["9", "5", "2", "3"], "num_clicks_accrued": [0, 0, 0, 0, 0, 0, 0, 0, 0, 0, 0, 0, 0], "stateRewards": ["", -2, 2, -4, -4, -59, 88, 62, -3, 69, -15, -34, 1, -2, -5, 7, -54, -20, 78, -16, -74, -53, -21, 2, -4, 2, 13, -8, -44, 26, 9, 72, 4, 17], "withholdReward": false, "trial_id": "mdp_trial_28", "block": "test", "trialIndex": 29, "score": 56.4, "costs": -5.6, "simulationMode": [null, null, null, null, null], "rewards": [-2, 2, -4, -3, 69], "path": ["0", "0", "1", "2", "3", "8", "9"], "rt": [12743, 382, 231, 666, 352], "actions": ["up", "up", "up", "left", "up"], "actionTimes": [14320, 15207, 15941, 17109, 17964], "queries": {"click": {"state": {"target": ["9", "5", "2", "3"], "time": [2594, 6735, 9197, 11480]}, "edge": {"target": [], "time": []}}, "mouseover": {"state": {"target": ["12", "13", "2", "3", "9", "5", "6", "15", "18", "7", "4", "5", "4", "2", "1", "3", "7"], "time": [1596, 1694, 2113, 2176, 2379, 2953, 4663, 4866, 6180, 6347, 6447, 6531, 7015, 7158, 9810, 11254, 11837]}, "edge": {"target": [], "time": []}}, "mouseout": {"state": {"target": ["16", "18", "12", "12", "13", "2", "3", "9", "5", "6", "15", "18", "7", "4", "5", "4", "2", "1", "2", "3", "7"], "time": [409, 825, 994, 1662, 1995, 2133, 2191, 2814, 4598, 4697, 6114, 6215, 6381, 6498, 6966, 7032, 9518, 11153, 11206, 11762, 19094]}, "edge": {"target": [], "time": []}}}, "displayed_time": "18.46", "trialTime": 19482, "trial_type": "mouselab-mdp", "trial_index": 36, "time_elapsed": 1096916, "internal_node_id": "0.0-6.0-1.0-27.0"}}, {"uniqueid": "w54851512:a72995169", "current_trial": 37, "dateTime": 1693661404689, "trialdata": {"revealed_states": [], "clicked_states": ["27", "9", "5", "17", "2", "3"], "num_clicks_accrued": [0, 0, 0, 0, 0, 0, 0, 0, 0, 0, 0, 0, 0], "stateRewards": ["", 2, -4, -8, -15, 71, -43, -41, 7, -17, 20, 67, -1, -1, -4, 6, 37, -24, -47, 9, 34, 57, 45, 1, 2, -4, -5, -23, 88, -5, 13, -40, 43, 44], "withholdReward": false, "trial_id": "mdp_trial_29", "block": "test", "trialIndex": 30, "score": 37.6, "costs": -8.4, "simulationMode": [null, null, null, null, null], "rewards": [2, -4, -8, -15, 71], "path": ["0", "0", "1", "2", "3", "4", "5"], "rt": [13410, 58, 45, 634, 388], "actions": ["up", "up", "up", "right", "up"], "actionTimes": [14771, 15333, 15886, 17009, 17898], "queries": {"click": {"state": {"target": ["27", "9", "5", "17", "2", "3"], "time": [3000, 4879, 6431, 8422, 10155, 12044]}, "edge": {"target": [], "time": []}}, "mouseover": {"state": {"target": ["0", "0", "1", "26", "27", "11", "9", "5", "6", "16", "15", "17", "20", "19", "13", "2", "3", "16"], "time": [1383, 1627, 1694, 2027, 2294, 3710, 3843, 5222, 6966, 7064, 7113, 7334, 8949, 9219, 9300, 9428, 10867, 12469]}, "edge": {"target": [], "time": []}}, "mouseout": {"state": {"target": ["7", "1", "0", "0", "1", "26", "27", "11", "9", "5", "6", "16", "15", "17", "20", "19", "13", "2", "3", "3", "16", "15", "13", "22"], "time": [589, 740, 1442, 1659, 1727, 2209, 3610, 3726, 5101, 6915, 7013, 7080, 7150, 8850, 9049, 9266, 9321, 10800, 12234, 12336, 19245, 19312, 19361, 19394]}, "edge": {"target": [], "time": []}}}, "displayed_time": "18.39", "trialTime": 19722, "trial_type": "mouselab-mdp", "trial_index": 37, "time_elapsed": 1117112, "internal_node_id": "0.0-6.0-1.0-28.0"}}, {"uniqueid": "w54851512:a72995169", "current_trial": 38, "dateTime": 1693661429010, "trialdata": {"revealed_states": [], "clicked_states": ["20", "14", "12", "17", "21", "16"], "num_clicks_accrued": [0, 0, 0, 0, 0, 0, 0, 0, 0, 0, 0, 0, 0], "stateRewards": ["", -2, 1, -8, 12, -65, -79, 16, 7, -80, -17, -45, -2, 2, -5, -2, -85, 23, -4, -7, 48, 27, -76, 2, 3, 5, 2, 43, 71, -13, 7, -49, 59, -31], "withholdReward": false, "trial_id": "mdp_trial_30", "block": "test", "trialIndex": 31, "score": 27.6, "costs": -8.4, "simulationMode": [null, null, null, null, null], "rewards": [-2, 2, -5, -7, 48], "path": ["0", "0", "12", "13", "14", "19", "20"], "rt": [17840, 409, 183, 618, 325], "actions": ["right", "right", "right", "down", "right"], "actionTimes": [18970, 19892, 20591, 21714, 22536], "queries": {"click": {"state": {"target": ["20", "14", "12", "17", "21", "16"], "time": [2114, 5027, 7446, 9763, 12531, 15323]}, "edge": {"target": [], "time": []}}, "mouseover": {"state": {"target": ["12", "19", "20", "21", "33", "30", "21", "19", "14", "13", "12", "13", "17", "21", "19", "15", "16", "18", "13"], "time": [1307, 1456, 1938, 2516, 2874, 4161, 4340, 4591, 4761, 5475, 7280, 8211, 9597, 12332, 14702, 14954, 15104, 15802, 18206]}, "edge": {"target": [], "time": []}}, "mouseout": {"state": {"target": ["0", "12", "19", "20", "21", "33", "30", "21", "19", "14", "13", "12", "13", "17", "21", "19", "15", "16", "18", "13"], "time": [755, 1322, 1704, 2424, 2562, 4159, 4191, 4542, 4642, 5412, 7228, 8162, 9382, 10087, 12819, 14736, 15002, 15611, 18156, 18324]}, "edge": {"target": [], "time": []}}}, "displayed_time": "23.03", "trialTime": 23818, "trial_type": "mouselab-mdp", "trial_index": 38, "time_elapsed": 1141433, "internal_node_id": "0.0-6.0-1.0-29.0"}}, {"uniqueid": "w54851512:a72995169", "current_trial": 39, "dateTime": 1693661457880, "trialdata": {"revealed_states": [], "clicked_states": ["29", "33", "32", "21", "20", "17", "16", "5", "9"], "num_clicks_accrued": [0, 0, 0, 0, 0, 0, 0, 0, 0, 0, 0, 0, 0], "stateRewards": ["", 1, 4, 5, -5, 58, -80, 75, 6, 25, -39, 46, 2, -2, 4, 2, 59, 31, -22, -12, -61, 15, 72, 1, -2, -7, 8, 77, 76, -23, -7, 71, -15, -3], "withholdReward": false, "trial_id": "mdp_trial_31", "block": "test", "trialIndex": 32, "score": 50.4, "costs": -12.600000000000001, "simulationMode": [null, null, null, null, null], "rewards": [1, 4, 5, -5, 58], "path": ["0", "0", "1", "2", "3", "4", "5"], "rt": [21490, 99, 1324, 549, 421], "actions": ["up", "up", "up", "right", "up"], "actionTimes": [22628, 23225, 25047, 26093, 27015], "queries": {"click": {"state": {"target": ["29", "33", "32", "21", "20", "17", "16", "5", "9"], "time": [3263, 5210, 7032, 8933, 10947, 12972, 14873, 17630, 19688]}, "edge": {"target": [], "time": []}}, "mouseover": {"state": {"target": ["4", "9", "9", "11", "26", "29", "33", "32", "21", "20", "17", "17", "16", "15", "18", "6", "6", "5", "9", "3", "7", "16"], "time": [1949, 2035, 2150, 2668, 2800, 2883, 3938, 5557, 7784, 9356, 11295, 11551, 13383, 15488, 15646, 16900, 17133, 17417, 18105, 20501, 21805, 21870]}, "edge": {"target": [], "time": []}}, "mouseout": {"state": {"target": ["6", "0", "4", "9", "9", "11", "26", "29", "33", "32", "21", "20", "17", "17", "16", "16", "15", "18", "6", "6", "5", "9", "9", "3", "7", "16"], "time": [116, 1159, 1965, 2052, 2634, 2703, 2851, 3515, 5452, 7270, 9258, 11125, 11358, 13214, 15109, 15447, 15566, 16583, 16932, 17198, 17915, 19882, 20336, 20551, 21820, 21906]}, "edge": {"target": [], "time": []}}}, "displayed_time": "27.51", "trialTime": 28356, "trial_type": "mouselab-mdp", "trial_index": 39, "time_elapsed": 1170303, "internal_node_id": "0.0-6.0-1.0-30.0"}}, {"uniqueid": "w54851512:a72995169", "current_trial": 40, "dateTime": 1693661488377, "trialdata": {"revealed_states": [], "clicked_states": ["11", "6", "5", "9", "17", "20", "16", "21", "25", "33"], "num_clicks_accrued": [0, 0, 0, 0, 0, 0, 0, 0, 0, 0, 0, 0, 0], "stateRewards": ["", 2, -4, 7, 3, 23, -42, 4, 7, -81, -33, 7, -2, -4, 5, -1, 50, -57, -14, -13, -14, 44, 55, -2, -2, 5, -2, 33, 1, 57, -13, -7, 58, 87], "withholdReward": false, "trial_id": "mdp_trial_32", "block": "test", "trialIndex": 33, "score": 61, "costs": -14.000000000000002, "simulationMode": [null, null, null, null, null], "rewards": [-2, -2, 5, -13, 87], "path": ["0", "0", "23", "24", "25", "30", "33"], "rt": [23928, 159, 235, 214, 585], "actions": ["left", "left", "left", "down", "left"], "actionTimes": [25248, 25912, 26642, 27351, 28442], "queries": {"click": {"state": {"target": ["11", "6", "5", "9", "17", "20", "16", "21", "25", "33"], "time": [2541, 4498, 6175, 8863, 11307, 13184, 15062, 17166, 20170, 22094]}, "edge": {"target": [], "time": []}}, "mouseover": {"state": {"target": ["1", "11", "2", "7", "6", "5", "5", "9", "3", "12", "14", "17", "20", "15", "16", "15", "14", "19", "21", "24", "25", "33", "30", "30", "31"], "time": [1978, 2327, 2977, 3011, 3327, 5014, 5281, 6532, 9539, 9723, 10918, 11071, 11720, 13571, 13688, 15339, 15390, 15440, 15491, 19844, 19944, 20863, 22801, 23916, 24150]}, "edge": {"target": [], "time": []}}, "mouseout": {"state": {"target": ["15", "13", "22", "0", "1", "11", "2", "7", "6", "5", "5", "5", "9", "3", "12", "14", "17", "20", "15", "16", "15", "14", "19", "21", "21", "24", "25", "33", "30", "30", "31"], "time": [190, 291, 744, 1341, 2010, 2864, 2994, 3194, 4946, 5046, 6342, 6448, 9184, 9609, 9774, 10953, 11573, 13426, 13605, 15306, 15374, 15423, 15474, 17478, 19479, 19860, 20696, 22698, 22933, 24102, 24165]}, "edge": {"target": [], "time": []}}}, "displayed_time": "28.94", "trialTime": 29983, "trial_type": "mouselab-mdp", "trial_index": 40, "time_elapsed": 1200800, "internal_node_id": "0.0-6.0-1.0-31.0"}}, {"uniqueid": "w54851512:a72995169", "current_trial": 41, "dateTime": 1693661520451, "trialdata": {"revealed_states": [], "clicked_states": ["33", "32", "21", "20", "17", "16", "9", "5", "27", "29", "23"], "num_clicks_accrued": [0, 0, 0, 0, 0, 0, 0, 0, 0, 0, 0, 0, 0], "stateRewards": ["", -1, 2, -2, 5, 80, -61, -27, 12, 44, -26, -75, -2, -4, 1, -16, 42, -49, -50, 4, -44, 2, 80, -2, -2, 5, -2, 59, 10, 24, 7, -48, -86, -44], "withholdReward": false, "trial_id": "mdp_trial_33", "block": "test", "trialIndex": 34, "score": 42.599999999999994, "costs": -15.400000000000002, "simulationMode": [null, null, null, null, null], "rewards": [-2, -2, 5, -2, 59], "path": ["0", "0", "23", "24", "25", "26", "27"], "rt": [25010, 116, 161, 613, 228], "actions": ["left", "left", "left", "up", "up"], "actionTimes": [26378, 26997, 27660, 28762, 29495], "queries": {"click": {"state": {"target": ["33", "32", "21", "20", "17", "16", "9", "5", "27", "29", "23"], "time": [3491, 5358, 7193, 9105, 11018, 12953, 15304, 16935, 18577, 20625, 23831]}, "edge": {"target": [], "time": []}}, "mouseover": {"state": {"target": ["1", "0", "32", "33", "29", "33", "32", "21", "21", "20", "17", "16", "6", "5", "9", "5", "3", "8", "27", "26", "25", "29", "26", "24", "23", "0", "12"], "time": [1705, 1838, 1972, 2320, 2837, 3089, 3789, 5908, 6149, 7812, 9494, 11665, 14017, 14114, 14349, 15716, 18021, 18057, 18412, 19089, 19204, 19559, 21058, 23161, 23211, 24443, 24844]}, "edge": {"target": [], "time": []}}, "mouseout": {"state": {"target": ["0", "1", "0", "32", "33", "29", "33", "32", "32", "21", "21", "20", "17", "16", "6", "5", "9", "5", "3", "8", "27", "26", "25", "29", "26", "24", "23", "0", "12"], "time": [1002, 1804, 1854, 2005, 2622, 2989, 3726, 5523, 5626, 5974, 7709, 9319, 11125, 13751, 14040, 14239, 15606, 17953, 18039, 18091, 19038, 19141, 19373, 21006, 21095, 23177, 24395, 24511, 31366]}, "edge": {"target": [], "time": []}}}, "displayed_time": "29.98", "trialTime": 31552, "trial_type": "mouselab-mdp", "trial_index": 41, "time_elapsed": 1232873, "internal_node_id": "0.0-6.0-1.0-32.0"}}, {"uniqueid": "w54851512:a72995169", "current_trial": 42, "dateTime": 1693661542411, "trialdata": {"revealed_states": [], "clicked_states": ["20", "5", "29", "33", "9"], "num_clicks_accrued": [0, 0, 0, 0, 0, 0, 0, 0, 0, 0, 0, 0, 0], "stateRewards": ["", 2, 3, -6, -5, -3, 55, 40, 11, 61, 11, 51, 2, -4, -6, 9, -25, 29, -15, -6, 7, -77, -2, -2, -4, 1, 14, -43, -1, 56, -12, -54, 41, -74], "withholdReward": false, "trial_id": "mdp_trial_34", "block": "test", "trialIndex": 35, "score": 64, "costs": -7, "simulationMode": [null, null, null, null, null], "rewards": [2, 3, -6, 11, 61], "path": ["0", "0", "1", "2", "3", "8", "9"], "rt": [15314, 485, 157, 539, 346], "actions": ["up", "up", "up", "left", "up"], "actionTimes": [16511, 17500, 18154, 19188, 20031], "queries": {"click": {"state": {"target": ["20", "5", "29", "33", "9"], "time": [2794, 5380, 7327, 9689, 12355]}, "edge": {"target": [], "time": []}}, "mouseover": {"state": {"target": ["19", "20", "17", "16", "4", "5", "9", "11", "27", "29", "33", "31", "10", "8", "9", "9", "3", "2", "12"], "time": [1312, 2581, 3371, 4900, 4982, 5151, 5818, 5984, 6069, 6484, 8090, 11590, 11690, 11725, 11807, 12173, 12681, 12716, 12831]}, "edge": {"target": [], "time": []}}, "mouseout": {"state": {"target": ["12", "0", "19", "20", "17", "16", "4", "5", "9", "11", "27", "29", "29", "33", "31", "10", "8", "9", "9", "3", "2", "12"], "time": [696, 1218, 2530, 3230, 4851, 4916, 5033, 5516, 5869, 6000, 6156, 7485, 7608, 9979, 11607, 11724, 11757, 11857, 12633, 12699, 12732, 21051]}, "edge": {"target": [], "time": []}}}, "displayed_time": "20.54", "trialTime": 21471, "trial_type": "mouselab-mdp", "trial_index": 42, "time_elapsed": 1254834, "internal_node_id": "0.0-6.0-1.0-33.0"}}, {"uniqueid": "w54851512:a72995169", "current_trial": 43, "dateTime": 1693661566332, "trialdata": {"revealed_states": [], "clicked_states": ["17", "20", "5", "9", "29", "33", "32"], "num_clicks_accrued": [0, 0, 0, 0, 0, 0, 0, 0, 0, 0, 0, 0, 0], "stateRewards": ["", 2, -3, -4, -1, 25, -16, 16, 10, -71, -20, -55, 1, 3, -4, -9, 1, 32, 11, -6, 32, -50, -41, -1, 4, 4, -8, 7, -81, 70, 2, -52, 45, -10], "withholdReward": false, "trial_id": "mdp_trial_35", "block": "test", "trialIndex": 36, "score": 59.2, "costs": -9.8, "simulationMode": [null, null, null, null, null], "rewards": [-1, 4, 4, -8, 70], "path": ["0", "0", "23", "24", "25", "26", "29"], "rt": [17360, 140, 213, 746, 340], "actions": ["left", "left", "left", "up", "left"], "actionTimes": [18461, 19102, 19809, 21058, 21901], "queries": {"click": {"state": {"target": ["17", "20", "5", "9", "29", "33", "32"], "time": [2447, 4134, 6564, 8399, 10277, 12358, 15362]}, "edge": {"target": [], "time": []}}, "mouseover": {"state": {"target": ["0", "12", "13", "14", "17", "20", "19", "22", "4", "5", "9", "26", "29", "33", "33", "31", "23", "31", "32"], "time": [1323, 1806, 1873, 1941, 2290, 2991, 4884, 5261, 6196, 6328, 6881, 8854, 8939, 10648, 10799, 13881, 14069, 15006, 15136]}, "edge": {"target": [], "time": []}}, "mouseout": {"state": {"target": ["0", "0", "12", "13", "14", "17", "20", "19", "22", "4", "5", "9", "26", "29", "33", "33", "31", "23", "31", "32"], "time": [672, 1790, 1839, 1906, 2141, 2799, 4834, 5226, 5327, 6244, 6783, 8650, 8888, 10548, 10700, 12772, 13936, 14922, 15039, 15575]}, "edge": {"target": [], "time": []}}}, "displayed_time": "22.39", "trialTime": 23412, "trial_type": "mouselab-mdp", "trial_index": 43, "time_elapsed": 1278754, "internal_node_id": "0.0-6.0-1.0-34.0"}}, {"uniqueid": "w54851512:a72995169", "current_trial": 44, "dateTime": 1693661583227, "trialdata": {"revealed_states": [], "clicked_states": ["9", "29"], "num_clicks_accrued": [0, 0, 0, 0, 0, 0, 0, 0, 0, 0, 0, 0, 0], "stateRewards": ["", 1, 4, 5, 8, -55, -11, 8, 16, -37, 77, -22, -2, 3, -8, -10, 45, 87, -67, 4, 17, -33, -22, -1, -3, 7, 6, -39, -85, 75, -1, 7, -48, 45], "withholdReward": false, "trial_id": "mdp_trial_36", "block": "test", "trialIndex": 37, "score": 81.2, "costs": -2.8, "simulationMode": [null, null, null, null, null], "rewards": [-1, -3, 7, 6, 75], "path": ["0", "0", "23", "24", "25", "26", "29"], "rt": [6559, 161, 271, 504, 143], "actions": ["left", "left", "left", "up", "left"], "actionTimes": [7845, 8499, 9262, 10263, 10904], "queries": {"click": {"state": {"target": ["9", "29"], "time": [2790, 4635]}, "edge": {"target": [], "time": []}}, "mouseover": {"state": {"target": ["13", "9", "9", "11", "27", "29", "33"], "time": [1798, 2013, 2431, 3367, 3471, 3721, 4971]}, "edge": {"target": [], "time": []}}, "mouseout": {"state": {"target": ["0", "13", "9", "9", "11", "27", "29", "33"], "time": [812, 1848, 2200, 3273, 3386, 3490, 4859, 7252]}, "edge": {"target": [], "time": []}}}, "displayed_time": "15.30", "trialTime": 16406, "trial_type": "mouselab-mdp", "trial_index": 44, "time_elapsed": 1295650, "internal_node_id": "0.0-6.0-1.0-35.0"}}, {"uniqueid": "w54851512:a72995169", "current_trial": 45, "dateTime": 1693661602318, "trialdata": {"revealed_states": [], "clicked_states": ["20", "21", "16", "5", "9"], "num_clicks_accrued": [0, 0, 0, 0, 0, 0, 0, 0, 0, 0, 0, 0, 0], "stateRewards": ["", 1, -4, -6, -1, -21, 17, -72, 10, 77, 67, -46, -1, 4, -2, 14, -66, -49, -45, -15, -52, 23, -67, 2, -2, -2, 15, -3, 45, -64, 5, -44, 83, 61], "withholdReward": false, "trial_id": "mdp_trial_37", "block": "test", "trialIndex": 38, "score": 71, "costs": -7, "simulationMode": [null, null, null, null, null], "rewards": [1, -4, -6, 10, 77], "path": ["0", "0", "1", "2", "3", "8", "9"], "rt": [11985, 46, 57, 545, 303], "actions": ["up", "up", "up", "left", "up"], "actionTimes": [13931, 14472, 15032, 16090, 16900], "queries": {"click": {"state": {"target": ["20", "21", "16", "5", "9"], "time": [2869, 4972, 6963, 8875, 10754]}, "edge": {"target": [], "time": []}}, "mouseover": {"state": {"target": ["21", "20", "21", "17", "16", "16", "6", "5", "9", "9", "26", "29", "26", "28", "18"], "time": [2428, 2646, 3226, 5430, 5514, 5732, 7543, 7818, 9237, 9569, 11160, 11312, 13008, 13056, 13206]}, "edge": {"target": [], "time": []}}, "mouseout": {"state": {"target": ["30", "32", "0", "21", "20", "21", "20", "17", "16", "16", "6", "5", "9", "9", "26", "29", "26", "28"], "time": [259, 442, 1967, 2461, 3176, 5232, 5332, 5464, 5600, 7475, 7577, 9119, 9322, 11012, 11246, 12974, 13039, 13072]}, "edge": {"target": [], "time": []}}}, "displayed_time": "17.40", "trialTime": 18576, "trial_type": "mouselab-mdp", "trial_index": 45, "time_elapsed": 1314741, "internal_node_id": "0.0-6.0-1.0-36.0"}}, {"uniqueid": "w54851512:a72995169", "current_trial": 46, "dateTime": 1693661626562, "trialdata": {"revealed_states": [], "clicked_states": ["32", "33", "29", "17", "20", "21"], "num_clicks_accrued": [0, 0, 0, 0, 0, 0, 0, 0, 0, 0, 0, 0, 0], "stateRewards": ["", 1, 2, -8, 9, 18, -83, -11, 6, -64, -48, 17, -2, -2, -5, -3, -24, -3, -86, -2, 48, -41, -22, -2, 4, 7, 8, 81, 13, -48, 10, 61, 19, 57], "withholdReward": false, "trial_id": "mdp_trial_38", "block": "test", "trialIndex": 39, "score": -39.4, "costs": -8.4, "simulationMode": [null, null, null, null, null], "rewards": [-2, 4, 7, 8, -48], "path": ["0", "0", "23", "24", "25", "26", "29"], "rt": [15906, 111, 154, 1473, 516], "actions": ["left", "left", "left", "up", "left"], "actionTimes": [17269, 17878, 18539, 20508, 21521], "queries": {"click": {"state": {"target": ["32", "33", "29", "17", "20", "21"], "time": [2674, 4777, 6949, 9412, 11325, 13710]}, "edge": {"target": [], "time": []}}, "mouseover": {"state": {"target": ["32", "29", "33", "33", "29", "27", "11", "9", "3", "7", "18", "15", "17", "20", "20", "21"], "time": [2383, 3317, 3786, 4034, 5170, 7329, 7413, 7712, 8857, 8907, 8938, 8990, 9208, 9779, 10077, 11641]}, "edge": {"target": [], "time": []}}, "mouseout": {"state": {"target": ["18", "12", "0", "32", "29", "33", "33", "29", "27", "11", "9", "3", "7", "18", "15", "17", "20", "20", "21", "21"], "time": [195, 815, 1385, 2814, 3683, 3857, 4925, 7200, 7362, 7478, 8823, 8873, 8923, 8972, 9022, 9678, 9813, 11558, 14361, 16365]}, "edge": {"target": [], "time": []}}}, "displayed_time": "22.02", "trialTime": 23737, "trial_type": "mouselab-mdp", "trial_index": 46, "time_elapsed": 1338985, "internal_node_id": "0.0-6.0-1.0-37.0"}}, {"uniqueid": "w54851512:a72995169", "current_trial": 47, "dateTime": 1693661646610, "trialdata": {"revealed_states": [], "clicked_states": ["20", "21", "16", "5", "9"], "num_clicks_accrued": [0, 0, 0, 0, 0, 0, 0, 0, 0, 0, 0, 0, 0], "stateRewards": ["", 2, 4, -5, 7, 81, 35, 6, 11, 14, -72, 42, -1, 2, 3, -7, -77, -44, -40, -15, -85, 51, -32, -2, -1, -5, 7, -74, 47, 52, 16, -49, 48, -46], "withholdReward": false, "trial_id": "mdp_trial_39", "block": "test", "trialIndex": 40, "score": 82, "costs": -7, "simulationMode": [null, null, null, null, null], "rewards": [2, 4, -5, 7, 81], "path": ["0", "0", "1", "2", "3", "4", "5"], "rt": [13342, 42, 99, 569, 359], "actions": ["up", "up", "up", "right", "up"], "actionTimes": [14969, 15510, 16104, 17173, 18028], "queries": {"click": {"state": {"target": ["20", "21", "16", "5", "9"], "time": [3501, 5560, 8260, 11207, 13041]}, "edge": {"target": [], "time": []}}, "mouseover": {"state": {"target": ["0", "22", "20", "21", "17", "16", "17", "6", "4", "5", "9", "8", "1", "18"], "time": [2170, 3004, 3338, 3906, 6306, 8043, 8776, 10696, 10729, 10981, 11915, 13764, 13882, 14131]}, "edge": {"target": [], "time": []}}, "mouseout": {"state": {"target": ["0", "0", "22", "20", "21", "17", "16", "17", "16", "6", "4", "5", "9", "8", "1", "18"], "time": [1651, 2920, 3037, 3837, 5829, 7991, 8661, 10595, 10645, 10714, 10763, 11429, 13748, 13780, 14082, 14150]}, "edge": {"target": [], "time": []}}}, "displayed_time": "18.52", "trialTime": 19547, "trial_type": "mouselab-mdp", "trial_index": 47, "time_elapsed": 1359032, "internal_node_id": "0.0-6.0-1.0-38.0"}}, {"uniqueid": "w54851512:a72995169", "current_trial": 48, "dateTime": 1693661664601, "trialdata": {"revealed_states": [], "clicked_states": ["29", "33", "9", "5"], "num_clicks_accrued": [0, 0, 0, 0, 0, 0, 0, 0, 0, 0, 0, 0, 0], "stateRewards": ["", -2, 2, 3, -7, 76, 63, 21, 15, 35, -8, -44, 1, 1, -2, -12, 23, 24, 76, -9, 46, 66, -49, -2, -1, 7, 12, 40, -71, -45, -6, 38, -49, 46], "withholdReward": false, "trial_id": "mdp_trial_40", "block": "test", "trialIndex": 41, "score": 66.4, "costs": -5.6, "simulationMode": [null, null, null, null, null], "rewards": [-2, 2, 3, -7, 76], "path": ["0", "0", "1", "2", "3", "4", "5"], "rt": [10961, 334, 155, 695, 376], "actions": ["up", "up", "up", "right", "up"], "actionTimes": [12411, 13242, 13896, 15109, 15987], "queries": {"click": {"state": {"target": ["29", "33", "9", "5"], "time": [3091, 5071, 7276, 9335]}, "edge": {"target": [], "time": []}}, "mouseover": {"state": {"target": ["22", "1", "28", "26", "29", "29", "33", "30", "31", "0", "10", "8", "9", "5", "6", "16", "17"], "time": [1794, 2479, 2528, 2561, 2695, 2877, 3486, 5356, 5409, 5697, 5781, 5832, 6014, 7658, 9679, 9760, 9826]}, "edge": {"target": [], "time": []}}, "mouseout": {"state": {"target": ["13", "12", "0", "22", "1", "28", "26", "29", "29", "29", "33", "30", "31", "0", "10", "8", "9", "5", "6", "16", "17"], "time": [661, 841, 1693, 1844, 2495, 2545, 2646, 2797, 3110, 3338, 5339, 5390, 5428, 5715, 5798, 5881, 7395, 9635, 9695, 9793, 9860]}, "edge": {"target": [], "time": []}}}, "displayed_time": "16.48", "trialTime": 17508, "trial_type": "mouselab-mdp", "trial_index": 48, "time_elapsed": 1377024, "internal_node_id": "0.0-6.0-1.0-39.0"}}, {"uniqueid": "w54851512:a72995169", "current_trial": 49, "dateTime": 1693661704292, "trialdata": {"rt": 39689, "response": {"Q0": "$-2 to $2", "Q1": "$-16 to $16", "Q2": "$-88 to $88", "Q3": "The cost for clicking on nodes varied between nodes.", "Q4": "Very motivated"}, "question_order": [0, 1, 2, 3, 4], "trial_id": "final_quiz_control", "trial_type": "survey-multi-choice", "trial_index": 49, "time_elapsed": 1416715, "internal_node_id": "0.0-6.0-2.0"}}, {"uniqueid": "w54851512:a72995169", "current_trial": 50, "dateTime": 1693662224599, "trialdata": {"rt": 520320, "response": {"Q0": "First few attempts were just to see how it went and see if I learnt anything. I ended up clicking on the furthest points and picking the largest number to aim for without clicking on too many nodes to check.", "Q1": "I realised the furthest nodes had the largest points (both + and -) and picking the largest +number to aim for without clicking on too many nodes in between to check.", "Q2": "Obviously there wasn't enough time to check all the nodes, plus each check cost points so it was just a matter of aiming for the largest points uncovered for the least nodes checked as quickly as possible."}, "trial_id": "self_report_control", "trial_type": "survey-text", "trial_index": 50, "time_elapsed": 1937022, "internal_node_id": "0.0-6.0-3.0"}}, {"uniqueid": "w54851512:a72995169", "current_trial": 51, "dateTime": 1693662241788, "trialdata": {"rt": 17183, "response": {"gender": "female", "age": "66", "colorblind": "0", "effort": "0"}, "trial_type": "survey-html-form", "trial_index": 51, "time_elapsed": 1954211, "internal_node_id": "0.0-6.0-4.0"}}, {"uniqueid": "w54851512:a72995169", "current_trial": 52, "dateTime": 1693662271836, "trialdata": {"rt": 30046, "response": {"Q0": "No. ", "Q1": "No", "Q2": "I enjoyed it!"}, "trial_type": "survey-text", "trial_index": 52, "time_elapsed": 1984259, "internal_node_id": "0.0-6.0-5.0"}}, {"uniqueid": "w54851512:a72995169", "current_trial": 53, "dateTime": 1693662322068, "trialdata": {"rt": 50230, "stimulus": "<h1>Completion Code Instructions (1/2)</h1>\n<br><br><br><br>\nYou have reached the end of the experiment! The completion code consists of two parts: (1) a code with 2 characters (2) a code with 6 characters. On this page, you will receive the second part of the code. The first part of the completion code will be on the next page.\n<br><br>\nThe second part of your completion code is: <b>EWEK22</b>\n<br><br>\nPlease note this down. Then, press 'Next' in order to find the first part of your completion code. Once the data has been saved, you will receive this code either in this window or in the original browser window where you started the experiment.\n <br><br>\n<h2 style='color: red;'>Note: this is <strong>NOT</strong> the full completion code. Copy this down and click 'Next' to get the full completion code on the next page.</h2>", "response": 0, "trial_type": "html-button-response", "trial_index": 53, "time_elapsed": 2034491, "internal_node_id": "0.0-6.0-6.0"}}, {"uniqueid": "w54851512:a72995169", "current_trial": 54, "dateTime": 1693662323074, "trialdata": {"success": true, "trial_type": "fullscreen", "trial_index": 54, "time_elapsed": 2035497, "internal_node_id": "0.0-7.0"}}], "questiondata": {"params": {"CODE": "C6DMOQA6", "MIN_TIME": 14, "inspectCost": 1, "startTime": "Sat Sep 02 2023 14:11:26 GMT+0100 (British Summer Time)", "bonusRate": 0.002, "variance": "1_2_4_8_44", "branching": "31123"}, "final_score": 1458}, "eventdata": [{"eventtype": "initialized", "value": null, "timestamp": 1693660286465, "interval": 0}, {"eventtype": "window_resize", "value": [1024, 767], "timestamp": 1693660286465, "interval": 0}, {"eventtype": "window_resize", "value": [1024, 767], "timestamp": 1693660286803, "interval": 338}, {"eventtype": "window_resize", "value": [1920, 1080], "timestamp": 1693660291516, "interval": 4713}, {"eventtype": "window_resize", "value": [1024, 767], "timestamp": 1693662322308, "interval": 2030792}], "useragent": "Mozilla/5.0 (Macintosh; Intel Mac OS X 10_15_7) AppleWebKit/537.36 (KHTML, like Gecko) Chrome/116.0.0.0 Safari/537.36", "mode": "live", "id": "w54851512:a72995169", "status": "user data saved", "Beginhit": "2023-09-02 13:11:25.345529", "Beginexp": "2023-09-02 13:11:32.375018", "Endhit": "2023-09-02 13:45:23.555323", "psiturkStatus": 3, "browser": "<redacted>", "platform": "macos", "language": "en-GB"}