{"condition": 0, "counterbalance": 0, "assignmentId": "a32660917", "workerId": "w58899451", "hitId": "h87384060", "currenttrial": 55, "bonus": 0, "data": [{"uniqueid": "w58899451:a32660917", "current_trial": 0, "dateTime": 1691142193960, "trialdata": {"success": true, "trial_type": "fullscreen", "trial_index": 0, "time_elapsed": 3961, "internal_node_id": "0.0-0.0"}}, {"uniqueid": "w58899451:a32660917", "current_trial": 1, "dateTime": 1691142201417, "trialdata": {"view_history": [{"page_index": 0, "viewing_time": 7443}], "rt": 7444, "trial_id": "exp_instructions_control", "trial_type": "instructions", "trial_index": 1, "time_elapsed": 11418, "internal_node_id": "0.0-1.0"}}, {"uniqueid": "w58899451:a32660917", "current_trial": 2, "dateTime": 1691142204584, "trialdata": {"success": true, "trial_type": "fullscreen", "trial_index": 2, "time_elapsed": 14585, "internal_node_id": "0.0-2.0-0.0"}}, {"uniqueid": "w58899451:a32660917", "current_trial": 3, "dateTime": 1691142297607, "trialdata": {"view_history": [{"page_index": 0, "viewing_time": 40281}, {"page_index": 1, "viewing_time": 23096}, {"page_index": 2, "viewing_time": 14112}, {"page_index": 3, "viewing_time": 15520}], "rt": 93010, "trial_id": "mouselab_instructions_1_control", "trial_type": "instructions", "trial_index": 3, "time_elapsed": 107607, "internal_node_id": "0.0-2.0-1.0"}}, {"uniqueid": "w58899451:a32660917", "current_trial": 4, "dateTime": 1691142332042, "trialdata": {"revealed_states": [], "clicked_states": ["23", "24", "25", "30", "33", "32"], "num_clicks_accrued": [0, 0, 0, 0, 0, 0, 0, 0, 0, 0, 0, 0, 0], "stateRewards": ["", 10, 10, -10, 10, 10, 10, -10, 10, -10, 10, -10, -10, 10, 10, 10, -10, 10, -10, -10, 10, -10, -10, 10, -10, -10, 10, 10, 10, 10, 10, -10, 10, -10], "withholdReward": false, "trial_id": "practice_1", "block": "test", "trialIndex": 0, "score": 10.5, "costs": -3, "simulationMode": [null, null, null, null, null], "rewards": [10, -10, -10, 10, 10], "path": ["0", "0", "23", "24", "25", "30", "32"], "rt": [25505, 107, 99, 120, 130], "actions": ["left", "left", "left", "down", "down"], "actionTimes": [27876, 28505, 29129, 29760, 30409], "queries": {"click": {"state": {"target": ["23", "24", "25", "30", "33", "32"], "time": [6637, 8154, 11525, 13338, 15150, 23759]}, "edge": {"target": [], "time": []}}, "mouseover": {"state": {"target": ["23", "23", "23", "24", "25", "25", "30", "33", "31", "31", "33", "33", "32", "31", "24", "23"], "time": [4625, 5825, 6357, 7393, 8435, 10374, 12144, 14525, 16675, 17180, 20530, 21091, 23031, 26044, 26810, 26908]}, "edge": {"target": [], "time": []}}, "mouseout": {"state": {"target": ["0", "23", "23", "23", "24", "25", "25", "30", "33", "30", "31", "31", "33", "33", "33", "32", "31", "24", "23", "0", "12"], "time": [1291, 5750, 5981, 7087, 8387, 9841, 11865, 14395, 16409, 16624, 16725, 18345, 19242, 20931, 21940, 25364, 26509, 26859, 32364, 32408, 32442]}, "edge": {"target": [], "time": []}}}, "displayed_time": "30.92", "trialTime": 33200, "trial_type": "mouselab-mdp", "trial_index": 4, "time_elapsed": 142042, "internal_node_id": "0.0-2.0-2.0-0.0"}}, {"uniqueid": "w58899451:a32660917", "current_trial": 5, "dateTime": 1691142354902, "trialdata": {"revealed_states": [], "clicked_states": ["23", "25", "13", "14", "19", "22", "20"], "num_clicks_accrued": [0, 0, 0, 0, 0, 0, 0, 0, 0, 0, 0, 0, 0], "stateRewards": ["", -10, 10, 10, 10, 10, -10, -10, 10, -10, -10, -10, 10, 10, -10, 10, -10, -10, 10, -10, 10, -10, -10, -10, -10, -10, 10, 10, -10, -10, 10, -10, 10, -10], "withholdReward": false, "trial_id": "practice_2", "block": "test", "trialIndex": 1, "score": 10, "costs": -3.5, "simulationMode": [null, null, null, null, null], "rewards": [10, 10, -10, -10, 10], "path": ["0", "0", "12", "13", "14", "19", "20"], "rt": [13948, 88, 45, 515, 354], "actions": ["right", "right", "right", "down", "right"], "actionTimes": [16289, 16911, 17495, 18554, 19441], "queries": {"click": {"state": {"target": ["23", "25", "13", "14", "19", "22", "20"], "time": [3958, 5529, 7160, 8795, 10450, 11514, 13380]}, "edge": {"target": [], "time": []}}, "mouseover": {"state": {"target": ["0", "24", "24", "23", "24", "25", "30", "31", "12", "13", "12", "14", "19", "19", "22", "20", "20", "21"], "time": [2364, 3091, 3459, 3692, 4099, 5208, 5993, 6491, 6675, 6980, 7776, 8342, 9166, 10079, 10790, 12239, 13075, 13971]}, "edge": {"target": [], "time": []}}, "mouseout": {"state": {"target": ["19", "20", "21", "0", "0", "24", "24", "23", "24", "25", "30", "31", "12", "13", "12", "13", "14", "19", "19", "22", "20", "20", "21", "20"], "time": [324, 392, 924, 1640, 2799, 3191, 3608, 4056, 5093, 5855, 6462, 6524, 6709, 7407, 8067, 8258, 9012, 9854, 10673, 11963, 12845, 13632, 15209, 15275]}, "edge": {"target": [], "time": []}}}, "displayed_time": "19.97", "trialTime": 21928, "trial_type": "mouselab-mdp", "trial_index": 5, "time_elapsed": 164902, "internal_node_id": "0.0-2.0-2.0-1.0"}}, {"uniqueid": "w58899451:a32660917", "current_trial": 6, "dateTime": 1691142374126, "trialdata": {"view_history": [{"page_index": 0, "viewing_time": 15261}, {"page_index": 1, "viewing_time": 3952}], "rt": 19213, "trial_id": "mouselab_instructions_2_control", "trial_type": "instructions", "trial_index": 6, "time_elapsed": 184127, "internal_node_id": "0.0-2.0-3.0"}}, {"uniqueid": "w58899451:a32660917", "current_trial": 7, "dateTime": 1691142398945, "trialdata": {"rt": 24809, "response": {"Q0": "The cost for clicking on nodes may vary between nodes.", "Q1": "The better I perform the higher my bonus will be.", "Q2": "No, the amount of cash at each node of the web may be different each time.", "Q3": "To get the highest total score.", "Q4": "Only before moving the spider.", "Q5": "3 seconds"}, "question_order": [0, 1, 2, 3, 4, 5], "correct": {"Q0": "The cost for clicking on nodes may vary between nodes.", "Q1": "The better I perform the higher my bonus will be.", "Q2": "No, the amount of cash at each node of the web may be different each time.", "Q3": "To get the highest total score.", "Q4": "Only before moving the spider.", "Q5": "3 seconds"}, "trial_id": "mouselab_quiz_control", "trial_type": "survey-multi-choice", "trial_index": 7, "time_elapsed": 208946, "internal_node_id": "0.0-2.0-4.0"}}, {"uniqueid": "w58899451:a32660917", "current_trial": 8, "dateTime": 1691142401677, "trialdata": {"rt": 2717, "stimulus": "\n<h1> Get ready to start the game! </h1>\n\nThank you for reading the instructions. Get ready start with the 40 rounds of this game.\n<br><br>\nIf you need to take a break, feel free to take one after the end of a round, before continuing to the next one.\n<br><br>\nRemember, the more money the spider gets, the bigger your bonus will be!\n<br><br>\n<div style='text-align: center;'>Press <code>space</code> to begin.</div>\n\n<br><br>\n(If, at any point, the <code>space</code> key does not take you to the next page, click once on the text and try again.)", "response": " ", "trial_id": "mdp_ready", "trial_type": "html-keyboard-response", "trial_index": 8, "time_elapsed": 211677, "internal_node_id": "0.0-4.0-0.0"}}, {"uniqueid": "w58899451:a32660917", "current_trial": 9, "dateTime": 1691142437196, "trialdata": {"revealed_states": [], "clicked_states": ["23", "12", "1", "2", "3", "8", "11", "4", "24"], "num_clicks_accrued": [0, 0, 0, 0, 0, 0, 0, 0, 0, 0, 0, 0, 0], "stateRewards": ["", -2, 3, -5, -7, 66, 43, -60, -4, -70, -75, 4, -1, 2, 2, -13, 54, 11, -40, -1, 77, 32, 15, -2, 3, -8, -9, -35, 83, -27, 6, -74, -34, 44], "withholdReward": false, "trial_id": "mdp_trial_1", "block": "test", "trialIndex": 2, "score": -87.6, "costs": -12.600000000000001, "simulationMode": [null, null, null, null, null], "rewards": [-2, 3, -8, 6, -74], "path": ["0", "0", "23", "24", "25", "30", "31"], "rt": [22275, 79, 145, 204, 4429], "actions": ["left", "left", "left", "down", "right"], "actionTimes": [24620, 25242, 25900, 26627, 31595], "queries": {"click": {"state": {"target": ["23", "12", "1", "2", "3", "8", "11", "4", "24"], "time": [3878, 6788, 8910, 11122, 12675, 15018, 17313, 19120, 20728]}, "edge": {"target": [], "time": []}}, "mouseover": {"state": {"target": ["0", "23", "24", "25", "25", "24", "12", "13", "1", "2", "2", "2", "3", "8", "11", "3", "4", "6", "7", "24", "25", "23", "0", "23", "0"], "time": [2442, 2908, 4148, 5992, 6190, 6263, 6542, 7345, 8043, 9280, 10772, 10940, 11519, 13147, 15380, 17737, 17795, 19465, 20143, 20496, 21194, 21881, 22288, 23058, 23845]}, "edge": {"target": [], "time": []}}, "mouseout": {"state": {"target": ["15", "18", "12", "23", "0", "0", "23", "24", "25", "25", "24", "23", "12", "13", "12", "1", "2", "2", "2", "3", "3", "8", "11", "8", "3", "4", "6", "7", "24", "25", "23", "0", "23", "0", "12", "31", "32", "33", "30", "31", "22"], "time": [26, 656, 1112, 1427, 1539, 2882, 4082, 5913, 6057, 6257, 6280, 6299, 6808, 7863, 7907, 8973, 10529, 10839, 11281, 12730, 13099, 15331, 17669, 17728, 17787, 19436, 20093, 20196, 21083, 21818, 21912, 22991, 23397, 24115, 28331, 29463, 29657, 30675, 30841, 30957, 33131]}, "edge": {"target": [], "time": []}}}, "displayed_time": "32.10", "trialTime": 34337, "trial_type": "mouselab-mdp", "trial_index": 9, "time_elapsed": 247196, "internal_node_id": "0.0-4.0-1.0-0.0"}}, {"uniqueid": "w58899451:a32660917", "current_trial": 10, "dateTime": 1691142459832, "trialdata": {"revealed_states": [], "clicked_states": ["1", "2", "12", "13", "25"], "num_clicks_accrued": [0, 0, 0, 0, 0, 0, 0, 0, 0, 0, 0, 0, 0], "stateRewards": ["", 1, -2, -8, -13, 4, 34, -84, -4, -49, 88, -70, -1, 3, -4, 10, -77, 13, -34, 15, -21, -16, 27, 1, -2, 8, -8, -6, 38, -26, 6, -15, 66, -3], "withholdReward": false, "trial_id": "mdp_trial_2", "block": "test", "trialIndex": 3, "score": -14, "costs": -7, "simulationMode": [null, null, null, null, null], "rewards": [1, -2, 8, -8, -6], "path": ["0", "0", "23", "24", "25", "26", "27"], "rt": [13977, 85, 168, 427, 356], "actions": ["left", "left", "left", "up", "up"], "actionTimes": [15934, 16549, 17229, 18173, 19068], "queries": {"click": {"state": {"target": ["1", "2", "12", "13", "25"], "time": [3653, 6610, 8430, 10451, 12699]}, "edge": {"target": [], "time": []}}, "mouseover": {"state": {"target": ["0", "23", "23", "1", "2", "3", "2", "3", "2", "7", "18", "18", "13", "12", "13", "23", "24", "25", "24", "0", "12"], "time": [1975, 2630, 2829, 3313, 3826, 4755, 5470, 5596, 6385, 7153, 7232, 7488, 7743, 8074, 9093, 11978, 12198, 12463, 13165, 14445, 14580]}, "edge": {"target": [], "time": []}}, "mouseout": {"state": {"target": ["0", "0", "23", "23", "1", "2", "3", "2", "3", "2", "7", "18", "18", "13", "12", "13", "23", "24", "25", "24", "0", "12"], "time": [1110, 2552, 2649, 3268, 3708, 4656, 5198, 5529, 6153, 6696, 7182, 7285, 7519, 7838, 9009, 10832, 12132, 12229, 12921, 13282, 14524, 14598]}, "edge": {"target": [], "time": []}}}, "displayed_time": "19.60", "trialTime": 21380, "trial_type": "mouselab-mdp", "trial_index": 10, "time_elapsed": 269832, "internal_node_id": "0.0-4.0-1.0-1.0"}}, {"uniqueid": "w58899451:a32660917", "current_trial": 11, "dateTime": 1691142479893, "trialdata": {"revealed_states": [], "clicked_states": ["12", "1", "23", "24"], "num_clicks_accrued": [0, 0, 0, 0, 0, 0, 0, 0, 0, 0, 0, 0, 0], "stateRewards": ["", -1, 3, -7, 16, -32, -74, -48, 2, 10, 15, -30, 1, 1, -2, 10, 12, -83, 67, 13, -66, 47, 65, -2, 4, 2, -14, -8, -57, 24, 9, 65, 12, 46], "withholdReward": false, "trial_id": "mdp_trial_3", "block": "test", "trialIndex": 4, "score": -38.6, "costs": -5.6, "simulationMode": [null, null, null, null, null], "rewards": [-1, 3, -7, 2, -30], "path": ["0", "0", "1", "2", "3", "8", "11"], "rt": [10878, 35, 36, 1047, 94], "actions": ["up", "up", "up", "left", "left"], "actionTimes": [12734, 13308, 13876, 15455, 16069], "queries": {"click": {"state": {"target": ["12", "1", "23", "24"], "time": [3546, 5738, 8113, 10413]}, "edge": {"target": [], "time": []}}, "mouseover": {"state": {"target": ["12", "1", "23", "24", "24", "23", "24", "0", "12"], "time": [1875, 4469, 6651, 7044, 7231, 7752, 8852, 10683, 10996]}, "edge": {"target": [], "time": []}}, "mouseout": {"state": {"target": ["22", "0", "12", "1", "23", "24", "24", "23", "24", "23", "0", "12", "12"], "time": [498, 776, 4300, 6584, 6906, 7074, 7729, 8825, 10608, 10649, 10749, 11268, 17917]}, "edge": {"target": [], "time": []}}}, "displayed_time": "16.59", "trialTime": 18589, "trial_type": "mouselab-mdp", "trial_index": 11, "time_elapsed": 289893, "internal_node_id": "0.0-4.0-1.0-2.0"}}, {"uniqueid": "w58899451:a32660917", "current_trial": 12, "dateTime": 1691142505075, "trialdata": {"revealed_states": [], "clicked_states": ["23", "24", "25", "27", "32"], "num_clicks_accrued": [0, 0, 0, 0, 0, 0, 0, 0, 0, 0, 0, 0, 0], "stateRewards": ["", 2, 3, -3, 12, -43, 81, -82, -15, 58, -7, -75, -1, -1, 3, -5, 50, -25, -8, 4, 66, 65, -66, 2, -4, 2, -1, -10, 10, 37, 11, 88, -37, 8], "withholdReward": false, "trial_id": "mdp_trial_4", "block": "test", "trialIndex": 5, "score": 12, "costs": -7, "simulationMode": [null, null, null, null, null], "rewards": [2, -4, 2, 11, 8], "path": ["0", "0", "23", "24", "25", "30", "33"], "rt": [14794, 44, 3, 242, 465], "actions": ["left", "left", "left", "down", "left"], "actionTimes": [17404, 17986, 18536, 19316, 20308], "queries": {"click": {"state": {"target": ["23", "24", "25", "27", "32"], "time": [3570, 5711, 8107, 11631, 14774]}, "edge": {"target": [], "time": []}}, "mouseover": {"state": {"target": ["23", "24", "25", "23", "22", "13", "12", "0", "23", "24", "26", "27", "28", "12", "0", "22", "0", "31", "32", "22"], "time": [3187, 4111, 6970, 8647, 8943, 9271, 9736, 10570, 10623, 10720, 10986, 11387, 11977, 12492, 13286, 13602, 13860, 14151, 14369, 16372]}, "edge": {"target": [], "time": []}}, "mouseout": {"state": {"target": ["22", "0", "23", "24", "25", "24", "23", "22", "13", "12", "0", "23", "24", "26", "27", "28", "12", "0", "22", "0", "31", "32", "22", "21"], "time": [1405, 3142, 4057, 6723, 8124, 8578, 8734, 9043, 9298, 10286, 10604, 10671, 10755, 11326, 11886, 12044, 12778, 13526, 13627, 13937, 14187, 14903, 22751, 22819]}, "edge": {"target": [], "time": []}}}, "displayed_time": "20.83", "trialTime": 23996, "trial_type": "mouselab-mdp", "trial_index": 12, "time_elapsed": 315075, "internal_node_id": "0.0-4.0-1.0-3.0"}}, {"uniqueid": "w58899451:a32660917", "current_trial": 13, "dateTime": 1691142530559, "trialdata": {"revealed_states": [], "clicked_states": ["14", "20", "21", "22", "16", "17"], "num_clicks_accrued": [0, 0, 0, 0, 0, 0, 0, 0, 0, 0, 0, 0, 0], "stateRewards": ["", -1, 2, -6, 6, -82, -19, -39, -16, -83, 11, -33, -2, -2, 4, -6, -82, -1, -19, -6, -10, -67, -41, -2, 1, -7, 16, -23, -78, -52, 14, 31, -71, 74], "withholdReward": false, "trial_id": "mdp_trial_5", "block": "test", "trialIndex": 6, "score": -15.4, "costs": -8.4, "simulationMode": [null, null, null, null, null], "rewards": [-2, -2, 4, -6, -1], "path": ["0", "0", "12", "13", "14", "15", "17"], "rt": [17431, 114, 297, 307, 181], "actions": ["right", "right", "right", "up", "right"], "actionTimes": [19087, 19774, 20605, 21421, 22118], "queries": {"click": {"state": {"target": ["14", "20", "21", "22", "16", "17"], "time": [4362, 7456, 9929, 12079, 14481, 16720]}, "edge": {"target": [], "time": []}}, "mouseover": {"state": {"target": ["0", "12", "13", "14", "19", "20", "21", "22", "19", "14", "15", "16", "15", "14", "13", "13", "17"], "time": [2735, 3091, 3718, 4008, 4633, 5267, 8324, 10335, 13656, 13917, 14051, 14234, 14690, 14842, 15133, 15425, 16401]}, "edge": {"target": [], "time": []}}, "mouseout": {"state": {"target": ["12", "0", "0", "12", "13", "14", "19", "20", "21", "22", "19", "14", "15", "16", "15", "14", "13", "13", "17"], "time": [666, 799, 2865, 3668, 3750, 4565, 5120, 8017, 10182, 13620, 13720, 13984, 14101, 14640, 14756, 15103, 15216, 15453, 17002]}, "edge": {"target": [], "time": []}}}, "displayed_time": "22.63", "trialTime": 24061, "trial_type": "mouselab-mdp", "trial_index": 13, "time_elapsed": 340559, "internal_node_id": "0.0-4.0-1.0-4.0"}}, {"uniqueid": "w58899451:a32660917", "current_trial": 14, "dateTime": 1691142549364, "trialdata": {"revealed_states": [], "clicked_states": ["1", "2", "3", "6"], "num_clicks_accrued": [0, 0, 0, 0, 0, 0, 0, 0, 0, 0, 0, 0, 0], "stateRewards": ["", -1, 1, -6, -1, 80, 23, 2, -11, 73, -81, 59, 1, 3, 5, -1, -26, 28, -3, 16, -59, -13, -50, -2, -2, 2, 15, -50, 86, 17, -4, 37, 35, 44], "withholdReward": false, "trial_id": "mdp_trial_6", "block": "test", "trialIndex": 7, "score": 10.4, "costs": -5.6, "simulationMode": [null, null, null, null, null], "rewards": [-1, 1, -6, -1, 23], "path": ["0", "0", "1", "2", "3", "4", "6"], "rt": [10147, 11, 20, 161, 57], "actions": ["up", "up", "up", "right", "right"], "actionTimes": [12372, 12904, 13458, 14136, 14744], "queries": {"click": {"state": {"target": ["1", "2", "3", "6"], "time": [3392, 5316, 7325, 9595]}, "edge": {"target": [], "time": []}}, "mouseover": {"state": {"target": ["1", "2", "2", "3", "4", "4", "6", "15"], "time": [3101, 3630, 4054, 5594, 7678, 8129, 9253, 11736]}, "edge": {"target": [], "time": []}}, "mouseout": {"state": {"target": ["0", "1", "2", "2", "3", "4", "4", "6"], "time": [2812, 3562, 3770, 5447, 7511, 7875, 8704, 10892]}, "edge": {"target": [], "time": []}}}, "displayed_time": "16.23", "trialTime": 17128, "trial_type": "mouselab-mdp", "trial_index": 14, "time_elapsed": 359363, "internal_node_id": "0.0-4.0-1.0-5.0"}}, {"uniqueid": "w58899451:a32660917", "current_trial": 15, "dateTime": 1691142569682, "trialdata": {"revealed_states": [], "clicked_states": ["3", "6"], "num_clicks_accrued": [0, 0, 0, 0, 0, 0, 0, 0, 0, 0, 0, 0, 0], "stateRewards": ["", 1, -3, -6, -5, 47, 80, -29, 11, -71, 10, -29, -2, 3, -6, 12, 2, -78, -6, 8, 34, -16, -5, -1, 3, 3, -13, 84, -36, -62, -3, -27, 66, 15], "withholdReward": false, "trial_id": "mdp_trial_7", "block": "test", "trialIndex": 8, "score": 64.2, "costs": -2.8, "simulationMode": [null, null, null, null, null], "rewards": [1, -3, -6, -5, 80], "path": ["0", "0", "1", "2", "3", "4", "6"], "rt": [7117, 133, 10, 140, 137], "actions": ["up", "up", "up", "right", "right"], "actionTimes": [8463, 9117, 9643, 10333, 11004], "queries": {"click": {"state": {"target": ["3", "6"], "time": [3472, 5653]}, "edge": {"target": [], "time": []}}, "mouseover": {"state": {"target": ["1", "2", "2", "2", "3", "4", "6", "16"], "time": [1702, 2051, 2468, 2909, 3200, 4013, 4701, 7934]}, "edge": {"target": [], "time": []}}, "mouseout": {"state": {"target": ["0", "1", "2", "2", "2", "3", "4", "6", "16", "18", "1", "0"], "time": [1371, 1967, 2342, 2510, 3151, 3658, 4492, 6056, 16407, 16768, 17217, 18075]}, "edge": {"target": [], "time": []}}}, "displayed_time": "15.35", "trialTime": 18851, "trial_type": "mouselab-mdp", "trial_index": 15, "time_elapsed": 379682, "internal_node_id": "0.0-4.0-1.0-6.0"}}, {"uniqueid": "w58899451:a32660917", "current_trial": 16, "dateTime": 1691142589447, "trialdata": {"revealed_states": [], "clicked_states": ["3", "6", "5", "9"], "num_clicks_accrued": [0, 0, 0, 0, 0, 0, 0, 0, 0, 0, 0, 0, 0], "stateRewards": ["", -2, -1, -5, 10, -36, -70, 68, -9, 86, 71, -10, 2, -4, 7, -7, 66, 44, -66, -13, -69, 43, 15, -2, 2, 6, -13, 62, 57, 50, -10, -69, 42, -72], "withholdReward": false, "trial_id": "mdp_trial_8", "block": "test", "trialIndex": 9, "score": 63.4, "costs": -5.6, "simulationMode": [null, null, null, null, null], "rewards": [-2, -1, -5, -9, 86], "path": ["0", "0", "1", "2", "3", "8", "9"], "rt": [11789, 143, 153, 307, 218], "actions": ["up", "up", "up", "left", "up"], "actionTimes": [13533, 14195, 14866, 15730, 16499], "queries": {"click": {"state": {"target": ["3", "6", "5", "9"], "time": [3702, 5831, 8305, 10292]}, "edge": {"target": [], "time": []}}, "mouseover": {"state": {"target": ["23", "24", "25", "24", "23", "2", "3", "6", "5", "4", "7", "2", "8", "9", "8", "11", "8", "15"], "time": [2439, 2473, 2516, 2654, 2702, 3132, 3415, 4615, 8081, 8521, 8576, 8966, 9134, 9353, 10487, 11327, 12538, 12600]}, "edge": {"target": [], "time": []}}, "mouseout": {"state": {"target": ["0", "23", "24", "25", "24", "23", "2", "3", "6", "6", "6", "5", "4", "7", "2", "8", "9", "9", "8", "11", "8", "15"], "time": [2399, 2468, 2495, 2648, 2682, 2898, 3332, 3895, 5846, 6154, 7937, 8494, 8549, 8772, 9076, 9303, 10353, 10454, 10628, 12503, 12559, 12620]}, "edge": {"target": [], "time": []}}}, "displayed_time": "17.04", "trialTime": 18131, "trial_type": "mouselab-mdp", "trial_index": 16, "time_elapsed": 399447, "internal_node_id": "0.0-4.0-1.0-7.0"}}, {"uniqueid": "w58899451:a32660917", "current_trial": 17, "dateTime": 1691142608333, "trialdata": {"revealed_states": [], "clicked_states": ["2", "5"], "num_clicks_accrued": [0, 0, 0, 0, 0, 0, 0, 0, 0, 0, 0, 0, 0], "stateRewards": ["", -1, -3, -6, 14, 41, 18, 63, -14, 80, 21, 17, -2, -4, -2, -5, 13, 70, 8, -4, -64, -10, -20, 2, -1, 4, -1, -17, -55, 42, -7, 47, 54, 15], "withholdReward": false, "trial_id": "mdp_trial_9", "block": "test", "trialIndex": 10, "score": 42.2, "costs": -2.8, "simulationMode": [null, null, null, null, null], "rewards": [-1, -3, -6, 14, 41], "path": ["0", "0", "1", "2", "3", "4", "5"], "rt": [8557, 8, 125, 271, 272], "actions": ["up", "up", "up", "right", "up"], "actionTimes": [10588, 11120, 11787, 12611, 13403], "queries": {"click": {"state": {"target": ["2", "5"], "time": [3503, 7572]}, "edge": {"target": [], "time": []}}, "mouseover": {"state": {"target": ["20", "14", "13", "1", "2", "3", "5", "4", "5", "6", "7", "13"], "time": [2148, 2725, 2858, 3093, 3191, 4135, 4715, 7123, 7307, 8110, 9591, 9756]}, "edge": {"target": [], "time": []}}, "mouseout": {"state": {"target": ["12", "0", "20", "14", "13", "1", "2", "3", "5", "4", "5", "6", "7", "13", "14", "20"], "time": [490, 2141, 2624, 2807, 2909, 3127, 3566, 4637, 7091, 7274, 7806, 9514, 9625, 9911, 15032, 15109]}, "edge": {"target": [], "time": []}}}, "displayed_time": "16.03", "trialTime": 17242, "trial_type": "mouselab-mdp", "trial_index": 17, "time_elapsed": 418333, "internal_node_id": "0.0-4.0-1.0-8.0"}}, {"uniqueid": "w58899451:a32660917", "current_trial": 18, "dateTime": 1691142628323, "trialdata": {"revealed_states": [], "clicked_states": ["3", "9", "5", "6"], "num_clicks_accrued": [0, 0, 0, 0, 0, 0, 0, 0, 0, 0, 0, 0, 0], "stateRewards": ["", -2, 2, -5, -6, 10, -66, -58, -10, -11, -63, -70, -1, -4, -5, 7, 66, -64, -43, -3, 45, -37, 4, -2, -2, -6, -4, -30, 33, 43, 15, -32, -65, -59], "withholdReward": false, "trial_id": "mdp_trial_10", "block": "test", "trialIndex": 11, "score": -6.600000000000001, "costs": -5.6, "simulationMode": [null, null, null, null, null], "rewards": [-2, 2, -5, -6, 10], "path": ["0", "0", "1", "2", "3", "4", "5"], "rt": [11907, 133, 4, 149, 219], "actions": ["up", "up", "up", "right", "up"], "actionTimes": [14174, 14843, 15378, 16090, 16843], "queries": {"click": {"state": {"target": ["3", "9", "5", "6"], "time": [3695, 5746, 8419, 11042]}, "edge": {"target": [], "time": []}}, "mouseover": {"state": {"target": ["15", "18", "2", "2", "3", "8", "9", "8", "8", "5", "6", "16", "6", "15", "7", "18"], "time": [2759, 2797, 3044, 3260, 3444, 4261, 4606, 6265, 7926, 8227, 8796, 10462, 10844, 11945, 13244, 13462]}, "edge": {"target": [], "time": []}}, "mouseout": {"state": {"target": ["21", "0", "15", "18", "2", "2", "3", "8", "9", "8", "8", "5", "6", "16", "6", "15", "7"], "time": [698, 1266, 2780, 2829, 3076, 3380, 3868, 4480, 6030, 7832, 7961, 8713, 10429, 10685, 11261, 13184, 13327]}, "edge": {"target": [], "time": []}}}, "displayed_time": "17.38", "trialTime": 18434, "trial_type": "mouselab-mdp", "trial_index": 18, "time_elapsed": 438323, "internal_node_id": "0.0-4.0-1.0-9.0"}}, {"uniqueid": "w58899451:a32660917", "current_trial": 19, "dateTime": 1691142648863, "trialdata": {"revealed_states": [], "clicked_states": ["25", "33", "32"], "num_clicks_accrued": [0, 0, 0, 0, 0, 0, 0, 0, 0, 0, 0, 0, 0], "stateRewards": ["", -2, 4, -3, -13, 63, -36, 62, 11, 78, 34, -51, 2, -2, 8, -6, -40, -18, 31, 9, 64, 39, 79, 1, 4, -4, 15, -12, 76, 73, -10, -77, 86, -4], "withholdReward": false, "trial_id": "mdp_trial_11", "block": "test", "trialIndex": 12, "score": 72.8, "costs": -4.199999999999999, "simulationMode": [null, null, null, null, null], "rewards": [1, 4, -4, -10, 86], "path": ["0", "0", "23", "24", "25", "30", "32"], "rt": [8668, 138, 182, 178, 92], "actions": ["left", "left", "left", "down", "down"], "actionTimes": [11386, 12079, 12775, 13479, 14086], "queries": {"click": {"state": {"target": ["25", "33", "32"], "time": [3829, 5998, 8298]}, "edge": {"target": [], "time": []}}, "mouseover": {"state": {"target": ["24", "25", "31", "32", "33", "32", "31", "21", "22"], "time": [3179, 3297, 4103, 4916, 5369, 6658, 8565, 9367, 10507]}, "edge": {"target": [], "time": []}}, "mouseout": {"state": {"target": ["0", "0", "24", "25", "31", "32", "33", "32", "31", "21", "22", "19", "20", "19"], "time": [17, 2796, 3245, 4033, 4417, 5157, 6413, 8358, 8735, 10036, 10595, 16620, 17601, 17664]}, "edge": {"target": [], "time": []}}}, "displayed_time": "16.73", "trialTime": 18910, "trial_type": "mouselab-mdp", "trial_index": 19, "time_elapsed": 458863, "internal_node_id": "0.0-4.0-1.0-10.0"}}, {"uniqueid": "w58899451:a32660917", "current_trial": 20, "dateTime": 1691142667818, "trialdata": {"revealed_states": [], "clicked_states": ["25", "32"], "num_clicks_accrued": [0, 0, 0, 0, 0, 0, 0, 0, 0, 0, 0, 0, 0], "stateRewards": ["", 2, -3, -4, -1, 25, -16, 16, 10, -71, -20, -55, 1, 3, -4, -9, 1, 32, 11, -6, 32, -50, -41, -1, 4, 4, -8, 7, -81, 70, 2, -52, 45, -10], "withholdReward": false, "trial_id": "mdp_trial_12", "block": "test", "trialIndex": 13, "score": 51.2, "costs": -2.8, "simulationMode": [null, null, null, null, null], "rewards": [-1, 4, 4, 2, 45], "path": ["0", "0", "23", "24", "25", "30", "32"], "rt": [6822, 68, 119, 309, 8], "actions": ["left", "left", "left", "down", "down"], "actionTimes": [8678, 9322, 9970, 11016, 11547], "queries": {"click": {"state": {"target": ["25", "32"], "time": [3696, 5773]}, "edge": {"target": [], "time": []}}, "mouseover": {"state": {"target": ["14", "12", "23", "23", "24", "25", "30", "32"], "time": [2916, 2962, 3008, 3200, 3355, 3415, 4015, 4752]}, "edge": {"target": [], "time": []}}, "mouseout": {"state": {"target": ["14", "13", "0", "14", "12", "23", "23", "24", "25", "30", "32"], "time": [215, 247, 1895, 2938, 2998, 3048, 3330, 3384, 3920, 4167, 6775]}, "edge": {"target": [], "time": []}}}, "displayed_time": "15.86", "trialTime": 17178, "trial_type": "mouselab-mdp", "trial_index": 20, "time_elapsed": 477818, "internal_node_id": "0.0-4.0-1.0-11.0"}}, {"uniqueid": "w58899451:a32660917", "current_trial": 21, "dateTime": 1691142686496, "trialdata": {"revealed_states": [], "clicked_states": ["14", "16"], "num_clicks_accrued": [0, 0, 0, 0, 0, 0, 0, 0, 0, 0, 0, 0, 0], "stateRewards": ["", -2, 4, -7, -3, -76, 39, -28, 10, 14, 12, 60, 2, -3, 6, -10, 88, -34, -41, -3, 72, -13, -56, 1, 3, 2, 8, -51, 23, -57, 1, 14, -46, -16], "withholdReward": false, "trial_id": "mdp_trial_13", "block": "test", "trialIndex": 14, "score": 80.2, "costs": -2.8, "simulationMode": [null, null, null, null, null], "rewards": [2, -3, 6, -10, 88], "path": ["0", "0", "12", "13", "14", "15", "16"], "rt": [7289, 101, 101, 243, 154], "actions": ["right", "right", "right", "up", "up"], "actionTimes": [8899, 9545, 10209, 10984, 11665], "queries": {"click": {"state": {"target": ["14", "16"], "time": [3913, 6167]}, "edge": {"target": [], "time": []}}, "mouseover": {"state": {"target": ["12", "13", "14", "14", "20", "17", "16", "17"], "time": [1649, 2105, 2219, 3756, 4650, 5140, 5554, 7069]}, "edge": {"target": [], "time": []}}, "mouseout": {"state": {"target": ["0", "12", "13", "14", "14", "14", "20", "17", "16", "16", "17", "14"], "time": [1642, 2084, 2153, 2317, 3999, 4135, 4865, 5232, 6232, 6412, 7576, 8242]}, "edge": {"target": [], "time": []}}}, "displayed_time": "15.61", "trialTime": 16951, "trial_type": "mouselab-mdp", "trial_index": 21, "time_elapsed": 496496, "internal_node_id": "0.0-4.0-1.0-12.0"}}, {"uniqueid": "w58899451:a32660917", "current_trial": 22, "dateTime": 1691142710541, "trialdata": {"revealed_states": [], "clicked_states": ["16", "20", "22", "33", "27"], "num_clicks_accrued": [0, 0, 0, 0, 0, 0, 0, 0, 0, 0, 0, 0, 0], "stateRewards": ["", -1, -3, -6, -2, -7, 80, -45, -3, -38, -72, 76, 2, 1, 7, 4, -62, 14, -74, 14, -87, -21, -88, -2, 1, -7, -10, 66, 56, -76, 10, -29, -72, -70], "withholdReward": false, "trial_id": "mdp_trial_14", "block": "test", "trialIndex": 15, "score": 41, "costs": -7, "simulationMode": [null, null, null, null, null], "rewards": [-2, 1, -7, -10, 66], "path": ["0", "0", "23", "24", "25", "26", "27"], "rt": [15243, 8, 327, 247, 7], "actions": ["left", "left", "left", "up", "up"], "actionTimes": [17104, 17632, 18497, 19297, 19849], "queries": {"click": {"state": {"target": ["16", "20", "22", "33", "27"], "time": [4137, 6594, 8951, 11748, 14211]}, "edge": {"target": [], "time": []}}, "mouseover": {"state": {"target": ["14", "15", "16", "15", "15", "16", "14", "20", "22", "33", "31", "26", "27"], "time": [1903, 2503, 2718, 3414, 3809, 3904, 5009, 6270, 8704, 11487, 13703, 13937, 14005]}, "edge": {"target": [], "time": []}}, "mouseout": {"state": {"target": ["20", "13", "12", "14", "15", "16", "15", "15", "16", "14", "20", "22", "33", "31", "26", "27"], "time": [435, 518, 802, 2437, 2603, 3387, 3452, 3853, 4277, 5482, 7446, 10421, 11932, 13723, 13970, 14385]}, "edge": {"target": [], "time": []}}}, "displayed_time": "20.38", "trialTime": 21647, "trial_type": "mouselab-mdp", "trial_index": 22, "time_elapsed": 520541, "internal_node_id": "0.0-4.0-1.0-13.0"}}, {"uniqueid": "w58899451:a32660917", "current_trial": 23, "dateTime": 1691142731108, "trialdata": {"revealed_states": [], "clicked_states": ["5"], "num_clicks_accrued": [0, 0, 0, 0, 0, 0, 0, 0, 0, 0, 0, 0, 0], "stateRewards": ["", 2, 3, -1, 6, 44, -4, -59, -14, -3, 64, 16, 1, -3, 3, 6, 3, 49, 19, 3, -49, -14, -86, 1, 2, -3, -8, -33, 14, 32, -13, -77, -47, -67], "withholdReward": false, "trial_id": "mdp_trial_15", "block": "test", "trialIndex": 16, "score": 52.6, "costs": -1.4, "simulationMode": [null, null, null, null, null], "rewards": [2, 3, -1, 6, 44], "path": ["0", "0", "1", "2", "3", "4", "5"], "rt": [4649, 7, 32, 286, 338], "actions": ["up", "up", "up", "right", "up"], "actionTimes": [6770, 7290, 7870, 8688, 9537], "queries": {"click": {"state": {"target": ["5"], "time": [3941]}, "edge": {"target": [], "time": []}}, "mouseover": {"state": {"target": ["2", "4", "5", "7", "18"], "time": [2868, 3017, 3268, 5819, 6101]}, "edge": {"target": [], "time": []}}, "mouseout": {"state": {"target": ["22", "0", "2", "4", "5", "7", "18", "14", "14", "13", "0", "1", "10", "0"], "time": [416, 2674, 2888, 3185, 4157, 6019, 6122, 15968, 16486, 16584, 16967, 17185, 17775, 17834]}, "edge": {"target": [], "time": []}}}, "displayed_time": "16.13", "trialTime": 18895, "trial_type": "mouselab-mdp", "trial_index": 23, "time_elapsed": 541108, "internal_node_id": "0.0-4.0-1.0-14.0"}}, {"uniqueid": "w58899451:a32660917", "current_trial": 24, "dateTime": 1691142749954, "trialdata": {"revealed_states": [], "clicked_states": ["9", "5"], "num_clicks_accrued": [0, 0, 0, 0, 0, 0, 0, 0, 0, 0, 0, 0, 0], "stateRewards": ["", -2, 4, -5, -12, 85, -24, -18, -15, -78, -22, 26, -1, -1, 2, 14, -45, 52, -23, 7, -33, 24, -6, -2, -4, 5, -7, -16, 36, -39, 5, 71, -87, -23], "withholdReward": false, "trial_id": "mdp_trial_16", "block": "test", "trialIndex": 17, "score": 67.2, "costs": -2.8, "simulationMode": [null, null, null, null, null], "rewards": [-2, 4, -5, -12, 85], "path": ["0", "0", "1", "2", "3", "4", "5"], "rt": [6904, 112, 111, 148, 221], "actions": ["up", "up", "up", "right", "up"], "actionTimes": [8831, 9471, 10111, 10791, 11536], "queries": {"click": {"state": {"target": ["9", "5"], "time": [3127, 5877]}, "edge": {"target": [], "time": []}}, "mouseover": {"state": {"target": ["10", "8", "9", "8", "10", "1", "28", "10", "5", "16", "16", "6"], "time": [2600, 2677, 2909, 3318, 3375, 4666, 5313, 5498, 5612, 6093, 7033, 7877]}, "edge": {"target": [], "time": []}}, "mouseout": {"state": {"target": ["0", "10", "8", "9", "8", "10", "1", "28", "10", "5", "16", "16", "6"], "time": [1961, 2630, 2842, 3281, 3347, 3426, 4793, 5370, 5549, 6017, 6121, 7828, 8033]}, "edge": {"target": [], "time": []}}}, "displayed_time": "15.93", "trialTime": 16797, "trial_type": "mouselab-mdp", "trial_index": 24, "time_elapsed": 559953, "internal_node_id": "0.0-4.0-1.0-15.0"}}, {"uniqueid": "w58899451:a32660917", "current_trial": 25, "dateTime": 1691142771342, "trialdata": {"revealed_states": [], "clicked_states": ["33", "20", "16"], "num_clicks_accrued": [0, 0, 0, 0, 0, 0, 0, 0, 0, 0, 0, 0, 0], "stateRewards": ["", -1, -4, -6, -15, 21, -67, -63, 9, 51, 69, -14, -1, 3, 8, -8, 39, 72, 63, 15, 19, 47, 15, 1, 4, 5, 16, -18, 34, 35, -14, -80, 40, 1], "withholdReward": false, "trial_id": "mdp_trial_17", "block": "test", "trialIndex": 18, "score": 36.8, "costs": -4.199999999999999, "simulationMode": [null, null, null, null, null], "rewards": [-1, 3, 8, -8, 39], "path": ["0", "0", "12", "13", "14", "15", "16"], "rt": [9794, 8, 727, 155, 136], "actions": ["right", "right", "right", "up", "up"], "actionTimes": [11678, 12194, 13483, 14165, 14827], "queries": {"click": {"state": {"target": ["33", "20", "16"], "time": [2912, 5846, 8935]}, "edge": {"target": [], "time": []}}, "mouseover": {"state": {"target": ["24", "25", "33", "31", "22", "19", "20", "15", "16", "16"], "time": [2393, 2452, 2572, 4101, 5154, 5255, 5374, 8204, 8260, 8517]}, "edge": {"target": [], "time": []}}, "mouseout": {"state": {"target": ["0", "24", "25", "33", "31", "22", "19", "20", "20", "15", "16", "16", "20"], "time": [1911, 2422, 2521, 3057, 4128, 5188, 5354, 6746, 8140, 8237, 8369, 9100, 17961]}, "edge": {"target": [], "time": []}}}, "displayed_time": "15.89", "trialTime": 19482, "trial_type": "mouselab-mdp", "trial_index": 25, "time_elapsed": 581342, "internal_node_id": "0.0-4.0-1.0-16.0"}}, {"uniqueid": "w58899451:a32660917", "current_trial": 26, "dateTime": 1691142792484, "trialdata": {"revealed_states": [], "clicked_states": ["16", "20"], "num_clicks_accrued": [0, 0, 0, 0, 0, 0, 0, 0, 0, 0, 0, 0, 0], "stateRewards": ["", 1, 4, -8, -13, -13, -87, -77, -10, -44, 54, 42, 2, -3, -4, 12, -9, -80, 52, 9, 84, -2, -65, 1, -4, -5, -6, 8, 80, 32, 13, -59, -5, -13], "withholdReward": false, "trial_id": "mdp_trial_18", "block": "test", "trialIndex": 19, "score": 85.2, "costs": -2.8, "simulationMode": [null, null, null, null, null], "rewards": [2, -3, -4, 9, 84], "path": ["0", "0", "12", "13", "14", "19", "20"], "rt": [6984, 41, 59, 372, 267], "actions": ["right", "right", "right", "down", "right"], "actionTimes": [9681, 10305, 10925, 11861, 12663], "queries": {"click": {"state": {"target": ["16", "20"], "time": [3917, 6765]}, "edge": {"target": [], "time": []}}, "mouseover": {"state": {"target": ["12", "15", "16", "17", "17", "20", "21", "19"], "time": [3306, 3455, 3687, 4163, 6120, 6488, 7861, 8888]}, "edge": {"target": [], "time": []}}, "mouseout": {"state": {"target": ["0", "12", "15", "16", "16", "17", "17", "20", "21", "19"], "time": [3253, 3337, 3605, 3994, 4109, 5891, 6375, 7454, 8308, 18573]}, "edge": {"target": [], "time": []}}}, "displayed_time": "16.70", "trialTime": 19357, "trial_type": "mouselab-mdp", "trial_index": 26, "time_elapsed": 602484, "internal_node_id": "0.0-4.0-1.0-17.0"}}, {"uniqueid": "w58899451:a32660917", "current_trial": 27, "dateTime": 1691142811666, "trialdata": {"revealed_states": [], "clicked_states": ["9"], "num_clicks_accrued": [0, 0, 0, 0, 0, 0, 0, 0, 0, 0, 0, 0, 0], "stateRewards": ["", -2, 3, 8, -9, 59, 41, -50, -1, 82, 66, 33, 2, -2, 7, 8, 1, -38, 12, -16, 24, -37, 67, 1, 4, -2, 5, 35, -83, 28, 8, -27, 69, -64], "withholdReward": false, "trial_id": "mdp_trial_19", "block": "test", "trialIndex": 20, "score": 88.6, "costs": -1.4, "simulationMode": [null, null, null, null, null], "rewards": [-2, 3, 8, -1, 82], "path": ["0", "0", "1", "2", "3", "8", "9"], "rt": [3933, 21, 18, 121, 397], "actions": ["up", "up", "up", "left", "up"], "actionTimes": [5768, 6322, 6883, 7788, 8854], "queries": {"click": {"state": {"target": ["9"], "time": [2883]}, "edge": {"target": [], "time": []}}, "mouseover": {"state": {"target": ["2", "8", "9", "2", "15"], "time": [1877, 2396, 2559, 2913, 5177]}, "edge": {"target": [], "time": []}}, "mouseout": {"state": {"target": ["0", "2", "8", "9", "2", "15", "20", "19"], "time": [1871, 2332, 2446, 2907, 2980, 5199, 16377, 16460]}, "edge": {"target": [], "time": []}}}, "displayed_time": "15.84", "trialTime": 16912, "trial_type": "mouselab-mdp", "trial_index": 27, "time_elapsed": 621665, "internal_node_id": "0.0-4.0-1.0-18.0"}}, {"uniqueid": "w58899451:a32660917", "current_trial": 28, "dateTime": 1691142832324, "trialdata": {"revealed_states": [], "clicked_states": ["5", "9", "29"], "num_clicks_accrued": [0, 0, 0, 0, 0, 0, 0, 0, 0, 0, 0, 0, 0], "stateRewards": ["", -1, 1, 8, -8, -49, 62, -78, 16, 28, -81, 78, -2, -3, -1, -4, 67, 49, -2, -13, -16, -39, 83, 1, -4, 4, -5, -20, 7, 84, 7, -32, -59, 19], "withholdReward": false, "trial_id": "mdp_trial_20", "block": "test", "trialIndex": 21, "score": 75.8, "costs": -4.199999999999999, "simulationMode": [null, null, null, null, null], "rewards": [1, -4, 4, -5, 84], "path": ["0", "0", "23", "24", "25", "26", "29"], "rt": [11913, 20, 264, 101, 121], "actions": ["left", "left", "left", "up", "left"], "actionTimes": [13705, 14243, 15043, 15701, 16349], "queries": {"click": {"state": {"target": ["5", "9", "29"], "time": [4349, 7191, 10472]}, "edge": {"target": [], "time": []}}, "mouseover": {"state": {"target": ["0", "4", "5", "3", "9", "11", "26", "25", "29", "25"], "time": [3015, 3968, 4111, 6461, 6998, 7947, 9910, 9962, 10227, 10734]}, "edge": {"target": [], "time": []}}, "mouseout": {"state": {"target": ["0", "0", "4", "5", "3", "9", "11", "26", "25", "29", "25"], "time": [1916, 3262, 4028, 4540, 6481, 7446, 9583, 9940, 9984, 10730, 10767]}, "edge": {"target": [], "time": []}}}, "displayed_time": "16.86", "trialTime": 18352, "trial_type": "mouselab-mdp", "trial_index": 28, "time_elapsed": 642322, "internal_node_id": "0.0-4.0-1.0-19.0"}}, {"uniqueid": "w58899451:a32660917", "current_trial": 29, "dateTime": 1691142853251, "trialdata": {"revealed_states": [], "clicked_states": ["5", "11", "29", "33"], "num_clicks_accrued": [0, 0, 0, 0, 0, 0, 0, 0, 0, 0, 0, 0, 0], "stateRewards": ["", -2, 2, 3, -7, -31, -33, 29, -8, -57, 50, -83, -1, -1, 5, 13, -23, -62, 25, 5, -66, -85, 14, 1, -2, -1, 16, 71, 33, -19, -14, 5, -43, 79], "withholdReward": false, "trial_id": "mdp_trial_21", "block": "test", "trialIndex": 22, "score": 57.4, "costs": -5.6, "simulationMode": [null, null, null, null, null], "rewards": [1, -2, -1, -14, 79], "path": ["0", "0", "23", "24", "25", "30", "33"], "rt": [11997, 158, 354, 200, 394], "actions": ["left", "left", "left", "down", "left"], "actionTimes": [14255, 14950, 15854, 16582, 17497], "queries": {"click": {"state": {"target": ["5", "11", "29", "33"], "time": [3954, 7222, 9310, 11405]}, "edge": {"target": [], "time": []}}, "mouseover": {"state": {"target": ["1", "2", "3", "5", "6", "8", "9", "11", "8", "2", "29", "25", "30", "33", "32"], "time": [3204, 3343, 3456, 3740, 4154, 6136, 6452, 7015, 7420, 7556, 8199, 9704, 9898, 10893, 11872]}, "edge": {"target": [], "time": []}}, "mouseout": {"state": {"target": ["22", "0", "1", "2", "3", "5", "6", "8", "9", "11", "11", "8", "2", "29", "25", "30", "33", "32"], "time": [685, 1033, 3257, 3382, 3615, 4126, 4184, 6170, 6740, 7252, 7407, 7469, 7792, 9559, 9806, 9967, 11583, 13618]}, "edge": {"target": [], "time": []}}}, "displayed_time": "18.03", "trialTime": 18839, "trial_type": "mouselab-mdp", "trial_index": 29, "time_elapsed": 663251, "internal_node_id": "0.0-4.0-1.0-20.0"}}, {"uniqueid": "w58899451:a32660917", "current_trial": 30, "dateTime": 1691142872802, "trialdata": {"revealed_states": [], "clicked_states": ["20"], "num_clicks_accrued": [0, 0, 0, 0, 0, 0, 0, 0, 0, 0, 0, 0, 0], "stateRewards": ["", -2, 1, -5, 2, -68, 80, 33, 10, 67, -59, 20, -1, -3, 3, 14, 74, -2, 24, -16, 63, 80, 46, -1, 4, 6, 12, 83, -38, -43, -4, 43, 14, -79], "withholdReward": false, "trial_id": "mdp_trial_22", "block": "test", "trialIndex": 23, "score": 44.6, "costs": -1.4, "simulationMode": [null, null, null, null, null], "rewards": [-1, -3, 3, -16, 63], "path": ["0", "0", "12", "13", "14", "19", "20"], "rt": [3853, 32, 92, 161, 196], "actions": ["right", "right", "right", "down", "right"], "actionTimes": [5929, 6494, 7127, 7820, 8543], "queries": {"click": {"state": {"target": ["20"], "time": [3071]}, "edge": {"target": [], "time": []}}, "mouseover": {"state": {"target": ["14", "20", "22"], "time": [2222, 2842, 4450]}, "edge": {"target": [], "time": []}}, "mouseout": {"state": {"target": ["14", "20", "22"], "time": [2566, 3640, 5053]}, "edge": {"target": [], "time": []}}}, "displayed_time": "16.08", "trialTime": 17662, "trial_type": "mouselab-mdp", "trial_index": 30, "time_elapsed": 682802, "internal_node_id": "0.0-4.0-1.0-21.0"}}, {"uniqueid": "w58899451:a32660917", "current_trial": 31, "dateTime": 1691142892662, "trialdata": {"revealed_states": [], "clicked_states": ["16", "17", "20", "21"], "num_clicks_accrued": [0, 0, 0, 0, 0, 0, 0, 0, 0, 0, 0, 0, 0], "stateRewards": ["", 2, 4, -5, 7, 81, 35, 6, 11, 14, -72, 42, -1, 2, 3, -7, -77, -44, -40, -15, -85, 51, -32, -2, -1, -5, 7, -74, 47, 52, 16, -49, 48, -46], "withholdReward": false, "trial_id": "mdp_trial_23", "block": "test", "trialIndex": 24, "score": 34.4, "costs": -5.6, "simulationMode": [null, null, null, null, null], "rewards": [-1, 2, 3, -15, 51], "path": ["0", "0", "12", "13", "14", "19", "21"], "rt": [10970, 154, 695, 192, 132], "actions": ["right", "right", "right", "down", "down"], "actionTimes": [12976, 13670, 14894, 15631, 16310], "queries": {"click": {"state": {"target": ["16", "17", "20", "21"], "time": [3585, 5929, 8014, 10002]}, "edge": {"target": [], "time": []}}, "mouseover": {"state": {"target": ["12", "13", "17", "16", "17", "17", "20", "21", "22"], "time": [3020, 3072, 3135, 3335, 3762, 5593, 6452, 8313, 10516]}, "edge": {"target": [], "time": []}}, "mouseout": {"state": {"target": ["0", "12", "13", "17", "16", "16", "17", "17", "20", "21", "22"], "time": [852, 3065, 3104, 3218, 3640, 3730, 3791, 6103, 8236, 10308, 12320]}, "edge": {"target": [], "time": []}}}, "displayed_time": "16.85", "trialTime": 17733, "trial_type": "mouselab-mdp", "trial_index": 31, "time_elapsed": 702662, "internal_node_id": "0.0-4.0-1.0-22.0"}}, {"uniqueid": "w58899451:a32660917", "current_trial": 32, "dateTime": 1691142911837, "trialdata": {"revealed_states": [], "clicked_states": ["33"], "num_clicks_accrued": [0, 0, 0, 0, 0, 0, 0, 0, 0, 0, 0, 0, 0], "stateRewards": ["", 2, 3, -2, -8, -8, -41, 74, 15, -23, -80, 1, 1, 3, 3, -15, -63, -78, 67, 13, 75, -41, 86, 2, -2, 6, -3, -8, -49, 50, -6, 83, 74, 80], "withholdReward": false, "trial_id": "mdp_trial_24", "block": "test", "trialIndex": 25, "score": 78.6, "costs": -1.4, "simulationMode": [null, null, null, null, null], "rewards": [2, -2, 6, -6, 80], "path": ["0", "0", "23", "24", "25", "30", "33"], "rt": [3996, 9, 118, 154, 277], "actions": ["left", "left", "left", "down", "left"], "actionTimes": [6096, 6633, 7301, 8004, 8837], "queries": {"click": {"state": {"target": ["33"], "time": [3421]}, "edge": {"target": [], "time": []}}, "mouseover": {"state": {"target": ["23", "24", "25", "30", "33", "25"], "time": [2758, 2852, 2969, 3036, 3169, 5353]}, "edge": {"target": [], "time": []}}, "mouseout": {"state": {"target": ["12", "0", "23", "24", "25", "30", "33", "25"], "time": [571, 2724, 2819, 2921, 2990, 3086, 3560, 5373]}, "edge": {"target": [], "time": []}}}, "displayed_time": "16.10", "trialTime": 17124, "trial_type": "mouselab-mdp", "trial_index": 32, "time_elapsed": 721836, "internal_node_id": "0.0-4.0-1.0-23.0"}}, {"uniqueid": "w58899451:a32660917", "current_trial": 33, "dateTime": 1691142933090, "trialdata": {"revealed_states": [], "clicked_states": ["9", "5", "6", "21"], "num_clicks_accrued": [0, 0, 0, 0, 0, 0, 0, 0, 0, 0, 0, 0, 0], "stateRewards": ["", 1, 1, 1, -3, -7, -1, -41, -10, 20, -72, -63, 1, -4, -2, 2, -66, 30, -84, -2, 49, 23, 71, -1, -4, 4, -12, 67, 5, 18, -16, 88, 56, -5], "withholdReward": false, "trial_id": "mdp_trial_25", "block": "test", "trialIndex": 26, "score": 10.4, "costs": -5.6, "simulationMode": [null, null, null, null, null], "rewards": [1, -4, -2, -2, 23], "path": ["0", "0", "12", "13", "14", "19", "21"], "rt": [12095, 144, 207, 192, 775], "actions": ["right", "right", "right", "down", "down"], "actionTimes": [13951, 14651, 15388, 16109, 17460], "queries": {"click": {"state": {"target": ["9", "5", "6", "21"], "time": [3468, 6213, 8587, 11215]}, "edge": {"target": [], "time": []}}, "mouseover": {"state": {"target": ["7", "3", "9", "2", "1", "7", "4", "5", "6", "14", "19", "20", "21"], "time": [2883, 2952, 3264, 3654, 3716, 5648, 5730, 5981, 6500, 9292, 9396, 9495, 10996]}, "edge": {"target": [], "time": []}}, "mouseout": {"state": {"target": ["0", "7", "3", "9", "2", "1", "7", "4", "5", "5", "6", "14", "19", "20", "21"], "time": [2798, 2932, 2980, 3599, 3685, 3745, 5669, 5848, 6286, 6392, 8790, 9363, 9431, 9566, 11381]}, "edge": {"target": [], "time": []}}}, "displayed_time": "18.00", "trialTime": 18956, "trial_type": "mouselab-mdp", "trial_index": 33, "time_elapsed": 743089, "internal_node_id": "0.0-4.0-1.0-24.0"}}, {"uniqueid": "w58899451:a32660917", "current_trial": 34, "dateTime": 1691142958965, "trialdata": {"revealed_states": [], "clicked_states": ["33", "21", "16", "5", "9"], "num_clicks_accrued": [0, 0, 0, 0, 0, 0, 0, 0, 0, 0, 0, 0, 0], "stateRewards": ["", -1, -3, -5, -14, -13, -47, 79, 8, -60, -64, 41, -1, 2, 3, 13, -46, 61, -79, -11, -64, -65, 23, 1, -2, 6, -14, 46, 32, 21, 7, 75, -66, 15], "withholdReward": false, "trial_id": "mdp_trial_26", "block": "test", "trialIndex": 27, "score": 20, "costs": -7, "simulationMode": [null, null, null, null, null], "rewards": [1, -2, 6, 7, 15], "path": ["0", "0", "23", "24", "25", "30", "33"], "rt": [15303, 218, 216, 209, 109], "actions": ["left", "left", "left", "down", "left"], "actionTimes": [18438, 19194, 19978, 20725, 21373], "queries": {"click": {"state": {"target": ["33", "21", "16", "5", "9"], "time": [4916, 7569, 10005, 12478, 15153]}, "edge": {"target": [], "time": []}}, "mouseover": {"state": {"target": ["20", "19", "22", "30", "33", "31", "21", "21", "17", "16", "4", "5", "9", "8", "10", "32", "30", "23", "0"], "time": [4083, 4122, 4169, 4444, 4644, 5113, 6998, 7311, 9563, 9811, 11995, 12295, 13393, 15460, 15598, 17243, 17496, 17811, 17945]}, "edge": {"target": [], "time": []}}, "mouseout": {"state": {"target": ["19", "13", "12", "20", "19", "22", "30", "33", "31", "21", "21", "17", "16", "4", "5", "9", "8", "10", "32", "30", "23", "0"], "time": [1111, 1177, 1194, 4115, 4159, 4203, 4478, 5002, 5145, 7027, 7728, 9614, 11931, 12016, 12777, 15377, 15567, 15655, 17448, 17529, 17878, 22945]}, "edge": {"target": [], "time": []}}}, "displayed_time": "21.91", "trialTime": 24172, "trial_type": "mouselab-mdp", "trial_index": 34, "time_elapsed": 768962, "internal_node_id": "0.0-4.0-1.0-25.0"}}, {"uniqueid": "w58899451:a32660917", "current_trial": 35, "dateTime": 1691142982172, "trialdata": {"revealed_states": [], "clicked_states": ["9", "6", "16"], "num_clicks_accrued": [0, 0, 0, 0, 0, 0, 0, 0, 0, 0, 0, 0, 0], "stateRewards": ["", -2, -3, 4, 1, 33, -53, 15, 9, -12, 61, -6, -2, 4, 6, -11, 47, -43, -7, -11, 46, 23, -28, -1, -1, 3, -10, 11, 76, -76, 10, 18, -38, 87], "withholdReward": false, "trial_id": "mdp_trial_27", "block": "test", "trialIndex": 28, "score": 39.8, "costs": -4.199999999999999, "simulationMode": [null, null, null, null, null], "rewards": [-2, 4, 6, -11, 47], "path": ["0", "0", "12", "13", "14", "15", "16"], "rt": [9200, 28, 567, 220, 79], "actions": ["right", "right", "right", "up", "up"], "actionTimes": [11598, 12154, 13245, 14005, 14596], "queries": {"click": {"state": {"target": ["9", "6", "16"], "time": [3402, 6324, 8721]}, "edge": {"target": [], "time": []}}, "mouseover": {"state": {"target": ["1", "8", "9", "3", "7", "6", "5", "6", "16", "17", "16", "17", "17"], "time": [2930, 3001, 3179, 3581, 3738, 4669, 5755, 5997, 6580, 8246, 8529, 8908, 9776]}, "edge": {"target": [], "time": []}}, "mouseout": {"state": {"target": ["19", "22", "0", "1", "8", "9", "3", "7", "6", "5", "6", "16", "17", "16", "16", "17", "17"], "time": [580, 632, 2431, 2952, 3081, 3541, 3613, 4405, 5315, 5930, 6547, 6643, 8429, 8833, 8874, 9581, 10897]}, "edge": {"target": [], "time": []}}}, "displayed_time": "16.40", "trialTime": 21403, "trial_type": "mouselab-mdp", "trial_index": 35, "time_elapsed": 792172, "internal_node_id": "0.0-4.0-1.0-26.0"}}, {"uniqueid": "w58899451:a32660917", "current_trial": 36, "dateTime": 1691143004616, "trialdata": {"revealed_states": [], "clicked_states": ["9", "29"], "num_clicks_accrued": [0, 0, 0, 0, 0, 0, 0, 0, 0, 0, 0, 0, 0], "stateRewards": ["", 1, -3, 4, 13, -72, 52, 5, 5, -58, 5, 14, 2, 1, 3, -14, -86, -4, 73, 6, -58, -50, 49, 2, -3, -4, 2, 33, -41, 42, -11, 81, 45, 53], "withholdReward": false, "trial_id": "mdp_trial_28", "block": "test", "trialIndex": 29, "score": 36.2, "costs": -2.8, "simulationMode": [null, null, null, null, null], "rewards": [2, -3, -4, 2, 42], "path": ["0", "0", "23", "24", "25", "26", "29"], "rt": [7407, 290, 111, 260, 142], "actions": ["left", "left", "left", "up", "left"], "actionTimes": [10946, 11759, 12397, 13184, 13847], "queries": {"click": {"state": {"target": ["9", "29"], "time": [4864, 7815]}, "edge": {"target": [], "time": []}}, "mouseover": {"state": {"target": ["2", "3", "9", "2", "1", "0", "7", "25", "29", "25", "30", "33", "25", "24", "23"], "time": [4362, 4473, 4624, 5043, 5105, 5341, 7074, 7188, 7390, 8043, 8368, 9763, 10011, 10040, 10090]}, "edge": {"target": [], "time": []}}, "mouseout": {"state": {"target": ["18", "1", "0", "12", "0", "23", "2", "3", "9", "2", "1", "0", "7", "25", "29", "25", "30", "33", "25", "24"], "time": [1555, 1590, 1804, 1971, 2006, 2155, 4392, 4507, 4982, 5075, 5209, 5396, 7095, 7211, 8009, 8075, 8536, 9957, 10031, 10084]}, "edge": {"target": [], "time": []}}}, "displayed_time": "17.54", "trialTime": 20541, "trial_type": "mouselab-mdp", "trial_index": 36, "time_elapsed": 814615, "internal_node_id": "0.0-4.0-1.0-27.0"}}, {"uniqueid": "w58899451:a32660917", "current_trial": 37, "dateTime": 1691143025349, "trialdata": {"revealed_states": [], "clicked_states": ["9"], "num_clicks_accrued": [0, 0, 0, 0, 0, 0, 0, 0, 0, 0, 0, 0, 0], "stateRewards": ["", -2, 2, 3, -7, 76, 63, 21, 15, 35, -8, -44, 1, 1, -2, -12, 23, 24, 76, -9, 46, 66, -49, -2, -1, 7, 12, 40, -71, -45, -6, 38, -49, 46], "withholdReward": false, "trial_id": "mdp_trial_29", "block": "test", "trialIndex": 30, "score": 51.6, "costs": -1.4, "simulationMode": [null, null, null, null, null], "rewards": [-2, 2, 3, 15, 35], "path": ["0", "0", "1", "2", "3", "8", "9"], "rt": [3901, 67, 8, 558, 229], "actions": ["up", "up", "up", "left", "up"], "actionTimes": [6874, 7471, 8013, 9127, 9871], "queries": {"click": {"state": {"target": ["9"], "time": [4212]}, "edge": {"target": [], "time": []}}, "mouseover": {"state": {"target": ["1", "2", "9"], "time": [3788, 3827, 3988]}, "edge": {"target": [], "time": []}}, "mouseout": {"state": {"target": ["0", "1", "2", "9", "22"], "time": [954, 3821, 3858, 4391, 18172]}, "edge": {"target": [], "time": []}}}, "displayed_time": "16.97", "trialTime": 18408, "trial_type": "mouselab-mdp", "trial_index": 37, "time_elapsed": 835350, "internal_node_id": "0.0-4.0-1.0-28.0"}}, {"uniqueid": "w58899451:a32660917", "current_trial": 38, "dateTime": 1691143044562, "trialdata": {"revealed_states": [], "clicked_states": ["5"], "num_clicks_accrued": [0, 0, 0, 0, 0, 0, 0, 0, 0, 0, 0, 0, 0], "stateRewards": ["", -1, 4, -3, 3, 57, -61, 5, -11, 23, -1, 34, -2, -4, -1, -13, 27, 38, -36, 4, -45, 21, 88, 1, -2, -1, 1, -69, -5, -78, -12, -9, 38, -54], "withholdReward": false, "trial_id": "mdp_trial_30", "block": "test", "trialIndex": 31, "score": 58.6, "costs": -1.4, "simulationMode": [null, null, null, null, null], "rewards": [-1, 4, -3, 3, 57], "path": ["0", "0", "1", "2", "3", "4", "5"], "rt": [3819, 143, 162, 186, 153], "actions": ["up", "up", "up", "right", "up"], "actionTimes": [5900, 6580, 7267, 8010, 8723], "queries": {"click": {"state": {"target": ["5"], "time": [3237]}, "edge": {"target": [], "time": []}}, "mouseover": {"state": {"target": ["18", "6", "5", "17"], "time": [2110, 2717, 2868, 3440]}, "edge": {"target": [], "time": []}}, "mouseout": {"state": {"target": ["0", "18", "6", "5", "17"], "time": [2105, 2573, 2770, 3397, 3485]}, "edge": {"target": [], "time": []}}}, "displayed_time": "16.08", "trialTime": 16865, "trial_type": "mouselab-mdp", "trial_index": 38, "time_elapsed": 854561, "internal_node_id": "0.0-4.0-1.0-29.0"}}, {"uniqueid": "w58899451:a32660917", "current_trial": 39, "dateTime": 1691143066295, "trialdata": {"revealed_states": [], "clicked_states": ["9", "29", "33"], "num_clicks_accrued": [0, 0, 0, 0, 0, 0, 0, 0, 0, 0, 0, 0, 0], "stateRewards": ["", 2, 4, -3, 16, -58, 30, -35, 11, -60, 47, 27, -2, -1, -7, -16, 23, -70, 68, -10, -65, -43, -34, -2, 1, 7, 9, -63, 34, -31, -8, -12, -86, 59], "withholdReward": false, "trial_id": "mdp_trial_31", "block": "test", "trialIndex": 32, "score": 52.8, "costs": -4.199999999999999, "simulationMode": [null, null, null, null, null], "rewards": [-2, 1, 7, -8, 59], "path": ["0", "0", "23", "24", "25", "30", "33"], "rt": [8985, 229, 173, 193, 269], "actions": ["left", "left", "left", "down", "left"], "actionTimes": [11168, 11966, 12677, 13389, 14182], "queries": {"click": {"state": {"target": ["9", "29", "33"], "time": [3232, 5849, 8173]}, "edge": {"target": [], "time": []}}, "mouseover": {"state": {"target": ["13", "1", "8", "9", "29", "26", "25", "30", "33", "32"], "time": [2217, 2703, 2919, 3070, 5704, 6028, 6487, 7108, 7364, 8737]}, "edge": {"target": [], "time": []}}, "mouseout": {"state": {"target": ["20", "19", "12", "0", "13", "1", "8", "9", "29", "26", "25", "30", "33", "32"], "time": [604, 638, 703, 989, 2621, 2736, 2970, 3387, 5998, 6058, 6561, 7278, 8294, 10236]}, "edge": {"target": [], "time": []}}}, "displayed_time": "16.18", "trialTime": 19667, "trial_type": "mouselab-mdp", "trial_index": 39, "time_elapsed": 876295, "internal_node_id": "0.0-4.0-1.0-30.0"}}, {"uniqueid": "w58899451:a32660917", "current_trial": 40, "dateTime": 1691143097467, "trialdata": {"revealed_states": [], "clicked_states": ["5", "9", "11", "27", "29", "33", "32", "31"], "num_clicks_accrued": [0, 0, 0, 0, 0, 0, 0, 0, 0, 0, 0, 0, 0], "stateRewards": ["", -2, -4, 4, -11, -63, -60, -7, 2, -14, 81, -43, -1, -1, -5, 7, 10, 69, 40, 8, -83, 52, 60, 1, 2, 5, -5, 16, 64, 14, -3, 29, 7, -51], "withholdReward": false, "trial_id": "mdp_trial_32", "block": "test", "trialIndex": 33, "score": 22.799999999999997, "costs": -11.200000000000001, "simulationMode": [null, null, null, null, null], "rewards": [1, 2, 5, -3, 29], "path": ["0", "0", "23", "24", "25", "30", "31"], "rt": [19581, 190, 537, 341, 239], "actions": ["left", "left", "left", "down", "right"], "actionTimes": [23226, 23962, 25026, 25898, 26666], "queries": {"click": {"state": {"target": ["5", "9", "11", "27", "29", "33", "32", "31"], "time": [4942, 7342, 9512, 11475, 13601, 15697, 17864, 19967]}, "edge": {"target": [], "time": []}}, "mouseover": {"state": {"target": ["0", "7", "4", "5", "18", "13", "7", "3", "9", "8", "11", "27", "29", "33", "32", "22", "31", "22"], "time": [3767, 4491, 4549, 4723, 5143, 5748, 6012, 6440, 7058, 7547, 8822, 10047, 11857, 14262, 15943, 18715, 19216, 20439]}, "edge": {"target": [], "time": []}}, "mouseout": {"state": {"target": ["0", "0", "7", "4", "5", "18", "13", "7", "3", "9", "8", "11", "27", "27", "29", "33", "32", "22", "31", "22", "14"], "time": [1123, 3910, 4525, 4641, 5056, 5173, 5778, 6171, 7008, 7505, 7582, 9687, 11578, 11683, 13831, 15838, 18014, 18997, 20063, 22261, 28608]}, "edge": {"target": [], "time": []}}}, "displayed_time": "27.20", "trialTime": 28945, "trial_type": "mouselab-mdp", "trial_index": 40, "time_elapsed": 907467, "internal_node_id": "0.0-4.0-1.0-31.0"}}, {"uniqueid": "w58899451:a32660917", "current_trial": 41, "dateTime": 1691143118137, "trialdata": {"revealed_states": [], "clicked_states": ["9", "5", "6", "16"], "num_clicks_accrued": [0, 0, 0, 0, 0, 0, 0, 0, 0, 0, 0, 0, 0], "stateRewards": ["", 2, 4, 4, -8, -36, -33, 38, 16, -51, 57, 57, 1, 3, 4, -6, 45, 68, 87, 1, 63, 24, -55, -2, 2, -6, -13, -63, -50, 8, 2, 80, 6, 60], "withholdReward": false, "trial_id": "mdp_trial_33", "block": "test", "trialIndex": 34, "score": 41.4, "costs": -5.6, "simulationMode": [null, null, null, null, null], "rewards": [1, 3, 4, -6, 45], "path": ["0", "0", "12", "13", "14", "15", "16"], "rt": [11016, 313, 230, 175, 475], "actions": ["right", "right", "right", "up", "up"], "actionTimes": [12654, 13511, 14280, 14993, 16015], "queries": {"click": {"state": {"target": ["9", "5", "6", "16"], "time": [2910, 4937, 6960, 9429]}, "edge": {"target": [], "time": []}}, "mouseover": {"state": {"target": ["1", "2", "3", "9", "6", "5", "6", "7", "16", "16", "17", "17", "18"], "time": [2226, 2341, 2444, 2642, 3147, 3392, 5284, 7971, 9009, 9242, 9854, 10523, 11326]}, "edge": {"target": [], "time": []}}, "mouseout": {"state": {"target": ["0", "1", "2", "3", "9", "6", "5", "6", "7", "16", "16", "17", "17", "18"], "time": [2159, 2276, 2409, 2476, 3134, 3261, 5107, 7211, 8926, 9032, 9629, 10138, 10685, 11859]}, "edge": {"target": [], "time": []}}}, "displayed_time": "16.55", "trialTime": 17448, "trial_type": "mouselab-mdp", "trial_index": 41, "time_elapsed": 928136, "internal_node_id": "0.0-4.0-1.0-32.0"}}, {"uniqueid": "w58899451:a32660917", "current_trial": 42, "dateTime": 1691143138107, "trialdata": {"revealed_states": [], "clicked_states": ["9"], "num_clicks_accrued": [0, 0, 0, 0, 0, 0, 0, 0, 0, 0, 0, 0, 0], "stateRewards": ["", -2, -3, 8, -4, -30, 31, 69, 9, 66, 87, 64, -2, 2, 8, 5, 47, 16, -39, -8, -54, 51, -19, 1, -2, -2, -11, -25, -26, 43, -9, 19, -84, 86], "withholdReward": false, "trial_id": "mdp_trial_34", "block": "test", "trialIndex": 35, "score": 76.6, "costs": -1.4, "simulationMode": [null, null, null, null, null], "rewards": [-2, -3, 8, 9, 66], "path": ["0", "0", "1", "2", "3", "8", "9"], "rt": [4128, 213, 42, 276, 317], "actions": ["up", "up", "up", "left", "up"], "actionTimes": [7108, 7868, 8474, 9291, 10299], "queries": {"click": {"state": {"target": ["9"], "time": [4070]}, "edge": {"target": [], "time": []}}, "mouseover": {"state": {"target": ["12", "1", "7", "3", "9", "4", "3", "11", "2"], "time": [3023, 3532, 3569, 3681, 3865, 4457, 4983, 6133, 6382]}, "edge": {"target": [], "time": []}}, "mouseout": {"state": {"target": ["17", "15", "12", "0", "12", "1", "7", "3", "9", "4", "3", "11", "2", "0"], "time": [698, 731, 981, 1031, 3333, 3563, 3600, 3782, 4150, 4951, 5441, 6299, 17865, 17917]}, "edge": {"target": [], "time": []}}}, "displayed_time": "16.98", "trialTime": 18158, "trial_type": "mouselab-mdp", "trial_index": 42, "time_elapsed": 948106, "internal_node_id": "0.0-4.0-1.0-33.0"}}, {"uniqueid": "w58899451:a32660917", "current_trial": 43, "dateTime": 1691143157410, "trialdata": {"revealed_states": [], "clicked_states": ["5", "17"], "num_clicks_accrued": [0, 0, 0, 0, 0, 0, 0, 0, 0, 0, 0, 0, 0], "stateRewards": ["", -1, 4, -8, 12, 14, 69, -8, 5, -72, -14, 56, -1, -1, -1, 9, 67, 19, 11, -9, -88, -58, 3, 2, -4, -8, 4, 62, 77, -74, 5, -31, 65, 88], "withholdReward": false, "trial_id": "mdp_trial_35", "block": "test", "trialIndex": 36, "score": 22.2, "costs": -2.8, "simulationMode": [null, null, null, null, null], "rewards": [-1, -1, -1, 9, 19], "path": ["0", "0", "12", "13", "14", "15", "17"], "rt": [7675, 216, 360, 185, 94], "actions": ["right", "right", "right", "up", "right"], "actionTimes": [10134, 10875, 11763, 12475, 13115], "queries": {"click": {"state": {"target": ["5", "17"], "time": [3740, 6476]}, "edge": {"target": [], "time": []}}, "mouseover": {"state": {"target": ["18", "6", "5", "4", "16", "17", "17"], "time": [2577, 3266, 3577, 4020, 4339, 5887, 6215]}, "edge": {"target": [], "time": []}}, "mouseout": {"state": {"target": ["0", "18", "6", "5", "4", "16", "17"], "time": [1126, 2779, 3307, 3907, 4083, 4577, 5928]}, "edge": {"target": [], "time": []}}}, "displayed_time": "16.46", "trialTime": 17242, "trial_type": "mouselab-mdp", "trial_index": 43, "time_elapsed": 967410, "internal_node_id": "0.0-4.0-1.0-34.0"}}, {"uniqueid": "w58899451:a32660917", "current_trial": 44, "dateTime": 1691143180159, "trialdata": {"revealed_states": [], "clicked_states": ["9", "27"], "num_clicks_accrued": [0, 0, 0, 0, 0, 0, 0, 0, 0, 0, 0, 0, 0], "stateRewards": ["", -1, 1, 3, -8, -23, -15, -14, -11, -23, 58, 68, 1, 3, 5, 12, -17, -41, -7, -10, -4, 82, 10, 1, 4, -4, 11, 73, 55, -55, -1, -86, -86, 54], "withholdReward": false, "trial_id": "mdp_trial_36", "block": "test", "trialIndex": 37, "score": 82.2, "costs": -2.8, "simulationMode": [null, null, null, null, null], "rewards": [1, 4, -4, 11, 73], "path": ["0", "0", "23", "24", "25", "26", "27"], "rt": [7617, 9, 250, 180, 84], "actions": ["left", "left", "left", "up", "up"], "actionTimes": [10765, 11299, 12091, 12812, 13437], "queries": {"click": {"state": {"target": ["9", "27"], "time": [4548, 7590]}, "edge": {"target": [], "time": []}}, "mouseover": {"state": {"target": ["12", "1", "2", "9", "2", "7", "7", "2", "10", "26", "29", "27", "29", "1"], "time": [3398, 3782, 3849, 4280, 4909, 5711, 6264, 6365, 6498, 6680, 6848, 7364, 8065, 9884]}, "edge": {"target": [], "time": []}}, "mouseout": {"state": {"target": ["17", "14", "13", "0", "12", "1", "2", "9", "2", "7", "7", "2", "10", "26", "29", "27", "29", "1", "0", "21"], "time": [1317, 1397, 1600, 1846, 3698, 3815, 3914, 4744, 4940, 5934, 6315, 6464, 6549, 6815, 7131, 7815, 9684, 9917, 18083, 18814]}, "edge": {"target": [], "time": []}}}, "displayed_time": "17.15", "trialTime": 20594, "trial_type": "mouselab-mdp", "trial_index": 44, "time_elapsed": 990159, "internal_node_id": "0.0-4.0-1.0-35.0"}}, {"uniqueid": "w58899451:a32660917", "current_trial": 45, "dateTime": 1691143205796, "trialdata": {"revealed_states": [], "clicked_states": ["17", "20", "22", "31", "29", "9"], "num_clicks_accrued": [0, 0, 0, 0, 0, 0, 0, 0, 0, 0, 0, 0, 0], "stateRewards": ["", 2, -4, -4, 13, -80, 62, 13, -11, 57, -13, -44, 1, 4, 3, -4, -29, -88, 15, 16, -58, 68, -45, -1, -3, -1, -9, -44, -86, -19, -7, -36, 59, 66], "withholdReward": false, "trial_id": "mdp_trial_37", "block": "test", "trialIndex": 38, "score": 31.6, "costs": -8.4, "simulationMode": [null, null, null, null, null], "rewards": [2, -4, -4, -11, 57], "path": ["0", "0", "1", "2", "3", "8", "9"], "rt": [16414, 10, 24, 229, 172], "actions": ["up", "up", "up", "left", "up"], "actionTimes": [19083, 19642, 20209, 20969, 21674], "queries": {"click": {"state": {"target": ["17", "20", "22", "31", "29", "9"], "time": [3993, 6344, 8792, 11140, 13614, 16002]}, "edge": {"target": [], "time": []}}, "mouseover": {"state": {"target": ["14", "17", "20", "21", "22", "31", "30", "33", "29", "26", "28", "2", "8", "9", "9"], "time": [3290, 3651, 4774, 6737, 8317, 10906, 11803, 12034, 13385, 13792, 13832, 14025, 14714, 15583, 15765]}, "edge": {"target": [], "time": []}}, "mouseout": {"state": {"target": ["14", "0", "14", "17", "20", "21", "22", "31", "30", "33", "29", "26", "28", "2", "8", "9", "9"], "time": [570, 915, 3551, 4314, 6618, 7147, 9130, 11731, 11995, 13267, 13682, 13824, 13863, 14098, 14989, 15618, 16218]}, "edge": {"target": [], "time": []}}}, "displayed_time": "22.21", "trialTime": 23433, "trial_type": "mouselab-mdp", "trial_index": 45, "time_elapsed": 1015795, "internal_node_id": "0.0-4.0-1.0-36.0"}}, {"uniqueid": "w58899451:a32660917", "current_trial": 46, "dateTime": 1691143236600, "trialdata": {"revealed_states": [], "clicked_states": ["9", "27", "33", "22", "17", "5", "6"], "num_clicks_accrued": [0, 0, 0, 0, 0, 0, 0, 0, 0, 0, 0, 0, 0], "stateRewards": ["", 1, 1, 1, 15, -76, 52, -32, 14, -57, 37, 49, 1, -4, -3, 6, 83, -76, 25, 9, 36, -1, -17, -1, 4, 4, -2, -22, -21, 58, -15, -57, 49, -24], "withholdReward": false, "trial_id": "mdp_trial_38", "block": "test", "trialIndex": 39, "score": 60.2, "costs": -9.8, "simulationMode": [null, null, null, null, null], "rewards": [1, 1, 1, 15, 52], "path": ["0", "0", "1", "2", "3", "4", "6"], "rt": [21265, 186, 133, 183, 73], "actions": ["up", "up", "up", "right", "right"], "actionTimes": [22882, 23594, 24251, 24978, 25584], "queries": {"click": {"state": {"target": ["9", "27", "33", "22", "17", "5", "6"], "time": [3630, 6279, 9677, 12489, 14806, 17187, 19694]}, "edge": {"target": [], "time": []}}, "mouseover": {"state": {"target": ["0", "1", "2", "3", "8", "9", "8", "2", "27", "26", "27", "26", "29", "33", "33", "30", "31", "22", "22", "19", "20", "17", "16", "6", "5", "6", "6", "16"], "time": [1649, 2481, 2554, 2765, 3232, 3382, 4113, 4394, 5653, 5933, 6083, 6517, 8282, 8865, 9412, 9931, 10020, 12083, 12282, 12739, 13605, 14482, 16410, 16761, 16950, 17418, 19500, 20469]}, "edge": {"target": [], "time": []}}, "mouseout": {"state": {"target": ["0", "0", "1", "2", "3", "8", "9", "8", "2", "27", "26", "27", "26", "29", "33", "33", "33", "30", "31", "22", "22", "19", "20", "17", "16", "6", "5", "6", "6"], "time": [299, 2441, 2533, 2593, 3115, 3265, 3786, 4362, 4987, 5684, 6031, 6477, 6752, 8584, 8988, 9773, 9899, 9988, 10058, 12112, 12697, 13473, 14366, 14872, 16436, 16813, 17361, 17554, 19934]}, "edge": {"target": [], "time": []}}}, "displayed_time": "26.15", "trialTime": 28353, "trial_type": "mouselab-mdp", "trial_index": 46, "time_elapsed": 1046600, "internal_node_id": "0.0-4.0-1.0-37.0"}}, {"uniqueid": "w58899451:a32660917", "current_trial": 47, "dateTime": 1691143257746, "trialdata": {"revealed_states": [], "clicked_states": ["9", "11"], "num_clicks_accrued": [0, 0, 0, 0, 0, 0, 0, 0, 0, 0, 0, 0, 0], "stateRewards": ["", 2, -2, 7, -11, -76, -65, -23, 16, -58, 30, 81, 1, 2, 7, 14, 9, 55, -2, 6, 11, -15, 31, -1, -1, -3, 2, 15, 2, 46, 15, 18, 45, -34], "withholdReward": false, "trial_id": "mdp_trial_39", "block": "test", "trialIndex": 40, "score": 101.2, "costs": -2.8, "simulationMode": [null, null, null, null, null], "rewards": [2, -2, 7, 16, 81], "path": ["0", "0", "1", "2", "3", "8", "11"], "rt": [6325, 141, 294, 201, 141], "actions": ["up", "up", "up", "left", "left"], "actionTimes": [9587, 10249, 11111, 11849, 12521], "queries": {"click": {"state": {"target": ["9", "11"], "time": [4305, 6651]}, "edge": {"target": [], "time": []}}, "mouseover": {"state": {"target": ["1", "2", "8", "9", "11", "10", "10", "2", "7", "2", "10", "27", "27", "10"], "time": [3332, 3786, 3935, 4135, 6431, 6858, 7299, 7466, 7821, 7966, 8079, 8318, 8635, 8885]}, "edge": {"target": [], "time": []}}, "mouseout": {"state": {"target": ["16", "1", "0", "1", "2", "8", "9", "11", "10", "10", "2", "7", "2", "10", "27", "27", "10", "29"], "time": [1520, 1716, 1950, 3734, 3819, 4035, 4469, 6824, 7091, 7457, 7502, 7860, 8038, 8118, 8435, 8669, 18606, 18703]}, "edge": {"target": [], "time": []}}}, "displayed_time": "17.27", "trialTime": 19102, "trial_type": "mouselab-mdp", "trial_index": 47, "time_elapsed": 1067746, "internal_node_id": "0.0-4.0-1.0-38.0"}}, {"uniqueid": "w58899451:a32660917", "current_trial": 48, "dateTime": 1691143278795, "trialdata": {"revealed_states": [], "clicked_states": ["5"], "num_clicks_accrued": [0, 0, 0, 0, 0, 0, 0, 0, 0, 0, 0, 0, 0], "stateRewards": ["", -1, 3, 1, -7, 56, 76, 57, 3, 11, -9, 14, 1, -2, 2, 8, -77, -3, 79, -5, 88, 24, -66, -2, -1, 7, -7, -30, 14, -76, 11, -36, 28, -6], "withholdReward": false, "trial_id": "mdp_trial_40", "block": "test", "trialIndex": 41, "score": 50.6, "costs": -1.4, "simulationMode": [null, null, null, null, null], "rewards": [-1, 3, 1, -7, 56], "path": ["0", "0", "1", "2", "3", "4", "5"], "rt": [3567, 10, 81, 97, 172], "actions": ["up", "up", "up", "right", "up"], "actionTimes": [5990, 6527, 7220, 7859, 8557], "queries": {"click": {"state": {"target": ["5"], "time": [3300]}, "edge": {"target": [], "time": []}}, "mouseover": {"state": {"target": ["5", "6"], "time": [3060, 3554]}, "edge": {"target": [], "time": []}}, "mouseout": {"state": {"target": ["18", "0", "5", "5", "6"], "time": [557, 2450, 3405, 3515, 3742]}, "edge": {"target": [], "time": []}}}, "displayed_time": "16.43", "trialTime": 18307, "trial_type": "mouselab-mdp", "trial_index": 48, "time_elapsed": 1088795, "internal_node_id": "0.0-4.0-1.0-39.0"}}, {"uniqueid": "w58899451:a32660917", "current_trial": 49, "dateTime": 1691143324767, "trialdata": {"rt": 45855, "response": {"Q0": "$-2 to $2", "Q1": "$-4 to $4", "Q2": "$-88 to $88", "Q3": "The cost was always $1.4.", "Q4": "Very motivated"}, "question_order": [0, 1, 2, 3, 4], "trial_id": "final_quiz_control", "trial_type": "survey-multi-choice", "trial_index": 49, "time_elapsed": 1134767, "internal_node_id": "0.0-4.0-2.0"}}, {"uniqueid": "w58899451:a32660917", "current_trial": 50, "dateTime": 1691143403655, "trialdata": {"rt": 78594, "response": {"Q0": "I went to the last node, and found one that was green. If it was a low green amount, I might check one more to see if I could get a higher amount", "Q1": "At first I was clicking on nodes close to the centre. Quickly realised that didn't matter, so went straight to the last node to see what that was worth", "Q2": "it was fine"}, "trial_id": "self_report_control", "trial_type": "survey-text", "trial_index": 50, "time_elapsed": 1213656, "internal_node_id": "0.0-4.0-3.0"}}, {"uniqueid": "w58899451:a32660917", "current_trial": 51, "dateTime": 1691143417926, "trialdata": {"rt": 14243, "response": {"gender": "female", "age": "49", "colorblind": "0", "effort": "0"}, "trial_type": "survey-html-form", "trial_index": 51, "time_elapsed": 1227927, "internal_node_id": "0.0-4.0-4.0"}}, {"uniqueid": "w58899451:a32660917", "current_trial": 52, "dateTime": 1691143429294, "trialdata": {"rt": 11340, "response": {"Q0": "no", "Q1": "no", "Q2": "none"}, "trial_type": "survey-text", "trial_index": 52, "time_elapsed": 1239295, "internal_node_id": "0.0-4.0-5.0"}}, {"uniqueid": "w58899451:a32660917", "current_trial": 53, "dateTime": 1691143432205, "trialdata": {"rt": 2868, "stimulus": "Press 'Finish HIT' in order to reach the completion code. Once the data has been saved, you will receive the code either in this window or in the original browser window where you started the experiment.\n", "response": 0, "trial_type": "html-button-response", "trial_index": 53, "time_elapsed": 1242206, "internal_node_id": "0.0-5.0"}}, {"uniqueid": "w58899451:a32660917", "current_trial": 54, "dateTime": 1691143433243, "trialdata": {"success": true, "trial_type": "fullscreen", "trial_index": 54, "time_elapsed": 1243244, "internal_node_id": "0.0-6.0"}}], "questiondata": {"params": {"CODE": "C6DMOQA6", "MIN_TIME": 14, "inspectCost": 1, "startTime": "Fri Aug 04 2023 10:43:08 GMT+0100 (British Summer Time)", "bonusRate": 0.002, "variance": "1_2_4_8_44", "branching": "31123"}, "final_score": 1654.6}, "eventdata": [{"eventtype": "initialized", "value": null, "timestamp": 1691142187807, "interval": 0}, {"eventtype": "window_resize", "value": [1536, 786], "timestamp": 1691142187807, "interval": 0}, {"eventtype": "window_resize", "value": [1536, 786], "timestamp": 1691142188171, "interval": 364}, {"eventtype": "window_resize", "value": [1536, 864], "timestamp": 1691142193244, "interval": 5073}], "useragent": "Mozilla/5.0 (Windows NT 10.0; Win64; x64) AppleWebKit/537.36 (KHTML, like Gecko) Chrome/115.0.0.0 Safari/537.36", "mode": "live", "id": "w58899451:a32660917", "status": "user data saved", "Beginhit": "2023-08-04 09:43:07.265032", "Beginexp": "2023-08-04 09:43:15.386307", "Endhit": "2023-08-04 10:03:56.10983", "psiturkStatus": 3, "browser": "<redacted>", "platform": "windows", "language": "en-GB"}